#time,accel_x,accel_y,accel_z
539.877356,0.000000,-8660.409521,306.438199
539.877684,-296.082377,-9252.574275,612.876398
539.878011,-296.082377,-9104.533087,536.266849
539.878339,-296.082377,-8882.471304,766.095498
539.878667,0.000000,-9178.553681,536.266849
539.878995,0.000000,-9104.533087,612.876398
539.879323,-222.061783,-9104.533087,536.266849
539.879650,-296.082377,-9178.553681,536.266849
539.879978,-370.102971,-9104.533087,383.047749
539.880306,-296.082377,-9178.553681,459.657299
539.880634,0.000000,-9326.594869,766.095498
539.880961,-222.061783,-8956.491898,766.095498
539.881289,-296.082377,-9030.512492,536.266849
539.881617,-222.061783,-9104.533087,612.876398
539.881945,-444.123565,-9178.553681,536.266849
539.882272,-370.102971,-9030.512492,536.266849
539.882600,-444.123565,-9104.533087,1149.143247
539.882928,-370.102971,-8956.491898,459.657299
539.883256,-222.061783,-9030.512492,536.266849
539.883583,-444.123565,-9104.533087,612.876398
539.883911,74.020594,-9252.574275,612.876398
539.884239,0.000000,-8956.491898,689.485948
539.884567,0.000000,-9104.533087,766.095498
539.884894,-148.041188,-9104.533087,536.266849
539.885222,-296.082377,-9104.533087,612.876398
539.885550,-296.082377,-9178.553681,612.876398
539.885878,-370.102971,-8586.388927,766.095498
539.886206,0.000000,-9252.574275,689.485948
539.886533,-518.144159,-9252.574275,536.266849
539.886861,-1036.288319,-9326.594869,-229.828649
539.887189,-1406.391290,-9474.636058,-153.219100
539.887517,-1184.329507,-9622.677246,0.000000
539.887844,-1258.350101,-8660.409521,0.000000
539.888172,-666.185348,-9030.512492,-383.047749
539.888500,-666.185348,-9104.533087,-229.828649
539.888828,-1110.308913,-9252.574275,-689.485948
539.889155,-888.247130,-9474.636058,-1378.971896
539.889483,-1184.329507,-8882.471304,-1225.752797
539.889811,-1184.329507,-9030.512492,-1302.362347
539.890139,-740.205942,-9030.512492,-1302.362347
539.890466,-296.082377,-9178.553681,-1302.362347
539.890794,0.000000,-9030.512492,-1149.143247
539.891122,0.000000,-8882.471304,-842.705048
539.891450,0.000000,-9178.553681,-1532.190996
539.891778,0.000000,-9474.636058,-1532.190996
539.892105,0.000000,-9326.594869,-1915.238745
539.892433,296.082377,-9178.553681,-1685.410096
539.892761,370.102971,-9030.512492,-1455.581446
539.893089,592.164754,-9252.574275,-1378.971896
539.893416,148.041188,-9178.553681,-1608.800546
539.893744,370.102971,-9252.574275,-1915.238745
539.894072,296.082377,-9252.574275,-1838.629195
539.894400,518.144159,-9400.615463,-1915.238745
539.894727,0.000000,-8956.491898,-1685.410096
539.895055,74.020594,-9178.553681,-1915.238745
539.895383,444.123565,-9030.512492,-1915.238745
539.895711,148.041188,-9252.574275,-1838.629195
539.896038,74.020594,-9474.636058,-1838.629195
539.896366,-148.041188,-9326.594869,-2528.115143
539.896694,-666.185348,-9178.553681,-2145.067394
539.897022,-1110.308913,-9104.533087,-2221.676944
539.897349,-1480.411884,-9252.574275,-2221.676944
539.897677,-1480.411884,-9104.533087,-1762.019645
539.898005,-1776.494261,-8956.491898,-2528.115143
539.898333,-1776.494261,-9104.533087,-2834.553343
539.898661,-2146.597232,-9030.512492,-3217.601092
539.898988,-2072.576638,-9030.512492,-3294.210641
539.899316,-2146.597232,-8734.430116,-3447.429741
539.899644,-1702.473667,-8586.388927,-3524.039291
539.899972,-1702.473667,-8586.388927,-3983.696590
539.900299,-1554.432478,-9030.512492,-3907.087040
539.900627,-1480.411884,-8956.491898,-3983.696590
539.900955,-888.247130,-8956.491898,-3830.477490
539.901283,0.000000,-8882.471304,-4136.915689
539.901610,444.123565,-8734.430116,-3447.429741
539.901938,888.247130,-8956.491898,-2911.162892
539.902266,1628.453072,-9178.553681,-2604.724693
539.902594,2220.617826,-9030.512492,-2145.067394
539.902921,2442.679609,-9178.553681,-1991.848295
539.903249,1998.556043,-9474.636058,-1991.848295
539.903577,962.267725,-9992.780217,-2298.286494
539.903905,0.000000,-10436.903782,-2834.553343
539.904233,-888.247130,-10510.924376,-3370.820191
539.904560,-1480.411884,-10140.821405,-3983.696590
539.904888,-2220.617826,-9844.739029,-4290.134789
539.905216,-1702.473667,-9326.594869,-4826.401637
539.905544,-888.247130,-8512.368333,-4749.792088
539.905871,740.205942,-7772.162391,-4443.353888
539.906199,2072.576638,-7105.977043,-3677.258390
539.906527,2886.803174,-7031.956449,-3140.991542
539.906855,2368.659014,-7624.121203,-2221.676944
539.907182,1406.391290,-8882.471304,-1991.848295
539.907510,-370.102971,-9474.636058,-1838.629195
539.907838,-2368.659014,-10510.924376,-2451.505594
539.908166,-3701.029710,-10732.986159,-2451.505594
539.908493,-3330.926739,-11029.068536,-2681.334243
539.908821,-2442.679609,-10214.842000,-2834.553343
539.909149,-296.082377,-8808.450710,-2451.505594
539.909477,2960.823768,-7105.977043,-1072.533697
539.909804,7328.038826,-5329.482782,766.095498
539.910132,10584.944971,-4737.318029,3447.429741
539.910460,10881.027347,-5921.647536,4213.525239
539.910788,7105.977043,-8882.471304,4443.353888
539.911116,222.061783,-12139.377449,3370.820191
539.911443,-6809.894666,-14211.954086,1225.752797
539.911771,-10214.842000,-14878.139434,-383.047749
539.912099,-11325.150913,-14137.933492,-1915.238745
539.912427,-9474.636058,-11917.315666,-2221.676944
539.912754,-5625.565159,-9770.718434,-1915.238745
539.913082,-1258.350101,-6957.935855,-459.657299
539.913410,-1480.411884,-4737.318029,-2451.505594
539.913738,-740.205942,-4737.318029,-2911.162892
539.914065,-6069.688724,-6291.750507,-6588.421283
539.914393,-9992.780217,-7846.182985,-8427.050478
539.914721,-13915.871710,-9400.615463,-10265.679673
539.915049,-13471.748144,-8808.450710,-10418.898773
539.915376,-9622.677246,-7698.141797,-9269.755526
539.915704,-3404.947333,-7476.080014,-7124.688131
539.916032,2220.617826,-6291.750507,-4979.620737
539.916360,4515.256246,-7179.997637,-4903.011187
539.916687,5773.606348,-9178.553681,-4136.915689
539.917015,1998.556043,-10436.903782,-6435.202183
539.917343,2664.741391,-11473.192101,-6435.202183
539.917671,4737.318029,-10732.986159,-6435.202183
539.917999,9104.533087,-10362.883188,-4596.572988
539.918326,11991.336260,-9622.677246,-2451.505594
539.918654,13693.809927,-9918.759623,-919.314598
539.918982,12287.418637,-9992.780217,-995.924147
539.919310,11843.295072,-9252.574275,-1685.410096
539.919637,11695.253884,-10066.800811,-1762.019645
539.919965,12139.377449,-11251.130318,-612.876398
539.920293,9326.594869,-11399.171507,-2604.724693
539.920621,0.000000,-14137.933492,-2834.553343
539.920948,-5329.482782,-14582.057057,-6052.154434
539.921276,-11547.212695,-12879.583391,-7584.345430
539.921604,-8512.368333,-8882.471304,-7431.126331
539.921932,-1776.494261,-3923.091493,-6128.763984
539.922259,2442.679609,-2886.803174,-2757.943793
539.922587,3478.967927,-1924.535449,-2221.676944
539.922915,1776.494261,-2886.803174,-842.705048
539.923243,-2442.679609,-4441.235652,-1149.143247
539.923571,-4589.276840,-4737.318029,-1838.629195
539.923898,-5699.585753,-6809.894666,-1685.410096
539.924226,-5699.585753,-8734.430116,-383.047749
539.924554,-5847.626942,-10140.821405,1838.629195
539.924882,-5329.482782,-9622.677246,3370.820191
539.925209,-3997.112087,-8734.430116,3983.696590
539.925537,-814.226536,-7328.038826,4903.011187
539.925865,-1332.370696,-8956.491898,2298.286494
539.926193,-3330.926739,-11251.130318,459.657299
539.926520,-5625.565159,-12139.377449,-1225.752797
539.926848,-6513.812290,-11325.150913,-1685.410096
539.927176,-2590.720797,-8512.368333,-995.924147
539.927504,-296.082377,-8068.244768,-536.266849
539.927831,1554.432478,-8660.409521,229.828649
539.928159,-148.041188,-9992.780217,536.266849
539.928487,-2960.823768,-9622.677246,383.047749
539.928815,-4145.153275,-9104.533087,-459.657299
539.929142,-2960.823768,-9918.759623,0.000000
539.929470,-3182.885551,-12361.439231,-1455.581446
539.929798,-4071.132681,-12139.377449,-1762.019645
539.930126,-2738.761985,-10214.842000,-2757.943793
539.930454,-2738.761985,-8142.265362,-1838.629195
539.930781,1110.308913,-6143.709319,-2298.286494
539.931109,1702.473667,-6439.791695,-2298.286494
539.931437,2590.720797,-7476.080014,-3677.258390
539.931765,3330.926739,-7105.977043,-4673.182538
539.932092,4589.276840,-8068.244768,-3907.087040
539.932420,4737.318029,-8364.327145,-3600.648841
539.932747,4663.297435,-10584.944971,-3217.601092
539.933075,4663.297435,-13249.686362,-2298.286494
539.933402,4737.318029,-13249.686362,-2145.067394
539.933730,4515.256246,-13471.748144,-1532.190996
539.934058,3404.947333,-12731.542202,-842.705048
539.934385,1480.411884,-11621.233289,-1838.629195
539.934713,1332.370696,-11917.315666,-995.924147
539.935040,1776.494261,-11029.068536,-689.485948
539.935368,1628.453072,-9844.739029,-1149.143247
539.935695,592.164754,-8512.368333,-1915.238745
539.936023,-592.164754,-8586.388927,-2757.943793
539.936350,-1998.556043,-7624.121203,-2834.553343
539.936678,-1924.535449,-6735.874072,-3677.258390
539.937005,-2146.597232,-6143.709319,-3600.648841
539.937333,-2516.700203,-5551.544565,-2451.505594
539.937660,-1480.411884,-4885.359217,-1685.410096
539.937988,-1628.453072,-5625.565159,-1225.752797
539.938315,-2220.617826,-7254.018232,-612.876398
539.938643,-3478.967927,-9178.553681,-995.924147
539.938971,-4367.215058,-9178.553681,-1685.410096
539.939298,-3701.029710,-8808.450710,-919.314598
539.939626,-3404.947333,-8808.450710,-383.047749
539.939953,-2664.741391,-8068.244768,-153.219100
539.940281,666.185348,-7476.080014,842.705048
539.940608,2886.803174,-7105.977043,1608.800546
539.940936,3108.864956,-8142.265362,1532.190996
539.941263,1258.350101,-9030.512492,1302.362347
539.941591,-370.102971,-10288.862594,229.828649
539.941918,-814.226536,-10362.883188,76.609550
539.942246,444.123565,-10436.903782,689.485948
539.942573,592.164754,-9030.512492,689.485948
539.942901,2442.679609,-8364.327145,2145.067394
539.943228,4589.276840,-7031.956449,3294.210641
539.943556,4811.338623,-6735.874072,3753.867940
539.943884,2368.659014,-7920.203579,2681.334243
539.944211,-370.102971,-9400.615463,2145.067394
539.944539,-2664.741391,-9104.533087,1149.143247
539.944866,-3701.029710,-9252.574275,766.095498
539.945194,-3552.988522,-8660.409521,1072.533697
539.945521,-1332.370696,-8290.306550,1685.410096
539.945849,1036.288319,-7624.121203,2451.505594
539.946176,1924.535449,-7624.121203,3064.381992
539.946504,-74.020594,-7920.203579,2068.457845
539.946831,-4071.132681,-10362.883188,536.266849
539.947159,-7105.977043,-11399.171507,-1149.143247
539.947486,-7328.038826,-11621.233289,-2068.457845
539.947814,-5773.606348,-11399.171507,-1685.410096
539.948141,-3552.988522,-10066.800811,-919.314598
539.948469,-444.123565,-9474.636058,689.485948
539.948797,1924.535449,-8512.368333,1532.190996
539.949124,1480.411884,-8734.430116,1762.019645
539.949452,0.000000,-9474.636058,995.924147
539.949779,-2664.741391,-10362.883188,0.000000
539.950107,-2960.823768,-10732.986159,-842.705048
539.950434,-2368.659014,-10362.883188,0.000000
539.950762,0.000000,-9844.739029,536.266849
539.951089,2886.803174,-9400.615463,2451.505594
539.951417,5329.482782,-8290.306550,3064.381992
539.951744,5847.626942,-8364.327145,3370.820191
539.952072,3108.864956,-9474.636058,1915.238745
539.952399,-666.185348,-10214.842000,153.219100
539.952727,-2072.576638,-10436.903782,-1532.190996
539.953054,-888.247130,-10955.047942,-1991.848295
539.953382,0.000000,-10807.006753,-842.705048
539.953710,2146.597232,-9992.780217,153.219100
539.954037,4441.235652,-9474.636058,2068.457845
539.954365,4219.173869,-8660.409521,2451.505594
539.954692,2368.659014,-9622.677246,1762.019645
539.955020,-1702.473667,-10955.047942,-306.438199
539.955347,-4737.318029,-11473.192101,-1838.629195
539.955675,-4737.318029,-10066.800811,-2145.067394
539.956002,-3775.050304,-9400.615463,-1302.362347
539.956330,-1480.411884,-8290.306550,0.000000
539.956657,1332.370696,-7254.018232,1455.581446
539.956985,2664.741391,-6587.832884,1685.410096
539.957312,1924.535449,-6143.709319,1225.752797
539.957640,-962.267725,-7179.997637,-306.438199
539.957967,-3478.967927,-7994.224174,-1915.238745
539.958295,-3775.050304,-7920.203579,-2451.505594
539.958623,-3108.864956,-8068.244768,-1838.629195
539.958950,-1184.329507,-8290.306550,-689.485948
539.959278,1258.350101,-7846.182985,842.705048
539.959605,3478.967927,-7402.059420,2221.676944
539.959933,4367.215058,-7031.956449,2221.676944
539.960260,1998.556043,-8438.347739,1532.190996
539.960588,-740.205942,-9992.780217,-153.219100
539.960915,-1850.514855,-9770.718434,-919.314598
539.961243,-1258.350101,-9178.553681,-229.828649
539.961570,222.061783,-9104.533087,766.095498
539.961898,2072.576638,-8882.471304,2451.505594
539.962225,4293.194464,-8290.306550,3753.867940
539.962553,4293.194464,-8290.306550,4136.915689
539.962880,1554.432478,-8808.450710,2911.162892
539.963208,-1850.514855,-9622.677246,1532.190996
539.963536,-4071.132681,-9474.636058,459.657299
539.963863,-4071.132681,-9622.677246,-229.828649
539.964191,-2368.659014,-9400.615463,383.047749
539.964518,-666.185348,-8586.388927,1455.581446
539.964846,518.144159,-7698.141797,2374.896044
539.965173,2886.803174,-6439.791695,2757.943793
539.965501,1480.411884,-7031.956449,2604.724693
539.965828,-1554.432478,-8290.306550,1225.752797
539.966156,-4515.256246,-9326.594869,-689.485948
539.966483,-5181.441594,-9696.697840,-1149.143247
539.966811,-4515.256246,-9770.718434,-766.095498
539.967138,-3627.009116,-8956.491898,-229.828649
539.967466,-1258.350101,-9770.718434,1072.533697
539.967793,296.082377,-9474.636058,1302.362347
539.968121,1184.329507,-8364.327145,1991.848295
539.968449,666.185348,-9400.615463,1225.752797
539.968776,-2368.659014,-9622.677246,0.000000
539.969104,-2664.741391,-10066.800811,-1225.752797
539.969431,-1776.494261,-10436.903782,-1532.190996
539.969759,-962.267725,-10066.800811,-536.266849
539.970086,888.247130,-9622.677246,306.438199
539.970414,2738.761985,-9770.718434,1685.410096
539.970741,3849.070898,-9844.739029,2451.505594
539.971069,2886.803174,-9400.615463,1762.019645
539.971396,1110.308913,-10584.944971,995.924147
539.971724,-962.267725,-11103.089130,-766.095498
539.972051,-1776.494261,-9992.780217,-995.924147
539.972379,0.000000,-9992.780217,-306.438199
539.972706,0.000000,-10362.883188,-76.609550
539.973034,1332.370696,-9474.636058,919.314598
539.973362,3182.885551,-9326.594869,1532.190996
539.973689,3330.926739,-8512.368333,2298.286494
539.974017,962.267725,-9696.697840,306.438199
539.974344,-666.185348,-10362.883188,-306.438199
539.974672,-2294.638420,-10140.821405,-1072.533697
539.974999,-2146.597232,-10288.862594,-1149.143247
539.975327,-1702.473667,-10362.883188,-459.657299
539.975654,-1110.308913,-8882.471304,229.828649
539.975982,1184.329507,-8586.388927,1532.190996
539.976309,2442.679609,-7846.182985,1991.848295
539.976637,740.205942,-8142.265362,1532.190996
539.976964,-1480.411884,-9030.512492,229.828649
539.977292,-2812.782580,-9252.574275,-536.266849
539.977619,-3256.906145,-8882.471304,-1072.533697
539.977947,-2738.761985,-9252.574275,-383.047749
539.978275,-2072.576638,-8882.471304,0.000000
539.978602,0.000000,-8512.368333,1072.533697
539.978930,1480.411884,-8438.347739,2221.676944
539.979257,1110.308913,-7698.141797,1762.019645
539.979585,-740.205942,-8438.347739,1072.533697
539.979912,-2146.597232,-9030.512492,229.828649
539.980240,-1998.556043,-8956.491898,-383.047749
539.980567,-2146.597232,-9104.533087,-689.485948
539.980895,-1480.411884,-8364.327145,229.828649
539.981222,740.205942,-8364.327145,1302.362347
539.981550,3256.906145,-7476.080014,2451.505594
539.981877,3108.864956,-7698.141797,2757.943793
539.982205,1628.453072,-8438.347739,2068.457845
539.982532,-814.226536,-9178.553681,1455.581446
539.982860,-2590.720797,-9326.594869,0.000000
539.983188,-2812.782580,-9474.636058,-383.047749
539.983515,-2368.659014,-9474.636058,-383.047749
539.983843,-962.267725,-8956.491898,0.000000
539.984170,1258.350101,-7846.182985,1378.971896
539.984498,2812.782580,-6957.935855,1455.581446
539.984825,2294.638420,-7179.997637,1072.533697
539.985153,0.000000,-8216.285956,76.609550
539.985480,-1554.432478,-9178.553681,-842.705048
539.985808,-1776.494261,-8956.491898,-1149.143247
539.986135,-1776.494261,-9918.759623,-766.095498
539.986463,-1258.350101,-9622.677246,0.000000
539.986790,888.247130,-9400.615463,1455.581446
539.987118,2960.823768,-9030.512492,2757.943793
539.987445,3034.844362,-9400.615463,3370.820191
539.987773,222.061783,-10066.800811,1685.410096
539.988101,-2516.700203,-10658.965565,0.000000
539.988428,-3256.906145,-9844.739029,-612.876398
539.988756,-2960.823768,-9622.677246,-1302.362347
539.989083,-1776.494261,-9030.512492,-1225.752797
539.989411,444.123565,-8660.409521,459.657299
539.989738,2368.659014,-8142.265362,1225.752797
539.990066,2590.720797,-7550.100608,1532.190996
539.990393,370.102971,-8660.409521,995.924147
539.990721,-2146.597232,-9696.697840,-536.266849
539.991048,-3478.967927,-9474.636058,-995.924147
539.991376,-3182.885551,-9696.697840,-1302.362347
539.991703,-2442.679609,-9696.697840,-612.876398
539.992031,-592.164754,-9474.636058,766.095498
539.992358,1998.556043,-8660.409521,2298.286494
539.992686,4071.132681,-8438.347739,2987.772442
539.993014,2368.659014,-8438.347739,2451.505594
539.993341,-592.164754,-10066.800811,995.924147
539.993669,-3108.864956,-10807.006753,-306.438199
539.993996,-3775.050304,-9622.677246,-1302.362347
539.994324,-2072.576638,-9696.697840,-766.095498
539.994651,-222.061783,-8956.491898,-229.828649
539.994979,1702.473667,-8660.409521,995.924147
539.995306,4071.132681,-7994.224174,2145.067394
539.995634,3552.988522,-8142.265362,2298.286494
539.995961,1036.288319,-9178.553681,1532.190996
539.996289,-1554.432478,-11103.089130,383.047749
539.996616,-2886.803174,-11103.089130,-995.924147
539.996944,-2590.720797,-10732.986159,-766.095498
539.997272,-962.267725,-10140.821405,229.828649
539.997599,1036.288319,-9252.574275,1915.238745
539.997927,3923.091493,-7920.203579,4060.306139
539.998254,4589.276840,-8364.327145,4213.525239
539.998582,1998.556043,-9178.553681,3370.820191
539.998909,-1628.453072,-10140.821405,1608.800546
539.999237,-3923.091493,-9992.780217,0.000000
539.999564,-4219.173869,-9474.636058,-766.095498
539.999892,-3034.844362,-10288.862594,-689.485948
540.000219,-2146.597232,-9696.697840,-383.047749
540.000547,296.082377,-8734.430116,689.485948
540.000874,1702.473667,-7476.080014,1225.752797
540.001202,1628.453072,-7402.059420,842.705048
540.001529,-1184.329507,-8290.306550,-689.485948
540.001857,-3404.947333,-8808.450710,-1838.629195
540.002185,-3108.864956,-8956.491898,-1915.238745
540.002512,-2368.659014,-8586.388927,-1532.190996
540.002840,-518.144159,-8512.368333,229.828649
540.003167,1998.556043,-7624.121203,1532.190996
540.003495,3701.029710,-7328.038826,3064.381992
540.003822,3775.050304,-7698.141797,3370.820191
540.004150,1628.453072,-9252.574275,2757.943793
540.004477,-2072.576638,-9622.677246,766.095498
540.004805,-2886.803174,-9696.697840,-689.485948
540.005132,-2590.720797,-9178.553681,-612.876398
540.005460,-1628.453072,-9400.615463,-306.438199
540.005787,74.020594,-8956.491898,766.095498
540.006115,2590.720797,-7328.038826,1225.752797
540.006442,2812.782580,-6957.935855,1838.629195
540.006770,1036.288319,-7772.162391,536.266849
540.007098,-3108.864956,-9030.512492,-1149.143247
540.007425,-5181.441594,-9474.636058,-2451.505594
540.007753,-5107.421000,-9030.512492,-2757.943793
540.008080,-3849.070898,-8512.368333,-1302.362347
540.008408,-1258.350101,-7846.182985,0.000000
540.008735,1258.350101,-7476.080014,1455.581446
540.009063,2886.803174,-7031.956449,2604.724693
540.009390,2664.741391,-7254.018232,2604.724693
540.009718,-296.082377,-8364.327145,1225.752797
540.010045,-2812.782580,-9400.615463,0.000000
540.010373,-3034.844362,-9992.780217,-766.095498
540.010700,-2738.761985,-9992.780217,-919.314598
540.011028,-296.082377,-10140.821405,0.000000
540.011355,1850.514855,-9178.553681,766.095498
540.011683,3849.070898,-8882.471304,2145.067394
540.012011,3923.091493,-9030.512492,1149.143247
540.012338,2368.659014,-9474.636058,153.219100
540.012666,-666.185348,-10510.924376,-1225.752797
540.012993,-1554.432478,-10658.965565,-2068.457845
540.013321,-2294.638420,-10288.862594,-1915.238745
540.013648,0.000000,-10658.965565,-383.047749
540.013976,1258.350101,-10510.924376,459.657299
540.014303,3701.029710,-9696.697840,2451.505594
540.014631,4663.297435,-9548.656652,3294.210641
540.014958,3034.844362,-10881.027347,2834.553343
540.015286,-370.102971,-11325.150913,1991.848295
540.015613,-2368.659014,-11325.150913,919.314598
540.015941,-2368.659014,-11029.068536,306.438199
540.016268,-2590.720797,-11251.130318,306.438199
540.016596,-2368.659014,-10732.986159,766.095498
540.016924,-148.041188,-9400.615463,1532.190996
540.017251,1184.329507,-8290.306550,2068.457845
540.017579,592.164754,-8808.450710,1762.019645
540.017906,-1998.556043,-9844.739029,76.609550
540.018234,-4663.297435,-10362.883188,-1532.190996
540.018561,-4367.215058,-9918.759623,-1762.019645
540.018889,-3552.988522,-8956.491898,-1532.190996
540.019216,-1998.556043,-9178.553681,-229.828649
540.019544,814.226536,-8734.430116,1455.581446
540.019871,3404.947333,-7698.141797,3217.601092
540.020199,4145.153275,-7031.956449,3753.867940
540.020526,1554.432478,-8956.491898,3217.601092
540.020854,-1850.514855,-9918.759623,1915.238745
540.021181,-2812.782580,-10066.800811,842.705048
540.021509,-2590.720797,-9326.594869,229.828649
540.021837,-1258.350101,-9326.594869,766.095498
540.022164,740.205942,-8216.285956,1149.143247
540.022492,3108.864956,-7328.038826,2681.334243
540.022819,4071.132681,-6661.853478,2681.334243
540.023147,2368.659014,-6809.894666,1378.971896
540.023474,-1332.370696,-8734.430116,-612.876398
540.023802,-3849.070898,-8586.388927,-2757.943793
540.024129,-4219.173869,-8142.265362,-2681.334243
540.024457,-3034.844362,-7698.141797,-2451.505594
540.024784,-666.185348,-7476.080014,-842.705048
540.025112,888.247130,-7328.038826,459.657299
540.025439,2886.803174,-6661.853478,2145.067394
540.025767,2368.659014,-6735.874072,2145.067394
540.026094,370.102971,-8068.244768,1149.143247
540.026422,-2294.638420,-9326.594869,-306.438199
540.026750,-2812.782580,-9622.677246,-1072.533697
540.027077,-2294.638420,-9178.553681,-919.314598
540.027405,-518.144159,-8660.409521,-612.876398
540.027732,814.226536,-8586.388927,383.047749
540.028060,2368.659014,-7550.100608,766.095498
540.028387,3552.988522,-7550.100608,1149.143247
540.028715,1332.370696,-8068.244768,229.828649
540.029042,-962.267725,-8660.409521,-1991.848295
540.029370,-1998.556043,-9770.718434,-2451.505594
540.029697,-1702.473667,-9548.656652,-2451.505594
540.030025,-666.185348,-9548.656652,-1149.143247
540.030352,1184.329507,-9696.697840,153.219100
540.030680,3478.967927,-9770.718434,2298.286494
540.031007,4441.235652,-9178.553681,3447.429741
540.031335,3256.906145,-9770.718434,3294.210641
540.031663,592.164754,-11029.068536,2681.334243
540.031990,-1184.329507,-11103.089130,1532.190996
540.032318,-1628.453072,-11325.150913,1685.410096
540.032645,-1850.514855,-11399.171507,995.924147
540.032973,-1924.535449,-11473.192101,1302.362347
540.033300,-148.041188,-10362.883188,2221.676944
540.033628,1184.329507,-8808.450710,2451.505594
540.033955,1110.308913,-8216.285956,1991.848295
540.034283,-1110.308913,-9696.697840,1072.533697
540.034610,-4293.194464,-10140.821405,-995.924147
540.034938,-5255.462188,-9326.594869,-1762.019645
540.035266,-4367.215058,-8808.450710,-1915.238745
540.035593,-3256.906145,-9178.553681,-536.266849
540.035921,-1110.308913,-8956.491898,919.314598
540.036248,1036.288319,-8734.430116,2374.896044
540.036576,1628.453072,-8660.409521,3140.991542
540.036903,444.123565,-9474.636058,3370.820191
540.037231,-1998.556043,-10362.883188,2068.457845
540.037559,-3552.988522,-10066.800811,842.705048
540.037886,-1924.535449,-9992.780217,383.047749
540.038214,-1332.370696,-9548.656652,306.438199
540.038541,0.000000,-8586.388927,1072.533697
540.038869,2516.700203,-7994.224174,2068.457845
540.039196,4145.153275,-7624.121203,2528.115143
540.039524,2220.617826,-7772.162391,1532.190996
540.039852,-740.205942,-9474.636058,-153.219100
540.040179,-3552.988522,-9474.636058,-2145.067394
540.040507,-2960.823768,-9400.615463,-2604.724693
540.040834,-2368.659014,-9400.615463,-2298.286494
540.041162,-666.185348,-8660.409521,-919.314598
540.041490,1480.411884,-8586.388927,229.828649
540.041817,3997.112087,-7994.224174,1685.410096
540.042145,3404.947333,-7772.162391,2068.457845
540.042472,2220.617826,-8882.471304,1991.848295
540.042800,-444.123565,-8734.430116,612.876398
540.043127,-1184.329507,-8734.430116,-306.438199
540.043455,-1702.473667,-9104.533087,-229.828649
540.043783,-1036.288319,-9178.553681,229.828649
540.044110,74.020594,-8808.450710,612.876398
540.044438,1850.514855,-7550.100608,1608.800546
540.044765,2516.700203,-7105.977043,1608.800546
540.045093,1924.535449,-8364.327145,1149.143247
540.045420,-1036.288319,-9326.594869,-459.657299
540.045748,-2812.782580,-9474.636058,-1838.629195
540.046076,-2960.823768,-8734.430116,-2528.115143
540.046403,-2368.659014,-9326.594869,-1608.800546
540.046731,-962.267725,-9030.512492,-995.924147
540.047058,1036.288319,-8660.409521,383.047749
540.047386,2664.741391,-8142.265362,1991.848295
540.047713,2368.659014,-7994.224174,3064.381992
540.048041,222.061783,-9474.636058,2068.457845
540.048369,-2368.659014,-9918.759623,1072.533697
540.048696,-3108.864956,-9844.739029,306.438199
540.049024,-2960.823768,-9918.759623,306.438199
540.049351,-1924.535449,-9178.553681,766.095498
540.049679,-518.144159,-8142.265362,1149.143247
540.050006,2220.617826,-8290.306550,2221.676944
540.050334,2516.700203,-7476.080014,1685.410096
540.050662,814.226536,-8512.368333,612.876398
540.050989,-2146.597232,-9770.718434,-689.485948
540.051317,-3404.947333,-10584.944971,-1915.238745
540.051644,-3849.070898,-9622.677246,-2528.115143
540.051972,-2368.659014,-9622.677246,-1685.410096
540.052299,0.000000,-9326.594869,-536.266849
540.052627,2368.659014,-8882.471304,919.314598
540.052955,3997.112087,-8882.471304,2374.896044
540.053282,3478.967927,-9030.512492,2604.724693
540.053610,0.000000,-9844.739029,1455.581446
540.053937,-1184.329507,-10807.006753,689.485948
540.054265,-1628.453072,-10510.924376,76.609550
540.054592,-1776.494261,-10140.821405,459.657299
540.054920,-370.102971,-10140.821405,1149.143247
540.055248,888.247130,-9474.636058,1762.019645
540.055575,3256.906145,-8216.285956,2528.115143
540.055903,3256.906145,-8956.491898,2528.115143
540.056230,1480.411884,-9844.739029,1685.410096
540.056558,-1776.494261,-10214.842000,-229.828649
540.056886,-2960.823768,-10584.944971,-1378.971896
540.057213,-3256.906145,-10288.862594,-1838.629195
540.057541,-2368.659014,-9844.739029,-1072.533697
540.057868,-1110.308913,-9548.656652,-229.828649
540.058196,1776.494261,-8882.471304,1149.143247
540.058523,2220.617826,-8216.285956,2145.067394
540.058851,1924.535449,-8512.368333,2374.896044
540.059179,-518.144159,-9400.615463,1762.019645
540.059506,-2442.679609,-9770.718434,842.705048
540.059834,-2368.659014,-10214.842000,383.047749
540.060161,-3256.906145,-10066.800811,1378.971896
540.060489,-1554.432478,-10066.800811,1378.971896
540.060816,370.102971,-9474.636058,2298.286494
540.061144,2368.659014,-8216.285956,3064.381992
540.061472,2812.782580,-8586.388927,2911.162892
540.061799,222.061783,-9474.636058,1608.800546
540.062127,-2368.659014,-8882.471304,-306.438199
540.062454,-3478.967927,-8956.491898,-1608.800546
540.062782,-3923.091493,-8956.491898,-2068.457845
540.063109,-2886.803174,-7920.203579,-1915.238745
540.063437,-1184.329507,-7476.080014,-995.924147
540.063765,1628.453072,-6883.915261,306.438199
540.064092,2146.597232,-5995.668130,1378.971896
540.064420,962.267725,-6957.935855,1608.800546
540.064747,-1184.329507,-7624.121203,76.609550
540.065075,-2664.741391,-8512.368333,-689.485948
540.065402,-2516.700203,-9474.636058,-1302.362347
540.065730,-2072.576638,-9252.574275,-306.438199
540.066058,-296.082377,-8512.368333,383.047749
540.066385,2886.803174,-8216.285956,1685.410096
540.066713,4663.297435,-7846.182985,2681.334243
540.067040,3108.864956,-8438.347739,1455.581446
540.067368,74.020594,-9104.533087,-383.047749
540.067695,-1924.535449,-9030.512492,-2145.067394
540.068023,-1998.556043,-8882.471304,-2604.724693
540.068351,-962.267725,-8734.430116,-2528.115143
540.068678,740.205942,-8512.368333,-1532.190996
540.069006,3256.906145,-8364.327145,459.657299
540.069333,5255.462188,-7846.182985,2145.067394
540.069661,4293.194464,-8216.285956,2834.553343
540.069988,1702.473667,-9696.697840,1915.238745
540.070316,-1776.494261,-11029.068536,689.485948
540.070644,-2516.700203,-11399.171507,-306.438199
540.070971,-3330.926739,-11177.109724,0.000000
540.071299,-1332.370696,-10288.862594,842.705048
540.071626,444.123565,-9326.594869,1991.848295
540.071954,2960.823768,-8586.388927,3600.648841
540.072282,2886.803174,-8216.285956,2987.772442
540.072609,518.144159,-8660.409521,1608.800546
540.072937,-2664.741391,-9474.636058,-229.828649
540.073264,-4515.256246,-9622.677246,-1608.800546
540.073592,-5181.441594,-9178.553681,-1838.629195
540.073919,-3701.029710,-9030.512492,-1685.410096
540.074247,-2368.659014,-9252.574275,-612.876398
540.074575,592.164754,-8586.388927,1378.971896
540.074902,1702.473667,-8586.388927,2604.724693
540.075230,888.247130,-9622.677246,2757.943793
540.075557,-1924.535449,-10510.924376,1532.190996
540.075885,-3775.050304,-11843.295072,536.266849
540.076212,-4071.132681,-11029.068536,0.000000
540.076540,-3034.844362,-10288.862594,0.000000
540.076868,-296.082377,-9770.718434,1378.971896
540.077195,2368.659014,-9474.636058,2834.553343
540.077523,4367.215058,-8660.409521,3753.867940
540.077850,3701.029710,-8586.388927,3294.210641
540.078178,592.164754,-9696.697840,1915.238745
540.078505,-2442.679609,-10436.903782,0.000000
540.078833,-3404.947333,-10584.944971,-1685.410096
540.079161,-2590.720797,-9918.759623,-1378.971896
540.079488,-592.164754,-9178.553681,-766.095498
540.079816,1406.391290,-8734.430116,459.657299
540.080143,3552.988522,-8068.244768,2145.067394
540.080471,4219.173869,-7105.977043,2681.334243
540.080798,2368.659014,-8290.306550,2068.457845
540.081126,-1036.288319,-9548.656652,459.657299
540.081454,-3775.050304,-10066.800811,-383.047749
540.081781,-3849.070898,-10436.903782,-995.924147
540.082109,-2960.823768,-9770.718434,-536.266849
540.082436,-1406.391290,-8216.285956,459.657299
540.082764,2220.617826,-7698.141797,1302.362347
540.083091,3034.844362,-6883.915261,1991.848295
540.083419,2294.638420,-7105.977043,1149.143247
540.083747,0.000000,-8734.430116,0.000000
540.084074,-2516.700203,-8586.388927,-1608.800546
540.084402,-2886.803174,-8882.471304,-2221.676944
540.084729,-1628.453072,-9474.636058,-1838.629195
540.085057,0.000000,-8808.450710,-995.924147
540.085385,1850.514855,-8290.306550,306.438199
540.085712,3849.070898,-8364.327145,2221.676944
540.086040,3701.029710,-8364.327145,2221.676944
540.086367,888.247130,-8956.491898,1302.362347
540.086695,-1776.494261,-10584.944971,153.219100
540.087022,-2960.823768,-10436.903782,-612.876398
540.087350,-3256.906145,-9622.677246,-689.485948
540.087678,-1554.432478,-9030.512492,0.000000
540.088005,888.247130,-7476.080014,1149.143247
540.088333,3256.906145,-6069.688724,1915.238745
540.088660,4145.153275,-6587.832884,2528.115143
540.088988,2294.638420,-7846.182985,1762.019645
540.089315,-1776.494261,-8808.450710,306.438199
540.089643,-3182.885551,-9400.615463,-689.485948
540.089971,-3330.926739,-9622.677246,-1149.143247
540.090298,-3108.864956,-10140.821405,-995.924147
540.090626,-1480.411884,-10510.924376,306.438199
540.090953,0.000000,-8808.450710,1991.848295
540.091281,1628.453072,-7105.977043,1685.410096
540.091608,1998.556043,-7698.141797,2298.286494
540.091936,-1036.288319,-8586.388927,842.705048
540.092264,-2886.803174,-9400.615463,-459.657299
540.092591,-3330.926739,-9178.553681,-1149.143247
540.092919,-3404.947333,-9030.512492,-1149.143247
540.093246,-1628.453072,-8290.306550,153.219100
540.093574,962.267725,-8068.244768,995.924147
540.093901,3034.844362,-8142.265362,2068.457845
540.094229,3182.885551,-8882.471304,2604.724693
540.094557,1332.370696,-9104.533087,2068.457845
540.094884,-2072.576638,-10436.903782,153.219100
540.095212,-2368.659014,-11177.109724,-383.047749
540.095539,-2664.741391,-10658.965565,-1302.362347
540.095867,-1850.514855,-11695.253884,-383.047749
540.096194,296.082377,-10436.903782,229.828649
540.096522,2368.659014,-8660.409521,612.876398
540.096850,3182.885551,-8216.285956,1685.410096
540.097177,2368.659014,-9400.615463,1685.410096
540.097505,-666.185348,-10584.944971,0.000000
540.097832,-1924.535449,-10807.006753,-919.314598
540.098160,-2442.679609,-10436.903782,-1302.362347
540.098487,-1924.535449,-10732.986159,-842.705048
540.098815,-740.205942,-10658.965565,153.219100
540.099143,2146.597232,-9252.574275,1915.238745
540.099470,3997.112087,-8660.409521,2681.334243
540.099798,2886.803174,-9696.697840,2911.162892
540.100125,0.000000,-11029.068536,1991.848295
540.100453,-2220.617826,-10955.047942,229.828649
540.100781,-2294.638420,-10140.821405,-383.047749
540.101108,-1184.329507,-9992.780217,-229.828649
540.101436,-370.102971,-9844.739029,383.047749
540.101763,1184.329507,-8808.450710,1225.752797
540.102091,3478.967927,-7402.059420,2834.553343
540.102418,3182.885551,-7254.018232,2834.553343
540.102746,740.205942,-8882.471304,2068.457845
540.103074,-2516.700203,-10807.006753,536.266849
540.103401,-4737.318029,-10732.986159,-229.828649
540.103729,-4515.256246,-9918.759623,-536.266849
540.104056,-3404.947333,-9400.615463,306.438199
540.104384,-740.205942,-9400.615463,1378.971896
540.104711,1480.411884,-8438.347739,2681.334243
540.105039,1628.453072,-7920.203579,2451.505594
540.105367,148.041188,-8660.409521,2298.286494
540.105694,-2812.782580,-9030.512492,459.657299
540.106022,-4515.256246,-8956.491898,-766.095498
540.106349,-4219.173869,-8586.388927,-1915.238745
540.106677,-3034.844362,-7920.203579,-1149.143247
540.107004,-740.205942,-7698.141797,-229.828649
540.107332,1480.411884,-6513.812290,842.705048
540.107660,3701.029710,-5477.523971,2298.286494
540.107987,3404.947333,-6365.771101,2451.505594
540.108315,888.247130,-8068.244768,1532.190996
540.108642,-2072.576638,-9326.594869,-229.828649
540.108970,-2960.823768,-9474.636058,-1149.143247
540.109297,-2738.761985,-8956.491898,-919.314598
540.109625,-1184.329507,-9030.512492,0.000000
540.109953,296.082377,-9252.574275,536.266849
540.110280,3034.844362,-7920.203579,1455.581446
540.110608,3923.091493,-7328.038826,1838.629195
540.110935,2960.823768,-7698.141797,1225.752797
540.111263,0.000000,-8734.430116,0.000000
540.111590,-1332.370696,-9326.594869,-1455.581446
540.111918,-1628.453072,-8808.450710,-1455.581446
540.112246,-888.247130,-9252.574275,-919.314598
540.112573,-148.041188,-8512.368333,0.000000
540.112901,1850.514855,-8512.368333,1838.629195
540.113228,2664.741391,-7476.080014,2374.896044
540.113556,2368.659014,-8734.430116,2757.943793
540.113883,-888.247130,-9844.739029,1302.362347
540.114211,-3108.864956,-9844.739029,-536.266849
540.114539,-3701.029710,-9548.656652,-1225.752797
540.114866,-2886.803174,-9548.656652,-919.314598
540.115194,-1406.391290,-9104.533087,229.828649
540.115521,518.144159,-8142.265362,383.047749
540.115849,2738.761985,-7772.162391,1762.019645
540.116177,2072.576638,-7698.141797,1685.410096
540.116504,518.144159,-8734.430116,1072.533697
540.116832,-2072.576638,-9400.615463,0.000000
540.117159,-2294.638420,-9844.739029,-995.924147
540.117487,-2368.659014,-10732.986159,-995.924147
540.117814,-1480.411884,-10436.903782,-229.828649
540.118142,-148.041188,-9696.697840,689.485948
540.118470,2664.741391,-9104.533087,2451.505594
540.118797,3701.029710,-9252.574275,2987.772442
540.119125,1998.556043,-10584.944971,2528.115143
540.119452,-1110.308913,-11325.150913,995.924147
540.119780,-3182.885551,-11473.192101,0.000000
540.120107,-3552.988522,-11103.089130,-766.095498
540.120435,-3034.844362,-10362.883188,0.000000
540.120763,-370.102971,-9992.780217,229.828649
540.121090,1406.391290,-9326.594869,995.924147
540.121418,2294.638420,-8216.285956,1838.629195
540.121745,1036.288319,-8290.306550,1455.581446
540.122073,-1258.350101,-9104.533087,919.314598
540.122400,-2812.782580,-9474.636058,-1378.971896
540.122728,-3256.906145,-9696.697840,-1762.019645
540.123056,-2886.803174,-9992.780217,-1225.752797
540.123383,-1628.453072,-9844.739029,-306.438199
540.123711,740.205942,-9178.553681,995.924147
540.124038,3256.906145,-8068.244768,2451.505594
540.124366,3034.844362,-8216.285956,2987.772442
540.124693,1480.411884,-9696.697840,2145.067394
540.125021,-1776.494261,-10510.924376,612.876398
540.125349,-3256.906145,-10066.800811,-766.095498
540.125676,-2664.741391,-8956.491898,-612.876398
540.126004,-740.205942,-9474.636058,0.000000
540.126331,1258.350101,-8438.347739,689.485948
540.126659,3552.988522,-8068.244768,2451.505594
540.126986,3775.050304,-7624.121203,3217.601092
540.127314,2146.597232,-8438.347739,2604.724693
540.127642,-592.164754,-9696.697840,1149.143247
540.127969,-2368.659014,-9622.677246,-306.438199
540.128297,-2146.597232,-9400.615463,-689.485948
540.128624,-1628.453072,-9844.739029,76.609550
540.128952,-444.123565,-9326.594869,1072.533697
540.129280,1998.556043,-8586.388927,2681.334243
540.129607,3775.050304,-7476.080014,3677.258390
540.129935,3404.947333,-7846.182985,3600.648841
540.130262,0.000000,-9178.553681,2298.286494
540.130590,-3108.864956,-9918.759623,612.876398
540.130917,-4515.256246,-9622.677246,-612.876398
540.131245,-4589.276840,-9030.512492,-1149.143247
540.131573,-3256.906145,-8660.409521,-842.705048
540.131900,-1406.391290,-8216.285956,-229.828649
540.132228,666.185348,-7254.018232,383.047749
540.132555,1406.391290,-6883.915261,842.705048
540.132883,-296.082377,-8068.244768,153.219100
540.133210,-2590.720797,-9252.574275,-919.314598
540.133538,-3478.967927,-9770.718434,-1991.848295
540.133866,-3182.885551,-9326.594869,-2451.505594
540.134193,-1480.411884,-8512.368333,-1838.629195
540.134521,370.102971,-8142.265362,-306.438199
540.134848,2812.782580,-7254.018232,1455.581446
540.135176,4737.318029,-6735.874072,2451.505594
540.135503,4071.132681,-8216.285956,2298.286494
540.135831,1110.308913,-9548.656652,1455.581446
540.136159,-1406.391290,-10436.903782,-153.219100
540.136486,-2220.617826,-9844.739029,-842.705048
540.136814,-1628.453072,-9696.697840,-995.924147
540.137141,296.082377,-9474.636058,0.000000
540.137469,2960.823768,-8660.409521,383.047749
540.137796,4663.297435,-7254.018232,1608.800546
540.138124,3552.988522,-7402.059420,1302.362347
540.138452,1258.350101,-8956.491898,153.219100
540.138779,-2072.576638,-9400.615463,-1378.971896
540.139107,-2368.659014,-10214.842000,-1532.190996
540.139434,-2220.617826,-10066.800811,-1225.752797
540.139762,-1702.473667,-10362.883188,0.000000
540.140089,518.144159,-9622.677246,1302.362347
540.140417,2664.741391,-9030.512492,3064.381992
540.140745,2738.761985,-8808.450710,4060.306139
540.141072,1036.288319,-9548.656652,3064.381992
540.141400,-2960.823768,-10807.006753,1455.581446
540.141727,-4737.318029,-10288.862594,76.609550
540.142055,-4663.297435,-9696.697840,-689.485948
540.142382,-3108.864956,-9400.615463,-229.828649
540.142710,-518.144159,-8438.347739,229.828649
540.143038,1258.350101,-8364.327145,1685.410096
540.143365,2516.700203,-7476.080014,2145.067394
540.143693,1036.288319,-8364.327145,1455.581446
540.144020,-1702.473667,-10066.800811,153.219100
540.144348,-3849.070898,-10807.006753,-919.314598
540.144675,-3849.070898,-10436.903782,-1532.190996
540.145003,-2960.823768,-10436.903782,-536.266849
540.145331,-962.267725,-9844.739029,766.095498
540.145658,1702.473667,-9104.533087,2298.286494
540.145986,4737.318029,-8364.327145,4213.525239
540.146313,3923.091493,-9104.533087,4290.134789
540.146641,1554.432478,-10066.800811,2757.943793
540.146968,-1850.514855,-10436.903782,536.266849
540.147296,-3478.967927,-9992.780217,-383.047749
540.147624,-2812.782580,-9696.697840,-842.705048
540.147951,-1628.453072,-9030.512492,0.000000
540.148279,444.123565,-8734.430116,0.000000
540.148606,2812.782580,-7624.121203,1072.533697
540.148934,3182.885551,-7179.997637,1225.752797
540.149261,1628.453072,-8142.265362,689.485948
540.149589,-1258.350101,-9474.636058,-306.438199
540.149917,-3404.947333,-9400.615463,-1685.410096
540.150244,-3034.844362,-9252.574275,-2068.457845
540.150572,-1850.514855,-8956.491898,-1302.362347
540.150899,-148.041188,-7920.203579,76.609550
540.151227,2590.720797,-7254.018232,2145.067394
540.151554,4071.132681,-7328.038826,3064.381992
540.151882,2960.823768,-8216.285956,2911.162892
540.152210,-222.061783,-9474.636058,1608.800546
540.152537,-2738.761985,-9622.677246,229.828649
540.152865,-3108.864956,-9622.677246,-459.657299
540.153192,-2812.782580,-9770.718434,-306.438199
540.153520,-1258.350101,-8956.491898,0.000000
540.153847,1258.350101,-7920.203579,536.266849
540.154175,2738.761985,-7328.038826,1378.971896
540.154503,2294.638420,-7105.977043,1378.971896
540.154830,444.123565,-7920.203579,612.876398
540.155158,-2368.659014,-9474.636058,-1149.143247
540.155485,-3775.050304,-9326.594869,-1838.629195
540.155813,-3552.988522,-9770.718434,-1762.019645
540.156140,-2664.741391,-9622.677246,-766.095498
540.156468,-1110.308913,-8956.491898,0.000000
540.156796,2220.617826,-8068.244768,2068.457845
540.157123,3478.967927,-7476.080014,2681.334243
540.157451,2738.761985,-8586.388927,2911.162892
540.157778,518.144159,-9474.636058,1762.019645
540.158106,-1332.370696,-9844.739029,153.219100
540.158434,-1554.432478,-9696.697840,306.438199
540.158761,-1702.473667,-10362.883188,-306.438199
540.159089,-592.164754,-9992.780217,0.000000
540.159416,1332.370696,-9252.574275,766.095498
540.159744,2812.782580,-8512.368333,1302.362347
540.160071,2072.576638,-8660.409521,1608.800546
540.160399,0.000000,-9844.739029,0.000000
540.160727,-2516.700203,-10288.862594,-1378.971896
540.161054,-3330.926739,-10140.821405,-2145.067394
540.161382,-3034.844362,-9770.718434,-2145.067394
540.161709,-1628.453072,-9400.615463,-842.705048
540.162037,518.144159,-9178.553681,229.828649
540.162364,3256.906145,-8142.265362,2068.457845
540.162692,3330.926739,-8660.409521,2987.772442
540.163020,1776.494261,-9770.718434,2604.724693
540.163347,-1258.350101,-10584.944971,1838.629195
540.163675,-1776.494261,-10732.986159,76.609550
540.164002,-1998.556043,-11029.068536,229.828649
540.164330,-1036.288319,-10658.965565,842.705048
540.164657,518.144159,-10066.800811,1455.581446
540.164985,2294.638420,-9252.574275,2604.724693
540.165313,2516.700203,-8290.306550,2451.505594
540.165640,1258.350101,-8808.450710,1685.410096
540.165968,-1480.411884,-9918.759623,76.609550
540.166295,-3849.070898,-10066.800811,-1149.143247
540.166623,-3923.091493,-9474.636058,-1608.800546
540.166950,-2738.761985,-8586.388927,-1225.752797
540.167278,-666.185348,-8290.306550,153.219100
540.167606,1850.514855,-7328.038826,1762.019645
540.167933,3404.947333,-7031.956449,2987.772442
540.168261,2146.597232,-7920.203579,3217.601092
540.168588,-518.144159,-9030.512492,3370.820191
540.168916,-2960.823768,-9474.636058,1225.752797
540.169243,-3478.967927,-9548.656652,459.657299
540.169571,-2960.823768,-9770.718434,383.047749
540.169899,-1480.411884,-9178.553681,1072.533697
540.170226,-370.102971,-8142.265362,1455.581446
540.170554,1184.329507,-7105.977043,1915.238745
540.170881,2368.659014,-7105.977043,1608.800546
540.171209,296.082377,-7402.059420,229.828649
540.171536,-1332.370696,-8364.327145,-1225.752797
540.171864,-3034.844362,-8956.491898,-2221.676944
540.172192,-2960.823768,-8586.388927,-2834.553343
540.172519,-1184.329507,-8882.471304,-1685.410096
540.172847,1776.494261,-8142.265362,0.000000
540.173174,3627.009116,-8216.285956,1608.800546
540.173502,4663.297435,-8586.388927,2987.772442
540.173829,2812.782580,-9770.718434,2834.553343
540.174157,-1036.288319,-10288.862594,1225.752797
540.174485,-2960.823768,-10732.986159,0.000000
540.174812,-2590.720797,-10066.800811,-229.828649
540.175140,-1406.391290,-9252.574275,-612.876398
540.175467,370.102971,-9030.512492,153.219100
540.175795,2368.659014,-7846.182985,1149.143247
540.176122,3404.947333,-7031.956449,1532.190996
540.176450,2368.659014,-7105.977043,842.705048
540.176778,0.000000,-8734.430116,-383.047749
540.177105,-3997.112087,-9992.780217,-2834.553343
540.177433,-4663.297435,-9696.697840,-2987.772442
540.177760,-4145.153275,-9474.636058,-2528.115143
540.178088,-1998.556043,-9178.553681,-1149.143247
540.178415,148.041188,-8364.327145,306.438199
540.178743,2738.761985,-7994.224174,2221.676944
540.179071,3404.947333,-7994.224174,2374.896044
540.179398,1258.350101,-8808.450710,1991.848295
540.179726,-1628.453072,-10214.842000,842.705048
540.180053,-3108.864956,-10658.965565,0.000000
540.180381,-2738.761985,-10436.903782,0.000000
540.180708,-1628.453072,-10140.821405,842.705048
540.181036,592.164754,-9474.636058,1302.362347
540.181364,2368.659014,-9252.574275,1915.238745
540.181691,3330.926739,-8290.306550,2298.286494
540.182019,2442.679609,-8956.491898,1685.410096
540.182346,-222.061783,-9696.697840,612.876398
540.182674,-1998.556043,-10584.944971,-1455.581446
540.183001,-2738.761985,-11029.068536,-1608.800546
540.183329,-2738.761985,-10658.965565,-1378.971896
540.183657,-1036.288319,-10436.903782,-229.828649
540.183984,1480.411884,-9474.636058,1532.190996
540.184312,3182.885551,-8290.306550,2681.334243
540.184639,3034.844362,-9104.533087,2911.162892
540.184967,666.185348,-9696.697840,2451.505594
540.185294,-1628.453072,-10362.883188,1608.800546
540.185622,-2664.741391,-10436.903782,842.705048
540.185950,-2368.659014,-10140.821405,536.266849
540.186277,-1258.350101,-10732.986159,995.924147
540.186605,-296.082377,-9696.697840,1455.581446
540.186932,1628.453072,-9252.574275,2451.505594
540.187260,2294.638420,-8808.450710,2451.505594
540.187587,1480.411884,-9326.594869,2528.115143
540.187915,-1924.535449,-10140.821405,-153.219100
540.188243,-3923.091493,-11103.089130,-1149.143247
540.188570,-3627.009116,-10436.903782,-1762.019645
540.188898,-3256.906145,-9844.739029,-1532.190996
540.189225,-1036.288319,-8734.430116,-153.219100
540.189553,1480.411884,-8216.285956,459.657299
540.189880,2590.720797,-7254.018232,1991.848295
540.190208,2664.741391,-7254.018232,2221.676944
540.190536,888.247130,-8364.327145,1991.848295
540.190863,-1628.453072,-8882.471304,612.876398
540.191191,-1776.494261,-9252.574275,76.609550
540.191518,-1924.535449,-9622.677246,306.438199
540.191846,-888.247130,-9400.615463,842.705048
540.192173,1036.288319,-9030.512492,1532.190996
540.192501,3404.947333,-7624.121203,2528.115143
540.192829,3478.967927,-7105.977043,2068.457845
540.193156,1628.453072,-7920.203579,919.314598
540.193484,-1036.288319,-8882.471304,-689.485948
540.193811,-2664.741391,-8586.388927,-2068.457845
540.194139,-2738.761985,-8216.285956,-2681.334243
540.194466,-1924.535449,-8660.409521,-2451.505594
540.194794,-962.267725,-8142.265362,-1378.971896
540.195122,1406.391290,-7698.141797,536.266849
540.195449,2886.803174,-7105.977043,1378.971896
540.195777,1998.556043,-7105.977043,1378.971896
540.196104,-740.205942,-8660.409521,919.314598
540.196432,-2516.700203,-9326.594869,306.438199
540.196760,-2886.803174,-8956.491898,-536.266849
540.197087,-2294.638420,-9030.512492,-229.828649
540.197415,-518.144159,-8660.409521,536.266849
540.197742,1554.432478,-8364.327145,1685.410096
540.198070,3775.050304,-7476.080014,2451.505594
540.198397,3404.947333,-7254.018232,2145.067394
540.198725,1258.350101,-8438.347739,766.095498
540.199053,-1628.453072,-9400.615463,-842.705048
540.199380,-2960.823768,-9474.636058,-1685.410096
540.199708,-2664.741391,-8956.491898,-2221.676944
540.200035,-1554.432478,-9696.697840,-1225.752797
540.200363,148.041188,-9326.594869,153.219100
540.200690,2072.576638,-8660.409521,1455.581446
540.201018,2294.638420,-8734.430116,2221.676944
540.201346,1406.391290,-9326.594869,2681.334243
540.201673,-2368.659014,-10658.965565,766.095498
540.202001,-4071.132681,-10881.027347,0.000000
540.202328,-3849.070898,-10732.986159,-229.828649
540.202656,-2812.782580,-10214.842000,459.657299
540.202983,-444.123565,-8956.491898,1378.971896
540.203311,2368.659014,-7920.203579,2681.334243
540.203639,3330.926739,-7846.182985,3294.210641
540.203966,1850.514855,-8734.430116,2528.115143
540.204294,-1554.432478,-9474.636058,612.876398
540.204621,-3775.050304,-10288.862594,-1455.581446
540.204949,-4589.276840,-9844.739029,-1915.238745
540.205276,-3701.029710,-10140.821405,-1685.410096
540.205604,-1628.453072,-9918.759623,-536.266849
540.205932,1184.329507,-9178.553681,919.314598
540.206259,3775.050304,-8290.306550,2911.162892
540.206587,3404.947333,-8142.265362,2451.505594
540.206914,814.226536,-10214.842000,2068.457845
540.207242,-2368.659014,-11177.109724,459.657299
540.207569,-3182.885551,-11251.130318,-229.828649
540.207897,-2812.782580,-10732.986159,0.000000
540.208225,-888.247130,-10362.883188,842.705048
540.208552,2072.576638,-9844.739029,2374.896044
540.208880,3627.009116,-8586.388927,3600.648841
540.209207,3997.112087,-8364.327145,3524.039291
540.209535,1702.473667,-9474.636058,2451.505594
540.209862,-1776.494261,-10658.965565,306.438199
540.210190,-4219.173869,-10288.862594,-1762.019645
540.210518,-4219.173869,-9548.656652,-2221.676944
540.210845,-2664.741391,-8956.491898,-1685.410096
540.211173,-222.061783,-7772.162391,-536.266849
540.211500,2368.659014,-7031.956449,1149.143247
540.211828,4441.235652,-6735.874072,2451.505594
540.212155,2960.823768,-7179.997637,2451.505594
540.212483,0.000000,-8734.430116,1072.533697
540.212811,-3256.906145,-9622.677246,-536.266849
540.213138,-3478.967927,-10288.862594,-995.924147
540.213466,-3330.926739,-9178.553681,-612.876398
540.213793,-1110.308913,-9104.533087,153.219100
540.214121,1184.329507,-8734.430116,1608.800546
540.214448,3478.967927,-7772.162391,2451.505594
540.214776,3034.844362,-7476.080014,2298.286494
540.215104,1554.432478,-8956.491898,1378.971896
540.215431,-2220.617826,-8734.430116,-919.314598
540.215759,-3404.947333,-9622.677246,-2298.286494
540.216086,-3404.947333,-9770.718434,-2451.505594
540.216414,-2072.576638,-9400.615463,-2145.067394
540.216741,222.061783,-8734.430116,-689.485948
540.217069,3256.906145,-7994.224174,1225.752797
540.217397,3404.947333,-7624.121203,1685.410096
540.217724,2516.700203,-9030.512492,1762.019645
540.218052,-370.102971,-10066.800811,306.438199
540.218379,-2812.782580,-9474.636058,-229.828649
540.218707,-2442.679609,-9400.615463,-766.095498
540.219034,-1850.514855,-9474.636058,-995.924147
540.219362,0.000000,-9030.512492,229.828649
540.219690,1998.556043,-8364.327145,1378.971896
540.220017,3775.050304,-7550.100608,2374.896044
540.220345,3182.885551,-7624.121203,2221.676944
540.220672,518.144159,-9400.615463,766.095498
540.221000,-1776.494261,-10288.862594,-919.314598
540.221327,-2516.700203,-9918.759623,-1915.238745
540.221655,-2220.617826,-9696.697840,-1378.971896
540.221983,-1258.350101,-9844.739029,-1072.533697
540.222310,444.123565,-9252.574275,229.828649
540.222638,2368.659014,-8290.306550,1685.410096
540.222965,3256.906145,-7846.182985,2374.896044
540.223293,962.267725,-8734.430116,1991.848295
540.223620,-1850.514855,-9622.677246,383.047749
540.223948,-3182.885551,-9844.739029,383.047749
540.224276,-3775.050304,-9770.718434,-383.047749
540.224603,-3034.844362,-9918.759623,536.266849
540.224931,-1480.411884,-9400.615463,1149.143247
540.225258,1184.329507,-8956.491898,2834.553343
540.225586,2442.679609,-8216.285956,3600.648841
540.225913,1554.432478,-8734.430116,2987.772442
540.226241,-814.226536,-9844.739029,1685.410096
540.226569,-3034.844362,-9844.739029,0.000000
540.226896,-2812.782580,-9178.553681,-1072.533697
540.227224,-2146.597232,-9326.594869,-1225.752797
540.227551,-518.144159,-9030.512492,0.000000
540.227879,814.226536,-8512.368333,1072.533697
540.228206,2738.761985,-7254.018232,2451.505594
540.228534,2516.700203,-7846.182985,2604.724693
540.228862,444.123565,-9474.636058,2221.676944
540.229189,-2590.720797,-10807.006753,153.219100
540.229517,-3775.050304,-10214.842000,0.000000
540.229844,-3552.988522,-10510.924376,-536.266849
540.230172,-2516.700203,-10510.924376,229.828649
540.230499,-296.082377,-9326.594869,1225.752797
540.230827,2368.659014,-8290.306550,2604.724693
540.231155,3330.926739,-7254.018232,2374.896044
540.231482,1998.556043,-8290.306550,1608.800546
540.231810,-1332.370696,-9252.574275,0.000000
540.232137,-2738.761985,-9252.574275,-1378.971896
540.232465,-2812.782580,-8290.306550,-1225.752797
540.232792,-1554.432478,-8734.430116,-1225.752797
540.233120,148.041188,-8512.368333,-153.219100
540.233448,2294.638420,-8290.306550,1455.581446
540.233775,3108.864956,-7402.059420,2374.896044
540.234103,1998.556043,-8216.285956,2221.676944
540.234430,-1036.288319,-9992.780217,689.485948
540.234758,-3330.926739,-10807.006753,-536.266849
540.235085,-3256.906145,-9844.739029,-842.705048
540.235413,-2738.761985,-9474.636058,-1149.143247
540.235741,-518.144159,-9326.594869,-306.438199
540.236068,1184.329507,-8290.306550,1149.143247
540.236396,3478.967927,-7772.162391,1838.629195
540.236723,3256.906145,-7402.059420,1915.238745
540.237051,1258.350101,-9030.512492,995.924147
540.237378,-2220.617826,-9622.677246,-536.266849
540.237706,-2368.659014,-9252.574275,-1072.533697
540.238033,-2072.576638,-9030.512492,-1302.362347
540.238361,-1110.308913,-8882.471304,-612.876398
540.238689,518.144159,-8660.409521,612.876398
540.239016,2368.659014,-8068.244768,2451.505594
540.239344,2960.823768,-7402.059420,2604.724693
540.239671,1036.288319,-9178.553681,1991.848295
540.239999,-2072.576638,-10510.924376,383.047749
540.240326,-3701.029710,-11103.089130,-766.095498
540.240654,-3701.029710,-9844.739029,-1455.581446
540.240981,-1850.514855,-9400.615463,-612.876398
540.241309,-370.102971,-8660.409521,0.000000
540.241636,2146.597232,-8142.265362,1378.971896
540.241964,3701.029710,-7550.100608,2374.896044
540.242291,2294.638420,-8068.244768,1838.629195
540.242619,-1036.288319,-9844.739029,0.000000
540.242946,-3701.029710,-10584.944971,-995.924147
540.243274,-3552.988522,-10584.944971,-1302.362347
540.243601,-2664.741391,-10214.842000,-1072.533697
540.243929,-740.205942,-10214.842000,0.000000
540.244256,1332.370696,-9030.512492,1225.752797
540.244584,3478.967927,-8438.347739,2604.724693
540.244911,3552.988522,-8216.285956,2911.162892
540.245239,1036.288319,-9622.677246,1838.629195
540.245567,-1776.494261,-10584.944971,153.219100
540.245894,-3182.885551,-10066.800811,-766.095498
540.246222,-3108.864956,-9400.615463,-306.438199
540.246549,-1850.514855,-9400.615463,-612.876398
540.246877,74.020594,-8956.491898,689.485948
540.247204,1998.556043,-8364.327145,1762.019645
540.247532,2812.782580,-7698.141797,2451.505594
540.247859,1554.432478,-8438.347739,2145.067394
540.248187,-1184.329507,-10140.821405,689.485948
540.248514,-2960.823768,-10510.924376,0.000000
540.248842,-2738.761985,-9844.739029,-612.876398
540.249169,-2368.659014,-9844.739029,-306.438199
540.249497,-888.247130,-9696.697840,612.876398
540.249824,740.205942,-8882.471304,1608.800546
540.250152,2516.700203,-7698.141797,2757.943793
540.250479,2590.720797,-7550.100608,2528.115143
540.250807,592.164754,-8808.450710,1685.410096
540.251134,-1850.514855,-9474.636058,459.657299
540.251462,-2442.679609,-9326.594869,383.047749
540.251789,-2368.659014,-9252.574275,-536.266849
540.252117,-1480.411884,-9474.636058,306.438199
540.252445,-444.123565,-9326.594869,842.705048
540.252772,1480.411884,-8290.306550,1838.629195
540.253100,1924.535449,-7254.018232,2298.286494
540.253427,1184.329507,-8660.409521,1532.190996
540.253755,-1258.350101,-9622.677246,229.828649
540.254082,-2442.679609,-9400.615463,-306.438199
540.254410,-2516.700203,-9252.574275,-842.705048
540.254737,-1702.473667,-9696.697840,-306.438199
540.255065,-1110.308913,-9548.656652,-229.828649
540.255392,1702.473667,-8734.430116,1455.581446
540.255720,2886.803174,-7772.162391,2145.067394
540.256047,2146.597232,-8216.285956,2068.457845
540.256375,-296.082377,-9400.615463,1072.533697
540.256702,-1924.535449,-9474.636058,306.438199
540.257030,-2072.576638,-9178.553681,-842.705048
540.257357,-1924.535449,-9400.615463,-995.924147
540.257685,-962.267725,-9548.656652,-459.657299
540.258012,370.102971,-9030.512492,842.705048
540.258340,2590.720797,-7402.059420,1302.362347
540.258668,2294.638420,-7920.203579,1608.800546
540.258995,666.185348,-9548.656652,919.314598
540.259323,-2146.597232,-10066.800811,-306.438199
540.259650,-2590.720797,-9474.636058,-1455.581446
540.259978,-2664.741391,-9400.615463,-1302.362347
540.260305,-1554.432478,-9252.574275,-842.705048
540.260633,296.082377,-9030.512492,0.000000
540.260960,2590.720797,-8068.244768,1455.581446
540.261288,3775.050304,-7254.018232,2298.286494
540.261615,1480.411884,-8290.306550,1915.238745
540.261943,-1332.370696,-9918.759623,612.876398
540.262270,-3182.885551,-9918.759623,-689.485948
540.262598,-2886.803174,-9474.636058,-1378.971896
540.262925,-2516.700203,-9696.697840,-995.924147
540.263253,-814.226536,-9474.636058,612.876398
540.263580,1554.432478,-8882.471304,919.314598
540.263908,3034.844362,-7994.224174,2374.896044
540.264235,1998.556043,-8290.306550,1685.410096
540.264563,-148.041188,-9622.677246,766.095498
540.264890,-2368.659014,-10066.800811,0.000000
540.265218,-2442.679609,-9474.636058,-1225.752797
540.265546,-2072.576638,-9696.697840,-995.924147
540.265873,-666.185348,-9178.553681,229.828649
540.266201,2072.576638,-7994.224174,1762.019645
540.266528,4071.132681,-7402.059420,3140.991542
540.266856,4071.132681,-7031.956449,3294.210641
540.267183,1258.350101,-9400.615463,2528.115143
540.267511,-2368.659014,-10436.903782,842.705048
540.267838,-3701.029710,-10214.842000,0.000000
540.268166,-3849.070898,-10288.862594,-919.314598
540.268493,-2442.679609,-10214.842000,459.657299
540.268821,-592.164754,-9252.574275,1072.533697
540.269148,1776.494261,-8290.306550,1915.238745
540.269476,2368.659014,-7624.121203,2451.505594
540.269803,370.102971,-8734.430116,1532.190996
540.270131,-2072.576638,-10140.821405,0.000000
540.270458,-4441.235652,-9474.636058,-1455.581446
540.270786,-3701.029710,-9104.533087,-1685.410096
540.271113,-2368.659014,-9030.512492,-1149.143247
540.271441,0.000000,-8290.306550,459.657299
540.271768,2368.659014,-7772.162391,2221.676944
540.272096,4071.132681,-7105.977043,3140.991542
540.272424,2442.679609,-8068.244768,3294.210641
540.272751,-518.144159,-9844.739029,2068.457845
540.273079,-3404.947333,-10510.924376,0.000000
540.273406,-3627.009116,-10436.903782,-766.095498
540.273734,-2960.823768,-9696.697840,-842.705048
540.274061,-1184.329507,-9474.636058,-383.047749
540.274389,814.226536,-8586.388927,612.876398
540.274716,3478.967927,-7105.977043,1991.848295
540.275044,3552.988522,-7254.018232,1685.410096
540.275371,1628.453072,-9104.533087,459.657299
540.275699,-1258.350101,-10066.800811,-766.095498
540.276026,-2812.782580,-9918.759623,-1608.800546
540.276354,-2516.700203,-9844.739029,-1532.190996
540.276681,-1480.411884,-9474.636058,-612.876398
540.277009,888.247130,-8734.430116,919.314598
540.277336,2812.782580,-8586.388927,2757.943793
540.277664,3923.091493,-7624.121203,3370.820191
540.277991,1998.556043,-8512.368333,2681.334243
540.278319,-1184.329507,-9992.780217,1838.629195
540.278646,-3552.988522,-9844.739029,0.000000
540.278974,-2886.803174,-9252.574275,-229.828649
540.279302,-2516.700203,-9252.574275,-1225.752797
540.279629,-814.226536,-9030.512492,-536.266849
540.279957,888.247130,-8438.347739,306.438199
540.280284,2886.803174,-7402.059420,1685.410096
540.280612,2220.617826,-7698.141797,1149.143247
540.280939,0.000000,-8586.388927,612.876398
540.281267,-3404.947333,-10140.821405,-1149.143247
540.281594,-4071.132681,-10288.862594,-1685.410096
540.281922,-3478.967927,-10066.800811,-1455.581446
540.282249,-2220.617826,-9622.677246,-306.438199
540.282577,814.226536,-8808.450710,1072.533697
540.282904,3404.947333,-8364.327145,2451.505594
540.283232,3182.885551,-7920.203579,2987.772442
540.283559,1406.391290,-8808.450710,2528.115143
540.283887,-1258.350101,-9326.594869,766.095498
540.284214,-2368.659014,-9918.759623,0.000000
540.284542,-2442.679609,-9844.739029,-1149.143247
540.284869,-1850.514855,-10584.944971,-1072.533697
540.285197,148.041188,-10066.800811,0.000000
540.285525,1776.494261,-9252.574275,1149.143247
540.285852,3478.967927,-8216.285956,1991.848295
540.286180,2294.638420,-8956.491898,1532.190996
540.286507,-222.061783,-9918.759623,76.609550
540.286835,-2738.761985,-10658.965565,-995.924147
540.287162,-2442.679609,-9770.718434,-1608.800546
540.287490,-2220.617826,-9474.636058,-1685.410096
540.287817,-296.082377,-9474.636058,-153.219100
540.288145,1702.473667,-8290.306550,1149.143247
540.288472,3775.050304,-7698.141797,2757.943793
540.288800,2812.782580,-8290.306550,2987.772442
540.289127,222.061783,-9548.656652,2221.676944
540.289455,-2812.782580,-10288.862594,1455.581446
540.289782,-3627.009116,-10140.821405,76.609550
540.290110,-3404.947333,-9918.759623,-229.828649
540.290437,-2294.638420,-9696.697840,-229.828649
540.290765,0.000000,-8882.471304,459.657299
540.291092,1776.494261,-7624.121203,2298.286494
540.291420,2738.761985,-7105.977043,1991.848295
540.291747,1110.308913,-8068.244768,1608.800546
540.292075,-2368.659014,-9548.656652,-229.828649
540.292403,-3701.029710,-9696.697840,-1685.410096
540.292730,-3627.009116,-8142.265362,-1378.971896
540.293058,-2146.597232,-8216.285956,-995.924147
540.293385,0.000000,-8364.327145,766.095498
540.293713,3256.906145,-8142.265362,2757.943793
540.294040,4737.318029,-7846.182985,4213.525239
540.294368,4293.194464,-7846.182985,4749.792088
540.294695,1332.370696,-9622.677246,3370.820191
540.295023,-1480.411884,-10658.965565,2374.896044
540.295350,-2368.659014,-10066.800811,1225.752797
540.295678,-1332.370696,-9622.677246,1532.190996
540.296005,666.185348,-9030.512492,2834.553343
540.296333,1850.514855,-7698.141797,3370.820191
540.296660,3923.091493,-7179.997637,4443.353888
540.296988,3108.864956,-7105.977043,3907.087040
540.297315,518.144159,-8586.388927,2987.772442
540.297643,-2516.700203,-9844.739029,1302.362347
540.297970,-4293.194464,-9622.677246,-306.438199
540.298298,-4145.153275,-8956.491898,0.000000
540.298625,-3108.864956,-8438.347739,536.266849
540.298953,-1258.350101,-7698.141797,1762.019645
540.299281,666.185348,-7402.059420,3294.210641
540.299608,1406.391290,-6883.915261,4366.744339
540.299936,518.144159,-7476.080014,4060.306139
540.300263,-2220.617826,-9474.636058,2757.943793
540.300591,-5033.400406,-10658.965565,1455.581446
540.300918,-4959.379811,-11029.068536,919.314598
540.301246,-3404.947333,-9326.594869,766.095498
540.301573,-1110.308913,-8586.388927,2145.067394
540.301901,1036.288319,-8660.409521,2834.553343
540.302228,1850.514855,-8364.327145,3064.381992
540.302556,2294.638420,-7994.224174,2987.772442
540.302883,1406.391290,-7846.182985,2298.286494
540.303211,592.164754,-9474.636058,1608.800546
540.303538,-1776.494261,-11251.130318,76.609550
540.303866,-1554.432478,-11621.233289,459.657299
540.304193,0.000000,-10510.924376,1149.143247
540.304521,2516.700203,-9622.677246,3064.381992
540.304848,4515.256246,-9474.636058,4596.572988
540.305176,4441.235652,-10955.047942,4979.620737
540.305504,3404.947333,-10732.986159,5132.839837
540.305831,2442.679609,-10066.800811,4903.011187
540.306159,1924.535449,-10214.842000,4673.182538
540.306486,1406.391290,-11029.068536,4136.915689
540.306814,444.123565,-11177.109724,4749.792088
540.307141,444.123565,-10510.924376,4749.792088
540.307469,814.226536,-9326.594869,5132.839837
540.307796,666.185348,-8808.450710,4903.011187
540.308124,-740.205942,-9622.677246,3753.867940
540.308451,-3034.844362,-9918.759623,2987.772442
540.308779,-4737.318029,-9622.677246,1838.629195
540.309106,-4145.153275,-8882.471304,1608.800546
540.309434,-2886.803174,-8216.285956,2068.457845
540.309761,-2960.823768,-9030.512492,2681.334243
540.310089,-3182.885551,-9474.636058,2451.505594
540.310416,-5181.441594,-10140.821405,1915.238745
540.310744,-5181.441594,-8882.471304,1991.848295
540.311071,-3775.050304,-7846.182985,2145.067394
540.311399,-1702.473667,-7846.182985,2528.115143
540.311726,-888.247130,-7920.203579,2834.553343
540.312054,-222.061783,-8512.368333,2987.772442
540.312382,1110.308913,-8216.285956,3447.429741
540.312709,3182.885551,-7402.059420,4366.744339
540.313037,5107.421000,-8142.265362,5745.716235
540.313364,5847.626942,-9400.615463,5669.106685
540.313692,4441.235652,-10658.965565,5898.935335
540.314019,2146.597232,-10955.047942,5286.058936
540.314347,1776.494261,-10510.924376,5132.839837
540.314674,2960.823768,-9696.697840,5439.278036
540.315002,2960.823768,-9252.574275,4749.792088
540.315329,3997.112087,-9104.533087,5439.278036
540.315657,1776.494261,-9622.677246,4673.182538
540.315984,-1332.370696,-10214.842000,3677.258390
540.316312,-2738.761985,-9474.636058,2834.553343
540.316639,-2886.803174,-8068.244768,2911.162892
540.316967,-2368.659014,-7698.141797,2757.943793
540.317294,-1702.473667,-7698.141797,2834.553343
540.317622,-3256.906145,-8068.244768,2604.724693
540.317949,-5033.400406,-7476.080014,1915.238745
540.318277,-6291.750507,-7550.100608,1685.410096
540.318604,-6291.750507,-7994.224174,383.047749
540.318932,-4811.338623,-7476.080014,306.438199
540.319260,-2146.597232,-7179.997637,842.705048
540.319587,-296.082377,-6957.935855,1838.629195
540.319915,592.164754,-6957.935855,2757.943793
540.320242,296.082377,-7624.121203,2911.162892
540.320570,74.020594,-7994.224174,2604.724693
540.320897,518.144159,-9326.594869,2145.067394
540.321225,1850.514855,-10066.800811,2145.067394
540.321552,3478.967927,-9770.718434,3294.210641
540.321880,5477.523971,-9770.718434,4979.620737
540.322207,5921.647536,-10436.903782,6205.373534
540.322535,5329.482782,-11621.233289,5745.716235
540.322862,3552.988522,-11991.336260,4903.011187
540.323190,1702.473667,-11843.295072,3983.696590
540.323517,518.144159,-11251.130318,3677.258390
540.323845,-814.226536,-10584.944971,3140.991542
540.324172,518.144159,-10066.800811,3983.696590
540.324500,2368.659014,-8142.265362,4826.401637
540.324827,1924.535449,-9326.594869,5132.839837
540.325155,0.000000,-8660.409521,4519.963438
540.325482,-2812.782580,-8586.388927,3600.648841
540.325810,-5699.585753,-8956.491898,2451.505594
540.326138,-5699.585753,-8734.430116,1225.752797
540.326465,-5033.400406,-8438.347739,1685.410096
540.326793,-2590.720797,-7476.080014,2834.553343
540.327120,-1036.288319,-6661.853478,4519.963438
540.327448,-296.082377,-7105.977043,5056.230287
540.327775,-814.226536,-7698.141797,4749.792088
540.328103,-2368.659014,-8956.491898,3907.087040
540.328430,-3627.009116,-9622.677246,2451.505594
540.328758,-4293.194464,-10066.800811,1608.800546
540.329085,-4145.153275,-10066.800811,1991.848295
540.329413,-2146.597232,-9918.759623,2681.334243
540.329740,222.061783,-9548.656652,3294.210641
540.330068,2294.638420,-9104.533087,4060.306139
540.330395,2960.823768,-9030.512492,4213.525239
540.330723,2590.720797,-9104.533087,4213.525239
540.331050,1702.473667,-10140.821405,3677.258390
540.331378,1332.370696,-10510.924376,3217.601092
540.331705,1406.391290,-10732.986159,3217.601092
540.332033,1258.350101,-10510.924376,3907.087040
540.332361,1702.473667,-9696.697840,4979.620737
540.332688,1184.329507,-9104.533087,4749.792088
540.333016,0.000000,-9030.512492,3830.477490
540.333343,296.082377,-8808.450710,3983.696590
540.333671,592.164754,-7254.018232,3217.601092
540.333998,222.061783,-7846.182985,3370.820191
540.334326,1702.473667,-7624.121203,2604.724693
540.334653,1406.391290,-7550.100608,2987.772442
540.334981,518.144159,-7772.162391,3217.601092
540.335308,1110.308913,-8216.285956,3370.820191
540.335636,0.000000,-8586.388927,3677.258390
540.335963,-444.123565,-9400.615463,3830.477490
540.336291,-740.205942,-9474.636058,3524.039291
540.336619,-2294.638420,-9844.739029,3447.429741
540.336946,-2072.576638,-9992.780217,3217.601092
540.337274,-2368.659014,-9622.677246,2987.772442
540.337601,-2294.638420,-9400.615463,2834.553343
540.337929,-1850.514855,-9030.512492,2528.115143
540.338257,-1776.494261,-8956.491898,2451.505594
540.338584,-1480.411884,-8216.285956,2221.676944
540.338912,-962.267725,-7846.182985,2221.676944
540.339239,-1036.288319,-7254.018232,2528.115143
540.339567,-518.144159,-7698.141797,2604.724693
540.339895,0.000000,-8290.306550,2987.772442
540.340222,148.041188,-8586.388927,3064.381992
540.340550,518.144159,-9104.533087,3524.039291
540.340877,814.226536,-9474.636058,4213.525239
540.341205,888.247130,-10066.800811,3600.648841
540.341533,518.144159,-10288.862594,3830.477490
540.341860,296.082377,-10066.800811,4060.306139
540.342188,296.082377,-9622.677246,3524.039291
540.342515,74.020594,-9548.656652,3524.039291
540.342843,962.267725,-9252.574275,2834.553343
540.343171,1406.391290,-8808.450710,2604.724693
540.343498,666.185348,-9252.574275,2451.505594
540.343826,888.247130,-9548.656652,2145.067394
540.344153,0.000000,-9844.739029,2145.067394
540.344481,-1036.288319,-10140.821405,2145.067394
540.344809,-666.185348,-9844.739029,2145.067394
540.345136,-1258.350101,-9992.780217,1838.629195
540.345464,-1258.350101,-9400.615463,1532.190996
540.345791,-1258.350101,-9400.615463,1762.019645
540.346119,-1776.494261,-9178.553681,1991.848295
540.346447,-1554.432478,-9030.512492,1378.971896
540.346774,-1776.494261,-8586.388927,1302.362347
540.347102,-1184.329507,-8142.265362,1302.362347
540.347429,-592.164754,-7698.141797,1225.752797
540.347757,0.000000,-7402.059420,1072.533697
540.348085,296.082377,-7994.224174,919.314598
540.348412,296.082377,-8290.306550,1302.362347
540.348740,0.000000,-8808.450710,1225.752797
540.349067,296.082377,-9844.739029,1532.190996
540.349395,148.041188,-10362.883188,1685.410096
540.349723,592.164754,-10584.944971,1302.362347
540.350050,1258.350101,-10881.027347,1838.629195
540.350378,1776.494261,-10510.924376,2298.286494
540.350705,1998.556043,-10584.944971,2298.286494
540.351033,1258.350101,-10214.842000,1838.629195
540.351360,740.205942,-9844.739029,2298.286494
540.351688,148.041188,-9326.594869,1302.362347
540.352016,-370.102971,-9474.636058,1149.143247
540.352343,-814.226536,-8734.430116,1149.143247
540.352671,-814.226536,-8438.347739,919.314598
540.352998,-370.102971,-8290.306550,1149.143247
540.353326,-814.226536,-7994.224174,766.095498
540.353654,-740.205942,-8142.265362,1072.533697
540.353981,-1628.453072,-7920.203579,612.876398
540.354309,-1554.432478,-7772.162391,383.047749
540.354636,-1184.329507,-7328.038826,536.266849
540.354964,-1332.370696,-7920.203579,612.876398
540.355292,-962.267725,-8290.306550,612.876398
540.355619,-1036.288319,-8586.388927,842.705048
540.355947,-1036.288319,-8956.491898,1149.143247
540.356274,-814.226536,-9252.574275,1072.533697
540.356602,-148.041188,-9178.553681,766.095498
540.356930,-370.102971,-9104.533087,1072.533697
540.357257,74.020594,-9326.594869,612.876398
540.357585,370.102971,-9400.615463,919.314598
540.357912,592.164754,-9474.636058,689.485948
540.358240,444.123565,-9548.656652,1149.143247
540.358568,148.041188,-9770.718434,1149.143247
540.358895,222.061783,-9918.759623,1225.752797
540.359223,74.020594,-9696.697840,919.314598
540.359550,296.082377,-9326.594869,766.095498
540.359878,666.185348,-8882.471304,536.266849
540.360206,0.000000,-8512.368333,612.876398
540.360533,370.102971,-8512.368333,919.314598
540.360861,0.000000,-8216.285956,536.266849
540.361188,-592.164754,-8586.388927,766.095498
540.361516,-666.185348,-8660.409521,766.095498
540.361844,-1036.288319,-8808.450710,0.000000
540.362171,-1406.391290,-9104.533087,153.219100
540.362499,-962.267725,-9326.594869,153.219100
540.362826,-962.267725,-9252.574275,153.219100
540.363154,-1036.288319,-9030.512492,306.438199
540.363482,-518.144159,-8512.368333,-306.438199
540.363809,-148.041188,-9326.594869,383.047749
540.364137,0.000000,-9400.615463,383.047749
540.364464,-296.082377,-9474.636058,459.657299
540.364792,-148.041188,-9696.697840,229.828649
540.365119,0.000000,-9622.677246,1072.533697
540.365447,-296.082377,-9918.759623,766.095498
540.365775,0.000000,-10362.883188,919.314598
540.366102,-148.041188,-9696.697840,995.924147
540.366430,296.082377,-9474.636058,612.876398
540.366757,518.144159,-9178.553681,1225.752797
540.367085,592.164754,-8956.491898,536.266849
540.367413,296.082377,-9030.512492,842.705048
540.367740,74.020594,-8956.491898,459.657299
540.368068,-148.041188,-8956.491898,689.485948
540.368395,0.000000,-9104.533087,1378.971896
540.368723,296.082377,-8734.430116,229.828649
540.369051,0.000000,-9178.553681,689.485948
540.369378,74.020594,-8586.388927,306.438199
540.369706,0.000000,-8882.471304,536.266849
540.370033,-222.061783,-8956.491898,766.095498
540.370361,0.000000,-8734.430116,383.047749
540.370689,-666.185348,-8882.471304,306.438199
540.371016,-666.185348,-8956.491898,153.219100
540.371344,-814.226536,-9252.574275,459.657299
540.371671,-1036.288319,-9400.615463,153.219100
540.371999,-666.185348,-9030.512492,612.876398
540.372327,-370.102971,-9252.574275,153.219100
540.372654,-740.205942,-9030.512492,153.219100
540.372982,-444.123565,-8660.409521,306.438199
540.373309,-444.123565,-8586.388927,536.266849
540.373637,-444.123565,-8142.265362,536.266849
540.373965,-666.185348,-8586.388927,919.314598
540.374292,-592.164754,-8882.471304,842.705048
540.374620,-888.247130,-9030.512492,995.924147
540.374947,-888.247130,-9326.594869,919.314598
540.375275,-740.205942,-9474.636058,919.314598
540.375603,-1036.288319,-9178.553681,1302.362347
540.375930,-592.164754,-8808.450710,536.266849
540.376258,-296.082377,-8734.430116,919.314598
540.376585,-296.082377,-8808.450710,536.266849
540.376913,-148.041188,-9252.574275,689.485948
540.377241,0.000000,-9252.574275,1149.143247
540.377568,-148.041188,-9104.533087,689.485948
540.377896,-666.185348,-9474.636058,766.095498
540.378223,-222.061783,-9770.718434,612.876398
540.378551,-518.144159,-9400.615463,689.485948
540.378879,-370.102971,-9030.512492,383.047749
540.379206,148.041188,-8956.491898,306.438199
540.379534,-370.102971,-9030.512492,536.266849
540.379861,-592.164754,-8956.491898,612.876398
540.380189,-444.123565,-8956.491898,383.047749
540.380516,-814.226536,-8216.285956,766.095498
540.380844,0.000000,-9326.594869,689.485948
540.381172,-518.144159,-8882.471304,229.828649
540.381499,-370.102971,-9104.533087,306.438199
540.381827,-222.061783,-9104.533087,383.047749
540.382154,74.020594,-8290.306550,229.828649
540.382482,0.000000,-8808.450710,229.828649
540.382810,148.041188,-9252.574275,459.657299
540.383137,0.000000,-9474.636058,229.828649
540.383465,0.000000,-9770.718434,229.828649
540.383792,-296.082377,-9844.739029,612.876398
540.384120,0.000000,-9770.718434,612.876398
540.384448,0.000000,-9770.718434,689.485948
540.384775,0.000000,-9474.636058,229.828649
540.385103,0.000000,-8956.491898,459.657299
540.385430,-296.082377,-8660.409521,306.438199
540.385758,-518.144159,-8512.368333,612.876398
540.386086,-740.205942,-8808.450710,153.219100
540.386413,-1110.308913,-8734.430116,536.266849
540.386741,-1036.288319,-8734.430116,536.266849
540.387068,-888.247130,-8734.430116,689.485948
540.387396,-888.247130,-8216.285956,612.876398
540.387724,74.020594,-8512.368333,459.657299
540.388051,0.000000,-8142.265362,612.876398
540.388379,222.061783,-8438.347739,383.047749
540.388706,74.020594,-8956.491898,383.047749
540.389034,-592.164754,-9252.574275,1072.533697
540.389362,-370.102971,-9474.636058,536.266849
540.389689,-666.185348,-9918.759623,995.924147
540.390017,-444.123565,-10214.842000,1302.362347
540.390344,-222.061783,-9992.780217,919.314598
540.390672,74.020594,-9178.553681,842.705048
540.391000,814.226536,-8438.347739,842.705048
540.391327,518.144159,-8290.306550,383.047749
540.391655,148.041188,-8290.306550,383.047749
540.391982,-222.061783,-8438.347739,459.657299
540.392310,-592.164754,-8734.430116,612.876398
540.392638,-444.123565,-9178.553681,1149.143247
540.392965,-888.247130,-9400.615463,689.485948
540.393293,-518.144159,-9474.636058,612.876398
540.393620,-296.082377,-9104.533087,689.485948
540.393948,0.000000,-8808.450710,459.657299
540.394275,222.061783,-7920.203579,383.047749
540.394603,370.102971,-8216.285956,229.828649
540.394931,0.000000,-8364.327145,383.047749
540.395258,-444.123565,-9104.533087,76.609550
540.395586,-740.205942,-9696.697840,612.876398
540.395913,-518.144159,-9696.697840,689.485948
540.396241,-444.123565,-9548.656652,459.657299
540.396569,-370.102971,-9474.636058,383.047749
540.396896,-148.041188,-9474.636058,306.438199
540.397224,74.020594,-9178.553681,76.609550
540.397551,444.123565,-8882.471304,153.219100
540.397879,444.123565,-8438.347739,0.000000
540.398207,370.102971,-9326.594869,766.095498
540.398534,0.000000,-9622.677246,689.485948
540.398862,-148.041188,-9918.759623,766.095498
540.399189,-444.123565,-9696.697840,766.095498
540.399517,-592.164754,-9474.636058,1302.362347
540.399845,-296.082377,-9178.553681,612.876398
540.400172,-592.164754,-8808.450710,383.047749
540.400500,-444.123565,-8586.388927,536.266849
540.400827,-666.185348,-8586.388927,536.266849
540.401155,-370.102971,-8734.430116,612.876398
540.401483,-740.205942,-8882.471304,919.314598
540.401810,-814.226536,-9400.615463,842.705048
540.402138,-740.205942,-9252.574275,842.705048
540.402465,-444.123565,-9474.636058,689.485948
540.402793,-518.144159,-9326.594869,459.657299
540.403121,-148.041188,-9104.533087,1149.143247
540.403448,-296.082377,-9474.636058,459.657299
540.403776,-148.041188,-9400.615463,842.705048
540.404103,-296.082377,-9548.656652,689.485948
540.404431,0.000000,-9844.739029,842.705048
540.404759,-518.144159,-9548.656652,1225.752797
540.405086,0.000000,-9326.594869,612.876398
540.405414,-370.102971,-9474.636058,842.705048
540.405741,-666.185348,-9030.512492,612.876398
540.406069,-296.082377,-8808.450710,536.266849
540.406397,-518.144159,-8290.306550,766.095498
540.406724,-296.082377,-8216.285956,459.657299
540.407052,-444.123565,-8216.285956,306.438199
540.407379,-370.102971,-8808.450710,229.828649
540.407707,-296.082377,-8808.450710,306.438199
540.408034,-296.082377,-8364.327145,536.266849
540.408362,-148.041188,-8660.409521,766.095498
540.408690,-148.041188,-8956.491898,306.438199
540.409017,0.000000,-9178.553681,459.657299
540.409345,0.000000,-9252.574275,229.828649
540.409672,0.000000,-9178.553681,383.047749
540.410000,296.082377,-9030.512492,1149.143247
540.410328,0.000000,-9400.615463,383.047749
540.410655,-518.144159,-9252.574275,536.266849
540.410983,-370.102971,-9178.553681,383.047749
540.411310,-444.123565,-9252.574275,306.438199
540.411638,-444.123565,-8734.430116,919.314598
540.411966,-296.082377,-8734.430116,306.438199
540.412293,-296.082377,-8660.409521,612.876398
540.412621,0.000000,-8660.409521,689.485948
540.412948,-222.061783,-8808.450710,612.876398
540.413276,-740.205942,-8290.306550,612.876398
540.413604,-370.102971,-8734.430116,612.876398
540.413931,-518.144159,-8808.450710,1072.533697
540.414259,-222.061783,-9252.574275,842.705048
540.414586,-444.123565,-9474.636058,995.924147
540.414914,74.020594,-9474.636058,842.705048
540.415242,0.000000,-9326.594869,383.047749
540.415569,0.000000,-8956.491898,612.876398
540.415897,-296.082377,-9030.512492,689.485948
540.416224,-222.061783,-9178.553681,459.657299
540.416552,-370.102971,-9326.594869,766.095498
540.416880,0.000000,-9400.615463,1149.143247
540.417207,-296.082377,-9622.677246,995.924147
540.417535,-444.123565,-9474.636058,689.485948
540.417862,-296.082377,-9326.594869,689.485948
540.418190,-222.061783,-9326.594869,536.266849
540.418518,-592.164754,-8808.450710,536.266849
540.418845,148.041188,-8956.491898,383.047749
540.419173,-148.041188,-8956.491898,383.047749
540.419500,0.000000,-9178.553681,229.828649
540.419828,0.000000,-9326.594869,229.828649
540.420156,-444.123565,-8808.450710,689.485948
540.420483,148.041188,-9474.636058,689.485948
540.420811,0.000000,-9474.636058,536.266849
540.421138,74.020594,-9326.594869,383.047749
540.421466,74.020594,-9252.574275,153.219100
540.421794,296.082377,-8808.450710,383.047749
540.422121,148.041188,-9104.533087,0.000000
540.422449,0.000000,-9326.594869,459.657299
540.422776,-296.082377,-9400.615463,229.828649
540.423104,0.000000,-9548.656652,306.438199
540.423431,-222.061783,-9252.574275,689.485948
540.423759,0.000000,-9104.533087,459.657299
540.424087,-296.082377,-9030.512492,306.438199
540.424414,-222.061783,-8956.491898,536.266849
540.424742,-222.061783,-8882.471304,306.438199
540.425069,-296.082377,-9030.512492,536.266849
540.425397,-222.061783,-9104.533087,612.876398
540.425725,-370.102971,-9252.574275,919.314598
540.426052,-296.082377,-9252.574275,919.314598
540.426380,-444.123565,-9104.533087,536.266849
540.426707,-444.123565,-8956.491898,766.095498
540.427035,-592.164754,-8586.388927,919.314598
540.427363,148.041188,-9104.533087,76.609550
540.427690,-444.123565,-8734.430116,689.485948
540.428018,-148.041188,-8882.471304,612.876398
540.428345,-296.082377,-9252.574275,612.876398
540.428673,-518.144159,-9178.553681,459.657299
540.429001,-222.061783,-9104.533087,153.219100
540.429328,0.000000,-9104.533087,536.266849
540.429656,0.000000,-9178.553681,536.266849
540.429983,-148.041188,-9178.553681,229.828649
540.430311,-296.082377,-9178.553681,459.657299
540.430639,0.000000,-8660.409521,842.705048
540.430966,0.000000,-9474.636058,459.657299
540.431294,0.000000,-9548.656652,689.485948
540.431621,-148.041188,-9400.615463,766.095498
540.431949,0.000000,-9400.615463,612.876398
540.432277,74.020594,-9474.636058,612.876398
540.432604,0.000000,-9104.533087,229.828649
540.432932,-148.041188,-8956.491898,153.219100
540.433259,-222.061783,-8956.491898,383.047749
540.433587,-518.144159,-9030.512492,536.266849
540.433915,-666.185348,-8882.471304,612.876398
540.434242,-444.123565,-9178.553681,153.219100
540.434570,-740.205942,-9104.533087,536.266849
540.434897,-814.226536,-9178.553681,919.314598
540.435225,-444.123565,-9030.512492,689.485948
540.435553,-296.082377,-9030.512492,842.705048
540.435880,-222.061783,-8438.347739,919.314598
540.436208,-518.144159,-9104.533087,536.266849
540.436535,-518.144159,-9252.574275,612.876398
540.436863,-740.205942,-9326.594869,766.095498
540.437191,-666.185348,-9326.594869,689.485948
540.437518,-518.144159,-9252.574275,919.314598
540.437846,-444.123565,-9178.553681,383.047749
540.438174,-444.123565,-9178.553681,766.095498
540.438501,-370.102971,-9252.574275,536.266849
540.438829,-296.082377,-8882.471304,842.705048
540.439157,-444.123565,-8290.306550,995.924147
540.439484,-370.102971,-8956.491898,383.047749
540.439812,-962.267725,-8808.450710,383.047749
540.440139,-592.164754,-8808.450710,612.876398
540.440467,-518.144159,-8660.409521,536.266849
540.440795,-814.226536,-8660.409521,612.876398
540.441122,-296.082377,-8808.450710,536.266849
540.441450,-222.061783,-8882.471304,459.657299
540.441778,-518.144159,-8734.430116,306.438199
540.442105,-148.041188,-8882.471304,459.657299
540.442433,-444.123565,-9104.533087,459.657299
540.442761,0.000000,-9252.574275,536.266849
540.443088,0.000000,-9326.594869,612.876398
540.443416,0.000000,-9252.574275,612.876398
540.443744,-148.041188,-9252.574275,383.047749
540.444071,-222.061783,-9104.533087,383.047749
540.444399,296.082377,-8882.471304,612.876398
540.444727,-222.061783,-8956.491898,612.876398
540.445054,0.000000,-8808.450710,229.828649
540.445382,-444.123565,-8882.471304,229.828649
540.445710,-370.102971,-8956.491898,229.828649
540.446037,0.000000,-9030.512492,842.705048
540.446365,-444.123565,-8438.347739,76.609550
540.446693,-222.061783,-8808.450710,459.657299
540.447020,-148.041188,-8882.471304,536.266849
540.447348,0.000000,-9104.533087,383.047749
540.447676,0.000000,-8512.368333,536.266849
540.448003,-222.061783,-9030.512492,536.266849
540.448331,0.000000,-9400.615463,383.047749
540.448658,-222.061783,-9474.636058,689.485948
540.448986,-222.061783,-9400.615463,842.705048
540.449314,0.000000,-9178.553681,766.095498
540.449641,74.020594,-8956.491898,153.219100
540.449969,-370.102971,-9030.512492,689.485948
540.450297,-444.123565,-8956.491898,612.876398
540.450624,-370.102971,-9104.533087,612.876398
540.450952,-370.102971,-9030.512492,612.876398
540.451280,-222.061783,-9178.553681,306.438199
540.451607,-518.144159,-9178.553681,842.705048
540.451935,-296.082377,-9104.533087,766.095498
540.452263,-222.061783,-9104.533087,536.266849
540.452590,-148.041188,-9400.615463,919.314598
540.452918,-74.020594,-9252.574275,459.657299
540.453246,-222.061783,-9474.636058,919.314598
540.453573,0.000000,-9474.636058,766.095498
540.453901,0.000000,-9474.636058,459.657299
540.454229,0.000000,-9622.677246,919.314598
540.454556,0.000000,-9400.615463,919.314598
540.454884,-370.102971,-8956.491898,842.705048
540.455212,0.000000,-9622.677246,612.876398
540.455539,-222.061783,-9474.636058,229.828649
540.455867,-296.082377,-9326.594869,153.219100
540.456195,-148.041188,-9030.512492,383.047749
540.456522,0.000000,-8956.491898,-229.828649
540.456850,-296.082377,-9104.533087,459.657299
540.457177,-444.123565,-9252.574275,612.876398
540.457505,-222.061783,-9252.574275,229.828649
540.457833,-518.144159,-9326.594869,306.438199
540.458160,0.000000,-8882.471304,612.876398
540.458488,-296.082377,-8956.491898,306.438199
540.458816,0.000000,-8956.491898,383.047749
540.459143,-222.061783,-9326.594869,536.266849
540.459471,0.000000,-9104.533087,689.485948
540.459799,0.000000,-9474.636058,919.314598
540.460126,0.000000,-8660.409521,383.047749
540.460454,-296.082377,-9030.512492,383.047749
540.460782,-296.082377,-9104.533087,459.657299
540.461109,-444.123565,-9178.553681,536.266849
540.461437,-444.123565,-8586.388927,612.876398
540.461765,0.000000,-8808.450710,842.705048
540.462092,-296.082377,-8956.491898,612.876398
540.462420,-518.144159,-8882.471304,766.095498
540.462748,-518.144159,-8956.491898,612.876398
540.463075,-370.102971,-8734.430116,383.047749
540.463403,-444.123565,-8660.409521,919.314598
540.463731,-518.144159,-8808.450710,766.095498
540.464058,-592.164754,-8734.430116,612.876398
540.464386,-444.123565,-8808.450710,612.876398
540.464714,-444.123565,-8956.491898,536.266849
540.465041,-518.144159,-9104.533087,0.000000
540.465369,-518.144159,-8512.368333,689.485948
540.465696,-444.123565,-8734.430116,612.876398
540.466024,-370.102971,-8808.450710,459.657299
540.466352,-444.123565,-9030.512492,689.485948
540.466679,-370.102971,-9400.615463,919.314598
540.467007,0.000000,-8734.430116,306.438199
540.467335,-444.123565,-9030.512492,383.047749
540.467662,-518.144159,-9030.512492,536.266849
540.467990,-370.102971,-9030.512492,536.266849
540.468318,-296.082377,-8956.491898,459.657299
540.468645,-518.144159,-8882.471304,612.876398
540.468973,-370.102971,-9030.512492,383.047749
540.469301,-222.061783,-9030.512492,459.657299
540.469628,-222.061783,-9030.512492,536.266849
540.469956,-444.123565,-9030.512492,229.828649
540.470284,0.000000,-9104.533087,1149.143247
540.470611,-296.082377,-9252.574275,689.485948
540.470939,0.000000,-9400.615463,689.485948
540.471267,-148.041188,-9030.512492,459.657299
540.471594,-370.102971,-9252.574275,612.876398
540.471922,0.000000,-9326.594869,229.828649
540.472250,0.000000,-9326.594869,689.485948
540.472577,-296.082377,-9326.594869,536.266849
540.472905,-296.082377,-9252.574275,842.705048
540.473233,-222.061783,-9178.553681,612.876398
540.473560,-666.185348,-8734.430116,842.705048
540.473888,-222.061783,-9326.594869,1072.533697
540.474215,-444.123565,-9178.553681,689.485948
540.474543,-370.102971,-9030.512492,612.876398
540.474871,-296.082377,-9400.615463,459.657299
540.475198,-222.061783,-8956.491898,1072.533697
540.475526,-296.082377,-8808.450710,919.314598
540.475854,0.000000,-9178.553681,689.485948
540.476181,0.000000,-9178.553681,766.095498
540.476509,-148.041188,-9178.553681,689.485948
540.476837,-222.061783,-9252.574275,766.095498
540.477164,0.000000,-9104.533087,612.876398
540.477492,-370.102971,-9326.594869,459.657299
540.477820,-296.082377,-9326.594869,689.485948
540.478147,-222.061783,-9326.594869,689.485948
540.478475,0.000000,-9178.553681,383.047749
540.478803,148.041188,-9030.512492,995.924147
540.479130,-296.082377,-8734.430116,229.828649
540.479458,0.000000,-9178.553681,76.609550
540.479786,-222.061783,-9178.553681,229.828649
540.480113,0.000000,-9326.594869,76.609550
540.480441,0.000000,-8734.430116,153.219100
540.480769,0.000000,-9030.512492,1225.752797
540.481096,74.020594,-9400.615463,689.485948
540.481424,148.041188,-9400.615463,383.047749
540.481752,74.020594,-9474.636058,383.047749
540.482079,0.000000,-9104.533087,459.657299
540.482407,74.020594,-8882.471304,995.924147
540.482734,0.000000,-9326.594869,306.438199
540.483062,0.000000,-9252.574275,612.876398
540.483390,-148.041188,-9178.553681,612.876398
540.483717,0.000000,-9252.574275,536.266849
540.484045,74.020594,-8956.491898,689.485948
540.484373,-222.061783,-9030.512492,766.095498
540.484700,-370.102971,-9252.574275,689.485948
540.485028,-296.082377,-8734.430116,612.876398
540.485356,-370.102971,-9030.512492,459.657299
540.485683,-148.041188,-8882.471304,689.485948
540.486011,-370.102971,-9104.533087,612.876398
540.486339,0.000000,-9326.594869,766.095498
540.486666,-444.123565,-9252.574275,919.314598
540.486994,-370.102971,-9474.636058,689.485948
540.487322,-518.144159,-9178.553681,612.876398
540.487649,-74.020594,-9178.553681,1302.362347
540.487977,-518.144159,-9178.553681,612.876398
540.488305,-592.164754,-9104.533087,919.314598
540.488632,-518.144159,-9178.553681,842.705048
540.488960,-444.123565,-9104.533087,612.876398
540.489288,-370.102971,-9104.533087,612.876398
540.489615,-444.123565,-8956.491898,383.047749
540.489943,-296.082377,-8956.491898,459.657299
540.490271,-592.164754,-8882.471304,612.876398
540.490598,-740.205942,-9104.533087,612.876398
540.490926,-296.082377,-9030.512492,459.657299
540.491253,-296.082377,-9178.553681,229.828649
540.491581,-222.061783,-9326.594869,306.438199
540.491909,0.000000,-9400.615463,459.657299
540.492236,-296.082377,-9326.594869,459.657299
540.492564,0.000000,-9326.594869,153.219100
540.492892,0.000000,-9400.615463,766.095498
540.493219,0.000000,-9178.553681,306.438199
540.493547,-148.041188,-9400.615463,536.266849
540.493875,-222.061783,-9326.594869,459.657299
540.494202,-518.144159,-9178.553681,-153.219100
540.494530,0.000000,-8956.491898,383.047749
540.494858,-296.082377,-8956.491898,306.438199
540.495185,-296.082377,-8882.471304,383.047749
540.495513,-370.102971,-8808.450710,306.438199
540.495841,-370.102971,-8808.450710,612.876398
540.496168,0.000000,-8586.388927,383.047749
540.496496,-518.144159,-9030.512492,536.266849
540.496824,-592.164754,-8882.471304,459.657299
540.497151,-370.102971,-8956.491898,612.876398
540.497479,-222.061783,-8956.491898,612.876398
540.497807,-296.082377,-8586.388927,1225.752797
540.498134,-740.205942,-8808.450710,459.657299
540.498462,-370.102971,-9030.512492,689.485948
540.498789,-518.144159,-8660.409521,689.485948
540.499117,-518.144159,-8956.491898,689.485948
540.499445,-296.082377,-8882.471304,536.266849
540.499772,-444.123565,-8586.388927,1149.143247
540.500100,-518.144159,-8734.430116,689.485948
540.500428,-518.144159,-8956.491898,689.485948
540.500755,-444.123565,-8882.471304,536.266849
540.501083,-148.041188,-8956.491898,1072.533697
540.501411,-296.082377,-8660.409521,536.266849
540.501738,-296.082377,-8734.430116,612.876398
540.502066,-222.061783,-9104.533087,459.657299
540.502394,-370.102971,-9104.533087,383.047749
540.502721,-222.061783,-9178.553681,689.485948
540.503049,444.123565,-9326.594869,536.266849
540.503377,0.000000,-9104.533087,306.438199
540.503704,-148.041188,-9474.636058,459.657299
540.504032,-148.041188,-9474.636058,689.485948
540.504360,0.000000,-9252.574275,536.266849
540.504687,74.020594,-9178.553681,383.047749
540.505015,0.000000,-9252.574275,766.095498
540.505343,0.000000,-9622.677246,383.047749
540.505670,0.000000,-9622.677246,383.047749
540.505998,0.000000,-9252.574275,306.438199
540.506326,148.041188,-9474.636058,383.047749
540.506653,-296.082377,-9030.512492,383.047749
540.506981,0.000000,-9474.636058,383.047749
540.507308,0.000000,-9252.574275,459.657299
540.507636,0.000000,-9326.594869,459.657299
540.507964,-222.061783,-9696.697840,689.485948
540.508291,-444.123565,-9326.594869,766.095498
540.508619,-370.102971,-9400.615463,536.266849
540.508947,0.000000,-9474.636058,612.876398
540.509274,-370.102971,-9326.594869,536.266849
540.509602,-444.123565,-9252.574275,612.876398
540.509930,0.000000,-9326.594869,919.314598
540.510257,-296.082377,-9326.594869,536.266849
540.510585,-222.061783,-9252.574275,459.657299
540.510913,-370.102971,-9178.553681,306.438199
540.511240,-444.123565,-9252.574275,612.876398
540.511568,-296.082377,-9326.594869,612.876398
540.511896,-296.082377,-9104.533087,306.438199
540.512223,-296.082377,-9030.512492,536.266849
540.512551,-222.061783,-9326.594869,459.657299
540.512879,0.000000,-9252.574275,536.266849
540.513206,-296.082377,-9030.512492,612.876398
540.513534,74.020594,-9178.553681,1149.143247
540.513862,0.000000,-9030.512492,612.876398
540.514189,0.000000,-9030.512492,766.095498
540.514517,-148.041188,-9030.512492,306.438199
540.514845,-148.041188,-9326.594869,536.266849
540.515172,-444.123565,-8808.450710,766.095498
540.515500,-296.082377,-8956.491898,459.657299
540.515827,-444.123565,-9178.553681,383.047749
540.516155,-296.082377,-9030.512492,383.047749
540.516483,-148.041188,-8882.471304,383.047749
540.516810,-148.041188,-9030.512492,612.876398
540.517138,-518.144159,-8956.491898,76.609550
540.517466,-518.144159,-9178.553681,459.657299
540.517793,-518.144159,-9030.512492,536.266849
540.518121,-148.041188,-8956.491898,536.266849
540.518449,-370.102971,-8808.450710,536.266849
540.518776,-296.082377,-8660.409521,842.705048
540.519104,-370.102971,-8882.471304,459.657299
540.519432,-222.061783,-8882.471304,383.047749
540.519759,-222.061783,-8956.491898,689.485948
540.520087,0.000000,-9104.533087,153.219100
540.520415,0.000000,-8956.491898,612.876398
540.520742,-222.061783,-8956.491898,612.876398
540.521070,-296.082377,-9030.512492,536.266849
540.521398,-370.102971,-9104.533087,229.828649
540.521725,-444.123565,-8808.450710,536.266849
540.522053,-444.123565,-8290.306550,766.095498
540.522381,-296.082377,-8882.471304,612.876398
540.522708,-518.144159,-8734.430116,459.657299
540.523036,-740.205942,-8660.409521,612.876398
540.523364,-518.144159,-8734.430116,459.657299
540.523691,-222.061783,-8808.450710,919.314598
540.524019,-666.185348,-8956.491898,536.266849
540.524346,-592.164754,-9178.553681,612.876398
540.524674,-592.164754,-9178.553681,612.876398
540.525002,-444.123565,-9400.615463,459.657299
540.525329,-370.102971,-9252.574275,1149.143247
540.525657,-148.041188,-9400.615463,536.266849
540.525985,-592.164754,-9104.533087,995.924147
540.526312,-592.164754,-9326.594869,689.485948
540.526640,-814.226536,-9178.553681,536.266849
540.526968,-666.185348,-8882.471304,459.657299
540.527295,0.000000,-9030.512492,842.705048
540.527623,-518.144159,-9178.553681,612.876398
540.527951,-592.164754,-9030.512492,689.485948
540.528278,-518.144159,-8808.450710,536.266849
540.528606,-518.144159,-8882.471304,612.876398
540.528934,-222.061783,-8660.409521,459.657299
540.529261,-666.185348,-8882.471304,612.876398
540.529589,-148.041188,-9178.553681,612.876398
540.529917,-296.082377,-9326.594869,536.266849
540.530244,-222.061783,-9252.574275,459.657299
540.530572,0.000000,-9030.512492,842.705048
540.530900,0.000000,-9252.574275,536.266849
540.531227,-148.041188,-9400.615463,766.095498
540.531555,-222.061783,-9252.574275,536.266849
540.531883,-222.061783,-9474.636058,306.438199
540.532210,-370.102971,-9104.533087,766.095498
540.532538,-296.082377,-9030.512492,306.438199
540.532865,-222.061783,-9252.574275,229.828649
540.533193,-222.061783,-9030.512492,229.828649
540.533521,0.000000,-9326.594869,0.000000
540.533848,0.000000,-9104.533087,689.485948
540.534176,-222.061783,-8660.409521,536.266849
540.534504,-296.082377,-8956.491898,306.438199
540.534831,148.041188,-9104.533087,306.438199
540.535159,0.000000,-9104.533087,383.047749
540.535487,0.000000,-9030.512492,536.266849
540.535814,74.020594,-9030.512492,383.047749
540.536142,148.041188,-9252.574275,536.266849
540.536470,74.020594,-9178.553681,612.876398
540.536798,0.000000,-9178.553681,536.266849
540.537125,-370.102971,-9178.553681,536.266849
540.537453,-370.102971,-8660.409521,306.438199
540.537781,-148.041188,-9252.574275,459.657299
540.538108,0.000000,-9030.512492,459.657299
540.538436,0.000000,-9030.512492,1149.143247
540.538764,-222.061783,-9030.512492,689.485948
540.539091,0.000000,-8808.450710,689.485948
540.539419,0.000000,-8808.450710,459.657299
540.539747,-296.082377,-8956.491898,536.266849
540.540074,-296.082377,-9104.533087,306.438199
540.540402,-222.061783,-9474.636058,612.876398
540.540730,-148.041188,-9474.636058,1072.533697
540.541057,0.000000,-9474.636058,612.876398
540.541385,0.000000,-9326.594869,766.095498
540.541713,-296.082377,-9400.615463,689.485948
540.542041,-296.082377,-9326.594869,612.876398
540.542368,-444.123565,-9104.533087,612.876398
540.542696,0.000000,-9030.512492,153.219100
540.543024,-296.082377,-9400.615463,383.047749
540.543351,-148.041188,-9326.594869,459.657299
540.543679,-296.082377,-9178.553681,842.705048
540.544007,0.000000,-9252.574275,383.047749
540.544334,0.000000,-9104.533087,229.828649
540.544662,-518.144159,-8660.409521,612.876398
540.544990,-370.102971,-9178.553681,536.266849
540.545317,-296.082377,-9178.553681,459.657299
540.545645,0.000000,-9252.574275,383.047749
540.545973,0.000000,-9326.594869,536.266849
540.546300,-370.102971,-9548.656652,919.314598
540.546628,-444.123565,-9178.553681,842.705048
540.546956,-370.102971,-9474.636058,842.705048
540.547284,-592.164754,-9252.574275,766.095498
540.547611,-370.102971,-9400.615463,842.705048
540.547939,-222.061783,-9252.574275,536.266849
540.548267,-296.082377,-9030.512492,612.876398
540.548594,-222.061783,-8956.491898,536.266849
540.548922,-518.144159,-8956.491898,766.095498
540.549250,-740.205942,-8956.491898,459.657299
540.549577,-592.164754,-8586.388927,383.047749
540.549905,-444.123565,-8882.471304,459.657299
540.550233,-666.185348,-8956.491898,612.876398
540.550560,-740.205942,-8956.491898,459.657299
540.550888,-518.144159,-8956.491898,689.485948
540.551216,0.000000,-8660.409521,459.657299
540.551543,-370.102971,-8956.491898,766.095498
540.551871,-222.061783,-8808.450710,383.047749
540.552199,-222.061783,-9104.533087,612.876398
540.552527,-296.082377,-9104.533087,536.266849
540.552854,74.020594,-8882.471304,1378.971896
540.553182,-148.041188,-8808.450710,766.095498
540.553510,-148.041188,-9030.512492,459.657299
540.553837,-296.082377,-9178.553681,459.657299
540.554165,-296.082377,-8956.491898,612.876398
540.554493,-148.041188,-8956.491898,536.266849
540.554820,0.000000,-8808.450710,76.609550
540.555148,-370.102971,-8808.450710,459.657299
540.555476,-296.082377,-8808.450710,459.657299
540.555803,-222.061783,-8734.430116,612.876398
540.556131,-296.082377,-8882.471304,536.266849
540.556459,-222.061783,-9326.594869,306.438199
540.556787,-296.082377,-9104.533087,612.876398
540.557114,-370.102971,-9326.594869,536.266849
540.557442,0.000000,-9178.553681,229.828649
540.557770,-222.061783,-9252.574275,306.438199
540.558097,0.000000,-9326.594869,459.657299
540.558425,-296.082377,-9252.574275,689.485948
540.558753,-370.102971,-9400.615463,536.266849
540.559080,-444.123565,-9104.533087,536.266849
540.559408,-518.144159,-9400.615463,689.485948
540.559736,-592.164754,-8882.471304,842.705048
540.560063,-592.164754,-8734.430116,766.095498
540.560391,-518.144159,-9104.533087,536.266849
540.560719,-222.061783,-8956.491898,689.485948
540.561046,-296.082377,-9030.512492,383.047749
540.561374,-148.041188,-9252.574275,536.266849
540.561702,74.020594,-8734.430116,842.705048
540.562030,-370.102971,-9252.574275,383.047749
540.562357,0.000000,-9400.615463,689.485948
540.562685,0.000000,-9622.677246,766.095498
540.563013,0.000000,-9474.636058,612.876398
540.563340,222.061783,-9474.636058,153.219100
540.563668,0.000000,-9474.636058,766.095498
540.563996,74.020594,-9474.636058,612.876398
540.564323,0.000000,-9474.636058,229.828649
540.564651,-148.041188,-9400.615463,459.657299
540.564979,148.041188,-9178.553681,76.609550
540.565306,-222.061783,-9252.574275,536.266849
540.565634,-148.041188,-9400.615463,612.876398
540.565962,-222.061783,-9400.615463,536.266849
540.566289,0.000000,-9252.574275,459.657299
540.566617,-296.082377,-9178.553681,612.876398
540.566945,74.020594,-9030.512492,383.047749
540.567273,-296.082377,-8956.491898,612.876398
540.567600,0.000000,-9326.594869,536.266849
540.567928,-222.061783,-9030.512492,612.876398
540.568256,-518.144159,-9326.594869,842.705048
540.568583,-518.144159,-9326.594869,1608.800546
540.568911,-370.102971,-9326.594869,842.705048
540.569239,-370.102971,-9030.512492,536.266849
540.569566,-296.082377,-9326.594869,459.657299
540.569894,-592.164754,-8956.491898,766.095498
540.570222,-444.123565,-9030.512492,1225.752797
540.570549,-148.041188,-9178.553681,766.095498
540.570877,-592.164754,-9104.533087,766.095498
540.571205,-740.205942,-9178.553681,766.095498
540.571532,-518.144159,-9030.512492,536.266849
540.571860,-518.144159,-9104.533087,919.314598
540.572188,-444.123565,-9178.553681,153.219100
540.572516,-740.205942,-8956.491898,536.266849
540.572843,-296.082377,-8808.450710,612.876398
540.573171,-148.041188,-8882.471304,459.657299
540.573499,-592.164754,-9104.533087,536.266849
540.573826,-444.123565,-8808.450710,689.485948
540.574154,74.020594,-9104.533087,459.657299
540.574482,0.000000,-9178.553681,383.047749
540.574809,0.000000,-9178.553681,383.047749
540.575137,0.000000,-9252.574275,306.438199
540.575465,0.000000,-8956.491898,459.657299
540.575792,-148.041188,-9326.594869,306.438199
540.576120,0.000000,-9104.533087,76.609550
540.576448,-296.082377,-8956.491898,76.609550
540.576775,-296.082377,-8882.471304,76.609550
540.577103,222.061783,-9030.512492,612.876398
540.577431,0.000000,-8808.450710,0.000000
540.577759,-148.041188,-8956.491898,383.047749
540.578086,-296.082377,-8808.450710,229.828649
540.578414,-296.082377,-9104.533087,229.828649
540.578742,-296.082377,-9104.533087,76.609550
540.579069,-444.123565,-8734.430116,459.657299
540.579397,-296.082377,-9030.512492,689.485948
540.579725,-444.123565,-9104.533087,766.095498
540.580052,-444.123565,-9252.574275,689.485948
540.580380,-592.164754,-9030.512492,842.705048
540.580708,-740.205942,-8808.450710,612.876398
540.581035,-740.205942,-8882.471304,766.095498
540.581363,-740.205942,-9030.512492,842.705048
540.581691,-740.205942,-9030.512492,919.314598
540.582018,-592.164754,-9104.533087,842.705048
540.582346,-666.185348,-8734.430116,1149.143247
540.582674,-740.205942,-8660.409521,689.485948
540.583002,-592.164754,-8956.491898,766.095498
540.583329,-740.205942,-8808.450710,612.876398
540.583657,-592.164754,-8808.450710,689.485948
540.583985,-518.144159,-8882.471304,1149.143247
540.584312,-370.102971,-9326.594869,766.095498
540.584640,-370.102971,-9252.574275,689.485948
540.584968,-148.041188,-9104.533087,689.485948
540.585295,0.000000,-9178.553681,383.047749
540.585623,0.000000,-9030.512492,919.314598
540.585951,-296.082377,-9326.594869,766.095498
540.586278,0.000000,-9400.615463,306.438199
540.586606,-148.041188,-9252.574275,383.047749
540.586934,-222.061783,-9252.574275,536.266849
540.587261,-148.041188,-9326.594869,306.438199
540.587589,148.041188,-9252.574275,153.219100
540.587917,-222.061783,-9326.594869,229.828649
540.588245,-148.041188,-9178.553681,229.828649
540.588572,-148.041188,-9104.533087,229.828649
540.588900,0.000000,-9104.533087,459.657299
540.589228,0.000000,-9400.615463,229.828649
540.589555,0.000000,-9104.533087,459.657299
540.589883,-222.061783,-9400.615463,229.828649
540.590211,-444.123565,-9252.574275,306.438199
540.590538,-148.041188,-9400.615463,459.657299
540.590866,0.000000,-9104.533087,766.095498
540.591194,0.000000,-9326.594869,536.266849
540.591521,0.000000,-9030.512492,536.266849
540.591849,-148.041188,-8956.491898,612.876398
540.592177,-370.102971,-9104.533087,459.657299
540.592505,-222.061783,-8808.450710,459.657299
540.592832,-518.144159,-8734.430116,306.438199
540.593160,-148.041188,-8956.491898,842.705048
540.593488,-444.123565,-8956.491898,536.266849
540.593815,-296.082377,-8956.491898,383.047749
540.594143,-296.082377,-9104.533087,459.657299
540.594471,-148.041188,-8956.491898,459.657299
540.594798,0.000000,-8956.491898,612.876398
540.595126,0.000000,-8882.471304,459.657299
540.595454,-666.185348,-9178.553681,459.657299
540.595781,-222.061783,-9474.636058,689.485948
540.596109,0.000000,-9548.656652,612.876398
540.596437,74.020594,-9548.656652,612.876398
540.596764,0.000000,-9474.636058,766.095498
540.597092,0.000000,-9326.594869,459.657299
540.597420,-148.041188,-9400.615463,612.876398
540.597748,0.000000,-8956.491898,612.876398
540.598075,-370.102971,-9178.553681,229.828649
540.598403,-370.102971,-9104.533087,612.876398
540.598731,-296.082377,-9178.553681,459.657299
540.599058,-444.123565,-9030.512492,612.876398
540.599386,-222.061783,-9178.553681,229.828649
540.599714,-444.123565,-8438.347739,459.657299
540.600041,-222.061783,-8882.471304,306.438199
540.600369,-370.102971,-9030.512492,536.266849
540.600697,-148.041188,-8882.471304,612.876398
540.601024,-148.041188,-8882.471304,612.876398
540.601352,-222.061783,-8512.368333,766.095498
540.601680,-222.061783,-9252.574275,766.095498
540.602007,-222.061783,-9030.512492,995.924147
540.602335,-222.061783,-9178.553681,842.705048
540.602663,-370.102971,-9030.512492,689.485948
540.602991,-148.041188,-8808.450710,995.924147
540.603318,-444.123565,-9104.533087,383.047749
540.603646,-370.102971,-9104.533087,689.485948
540.603974,-370.102971,-9252.574275,766.095498
540.604301,-518.144159,-8882.471304,612.876398
540.604629,-296.082377,-8956.491898,536.266849
540.604957,-518.144159,-8660.409521,536.266849
540.605284,-444.123565,-8956.491898,766.095498
540.605612,-814.226536,-9104.533087,612.876398
540.605940,-962.267725,-9104.533087,536.266849
540.606267,-888.247130,-9104.533087,766.095498
540.606595,-370.102971,-9104.533087,459.657299
540.606923,-148.041188,-9252.574275,612.876398
540.607250,-148.041188,-9104.533087,612.876398
540.607578,0.000000,-9252.574275,459.657299
540.607906,-444.123565,-9178.553681,383.047749
540.608234,-592.164754,-9030.512492,459.657299
540.608561,-592.164754,-8882.471304,612.876398
540.608889,-370.102971,-9030.512492,153.219100
540.609217,-222.061783,-9104.533087,306.438199
540.609544,-296.082377,-9104.533087,383.047749
540.609872,0.000000,-8956.491898,383.047749
540.610200,0.000000,-8808.450710,153.219100
540.610527,-222.061783,-8734.430116,229.828649
540.610855,-444.123565,-8808.450710,229.828649
540.611183,-444.123565,-8956.491898,459.657299
540.611510,-148.041188,-8808.450710,612.876398
540.611838,-296.082377,-8956.491898,229.828649
540.612166,-222.061783,-9252.574275,612.876398
540.612493,-148.041188,-9252.574275,689.485948
540.612821,0.000000,-9400.615463,459.657299
540.613149,-518.144159,-9178.553681,766.095498
540.613477,0.000000,-9104.533087,766.095498
540.613804,-222.061783,-9030.512492,459.657299
540.614132,-222.061783,-9104.533087,306.438199
540.614460,-444.123565,-9178.553681,766.095498
540.614787,-296.082377,-8956.491898,689.485948
540.615115,-370.102971,-8734.430116,1149.143247
540.615443,-222.061783,-8586.388927,536.266849
540.615770,-370.102971,-9030.512492,612.876398
540.616098,-518.144159,-8882.471304,689.485948
540.616426,-444.123565,-8956.491898,766.095498
540.616753,-148.041188,-8512.368333,459.657299
540.617081,-148.041188,-9252.574275,689.485948
540.617409,-518.144159,-9252.574275,766.095498
540.617736,-370.102971,-9252.574275,842.705048
540.618064,-222.061783,-9326.594869,842.705048
540.618392,222.061783,-9400.615463,842.705048
540.618720,74.020594,-9252.574275,383.047749
540.619047,0.000000,-9178.553681,689.485948
540.619375,148.041188,-9400.615463,459.657299
540.619703,-296.082377,-9548.656652,689.485948
540.620030,-222.061783,-9622.677246,919.314598
540.620358,-222.061783,-9400.615463,995.924147
540.620686,-222.061783,-9326.594869,229.828649
540.621013,0.000000,-9474.636058,536.266849
540.621341,0.000000,-9252.574275,306.438199
540.621669,0.000000,-9178.553681,459.657299
540.621996,0.000000,-9178.553681,0.000000
540.622324,-222.061783,-9104.533087,536.266849
540.622652,-444.123565,-9474.636058,306.438199
540.622979,-444.123565,-9474.636058,612.876398
540.623307,0.000000,-9252.574275,612.876398
540.623635,0.000000,-9474.636058,842.705048
540.623963,-74.020594,-9622.677246,1149.143247
540.624290,-296.082377,-9474.636058,689.485948
540.624618,-148.041188,-9178.553681,842.705048
540.624946,-296.082377,-8956.491898,612.876398
540.625273,-222.061783,-9178.553681,612.876398
540.625601,-444.123565,-9326.594869,536.266849
540.625929,-296.082377,-9030.512492,536.266849
540.626256,-296.082377,-9104.533087,459.657299
540.626584,-444.123565,-8956.491898,459.657299
540.626912,-444.123565,-9400.615463,1149.143247
540.627239,-222.061783,-9474.636058,766.095498
540.627567,-296.082377,-8808.450710,306.438199
540.627895,0.000000,-8660.409521,459.657299
540.628223,-296.082377,-9104.533087,536.266849
540.628550,-222.061783,-9178.553681,536.266849
540.628878,-296.082377,-9178.553681,306.438199
540.629206,0.000000,-9030.512492,612.876398
540.629533,-148.041188,-9326.594869,612.876398
540.629861,-370.102971,-9178.553681,306.438199
540.630189,-222.061783,-9104.533087,459.657299
540.630516,-296.082377,-8734.430116,766.095498
540.630844,296.082377,-8956.491898,536.266849
540.631172,0.000000,-9030.512492,383.047749
540.631499,-444.123565,-8956.491898,306.438199
540.631827,-370.102971,-8956.491898,459.657299
540.632155,-148.041188,-8364.327145,383.047749
540.632482,0.000000,-8660.409521,229.828649
540.632810,-296.082377,-9252.574275,229.828649
540.633138,-444.123565,-9030.512492,459.657299
540.633466,-370.102971,-8882.471304,459.657299
540.633793,-148.041188,-8586.388927,153.219100
540.634121,-370.102971,-8586.388927,1072.533697
540.634449,0.000000,-8882.471304,536.266849
540.634776,-222.061783,-9030.512492,459.657299
540.635104,-148.041188,-8956.491898,536.266849
540.635432,-370.102971,-9030.512492,383.047749
540.635759,-740.205942,-8586.388927,995.924147
540.636087,-296.082377,-9178.553681,459.657299
540.636415,-592.164754,-9030.512492,689.485948
540.636743,-666.185348,-8882.471304,459.657299
540.637071,-666.185348,-9104.533087,459.657299
540.637398,-518.144159,-9178.553681,-306.438199
540.637726,-222.061783,-8882.471304,229.828649
540.638054,-518.144159,-8808.450710,383.047749
540.638381,-222.061783,-8956.491898,612.876398
540.638709,-592.164754,-9104.533087,459.657299
540.639037,-444.123565,-9030.512492,689.485948
540.639364,-370.102971,-9252.574275,766.095498
540.639692,-222.061783,-9252.574275,536.266849
540.640020,0.000000,-9252.574275,536.266849
540.640347,74.020594,-9474.636058,766.095498
540.640675,0.000000,-9474.636058,919.314598
540.641002,0.000000,-9252.574275,536.266849
540.641330,0.000000,-9474.636058,612.876398
540.641658,-296.082377,-9474.636058,612.876398
540.641985,-222.061783,-9178.553681,612.876398
540.642313,0.000000,-9030.512492,459.657299
540.642641,0.000000,-9326.594869,459.657299
540.642968,-222.061783,-9104.533087,459.657299
540.643296,-148.041188,-9474.636058,306.438199
540.643623,-148.041188,-9030.512492,306.438199
540.643951,-222.061783,-9104.533087,536.266849
540.644279,-148.041188,-9030.512492,612.876398
540.644606,0.000000,-9326.594869,459.657299
540.644934,-296.082377,-9474.636058,536.266849
540.645262,-222.061783,-9252.574275,459.657299
540.645589,0.000000,-9178.553681,536.266849
540.645917,-296.082377,-9178.553681,766.095498
540.646245,-74.020594,-9252.574275,459.657299
540.646572,-296.082377,-9252.574275,689.485948
540.646900,-592.164754,-8808.450710,459.657299
540.647227,-296.082377,-9326.594869,536.266849
540.647555,-444.123565,-9252.574275,612.876398
540.647883,0.000000,-9104.533087,612.876398
540.648210,0.000000,-9104.533087,536.266849
540.648538,0.000000,-9030.512492,689.485948
540.648866,-370.102971,-9252.574275,612.876398
540.649193,-222.061783,-9104.533087,766.095498
540.649521,-222.061783,-9104.533087,153.219100
540.649849,-296.082377,-8882.471304,612.876398
540.650176,-518.144159,-9252.574275,919.314598
540.650504,-296.082377,-9474.636058,842.705048
540.650831,-370.102971,-9474.636058,995.924147
540.651159,0.000000,-9104.533087,766.095498
540.651487,-370.102971,-8882.471304,842.705048
540.651814,0.000000,-9030.512492,536.266849
540.652142,0.000000,-9178.553681,459.657299
540.652470,-148.041188,-9178.553681,229.828649
540.652797,0.000000,-9252.574275,536.266849
540.653125,-444.123565,-8882.471304,689.485948
540.653453,-444.123565,-9104.533087,383.047749
540.653780,-296.082377,-9400.615463,459.657299
540.654108,-222.061783,-9252.574275,612.876398
540.654435,0.000000,-8956.491898,536.266849
540.654763,0.000000,-8734.430116,459.657299
540.655091,74.020594,-8808.450710,306.438199
540.655418,-74.020594,-8956.491898,383.047749
540.655746,-296.082377,-9252.574275,536.266849
540.656074,0.000000,-9252.574275,459.657299
540.656401,0.000000,-9252.574275,612.876398
540.656729,-148.041188,-9178.553681,459.657299
540.657056,0.000000,-9252.574275,459.657299
540.657384,0.000000,-9030.512492,459.657299
540.657712,0.000000,-9178.553681,459.657299
540.658039,-222.061783,-8734.430116,383.047749
540.658367,0.000000,-8882.471304,612.876398
540.658695,-666.185348,-8882.471304,459.657299
540.659022,-666.185348,-9326.594869,612.876398
540.659350,-518.144159,-8882.471304,459.657299
540.659678,-296.082377,-9104.533087,766.095498
540.660005,-592.164754,-8512.368333,612.876398
540.660333,-592.164754,-8808.450710,229.828649
540.660660,-740.205942,-8586.388927,459.657299
540.660988,-592.164754,-8808.450710,689.485948
540.661316,-444.123565,-8956.491898,766.095498
540.661643,0.000000,-9104.533087,842.705048
540.661971,-222.061783,-9104.533087,995.924147
540.662299,-370.102971,-9252.574275,919.314598
540.662626,-148.041188,-9326.594869,995.924147
540.662954,-148.041188,-9178.553681,689.485948
540.663282,-222.061783,-8956.491898,612.876398
540.663609,-370.102971,-9178.553681,689.485948
540.663937,0.000000,-9252.574275,766.095498
540.664264,-370.102971,-9030.512492,689.485948
540.664592,-296.082377,-9030.512492,689.485948
540.664920,-370.102971,-9400.615463,1072.533697
540.665247,-296.082377,-9030.512492,306.438199
540.665575,-592.164754,-9104.533087,536.266849
540.665903,-222.061783,-9030.512492,612.876398
540.666230,-148.041188,-9252.574275,383.047749
540.666558,-592.164754,-9326.594869,383.047749
540.666886,-740.205942,-8734.430116,459.657299
540.667213,-148.041188,-9252.574275,383.047749
540.667541,0.000000,-9400.615463,842.705048
540.667868,-222.061783,-9178.553681,536.266849
540.668196,-148.041188,-9326.594869,536.266849
540.668524,444.123565,-9252.574275,383.047749
540.668851,-222.061783,-9178.553681,306.438199
540.669179,-370.102971,-9104.533087,229.828649
540.669507,-296.082377,-9252.574275,229.828649
540.669834,-296.082377,-9030.512492,459.657299
540.670162,0.000000,-9178.553681,766.095498
540.670489,0.000000,-8956.491898,0.000000
540.670817,0.000000,-9326.594869,459.657299
540.671145,0.000000,-8734.430116,536.266849
540.671472,-148.041188,-9030.512492,459.657299
540.671800,0.000000,-9104.533087,689.485948
540.672128,0.000000,-9178.553681,536.266849
540.672455,-148.041188,-9030.512492,612.876398
540.672783,-222.061783,-8956.491898,459.657299
540.673111,-148.041188,-9104.533087,842.705048
540.673438,-148.041188,-9104.533087,842.705048
540.673766,0.000000,-9030.512492,612.876398
540.674093,-296.082377,-8882.471304,612.876398
540.674421,-444.123565,-9030.512492,689.485948
540.674749,-666.185348,-9030.512492,459.657299
540.675076,-518.144159,-9030.512492,766.095498
540.675404,-444.123565,-9030.512492,459.657299
540.675732,-444.123565,-8660.409521,536.266849
540.676059,-296.082377,-9178.553681,689.485948
540.676387,-444.123565,-9104.533087,766.095498
540.676715,-370.102971,-9030.512492,612.876398
540.677042,-444.123565,-8512.368333,1149.143247
540.677370,0.000000,-9252.574275,919.314598
540.677697,0.000000,-9252.574275,612.876398
540.678025,0.000000,-9474.636058,536.266849
540.678353,-222.061783,-9326.594869,689.485948
540.678680,0.000000,-9178.553681,1455.581446
540.679008,0.000000,-9474.636058,842.705048
540.679336,0.000000,-9252.574275,536.266849
540.679663,0.000000,-9252.574275,612.876398
540.679991,-148.041188,-9252.574275,383.047749
540.680319,-222.061783,-9252.574275,689.485948
540.680646,0.000000,-8956.491898,306.438199
540.680974,-74.020594,-9178.553681,459.657299
540.681301,0.000000,-9252.574275,536.266849
540.681629,-222.061783,-9178.553681,459.657299
540.681957,-444.123565,-9400.615463,612.876398
540.682284,0.000000,-9178.553681,536.266849
540.682612,-296.082377,-9030.512492,306.438199
540.682940,0.000000,-9252.574275,612.876398
540.683267,-296.082377,-9474.636058,919.314598
540.683595,-444.123565,-9252.574275,689.485948
540.683922,-370.102971,-8882.471304,995.924147
540.684250,-222.061783,-9030.512492,612.876398
540.684578,-370.102971,-9326.594869,459.657299
540.684905,-444.123565,-9104.533087,459.657299
540.685233,-518.144159,-9030.512492,612.876398
540.685561,-370.102971,-8734.430116,842.705048
540.685888,-592.164754,-8882.471304,459.657299
540.686216,-666.185348,-9030.512492,536.266849
540.686544,-592.164754,-8882.471304,612.876398
540.686871,-592.164754,-8734.430116,306.438199
540.687199,-370.102971,-8734.430116,612.876398
540.687526,-296.082377,-8956.491898,459.657299
540.687854,-592.164754,-8808.450710,306.438199
540.688182,-444.123565,-8808.450710,383.047749
540.688509,-222.061783,-8956.491898,612.876398
540.688837,-296.082377,-8956.491898,536.266849
540.689165,74.020594,-9474.636058,-229.828649
540.689492,0.000000,-8808.450710,689.485948
540.689820,0.000000,-9178.553681,536.266849
540.690148,-74.020594,-9030.512492,459.657299
540.690475,-222.061783,-9104.533087,459.657299
540.690803,-148.041188,-9104.533087,536.266849
540.691130,0.000000,-9178.553681,612.876398
540.691458,-222.061783,-9104.533087,536.266849
540.691786,-222.061783,-8882.471304,229.828649
540.692113,-370.102971,-8956.491898,306.438199
540.692441,0.000000,-9326.594869,306.438199
540.692769,-370.102971,-8364.327145,612.876398
540.693096,-296.082377,-8882.471304,306.438199
540.693424,-296.082377,-8956.491898,536.266849
540.693752,-222.061783,-8956.491898,459.657299
540.694079,0.000000,-9178.553681,766.095498
540.694407,0.000000,-8956.491898,229.828649
540.694734,0.000000,-9178.553681,919.314598
540.695062,0.000000,-9400.615463,689.485948
540.695390,-148.041188,-9474.636058,766.095498
540.695717,-148.041188,-9252.574275,842.705048
540.696045,-444.123565,-9030.512492,612.876398
540.696373,-222.061783,-9252.574275,995.924147
540.696700,-518.144159,-9178.553681,842.705048
540.697028,-444.123565,-9252.574275,459.657299
540.697355,-592.164754,-9104.533087,612.876398
540.697683,-370.102971,-8734.430116,612.876398
540.698011,-148.041188,-9178.553681,383.047749
540.698338,-222.061783,-9030.512492,536.266849
540.698666,-296.082377,-9252.574275,612.876398
540.698994,-370.102971,-9252.574275,383.047749
540.699321,-370.102971,-9104.533087,383.047749
540.699649,-148.041188,-8956.491898,383.047749
540.699977,-222.061783,-9326.594869,612.876398
540.700304,0.000000,-9252.574275,536.266849
540.700632,0.000000,-9474.636058,612.876398
540.700959,0.000000,-9326.594869,612.876398
540.701287,222.061783,-9178.553681,383.047749
540.701615,0.000000,-9030.512492,612.876398
540.701942,0.000000,-9252.574275,536.266849
540.702270,0.000000,-9400.615463,383.047749
540.702598,-370.102971,-9474.636058,536.266849
540.702925,-370.102971,-9030.512492,536.266849
540.703253,0.000000,-9104.533087,612.876398
540.703581,-148.041188,-9252.574275,459.657299
540.703908,-518.144159,-9030.512492,612.876398
540.704236,0.000000,-9178.553681,612.876398
540.704563,-444.123565,-9030.512492,459.657299
540.704891,-592.164754,-9252.574275,0.000000
540.705219,-518.144159,-9400.615463,766.095498
