#time,accel_x,accel_y,accel_z
579.384688,-444.123565,-9030.512492,383.047749
579.385015,-148.041188,-9104.533087,229.828649
579.385343,-370.102971,-9030.512492,536.266849
579.385670,-296.082377,-9030.512492,842.705048
579.385998,-222.061783,-9252.574275,153.219100
579.386325,-296.082377,-9326.594869,306.438199
579.386652,0.000000,-9178.553681,383.047749
579.386980,-296.082377,-9326.594869,536.266849
579.387307,-222.061783,-9548.656652,229.828649
579.387635,-370.102971,-8660.409521,612.876398
579.387962,-296.082377,-9030.512492,612.876398
579.388290,-370.102971,-9104.533087,459.657299
579.388617,-148.041188,-9326.594869,459.657299
579.388944,-296.082377,-9326.594869,766.095498
579.389272,-148.041188,-9030.512492,766.095498
579.389599,-370.102971,-8808.450710,612.876398
579.389927,-370.102971,-9104.533087,612.876398
579.390254,-444.123565,-9030.512492,459.657299
579.390581,-296.082377,-9252.574275,536.266849
579.390909,0.000000,-9104.533087,612.876398
579.391236,-148.041188,-8956.491898,842.705048
579.391564,-222.061783,-9178.553681,612.876398
579.391891,-370.102971,-9104.533087,612.876398
579.392219,-444.123565,-9104.533087,766.095498
579.392546,0.000000,-8808.450710,383.047749
579.392873,0.000000,-8882.471304,689.485948
579.393201,-222.061783,-9030.512492,306.438199
579.393528,-222.061783,-9252.574275,536.266849
579.393856,-148.041188,-9400.615463,766.095498
579.394183,-370.102971,-8808.450710,919.314598
579.394510,-222.061783,-8808.450710,383.047749
579.394838,-222.061783,-9178.553681,612.876398
579.395165,-222.061783,-9178.553681,306.438199
579.395493,-148.041188,-9178.553681,612.876398
579.395820,0.000000,-9104.533087,536.266849
579.396148,0.000000,-9104.533087,383.047749
579.396475,-370.102971,-9178.553681,459.657299
579.396802,-296.082377,-9252.574275,612.876398
579.397130,0.000000,-9178.553681,383.047749
579.397457,0.000000,-9104.533087,459.657299
579.397785,0.000000,-8882.471304,995.924147
579.398112,-148.041188,-9178.553681,612.876398
579.398439,-222.061783,-9252.574275,383.047749
579.398767,-222.061783,-9030.512492,229.828649
579.399094,-296.082377,-9326.594869,306.438199
579.399422,-518.144159,-9252.574275,153.219100
579.399749,-1258.350101,-9400.615463,0.000000
579.400077,-1406.391290,-9326.594869,-229.828649
579.400404,-962.267725,-9252.574275,0.000000
579.400731,-740.205942,-9030.512492,0.000000
579.401059,-518.144159,-8808.450710,153.219100
579.401386,-666.185348,-8956.491898,-919.314598
579.401714,-962.267725,-9252.574275,-842.705048
579.402041,-1332.370696,-8956.491898,-919.314598
579.402368,-1258.350101,-9030.512492,-1302.362347
579.402696,-962.267725,-9252.574275,-1378.971896
579.403023,-296.082377,-9474.636058,-1608.800546
579.403351,0.000000,-9474.636058,-1302.362347
579.403678,0.000000,-9178.553681,-1608.800546
579.404005,-370.102971,-9178.553681,-1225.752797
579.404333,0.000000,-9474.636058,-1532.190996
579.404660,0.000000,-9400.615463,-1225.752797
579.404988,74.020594,-9178.553681,-1991.848295
579.405315,296.082377,-9252.574275,-1838.629195
579.405643,444.123565,-9326.594869,-1608.800546
579.405970,296.082377,-9474.636058,-1838.629195
579.406297,296.082377,-9030.512492,-1302.362347
579.406625,814.226536,-9104.533087,-1378.971896
579.406952,518.144159,-9474.636058,-1762.019645
579.407280,370.102971,-9400.615463,-1838.629195
579.407607,296.082377,-9474.636058,-2068.457845
579.407934,444.123565,-9326.594869,-2528.115143
579.408262,666.185348,-9326.594869,-1532.190996
579.408589,0.000000,-9474.636058,-1915.238745
579.408917,-370.102971,-9474.636058,-2068.457845
579.409244,-444.123565,-9252.574275,-1915.238745
579.409572,-888.247130,-9178.553681,-2145.067394
579.409899,-1406.391290,-8882.471304,-1762.019645
579.410226,-1258.350101,-9326.594869,-2681.334243
579.410554,-1480.411884,-9178.553681,-2604.724693
579.410881,-1924.535449,-8734.430116,-2757.943793
579.411209,-2072.576638,-9030.512492,-2987.772442
579.411536,-1924.535449,-8734.430116,-2911.162892
579.411863,-2146.597232,-8956.491898,-3370.820191
579.412191,-2294.638420,-9030.512492,-3983.696590
579.412518,-2294.638420,-8808.450710,-3983.696590
579.412846,-1998.556043,-8882.471304,-4213.525239
579.413173,-1702.473667,-9030.512492,-3830.477490
579.413501,-1406.391290,-8808.450710,-3600.648841
579.413828,-444.123565,-8882.471304,-3830.477490
579.414155,222.061783,-8734.430116,-3447.429741
579.414483,814.226536,-9030.512492,-3294.210641
579.414810,1776.494261,-8956.491898,-2757.943793
579.415138,2146.597232,-9030.512492,-2068.457845
579.415465,2294.638420,-9400.615463,-2068.457845
579.415792,1924.535449,-9474.636058,-1991.848295
579.416120,1332.370696,-9992.780217,-2374.896044
579.416447,370.102971,-10362.883188,-2451.505594
579.416775,-592.164754,-9992.780217,-2987.772442
579.417102,-1258.350101,-10288.862594,-3677.258390
579.417429,-1480.411884,-10066.800811,-4443.353888
579.417757,-1628.453072,-9696.697840,-4903.011187
579.418084,-814.226536,-8808.450710,-4366.744339
579.418412,1036.288319,-7994.224174,-4290.134789
579.418739,2220.617826,-7105.977043,-3753.867940
579.419067,2664.741391,-7105.977043,-2681.334243
579.419394,2812.782580,-7476.080014,-2221.676944
579.419721,1332.370696,-8364.327145,-1915.238745
579.420049,-444.123565,-9030.512492,-1762.019645
579.420376,-1702.473667,-10140.821405,-2374.896044
579.420704,-2960.823768,-10881.027347,-2451.505594
579.421031,-3182.885551,-10510.924376,-2374.896044
579.421358,-2220.617826,-10288.862594,-2451.505594
579.421686,-296.082377,-9400.615463,-1532.190996
579.422013,1924.535449,-7698.141797,-919.314598
579.422341,5329.482782,-6365.771101,689.485948
579.422668,8956.491898,-5181.441594,2451.505594
579.422996,10807.006753,-5625.565159,4213.525239
579.423323,8438.347739,-7846.182985,4826.401637
579.423650,2738.761985,-11177.109724,4673.182538
579.423978,-4145.153275,-13989.892304,2528.115143
579.424305,-9252.574275,-14952.160028,842.705048
579.424633,-11991.336260,-14582.057057,-1149.143247
579.424960,-11547.212695,-13397.727550,-2145.067394
579.425287,-10066.800811,-10288.862594,-2604.724693
579.425615,-2960.823768,-8068.244768,-2221.676944
579.425942,-3108.864956,-4811.338623,-1532.190996
579.426270,-1184.329507,-3775.050304,-3600.648841
579.426597,-3849.070898,-5403.503377,-5132.839837
579.426925,-9178.553681,-7328.038826,-8120.612279
579.427252,-12731.542202,-8586.388927,-9499.584175
579.427579,-15174.221811,-8660.409521,-10878.556072
579.427907,-11695.253884,-8142.265362,-10342.289223
579.428234,-8216.285956,-8142.265362,-8963.317327
579.428562,-444.123565,-7402.059420,-6588.421283
579.428889,3182.885551,-7031.956449,-5669.106685
579.429216,5551.544565,-8216.285956,-5209.449386
579.429544,4441.235652,-9252.574275,-5975.544884
579.429871,4071.132681,-11177.109724,-6741.640382
579.430199,4737.318029,-10732.986159,-6894.859482
579.430526,8586.388927,-10140.821405,-5669.106685
579.430854,13249.686362,-10955.047942,-3447.429741
579.431181,12879.583391,-10066.800811,-2757.943793
579.431508,13767.830521,-10732.986159,-1225.752797
579.431836,13989.892304,-10362.883188,-1608.800546
579.432163,13841.851115,-9400.615463,-1378.971896
579.432491,15174.221811,-10140.821405,-842.705048
579.432818,11621.233289,-11547.212695,-1915.238745
579.433145,5107.421000,-13323.706956,-2987.772442
579.433473,-2738.761985,-13841.851115,-4826.401637
579.433800,-11325.150913,-14952.160028,-8197.221829
579.434128,-10288.862594,-10066.800811,-7890.783629
579.434455,-3404.947333,-5181.441594,-6818.249932
579.434782,1776.494261,-2368.659014,-4060.306139
579.435110,5403.503377,-1184.329507,-1991.848295
579.435437,3330.926739,-2516.700203,-536.266849
579.435765,-740.205942,-3775.050304,76.609550
579.436092,-4515.256246,-4663.297435,-1149.143247
579.436420,-8142.265362,-6957.935855,-1302.362347
579.436747,-6957.935855,-8438.347739,-919.314598
579.437074,-7624.121203,-9992.780217,842.705048
579.437402,-5995.668130,-9770.718434,3753.867940
579.437729,-3923.091493,-8882.471304,5286.058936
579.438057,-2516.700203,-7105.977043,5362.668486
579.438384,-1332.370696,-7698.141797,3830.477490
579.438711,-3478.967927,-10584.944971,1378.971896
579.439039,-6217.729913,-10955.047942,-612.876398
579.439366,-7179.997637,-11029.068536,-1378.971896
579.439694,-4959.379811,-8956.491898,-459.657299
579.440021,-2072.576638,-8216.285956,0.000000
579.440349,74.020594,-8956.491898,689.485948
579.440676,0.000000,-9696.697840,919.314598
579.441003,-3330.926739,-9844.739029,1225.752797
579.441331,-4811.338623,-9474.636058,306.438199
579.441658,-4441.235652,-9178.553681,-383.047749
579.441986,-3108.864956,-11399.171507,-766.095498
579.442313,-2738.761985,-11769.274478,-1455.581446
579.442640,-2442.679609,-11103.089130,-842.705048
579.442968,-814.226536,-8290.306550,-1915.238745
579.443295,-888.247130,-7402.059420,-1225.752797
579.443623,370.102971,-6439.791695,-2681.334243
579.443950,814.226536,-7402.059420,-3983.696590
579.444278,3256.906145,-8438.347739,-4979.620737
579.444605,5181.441594,-7550.100608,-4903.011187
579.444932,5995.668130,-8586.388927,-3830.477490
579.445260,5255.462188,-10436.903782,-3983.696590
579.445587,4663.297435,-13101.645173,-3524.039291
579.445915,3701.029710,-15026.180623,-2834.553343
579.446243,3701.029710,-13915.871710,-4136.915689
579.446570,2516.700203,-12805.562797,-4213.525239
579.446898,1628.453072,-12509.480420,-3983.696590
579.447226,1406.391290,-11399.171507,-3907.087040
579.447554,2516.700203,-10658.965565,-2757.943793
579.447881,2812.782580,-9326.594869,-2987.772442
579.448209,1036.288319,-8660.409521,-4136.915689
579.448537,-518.144159,-8512.368333,-4519.963438
579.448864,-1850.514855,-7920.203579,-5592.497135
579.449192,-2590.720797,-6957.935855,-5975.544884
579.449520,-1480.411884,-6365.771101,-5592.497135
579.449848,-740.205942,-5255.462188,-4979.620737
579.450175,1258.350101,-4737.318029,-3140.991542
579.450503,1332.370696,-4959.379811,-2068.457845
579.450831,0.000000,-6957.935855,-1608.800546
579.451159,-1406.391290,-8142.265362,-1991.848295
579.451486,-2442.679609,-9474.636058,-2528.115143
579.451814,-3478.967927,-10658.965565,-2298.286494
579.452142,-4293.194464,-10140.821405,-2451.505594
579.452469,-3182.885551,-9178.553681,-1915.238745
579.452797,-740.205942,-8216.285956,-1378.971896
579.453125,148.041188,-7772.162391,-766.095498
579.453453,-1184.329507,-8882.471304,-1762.019645
579.453780,-3182.885551,-9400.615463,-2987.772442
579.454108,-3552.988522,-8882.471304,-4213.525239
579.454436,-2960.823768,-8882.471304,-3983.696590
579.454764,-1480.411884,-8660.409521,-3217.601092
579.455091,2590.720797,-7105.977043,-1838.629195
579.455419,6291.750507,-5033.400406,0.000000
579.455747,6439.791695,-5625.565159,1302.362347
579.456074,4515.256246,-7476.080014,1991.848295
579.456402,1924.535449,-8290.306550,919.314598
579.456730,0.000000,-9326.594869,842.705048
579.457058,-740.205942,-10436.903782,1302.362347
579.457385,-1628.453072,-10214.842000,1149.143247
579.457713,74.020594,-9400.615463,2068.457845
579.458041,1850.514855,-8956.491898,2451.505594
579.458368,1998.556043,-8956.491898,1608.800546
579.458696,222.061783,-8586.388927,459.657299
579.459024,-1184.329507,-8068.244768,-1532.190996
579.459352,-2664.741391,-8956.491898,-1991.848295
579.459679,-3478.967927,-8586.388927,-1838.629195
579.460007,-3108.864956,-9918.759623,-1455.581446
579.460335,-1406.391290,-10362.883188,-536.266849
579.460663,-1110.308913,-11103.089130,383.047749
579.460990,-2738.761985,-11325.150913,689.485948
579.461318,-4367.215058,-11029.068536,-459.657299
579.461646,-5403.503377,-11029.068536,-766.095498
579.461973,-5255.462188,-10732.986159,-766.095498
579.462301,-4441.235652,-9548.656652,-842.705048
579.462629,-2516.700203,-7994.224174,-229.828649
579.462957,-370.102971,-7846.182985,536.266849
579.463284,1406.391290,-7994.224174,1302.362347
579.463612,666.185348,-7476.080014,689.485948
579.463940,1702.473667,-7624.121203,153.219100
579.464268,2664.741391,-8660.409521,612.876398
579.464595,3404.947333,-9030.512492,1072.533697
579.464923,3478.967927,-9474.636058,1685.410096
579.465251,3627.009116,-10658.965565,2145.067394
579.465578,3404.947333,-12361.439231,2528.115143
579.465906,1850.514855,-12139.377449,2145.067394
579.466234,666.185348,-12213.398043,1532.190996
579.466562,1480.411884,-12065.356855,1378.971896
579.466889,148.041188,-11399.171507,1225.752797
579.467217,0.000000,-11103.089130,153.219100
579.467545,-1036.288319,-10732.986159,0.000000
579.467873,-3108.864956,-9622.677246,-842.705048
579.468200,-3256.906145,-9030.512492,-1608.800546
579.468528,-4367.215058,-7994.224174,-2987.772442
579.468856,-3478.967927,-8216.285956,-2374.896044
579.469183,-1480.411884,-7105.977043,-1685.410096
579.469511,-740.205942,-5847.626942,-1532.190996
579.469839,-814.226536,-6735.874072,-612.876398
579.470167,-148.041188,-7254.018232,-689.485948
579.470494,-2220.617826,-7328.038826,-689.485948
579.470822,-2220.617826,-7328.038826,-919.314598
579.471150,-1554.432478,-7772.162391,-383.047749
579.471478,-296.082377,-8438.347739,536.266849
579.471805,74.020594,-8660.409521,536.266849
579.472133,0.000000,-9178.553681,1608.800546
579.472461,0.000000,-9548.656652,1302.362347
579.472788,222.061783,-9104.533087,612.876398
579.473116,666.185348,-8734.430116,-383.047749
579.473444,3108.864956,-8808.450710,459.657299
579.473772,4737.318029,-8364.327145,919.314598
579.474099,5625.565159,-8438.347739,1915.238745
579.474427,4811.338623,-9178.553681,2757.943793
579.474755,3849.070898,-9992.780217,3217.601092
579.475082,1258.350101,-9918.759623,2911.162892
579.475410,-1480.411884,-10066.800811,2451.505594
579.475738,-2146.597232,-10214.842000,1685.410096
579.476066,-2368.659014,-9622.677246,2528.115143
579.476393,-1480.411884,-7846.182985,1991.848295
579.476721,-2368.659014,-8068.244768,2374.896044
579.477049,-1776.494261,-6883.915261,2221.676944
579.477377,-2368.659014,-6439.791695,1072.533697
579.477704,-3775.050304,-6143.709319,-229.828649
579.478032,-2368.659014,-6217.729913,-229.828649
579.478360,-1332.370696,-6587.832884,-229.828649
579.478687,-962.267725,-6143.709319,0.000000
579.479015,-444.123565,-7772.162391,0.000000
579.479343,-1850.514855,-9252.574275,306.438199
579.479671,-3108.864956,-10066.800811,-229.828649
579.479998,-3997.112087,-11103.089130,-612.876398
579.480326,-3478.967927,-11177.109724,0.000000
579.480654,-962.267725,-10955.047942,153.219100
579.480982,0.000000,-11547.212695,306.438199
579.481309,518.144159,-10955.047942,689.485948
579.481637,740.205942,-11251.130318,689.485948
579.481965,0.000000,-11103.089130,536.266849
579.482292,0.000000,-10881.027347,383.047749
579.482620,666.185348,-10510.924376,0.000000
579.482948,2960.823768,-9622.677246,229.828649
579.483276,3997.112087,-9326.594869,766.095498
579.483603,3552.988522,-10362.883188,1072.533697
579.483931,2886.803174,-10658.965565,1149.143247
579.484259,592.164754,-10436.903782,612.876398
579.484587,518.144159,-10658.965565,1072.533697
579.484914,888.247130,-10288.862594,153.219100
579.485242,-370.102971,-10881.027347,919.314598
579.485570,1184.329507,-10214.842000,536.266849
579.485897,296.082377,-10732.986159,995.924147
579.486225,74.020594,-10066.800811,689.485948
579.486553,-1184.329507,-9770.718434,0.000000
579.486881,-2294.638420,-10214.842000,0.000000
579.487208,-1184.329507,-9474.636058,0.000000
579.487536,148.041188,-8586.388927,306.438199
579.487864,-296.082377,-8660.409521,0.000000
579.488192,-370.102971,-9696.697840,383.047749
579.488519,-1480.411884,-9918.759623,459.657299
579.488847,-3775.050304,-9030.512492,-459.657299
579.489175,-4441.235652,-8734.430116,-612.876398
579.489502,-3404.947333,-8438.347739,-459.657299
579.489830,-1924.535449,-7550.100608,-153.219100
579.490158,-370.102971,-7105.977043,383.047749
579.490486,962.267725,-7328.038826,1225.752797
579.490813,592.164754,-7476.080014,1302.362347
579.491141,-666.185348,-7846.182985,1149.143247
579.491469,0.000000,-7624.121203,1378.971896
579.491797,1480.411884,-7624.121203,1991.848295
579.492124,2220.617826,-7846.182985,2451.505594
579.492452,2368.659014,-8512.368333,2604.724693
579.492780,1628.453072,-9622.677246,2911.162892
579.493107,666.185348,-8956.491898,2221.676944
579.493435,-1184.329507,-8586.388927,1149.143247
579.493763,-740.205942,-8660.409521,383.047749
579.494091,-666.185348,-8808.450710,689.485948
579.494418,888.247130,-8290.306550,383.047749
579.494746,222.061783,-8068.244768,536.266849
579.495074,-666.185348,-7698.141797,459.657299
579.495401,-518.144159,-7476.080014,229.828649
579.495729,-1924.535449,-7105.977043,-689.485948
579.496057,-2590.720797,-7920.203579,0.000000
579.496385,-1258.350101,-7920.203579,766.095498
579.496712,-962.267725,-7179.997637,842.705048
579.497040,-148.041188,-7624.121203,1302.362347
579.497368,-740.205942,-8512.368333,995.924147
579.497696,-2220.617826,-8956.491898,689.485948
579.498023,-3330.926739,-9030.512492,-689.485948
579.498351,-3478.967927,-8734.430116,-1149.143247
579.498679,-1776.494261,-8290.306550,-842.705048
579.499006,296.082377,-8290.306550,-383.047749
579.499334,1850.514855,-8364.327145,0.000000
579.499662,2812.782580,-8956.491898,612.876398
579.499990,2072.576638,-9400.615463,0.000000
579.500317,1036.288319,-10140.821405,0.000000
579.500645,962.267725,-10732.986159,536.266849
579.500973,2516.700203,-11843.295072,1685.410096
579.501301,2368.659014,-12065.356855,1762.019645
579.501628,1776.494261,-13027.624579,2528.115143
579.501956,444.123565,-13323.706956,2298.286494
579.502284,-1184.329507,-12731.542202,1608.800546
579.502611,-2664.741391,-12731.542202,689.485948
579.502939,-2368.659014,-11177.109724,-612.876398
579.503267,-2368.659014,-9844.739029,-306.438199
579.503595,-296.082377,-8364.327145,-766.095498
579.503922,222.061783,-7105.977043,-919.314598
579.504250,592.164754,-7031.956449,-612.876398
579.504578,1332.370696,-6661.853478,0.000000
579.504906,518.144159,-7179.997637,-383.047749
579.505233,296.082377,-7846.182985,0.000000
579.505561,888.247130,-8808.450710,842.705048
579.505889,0.000000,-9400.615463,1762.019645
579.506216,518.144159,-10584.944971,2681.334243
579.506544,-1332.370696,-11547.212695,2451.505594
579.506872,-2960.823768,-11991.336260,2068.457845
579.507200,-4663.297435,-11991.336260,919.314598
579.507527,-4145.153275,-10584.944971,153.219100
579.507855,-2442.679609,-9030.512492,0.000000
579.508183,-518.144159,-7698.141797,0.000000
579.508511,518.144159,-7105.977043,-229.828649
579.508838,1110.308913,-6587.832884,0.000000
579.509166,814.226536,-5921.647536,-612.876398
579.509494,74.020594,-6069.688724,-306.438199
579.509821,444.123565,-6883.915261,76.609550
579.510149,1554.432478,-8142.265362,842.705048
579.510477,888.247130,-8364.327145,1532.190996
579.510805,74.020594,-8956.491898,2528.115143
579.511132,-888.247130,-9918.759623,2757.943793
579.511460,-1850.514855,-9548.656652,2221.676944
579.511788,-3775.050304,-9400.615463,536.266849
579.512116,-2516.700203,-9178.553681,689.485948
579.512443,-962.267725,-8068.244768,306.438199
579.512771,-296.082377,-7402.059420,229.828649
579.513099,1258.350101,-6365.771101,153.219100
579.513426,1776.494261,-6365.771101,-76.609550
579.513754,962.267725,-6365.771101,-919.314598
579.514082,888.247130,-7179.997637,-1072.533697
579.514410,1258.350101,-8438.347739,-306.438199
579.514737,2220.617826,-9030.512492,689.485948
579.515065,2590.720797,-10214.842000,1838.629195
579.515393,1702.473667,-11399.171507,2451.505594
579.515720,666.185348,-12657.521608,2528.115143
579.516048,-1998.556043,-12657.521608,1532.190996
579.516376,-3478.967927,-12509.480420,766.095498
579.516704,-3627.009116,-11695.253884,919.314598
579.517031,-2220.617826,-10658.965565,229.828649
579.517359,-1406.391290,-9696.697840,-306.438199
579.517687,-740.205942,-8586.388927,-459.657299
579.518015,74.020594,-7994.224174,-689.485948
579.518342,0.000000,-7328.038826,-919.314598
579.518670,148.041188,-7179.997637,-1302.362347
579.518998,1480.411884,-7179.997637,-689.485948
579.519325,2812.782580,-7846.182985,536.266849
579.519653,2886.803174,-8808.450710,995.924147
579.519981,2368.659014,-10362.883188,1915.238745
579.520309,0.000000,-10732.986159,2374.896044
579.520636,-2294.638420,-11621.233289,1532.190996
579.520964,-3701.029710,-12213.398043,612.876398
579.521292,-2960.823768,-11843.295072,383.047749
579.521620,-1702.473667,-10955.047942,229.828649
579.521947,-1036.288319,-9474.636058,0.000000
579.522275,74.020594,-9400.615463,-153.219100
579.522603,148.041188,-8660.409521,-842.705048
579.522930,-296.082377,-7254.018232,-1532.190996
579.523258,296.082377,-7402.059420,-1302.362347
579.523586,2146.597232,-7328.038826,-383.047749
579.523914,1702.473667,-7402.059420,459.657299
579.524241,2220.617826,-8438.347739,1532.190996
579.524569,1332.370696,-9918.759623,2221.676944
579.524897,0.000000,-10881.027347,2604.724693
579.525225,-2812.782580,-10881.027347,1378.971896
579.525552,-3256.906145,-10955.047942,1532.190996
579.525880,-3256.906145,-10214.842000,995.924147
579.526208,-1924.535449,-8882.471304,919.314598
579.526535,-1036.288319,-7550.100608,306.438199
579.526863,0.000000,-7254.018232,459.657299
579.527191,1036.288319,-6587.832884,229.828649
579.527519,0.000000,-5921.647536,-459.657299
579.527846,592.164754,-6365.771101,-229.828649
579.528174,2146.597232,-6957.935855,536.266849
579.528502,3256.906145,-7105.977043,1608.800546
579.528830,3404.947333,-8290.306550,2374.896044
579.529157,2368.659014,-10214.842000,3064.381992
579.529485,444.123565,-11029.068536,3524.039291
579.529813,-2442.679609,-11843.295072,2911.162892
579.530140,-4293.194464,-12509.480420,2145.067394
579.530468,-3552.988522,-11621.233289,2145.067394
579.530796,-3256.906145,-9770.718434,1455.581446
579.531124,-1924.535449,-8586.388927,689.485948
579.531451,-1702.473667,-7179.997637,-153.219100
579.531779,-1258.350101,-6661.853478,-536.266849
579.532107,-1332.370696,-5477.523971,-1072.533697
579.532435,-1036.288319,-5329.482782,-1378.971896
579.532762,740.205942,-6365.771101,-766.095498
579.533090,1776.494261,-7179.997637,76.609550
579.533418,1332.370696,-8660.409521,766.095498
579.533745,74.020594,-10140.821405,1455.581446
579.534073,-1036.288319,-10510.924376,1455.581446
579.534401,-2664.741391,-11325.150913,919.314598
579.534729,-3182.885551,-11695.253884,612.876398
579.535056,-2442.679609,-11399.171507,229.828649
579.535384,-2220.617826,-10436.903782,-153.219100
579.535712,-1036.288319,-9992.780217,-689.485948
579.536039,-962.267725,-8882.471304,-1455.581446
579.536367,-370.102971,-8290.306550,-1991.848295
579.536695,296.082377,-7402.059420,-2834.553343
579.537023,1554.432478,-7105.977043,-2451.505594
579.537350,4663.297435,-7920.203579,-995.924147
579.537678,5477.523971,-7550.100608,229.828649
579.538006,5329.482782,-8956.491898,919.314598
579.538334,3923.091493,-10658.965565,1532.190996
579.538661,1480.411884,-11769.274478,1455.581446
579.538989,-1332.370696,-12361.439231,995.924147
579.539317,-2516.700203,-12287.418637,689.485948
579.539644,-2146.597232,-11695.253884,1149.143247
579.539972,-1628.453072,-10732.986159,1072.533697
579.540300,-444.123565,-9474.636058,689.485948
579.540628,-296.082377,-8438.347739,0.000000
579.540955,0.000000,-6735.874072,-689.485948
579.541283,-592.164754,-5921.647536,-1915.238745
579.541611,296.082377,-5995.668130,-1149.143247
579.541939,2220.617826,-6587.832884,0.000000
579.542266,2590.720797,-6439.791695,766.095498
579.542594,1998.556043,-7846.182985,1991.848295
579.542922,1184.329507,-9548.656652,2757.943793
579.543249,-1628.453072,-10807.006753,2681.334243
579.543577,-4515.256246,-12287.418637,2221.676944
579.543905,-5625.565159,-12657.521608,1838.629195
579.544233,-4737.318029,-11473.192101,1991.848295
579.544560,-3478.967927,-9918.759623,1149.143247
579.544888,-3034.844362,-9548.656652,1149.143247
579.545216,-2294.638420,-8586.388927,536.266849
579.545544,-2294.638420,-7031.956449,-612.876398
579.545871,-2294.638420,-5477.523971,-1685.410096
579.546199,148.041188,-5329.482782,-1532.190996
579.546527,2146.597232,-5329.482782,-612.876398
579.546854,2812.782580,-6143.709319,536.266849
579.547182,2960.823768,-7772.162391,1532.190996
579.547510,2664.741391,-9474.636058,2298.286494
579.547838,888.247130,-9770.718434,2757.943793
579.548165,-592.164754,-11695.253884,2374.896044
579.548493,-962.267725,-12509.480420,2298.286494
579.548821,-740.205942,-12213.398043,2068.457845
579.549149,-592.164754,-11473.192101,1915.238745
579.549477,222.061783,-10807.006753,1302.362347
579.549804,0.000000,-9844.739029,612.876398
579.550132,-666.185348,-8882.471304,-612.876398
579.550460,-222.061783,-7105.977043,-1532.190996
579.550788,1628.453072,-6513.812290,-1378.971896
579.551115,3330.926739,-6143.709319,-1302.362347
579.551443,3997.112087,-6143.709319,153.219100
579.551771,3256.906145,-8068.244768,919.314598
579.552099,2294.638420,-9696.697840,1149.143247
579.552427,-962.267725,-10955.047942,1302.362347
579.552754,-2960.823768,-12287.418637,1455.581446
579.553082,-3182.885551,-13027.624579,1455.581446
579.553410,-3404.947333,-12435.459826,2068.457845
579.553738,-3182.885551,-11325.150913,1302.362347
579.554065,-2442.679609,-10510.924376,1302.362347
579.554393,-2368.659014,-9326.594869,306.438199
579.554721,-2812.782580,-7476.080014,-1378.971896
579.555049,-2812.782580,-6143.709319,-2451.505594
579.555377,-1258.350101,-5699.585753,-2528.115143
579.555704,1406.391290,-5107.421000,-1685.410096
579.556032,2220.617826,-5033.400406,-1302.362347
579.556360,2960.823768,-6587.832884,229.828649
579.556688,1480.411884,-8364.327145,766.095498
579.557015,-814.226536,-9992.780217,689.485948
579.557343,-2442.679609,-11991.336260,612.876398
579.557671,-2368.659014,-12953.603985,1608.800546
579.557999,-1702.473667,-11843.295072,2451.505594
579.558327,-1480.411884,-11251.130318,1378.971896
579.558654,-1184.329507,-11029.068536,842.705048
579.558982,-740.205942,-10214.842000,536.266849
579.559310,-888.247130,-7550.100608,-919.314598
579.559638,-296.082377,-6661.853478,-1302.362347
579.559965,3330.926739,-5477.523971,-459.657299
579.560293,4589.276840,-5625.565159,0.000000
579.560621,5477.523971,-5995.668130,842.705048
579.560949,4959.379811,-7402.059420,1225.752797
579.561277,3256.906145,-9770.718434,2374.896044
579.561604,222.061783,-11029.068536,1838.629195
579.561932,-1332.370696,-11843.295072,2068.457845
579.562260,-1628.453072,-12361.439231,2145.067394
579.562588,-1406.391290,-12065.356855,2374.896044
579.562915,-1702.473667,-10955.047942,1762.019645
579.563243,-1036.288319,-9844.739029,1685.410096
579.563571,-1924.535449,-8956.491898,536.266849
579.563899,-2960.823768,-7698.141797,-842.705048
579.564227,-2442.679609,-6809.894666,-1532.190996
579.564554,-962.267725,-6291.750507,-1225.752797
579.564882,962.267725,-5847.626942,153.219100
579.565210,1406.391290,-6365.771101,612.876398
579.565538,1184.329507,-8216.285956,1455.581446
579.565865,-444.123565,-9104.533087,1685.410096
579.566193,-2738.761985,-10214.842000,1149.143247
579.566521,-3997.112087,-12287.418637,1455.581446
579.566849,-2960.823768,-11843.295072,2068.457845
579.567177,-2368.659014,-11103.089130,2068.457845
579.567504,-1702.473667,-10436.903782,1838.629195
579.567832,-1258.350101,-10362.883188,1532.190996
579.568160,-740.205942,-9474.636058,919.314598
579.568488,-1332.370696,-8142.265362,-536.266849
579.568815,-296.082377,-7328.038826,-459.657299
579.569143,1406.391290,-6957.935855,-766.095498
579.569471,2294.638420,-6587.832884,-153.219100
579.569799,3701.029710,-7476.080014,306.438199
579.570127,2516.700203,-9252.574275,536.266849
579.570454,1776.494261,-9474.636058,1685.410096
579.570782,-888.247130,-10807.006753,1072.533697
579.571110,-1110.308913,-11325.150913,1685.410096
579.571438,-518.144159,-11473.192101,1455.581446
579.571765,-962.267725,-10881.027347,1302.362347
579.572093,-814.226536,-11251.130318,1838.629195
579.572421,-1258.350101,-10807.006753,995.924147
579.572749,-1554.432478,-9178.553681,76.609550
579.573077,-1480.411884,-8364.327145,-689.485948
579.573404,-370.102971,-7550.100608,-919.314598
579.573732,1036.288319,-7920.203579,0.000000
579.574060,1406.391290,-7031.956449,-383.047749
579.574388,1924.535449,-7179.997637,229.828649
579.574715,1998.556043,-8290.306550,766.095498
579.575043,296.082377,-8956.491898,612.876398
579.575371,-1850.514855,-9696.697840,76.609550
579.575699,-2146.597232,-11029.068536,459.657299
579.576027,-1554.432478,-10214.842000,919.314598
579.576354,-888.247130,-9548.656652,1149.143247
579.576682,-814.226536,-9474.636058,1225.752797
579.577010,-222.061783,-9474.636058,1149.143247
579.577338,-1628.453072,-9252.574275,689.485948
579.577665,-2146.597232,-8290.306550,-153.219100
579.577993,-2072.576638,-7772.162391,-383.047749
579.578321,148.041188,-7105.977043,0.000000
579.578649,1110.308913,-6143.709319,-229.828649
579.578977,1554.432478,-6809.894666,842.705048
579.579304,1406.391290,-7550.100608,459.657299
579.579632,-296.082377,-8290.306550,459.657299
579.579960,-1036.288319,-8512.368333,229.828649
579.580288,-1110.308913,-9252.574275,612.876398
579.580615,370.102971,-9252.574275,1225.752797
579.580943,0.000000,-9696.697840,1378.971896
579.581271,-444.123565,-10140.821405,1455.581446
579.581599,-888.247130,-10140.821405,842.705048
579.581927,-1628.453072,-9474.636058,459.657299
579.582254,-2072.576638,-8364.327145,-383.047749
579.582582,0.000000,-9178.553681,-536.266849
579.582910,1184.329507,-8660.409521,0.000000
579.583238,1776.494261,-7624.121203,0.000000
579.583565,1628.453072,-8734.430116,383.047749
579.583893,1628.453072,-9030.512492,383.047749
579.584221,222.061783,-9770.718434,76.609550
579.584549,-814.226536,-10732.986159,-459.657299
579.584877,-740.205942,-10881.027347,0.000000
579.585204,74.020594,-10658.965565,612.876398
579.585532,74.020594,-10584.944971,1455.581446
579.585860,1110.308913,-10881.027347,1532.190996
579.586188,1184.329507,-10140.821405,1608.800546
579.586515,0.000000,-9622.677246,459.657299
579.586843,-1110.308913,-9474.636058,0.000000
579.587171,-518.144159,-9548.656652,459.657299
579.587499,814.226536,-8290.306550,919.314598
579.587827,1258.350101,-8290.306550,995.924147
579.588154,1184.329507,-9696.697840,1532.190996
579.588482,296.082377,-9992.780217,1455.581446
579.588810,-1406.391290,-10140.821405,1225.752797
579.589138,-2368.659014,-9918.759623,919.314598
579.589465,-2664.741391,-10732.986159,995.924147
579.589793,-1480.411884,-10732.986159,1455.581446
579.590121,-1258.350101,-10362.883188,1532.190996
579.590449,-1036.288319,-10066.800811,1838.629195
579.590776,-888.247130,-9474.636058,1608.800546
579.591104,-2368.659014,-9474.636058,459.657299
579.591432,-2738.761985,-8882.471304,0.000000
579.591760,-1924.535449,-8216.285956,-76.609550
579.592088,-296.082377,-7254.018232,153.219100
579.592415,0.000000,-7105.977043,229.828649
579.592743,0.000000,-8438.347739,919.314598
579.593071,222.061783,-8438.347739,1225.752797
579.593399,-1258.350101,-8512.368333,919.314598
579.593726,-1998.556043,-9474.636058,153.219100
579.594054,-1110.308913,-9548.656652,612.876398
579.594382,0.000000,-8734.430116,1149.143247
579.594710,370.102971,-8364.327145,766.095498
579.595038,1776.494261,-8808.450710,1685.410096
579.595365,1184.329507,-8660.409521,1149.143247
579.595693,222.061783,-7920.203579,536.266849
579.596021,-148.041188,-8142.265362,-306.438199
579.596349,740.205942,-7328.038826,919.314598
579.596676,1554.432478,-7920.203579,612.876398
579.597004,1332.370696,-8068.244768,995.924147
579.597332,2146.597232,-8734.430116,1455.581446
579.597660,666.185348,-8586.388927,1225.752797
579.597988,-370.102971,-8438.347739,536.266849
579.598315,-1258.350101,-8882.471304,-306.438199
579.598643,-148.041188,-8956.491898,153.219100
579.598971,0.000000,-8364.327145,0.000000
579.599299,74.020594,-7698.141797,153.219100
579.599626,296.082377,-7476.080014,153.219100
579.599954,370.102971,-7846.182985,0.000000
579.600282,-1258.350101,-7698.141797,-919.314598
579.600610,-1406.391290,-7624.121203,-612.876398
579.600938,-444.123565,-7402.059420,-459.657299
579.601265,592.164754,-7772.162391,-76.609550
579.601593,518.144159,-8290.306550,229.828649
579.601921,148.041188,-9548.656652,536.266849
579.602249,-962.267725,-10288.862594,383.047749
579.602576,-2442.679609,-10140.821405,-306.438199
579.602904,-2368.659014,-10955.047942,-306.438199
579.603232,-2220.617826,-10732.986159,-306.438199
579.603560,-962.267725,-9696.697840,-536.266849
579.603888,-296.082377,-9696.697840,-689.485948
579.604215,296.082377,-9992.780217,-229.828649
579.604543,-148.041188,-9696.697840,-612.876398
579.604871,-444.123565,-9326.594869,-229.828649
579.605199,-222.061783,-9770.718434,-459.657299
579.605526,740.205942,-9474.636058,229.828649
579.605854,1628.453072,-9548.656652,995.924147
579.606182,2072.576638,-10436.903782,1838.629195
579.606510,1850.514855,-10881.027347,2145.067394
579.606838,296.082377,-10955.047942,2145.067394
579.607165,-1406.391290,-11177.109724,1532.190996
579.607493,-2072.576638,-11177.109724,1149.143247
579.607821,-444.123565,-10732.986159,995.924147
579.608149,888.247130,-9178.553681,842.705048
579.608476,2220.617826,-8882.471304,1685.410096
579.608804,2442.679609,-8882.471304,1838.629195
579.609132,2072.576638,-8734.430116,1838.629195
579.609460,592.164754,-8660.409521,1225.752797
579.609788,296.082377,-9770.718434,1378.971896
579.610115,666.185348,-9548.656652,2068.457845
579.610443,592.164754,-9474.636058,2221.676944
579.610771,-370.102971,-10214.842000,2681.334243
579.611099,-1480.411884,-11029.068536,2911.162892
579.611426,-3701.029710,-11325.150913,2298.286494
579.611754,-5403.503377,-10288.862594,612.876398
579.612082,-5403.503377,-10066.800811,306.438199
579.612410,-4219.173869,-9104.533087,306.438199
579.612738,-3034.844362,-7846.182985,229.828649
579.613065,-2072.576638,-7476.080014,153.219100
579.613393,-814.226536,-6809.894666,383.047749
579.613721,-814.226536,-6439.791695,-306.438199
579.614049,-1850.514855,-6069.688724,-689.485948
579.614376,-666.185348,-6661.853478,0.000000
579.614704,222.061783,-6661.853478,383.047749
579.615032,222.061783,-7105.977043,1685.410096
579.615360,740.205942,-9252.574275,2068.457845
579.615688,74.020594,-9992.780217,1991.848295
579.616015,-370.102971,-9770.718434,1608.800546
579.616343,-1702.473667,-10066.800811,229.828649
579.616671,-1036.288319,-10288.862594,76.609550
579.616999,1036.288319,-8882.471304,-459.657299
579.617326,1554.432478,-7254.018232,-612.876398
579.617654,2960.823768,-7105.977043,-306.438199
579.617982,3034.844362,-6883.915261,-459.657299
579.618310,2442.679609,-7105.977043,-536.266849
579.618638,1184.329507,-7624.121203,-1762.019645
579.618965,1776.494261,-8586.388927,-383.047749
579.619293,2072.576638,-8956.491898,689.485948
579.619621,2368.659014,-8882.471304,1225.752797
579.619949,1406.391290,-10436.903782,1532.190996
579.620276,296.082377,-10732.986159,1838.629195
579.620604,-2146.597232,-10732.986159,1072.533697
579.620932,-3997.112087,-10066.800811,-306.438199
579.621260,-3478.967927,-9770.718434,-766.095498
579.621588,-1776.494261,-8956.491898,-766.095498
579.621915,-1184.329507,-7994.224174,-995.924147
579.622243,-296.082377,-7476.080014,-689.485948
579.622571,592.164754,-7179.997637,-1149.143247
579.622899,-148.041188,-7254.018232,-1378.971896
579.623226,-1332.370696,-8364.327145,-1302.362347
579.623554,-1258.350101,-9474.636058,-689.485948
579.623882,370.102971,-9770.718434,842.705048
579.624210,592.164754,-10140.821405,995.924147
579.624538,1110.308913,-11325.150913,2451.505594
579.624865,-370.102971,-12361.439231,2068.457845
579.625193,-2220.617826,-11917.315666,1532.190996
579.625521,-3256.906145,-11621.233289,689.485948
579.625849,-2664.741391,-11029.068536,153.219100
579.626176,-1110.308913,-10066.800811,306.438199
579.626504,-518.144159,-8512.368333,-153.219100
579.626832,888.247130,-7994.224174,0.000000
579.627160,2072.576638,-7254.018232,0.000000
579.627488,1628.453072,-6143.709319,0.000000
579.627815,2146.597232,-7031.956449,229.828649
579.628143,2738.761985,-7846.182985,1072.533697
579.628471,2886.803174,-8808.450710,2068.457845
579.628799,1998.556043,-9844.739029,2757.943793
579.629126,740.205942,-11473.192101,3907.087040
579.629454,-888.247130,-12435.459826,3370.820191
579.629782,-3849.070898,-12287.418637,2145.067394
579.630110,-4515.256246,-11917.315666,1608.800546
579.630438,-3701.029710,-10288.862594,995.924147
579.630765,-2220.617826,-8364.327145,689.485948
579.631093,-1554.432478,-7105.977043,0.000000
579.631421,-666.185348,-7254.018232,0.000000
579.631749,74.020594,-5995.668130,-383.047749
579.632076,-518.144159,-5403.503377,-1072.533697
579.632404,-518.144159,-6143.709319,-842.705048
579.632732,370.102971,-7254.018232,0.000000
579.633060,1110.308913,-8142.265362,1608.800546
579.633388,1036.288319,-9030.512492,2451.505594
579.633715,0.000000,-10658.965565,2911.162892
579.634043,-740.205942,-11917.315666,3064.381992
579.634371,-3182.885551,-11843.295072,2145.067394
579.634699,-3849.070898,-11843.295072,1455.581446
579.635026,-2590.720797,-10214.842000,995.924147
579.635354,-1184.329507,-9104.533087,766.095498
579.635682,0.000000,-7994.224174,-459.657299
579.636010,592.164754,-7328.038826,-919.314598
579.636337,1258.350101,-6439.791695,-1225.752797
579.636665,592.164754,-5329.482782,-2374.896044
579.636993,1998.556043,-6365.771101,-1455.581446
579.637321,3478.967927,-7476.080014,-383.047749
579.637649,3775.050304,-8364.327145,612.876398
579.637976,2738.761985,-9770.718434,1149.143247
579.638304,2368.659014,-11325.150913,2221.676944
579.638632,370.102971,-12287.418637,2068.457845
579.638960,-2738.761985,-13175.665768,1149.143247
579.639287,-4071.132681,-13101.645173,766.095498
579.639615,-3256.906145,-11769.274478,153.219100
579.639943,-1702.473667,-9252.574275,-229.828649
579.640271,-740.205942,-7994.224174,-459.657299
579.640599,74.020594,-7698.141797,-766.095498
579.640926,814.226536,-6587.832884,-1378.971896
579.641254,-370.102971,-5255.462188,-2528.115143
579.641582,1480.411884,-5699.585753,-1991.848295
579.641910,2072.576638,-6587.832884,-919.314598
579.642237,2146.597232,-7402.059420,76.609550
579.642565,1998.556043,-9548.656652,1915.238745
579.642893,962.267725,-11325.150913,2221.676944
579.643221,-444.123565,-11917.315666,2757.943793
579.643549,-2738.761985,-12213.398043,2145.067394
579.643876,-4071.132681,-13101.645173,1455.581446
579.644204,-3256.906145,-12139.377449,1225.752797
579.644532,-2738.761985,-10214.842000,153.219100
579.644860,-1184.329507,-8216.285956,0.000000
579.645187,0.000000,-7031.956449,-536.266849
579.645515,888.247130,-6513.812290,-612.876398
579.645844,814.226536,-5699.585753,-1608.800546
579.646171,1480.411884,-5773.606348,-612.876398
579.646499,3330.926739,-6809.894666,689.485948
579.646827,2960.823768,-7328.038826,1762.019645
579.647154,2294.638420,-9400.615463,2528.115143
579.647482,1110.308913,-11103.089130,3294.210641
579.647810,-962.267725,-10807.006753,3294.210641
579.648137,-3182.885551,-11843.295072,2451.505594
579.648465,-4293.194464,-12361.439231,1608.800546
579.648793,-3552.988522,-11473.192101,1532.190996
579.649120,-3478.967927,-9178.553681,383.047749
579.649448,-1998.556043,-7624.121203,0.000000
579.649776,-592.164754,-7105.977043,-612.876398
579.650103,-666.185348,-6143.709319,-1532.190996
579.650431,-444.123565,-5921.647536,-1991.848295
579.650759,444.123565,-5699.585753,-1838.629195
579.651086,2072.576638,-6513.812290,-459.657299
579.651414,2738.761985,-7031.956449,689.485948
579.651742,1924.535449,-9326.594869,1455.581446
579.652069,518.144159,-10955.047942,2298.286494
579.652397,-1036.288319,-11695.253884,2451.505594
579.652725,-3552.988522,-12509.480420,1608.800546
579.653052,-3552.988522,-12509.480420,1532.190996
579.653380,-2146.597232,-11251.130318,842.705048
579.653708,-814.226536,-9770.718434,459.657299
579.654035,74.020594,-8808.450710,0.000000
579.654363,1258.350101,-7698.141797,0.000000
579.654691,1406.391290,-6513.812290,-995.924147
579.655018,1258.350101,-6439.791695,-1838.629195
579.655346,2146.597232,-6661.853478,-1149.143247
579.655674,4293.194464,-6883.915261,0.000000
579.656001,3627.009116,-8216.285956,689.485948
579.656329,3701.029710,-10214.842000,1762.019645
579.656657,1850.514855,-11843.295072,2681.334243
579.656984,-1036.288319,-12583.501014,2451.505594
579.657312,-3478.967927,-13767.830521,1838.629195
579.657640,-3552.988522,-13767.830521,1685.410096
579.657967,-3034.844362,-12509.480420,1762.019645
579.658295,-2442.679609,-11325.150913,612.876398
579.658623,-2294.638420,-10732.986159,459.657299
579.658950,-1258.350101,-9030.512492,-459.657299
579.659278,-1924.535449,-7402.059420,-1608.800546
579.659606,-1184.329507,-6513.812290,-2528.115143
579.659933,0.000000,-6217.729913,-1608.800546
579.660261,2294.638420,-6143.709319,-1532.190996
579.660589,2960.823768,-6883.915261,153.219100
579.660916,2664.741391,-9030.512492,1302.362347
579.661244,1850.514855,-10510.924376,2451.505594
579.661572,-1184.329507,-11325.150913,2374.896044
579.661899,-3108.864956,-13397.727550,2374.896044
579.662227,-3701.029710,-13175.665768,1608.800546
579.662555,-2664.741391,-12139.377449,1532.190996
579.662882,-2442.679609,-10362.883188,689.485948
579.663210,-296.082377,-9104.533087,766.095498
579.663538,296.082377,-7105.977043,0.000000
579.663865,962.267725,-6069.688724,-919.314598
579.664193,444.123565,-5773.606348,-1762.019645
579.664521,2368.659014,-5699.585753,-1532.190996
579.664848,3627.009116,-5625.565159,-842.705048
579.665176,3775.050304,-5477.523971,536.266849
579.665504,3552.988522,-8512.368333,1915.238745
579.665831,1258.350101,-10214.842000,2681.334243
579.666159,-1554.432478,-11029.068536,2145.067394
579.666487,-3627.009116,-11991.336260,1838.629195
579.666814,-3404.947333,-11399.171507,2451.505594
579.667142,-2368.659014,-10066.800811,2068.457845
579.667470,-1850.514855,-8808.450710,1302.362347
579.667797,-888.247130,-7550.100608,842.705048
579.668125,-444.123565,-6291.750507,0.000000
579.668453,-1184.329507,-4737.318029,-1302.362347
579.668780,-1036.288319,-4441.235652,-1762.019645
579.669108,222.061783,-5181.441594,-1225.752797
579.669436,962.267725,-5773.606348,-689.485948
579.669763,1036.288319,-7031.956449,153.219100
579.670091,1332.370696,-8512.368333,1149.143247
579.670419,888.247130,-10066.800811,2298.286494
579.670746,-1850.514855,-11325.150913,1991.848295
579.671074,-3108.864956,-11991.336260,1455.581446
579.671402,-2812.782580,-11843.295072,1608.800546
579.671729,-2294.638420,-10732.986159,1455.581446
579.672057,-1480.411884,-9770.718434,229.828649
579.672385,-962.267725,-9252.574275,459.657299
579.672712,-592.164754,-7994.224174,-229.828649
579.673040,-1258.350101,-7105.977043,-1532.190996
579.673368,-888.247130,-7105.977043,-2451.505594
579.673695,1628.453072,-6957.935855,-1225.752797
579.674023,2664.741391,-6069.688724,-306.438199
579.674351,3923.091493,-7328.038826,689.485948
579.674678,3256.906145,-9844.739029,1685.410096
579.675006,1924.535449,-11325.150913,2145.067394
579.675334,-888.247130,-12065.356855,1608.800546
579.675661,-1258.350101,-13323.706956,2451.505594
579.675989,-1924.535449,-13027.624579,1838.629195
579.676317,-1850.514855,-13101.645173,2374.896044
579.676644,-1406.391290,-11991.336260,1608.800546
579.676972,-1184.329507,-10658.965565,842.705048
579.677300,-814.226536,-9474.636058,0.000000
579.677627,-2072.576638,-7846.182985,-1455.581446
579.677955,-592.164754,-7328.038826,-1838.629195
579.678283,1332.370696,-6883.915261,-1532.190996
579.678610,2590.720797,-6217.729913,-766.095498
579.678938,3627.009116,-7105.977043,-306.438199
579.679266,2442.679609,-8734.430116,1072.533697
579.679593,1258.350101,-10584.944971,1762.019645
579.679921,-1554.432478,-11177.109724,1302.362347
579.680249,-2516.700203,-12361.439231,1991.848295
579.680576,-2812.782580,-12139.377449,2068.457845
579.680904,-2516.700203,-11177.109724,2298.286494
579.681232,-2368.659014,-10881.027347,1455.581446
579.681559,-2072.576638,-9918.759623,995.924147
579.681887,-2146.597232,-9030.512492,153.219100
579.682215,-2590.720797,-7328.038826,-1225.752797
579.682542,-1332.370696,-6809.894666,-2221.676944
579.682870,814.226536,-6217.729913,-1608.800546
579.683198,2442.679609,-6069.688724,-842.705048
579.683525,3849.070898,-7476.080014,306.438199
579.683853,3108.864956,-8734.430116,842.705048
579.684181,1480.411884,-10066.800811,689.485948
579.684508,-1776.494261,-10658.965565,689.485948
579.684836,-1924.535449,-11843.295072,1455.581446
579.685164,-1850.514855,-11917.315666,1225.752797
579.685491,-1258.350101,-11177.109724,1762.019645
579.685819,-1184.329507,-10807.006753,1532.190996
579.686147,-148.041188,-9400.615463,1378.971896
579.686474,0.000000,-7772.162391,383.047749
579.686802,-592.164754,-6291.750507,-383.047749
579.687130,518.144159,-5773.606348,-842.705048
579.687457,2220.617826,-5403.503377,-919.314598
579.687785,3034.844362,-4441.235652,76.609550
579.688113,3256.906145,-5551.544565,0.000000
579.688440,2960.823768,-7846.182985,1302.362347
579.688768,740.205942,-8808.450710,995.924147
579.689096,-1406.391290,-10436.903782,919.314598
579.689423,-1998.556043,-11325.150913,1225.752797
579.689751,-1702.473667,-11103.089130,1838.629195
579.690079,-1332.370696,-11103.089130,2145.067394
579.690406,-1184.329507,-10955.047942,1838.629195
579.690734,-1480.411884,-10140.821405,1455.581446
579.691062,-1850.514855,-9030.512492,383.047749
579.691389,-2960.823768,-7402.059420,-842.705048
579.691717,-2220.617826,-6513.812290,-1072.533697
579.692045,0.000000,-5773.606348,-842.705048
579.692372,-148.041188,-5921.647536,-612.876398
579.692700,740.205942,-6291.750507,0.000000
579.693028,518.144159,-7846.182985,459.657299
579.693355,-740.205942,-8882.471304,536.266849
579.693683,-2146.597232,-10658.965565,306.438199
579.694011,-1850.514855,-11547.212695,1378.971896
579.694338,-888.247130,-10881.027347,1762.019645
579.694666,-444.123565,-10510.924376,1915.238745
579.694994,-222.061783,-10510.924376,1915.238745
579.695321,-148.041188,-10140.821405,1685.410096
579.695649,-740.205942,-9252.574275,459.657299
579.695977,-962.267725,-8586.388927,0.000000
579.696304,-296.082377,-7920.203579,-536.266849
579.696632,1702.473667,-7105.977043,-229.828649
579.696960,1924.535449,-7254.018232,0.000000
579.697287,2294.638420,-8808.450710,536.266849
579.697615,1332.370696,-9696.697840,612.876398
579.697943,444.123565,-10214.842000,306.438199
579.698270,-592.164754,-11029.068536,919.314598
579.698598,-1184.329507,-11621.233289,1072.533697
579.698926,-222.061783,-11843.295072,1608.800546
579.699253,-666.185348,-10881.027347,1532.190996
579.699581,0.000000,-10436.903782,1378.971896
579.699909,-518.144159,-9918.759623,1608.800546
579.700236,-1702.473667,-8364.327145,306.438199
579.700564,-2220.617826,-8290.306550,-153.219100
579.700892,-1258.350101,-7624.121203,-229.828649
579.701219,444.123565,-7624.121203,229.828649
579.701547,444.123565,-6735.874072,0.000000
579.701875,592.164754,-8290.306550,612.876398
579.702202,370.102971,-9252.574275,995.924147
579.702530,-888.247130,-9030.512492,383.047749
579.702858,-2072.576638,-9770.718434,153.219100
579.703185,-1036.288319,-9992.780217,919.314598
579.703513,-444.123565,-9992.780217,995.924147
579.703841,-666.185348,-10436.903782,1225.752797
579.704168,-592.164754,-10214.842000,919.314598
579.704496,-444.123565,-10140.821405,995.924147
579.704824,-1258.350101,-9548.656652,-383.047749
579.705151,-1036.288319,-9178.553681,0.000000
579.705479,74.020594,-9030.512492,229.828649
579.705807,888.247130,-8142.265362,766.095498
579.706134,1036.288319,-7698.141797,459.657299
579.706462,666.185348,-8882.471304,919.314598
579.706790,740.205942,-8660.409521,612.876398
579.707117,-1110.308913,-8364.327145,306.438199
579.707445,-1332.370696,-8734.430116,0.000000
579.707773,-888.247130,-9252.574275,229.828649
579.708100,74.020594,-8808.450710,1455.581446
579.708428,0.000000,-8512.368333,1225.752797
579.708756,666.185348,-9474.636058,1455.581446
579.709083,0.000000,-9326.594869,1302.362347
579.709411,-1480.411884,-9030.512492,0.000000
579.709739,-1554.432478,-9622.677246,-229.828649
579.710066,-592.164754,-9622.677246,0.000000
579.710394,518.144159,-8068.244768,306.438199
579.710722,1406.391290,-7846.182985,536.266849
579.711049,1258.350101,-8438.347739,689.485948
579.711377,888.247130,-8882.471304,919.314598
579.711705,-814.226536,-8586.388927,-229.828649
579.712032,-1480.411884,-9252.574275,0.000000
579.712360,-1480.411884,-9400.615463,76.609550
579.712688,-518.144159,-9104.533087,459.657299
579.713015,0.000000,-9400.615463,919.314598
579.713343,444.123565,-9104.533087,1378.971896
579.713671,296.082377,-9474.636058,1455.581446
579.713998,-1850.514855,-8882.471304,689.485948
579.714326,-1480.411884,-9178.553681,536.266849
579.714654,74.020594,-8808.450710,612.876398
579.714981,0.000000,-8142.265362,383.047749
579.715309,518.144159,-8512.368333,919.314598
579.715637,296.082377,-8734.430116,1072.533697
579.715964,444.123565,-8808.450710,1302.362347
579.716292,-1554.432478,-8956.491898,383.047749
579.716620,-1332.370696,-9844.739029,612.876398
579.716947,-1184.329507,-9770.718434,229.828649
579.717275,-666.185348,-9474.636058,612.876398
579.717603,-518.144159,-9992.780217,766.095498
579.717930,-222.061783,-10362.883188,689.485948
579.718258,0.000000,-10066.800811,995.924147
579.718586,-1776.494261,-9474.636058,153.219100
579.718913,-444.123565,-9844.739029,-153.219100
579.719241,666.185348,-9252.574275,229.828649
579.719569,1628.453072,-8364.327145,995.924147
579.719896,1258.350101,-8364.327145,842.705048
579.720224,1554.432478,-9178.553681,1378.971896
579.720552,0.000000,-8808.450710,612.876398
579.720879,-2368.659014,-9474.636058,-536.266849
579.721207,-2516.700203,-9770.718434,-612.876398
579.721535,-1184.329507,-9770.718434,0.000000
579.721862,-518.144159,-8586.388927,306.438199
579.722190,740.205942,-8734.430116,536.266849
579.722518,962.267725,-9400.615463,842.705048
579.722845,888.247130,-8660.409521,842.705048
579.723173,-296.082377,-8142.265362,76.609550
579.723501,444.123565,-8142.265362,383.047749
579.723828,1998.556043,-8364.327145,919.314598
579.724156,1702.473667,-8660.409521,1225.752797
579.724484,1332.370696,-9104.533087,1762.019645
579.724811,0.000000,-10362.883188,1608.800546
579.725139,-1184.329507,-10362.883188,919.314598
579.725467,-2960.823768,-10658.965565,0.000000
579.725794,-3404.947333,-9992.780217,-383.047749
579.726122,-1776.494261,-9696.697840,229.828649
579.726450,-1184.329507,-8660.409521,0.000000
579.726777,-370.102971,-8512.368333,306.438199
579.727105,296.082377,-8660.409521,612.876398
579.727433,222.061783,-7624.121203,76.609550
579.727760,-1184.329507,-7105.977043,-689.485948
579.728088,-222.061783,-7772.162391,0.000000
579.728416,370.102971,-7476.080014,612.876398
579.728743,444.123565,-7698.141797,1072.533697
579.729071,888.247130,-9104.533087,1378.971896
579.729399,0.000000,-9400.615463,1915.238745
579.729726,-1850.514855,-9770.718434,919.314598
579.730054,-3034.844362,-10066.800811,306.438199
579.730382,-2738.761985,-9770.718434,0.000000
579.730709,-814.226536,-9030.512492,0.000000
579.731037,296.082377,-8216.285956,76.609550
579.731365,1406.391290,-8438.347739,459.657299
579.731692,1702.473667,-8438.347739,536.266849
579.732020,592.164754,-8068.244768,153.219100
579.732348,0.000000,-7476.080014,0.000000
579.732675,444.123565,-8216.285956,153.219100
579.733003,2294.638420,-8956.491898,1532.190996
579.733331,1036.288319,-9326.594869,1762.019645
579.733658,1036.288319,-10436.903782,2604.724693
579.733986,-370.102971,-10584.944971,2451.505594
579.734314,-1406.391290,-9918.759623,1532.190996
579.734641,-3404.947333,-9992.780217,459.657299
579.734969,-2812.782580,-10066.800811,229.828649
579.735297,-1554.432478,-8808.450710,0.000000
579.735624,-1332.370696,-7698.141797,-383.047749
579.735952,740.205942,-7624.121203,536.266849
579.736280,518.144159,-7698.141797,76.609550
579.736607,222.061783,-7179.997637,0.000000
579.736935,444.123565,-7105.977043,0.000000
579.737263,1998.556043,-7476.080014,842.705048
579.737590,3034.844362,-8068.244768,2604.724693
579.737918,2590.720797,-9326.594869,2604.724693
579.738246,1702.473667,-10510.924376,3140.991542
579.738573,222.061783,-11547.212695,3370.820191
579.738901,-2072.576638,-11843.295072,2604.724693
579.739229,-3627.009116,-12435.459826,1915.238745
579.739556,-2590.720797,-11917.315666,1991.848295
579.739884,-962.267725,-10362.883188,2221.676944
579.740212,444.123565,-8512.368333,1915.238745
579.740539,1776.494261,-8364.327145,2221.676944
579.740867,2072.576638,-7994.224174,1685.410096
579.741195,888.247130,-7698.141797,1378.971896
579.741522,-222.061783,-8216.285956,1149.143247
579.741850,-740.205942,-8438.347739,1302.362347
579.742178,370.102971,-9104.533087,2298.286494
579.742505,-222.061783,-9696.697840,2911.162892
579.742833,-74.020594,-11399.171507,3983.696590
579.743161,-1258.350101,-11029.068536,4213.525239
579.743488,-3034.844362,-9992.780217,3524.039291
579.743816,-4589.276840,-10510.924376,2451.505594
579.744144,-4293.194464,-10955.047942,1838.629195
579.744471,-3627.009116,-9474.636058,2298.286494
579.744799,-1702.473667,-7624.121203,1532.190996
579.745127,74.020594,-7031.956449,1685.410096
579.745454,1110.308913,-7105.977043,2145.067394
579.745782,1332.370696,-6291.750507,2221.676944
579.746110,1850.514855,-6587.832884,2451.505594
579.746437,2516.700203,-8142.265362,2987.772442
579.746765,1998.556043,-9030.512492,3677.258390
579.747093,2368.659014,-9548.656652,4903.011187
579.747420,2960.823768,-10214.842000,5975.544884
579.747748,2516.700203,-11103.089130,7354.516781
579.748075,814.226536,-11473.192101,7354.516781
579.748403,0.000000,-10881.027347,6205.373534
579.748730,-1258.350101,-10732.986159,5362.668486
579.749058,-2590.720797,-10584.944971,4673.182538
579.749385,-2368.659014,-8512.368333,3600.648841
579.749712,0.000000,-6809.894666,4060.306139
579.750040,740.205942,-6957.935855,3677.258390
579.750367,0.000000,-6809.894666,3447.429741
579.750695,-1554.432478,-6587.832884,2298.286494
579.751022,-1998.556043,-6957.935855,2145.067394
579.751350,-2516.700203,-7402.059420,995.924147
579.751677,-3034.844362,-7772.162391,1685.410096
579.752005,-2812.782580,-8216.285956,1991.848295
579.752332,-1332.370696,-8290.306550,3140.991542
579.752660,-666.185348,-8660.409521,4136.915689
579.752987,-1554.432478,-9474.636058,4673.182538
579.753315,-2812.782580,-10140.821405,4290.134789
579.753642,-2960.823768,-10362.883188,3064.381992
579.753970,-2294.638420,-9326.594869,2451.505594
579.754297,-1332.370696,-8512.368333,2068.457845
579.754625,296.082377,-8660.409521,1991.848295
579.754952,1554.432478,-8142.265362,2451.505594
579.755280,2960.823768,-7550.100608,2528.115143
579.755607,3404.947333,-7402.059420,2911.162892
579.755935,3552.988522,-8586.388927,2834.553343
579.756262,1702.473667,-10288.862594,2374.896044
579.756590,148.041188,-11473.192101,2145.067394
579.756917,296.082377,-11843.295072,2451.505594
579.757245,1184.329507,-11325.150913,2757.943793
579.757572,1406.391290,-11399.171507,4213.525239
579.757900,2220.617826,-11621.233289,4366.744339
579.758227,2146.597232,-10955.047942,5515.887586
579.758555,2738.761985,-9770.718434,5362.668486
579.758882,2146.597232,-9326.594869,4903.011187
579.759210,1184.329507,-9696.697840,4519.963438
579.759537,-296.082377,-10214.842000,3830.477490
579.759865,-814.226536,-9474.636058,3753.867940
579.760192,-592.164754,-8586.388927,3600.648841
579.760520,-666.185348,-8512.368333,3370.820191
579.760847,-1110.308913,-9178.553681,3370.820191
579.761175,-2220.617826,-9622.677246,2911.162892
579.761502,-2664.741391,-9622.677246,2987.772442
579.761830,-3108.864956,-8660.409521,2834.553343
579.762157,-2516.700203,-9178.553681,2528.115143
579.762485,-2738.761985,-9918.759623,2757.943793
579.762812,-3404.947333,-10584.944971,2528.115143
579.763140,-4145.153275,-10584.944971,2374.896044
579.763467,-3108.864956,-8808.450710,2681.334243
579.763795,-1776.494261,-8290.306550,2451.505594
579.764122,-296.082377,-7920.203579,2987.772442
579.764450,296.082377,-8216.285956,3064.381992
579.764777,148.041188,-8364.327145,3294.210641
579.765105,1110.308913,-8142.265362,3600.648841
579.765432,2590.720797,-7772.162391,4443.353888
579.765760,4219.173869,-8364.327145,5132.839837
579.766087,4663.297435,-9030.512492,5592.497135
579.766415,4071.132681,-10362.883188,5975.544884
579.766742,1702.473667,-10955.047942,5822.325785
579.767070,814.226536,-10732.986159,5515.887586
579.767397,1036.288319,-9770.718434,5132.839837
579.767725,1110.308913,-9400.615463,5286.058936
579.768052,1110.308913,-9400.615463,4443.353888
579.768380,-666.185348,-10140.821405,3907.087040
579.768707,-1850.514855,-9474.636058,2451.505594
579.769035,-2886.803174,-7994.224174,2145.067394
579.769362,-2516.700203,-7476.080014,2451.505594
579.769690,-1924.535449,-6809.894666,2068.457845
579.770017,-1628.453072,-7031.956449,2604.724693
579.770345,-2368.659014,-6809.894666,2451.505594
579.770672,-3701.029710,-7550.100608,2374.896044
579.771000,-4515.256246,-7698.141797,1532.190996
579.771327,-4811.338623,-7772.162391,1302.362347
579.771655,-3034.844362,-8068.244768,1532.190996
579.771982,-1332.370696,-7698.141797,2374.896044
579.772310,518.144159,-7550.100608,2987.772442
579.772637,740.205942,-7846.182985,3447.429741
579.772965,592.164754,-8364.327145,2987.772442
579.773292,296.082377,-9030.512492,2528.115143
579.773619,1110.308913,-9178.553681,2298.286494
579.773947,2146.597232,-9622.677246,2451.505594
579.774274,3701.029710,-9326.594869,3524.039291
579.774602,4885.359217,-9474.636058,4596.572988
579.774929,5107.421000,-10510.924376,5515.887586
579.775257,4367.215058,-11325.150913,5362.668486
579.775584,2738.761985,-11325.150913,4749.792088
579.775912,1036.288319,-11843.295072,3983.696590
579.776239,-1554.432478,-11769.274478,3064.381992
579.776567,-814.226536,-11399.171507,3524.039291
579.776894,740.205942,-9400.615463,4366.744339
579.777222,1480.411884,-9696.697840,5286.058936
579.777549,1702.473667,-8660.409521,5132.839837
579.777877,0.000000,-8586.388927,4443.353888
579.778204,-3330.926739,-8956.491898,3217.601092
579.778532,-4811.338623,-8660.409521,1762.019645
579.778859,-5699.585753,-8882.471304,1991.848295
579.779187,-4589.276840,-8586.388927,1149.143247
579.779514,-2220.617826,-7254.018232,2604.724693
579.779842,-222.061783,-7031.956449,3677.258390
579.780169,444.123565,-7254.018232,4519.963438
579.780497,-814.226536,-7698.141797,4366.744339
579.780824,-2146.597232,-9252.574275,2911.162892
579.781152,-3478.967927,-10584.944971,2451.505594
579.781479,-4145.153275,-11029.068536,1838.629195
579.781807,-3701.029710,-10955.047942,1915.238745
579.782134,-1628.453072,-10288.862594,2604.724693
579.782462,888.247130,-9474.636058,3983.696590
579.782789,2960.823768,-8882.471304,4213.525239
579.783117,3627.009116,-8882.471304,4443.353888
579.783444,3330.926739,-9326.594869,3983.696590
579.783772,2146.597232,-10140.821405,3370.820191
579.784099,1184.329507,-10584.944971,3830.477490
579.784427,888.247130,-10140.821405,3140.991542
579.784754,1332.370696,-9770.718434,3830.477490
579.785082,1628.453072,-9400.615463,4366.744339
579.785409,0.000000,-9104.533087,4290.134789
579.785737,296.082377,-9030.512492,4443.353888
579.786064,222.061783,-8068.244768,3677.258390
579.786392,-222.061783,-7920.203579,3140.991542
579.786719,222.061783,-7920.203579,2374.896044
579.787047,592.164754,-7254.018232,2681.334243
579.787374,370.102971,-7328.038826,3217.601092
579.787702,1184.329507,-7031.956449,3294.210641
579.788029,592.164754,-7846.182985,3907.087040
579.788357,222.061783,-8216.285956,4060.306139
579.788684,-370.102971,-9030.512492,3600.648841
579.789012,-1998.556043,-9696.697840,3524.039291
579.789339,-2220.617826,-9474.636058,3600.648841
579.789667,-2294.638420,-9622.677246,3294.210641
579.789994,-2220.617826,-9474.636058,3140.991542
579.790322,-1702.473667,-9474.636058,2987.772442
579.790649,-1480.411884,-9030.512492,2681.334243
579.790977,-1184.329507,-8216.285956,2451.505594
579.791304,-518.144159,-7994.224174,2604.724693
579.791632,-814.226536,-7698.141797,2604.724693
579.791959,-592.164754,-7920.203579,2757.943793
579.792287,-296.082377,-8068.244768,2987.772442
579.792614,-222.061783,-8142.265362,2834.553343
579.792942,74.020594,-8734.430116,2987.772442
579.793269,370.102971,-9622.677246,3370.820191
579.793597,592.164754,-9770.718434,3600.648841
579.793924,666.185348,-9918.759623,3600.648841
579.794252,814.226536,-9770.718434,3370.820191
579.794579,296.082377,-9918.759623,3753.867940
579.794907,-296.082377,-9400.615463,3064.381992
579.795234,518.144159,-9400.615463,3217.601092
579.795562,888.247130,-8882.471304,2604.724693
579.795889,666.185348,-9178.553681,2528.115143
579.796217,962.267725,-9252.574275,2451.505594
579.796544,370.102971,-9770.718434,1991.848295
579.796871,-592.164754,-10214.842000,2221.676944
579.797199,-518.144159,-10066.800811,1991.848295
579.797526,-1110.308913,-10066.800811,1915.238745
579.797854,-888.247130,-9992.780217,1302.362347
579.798181,-666.185348,-9992.780217,1378.971896
579.798509,-1406.391290,-9548.656652,1225.752797
579.798836,-1258.350101,-9474.636058,1532.190996
579.799164,-1776.494261,-9178.553681,1532.190996
579.799491,-1776.494261,-9104.533087,1225.752797
579.799819,-1036.288319,-8512.368333,1608.800546
579.800146,-370.102971,-8438.347739,1302.362347
579.800474,222.061783,-8290.306550,1302.362347
579.800801,296.082377,-8290.306550,1455.581446
579.801129,518.144159,-8438.347739,1685.410096
579.801456,370.102971,-9104.533087,2145.067394
579.801784,222.061783,-9696.697840,1685.410096
579.802111,518.144159,-10362.883188,1685.410096
579.802439,666.185348,-10362.883188,1991.848295
579.802766,1332.370696,-10214.842000,2068.457845
579.803094,1924.535449,-9548.656652,2374.896044
579.803421,1628.453072,-9696.697840,1991.848295
579.803749,1110.308913,-9474.636058,2145.067394
579.804076,888.247130,-9326.594869,1838.629195
579.804404,-518.144159,-9326.594869,1302.362347
579.804731,-962.267725,-8660.409521,1532.190996
579.805059,-444.123565,-8734.430116,1302.362347
579.805386,-1184.329507,-8586.388927,1302.362347
579.805714,-1184.329507,-8290.306550,1225.752797
579.806041,-888.247130,-8364.327145,1302.362347
579.806369,-1258.350101,-7772.162391,1072.533697
579.806696,-1406.391290,-7772.162391,919.314598
579.807024,-1258.350101,-7846.182985,229.828649
579.807351,-1776.494261,-7846.182985,383.047749
579.807679,-888.247130,-8290.306550,229.828649
579.808006,-814.226536,-8438.347739,689.485948
579.808334,-296.082377,-8512.368333,1072.533697
579.808661,-444.123565,-9030.512492,1149.143247
579.808989,-296.082377,-9252.574275,995.924147
579.809316,-148.041188,-9326.594869,766.095498
579.809644,148.041188,-9474.636058,612.876398
579.809971,518.144159,-9030.512492,766.095498
579.810299,592.164754,-9400.615463,689.485948
579.810626,592.164754,-9326.594869,766.095498
579.810954,518.144159,-9474.636058,842.705048
579.811281,518.144159,-9770.718434,1225.752797
579.811609,370.102971,-9548.656652,995.924147
579.811936,592.164754,-9326.594869,1225.752797
579.812264,296.082377,-9104.533087,306.438199
579.812591,0.000000,-9030.512492,383.047749
579.812919,518.144159,-8660.409521,459.657299
579.813246,0.000000,-8734.430116,383.047749
579.813574,-370.102971,-8660.409521,995.924147
579.813901,-666.185348,-8956.491898,689.485948
579.814229,-888.247130,-8882.471304,612.876398
579.814556,-1332.370696,-9030.512492,383.047749
579.814884,-1332.370696,-8956.491898,995.924147
579.815211,-1036.288319,-9178.553681,536.266849
579.815539,-1184.329507,-9104.533087,306.438199
579.815866,-666.185348,-9252.574275,612.876398
579.816194,-592.164754,-9326.594869,229.828649
579.816521,-444.123565,-9326.594869,459.657299
579.816849,-370.102971,-9548.656652,383.047749
579.817176,-370.102971,-9474.636058,766.095498
579.817504,0.000000,-9622.677246,459.657299
579.817831,-444.123565,-9696.697840,689.485948
579.818159,-296.082377,-10066.800811,689.485948
579.818486,-296.082377,-9992.780217,1072.533697
579.818814,0.000000,-9770.718434,1302.362347
579.819141,296.082377,-9326.594869,995.924147
579.819469,222.061783,-9178.553681,766.095498
579.819796,296.082377,-9252.574275,689.485948
579.820124,222.061783,-8956.491898,842.705048
579.820451,296.082377,-8734.430116,842.705048
579.820778,148.041188,-8808.450710,766.095498
579.821106,-222.061783,-8882.471304,536.266849
579.821433,-222.061783,-9252.574275,689.485948
579.821761,222.061783,-9104.533087,689.485948
579.822088,296.082377,-8512.368333,612.876398
579.822416,0.000000,-8734.430116,459.657299
579.822743,0.000000,-9104.533087,153.219100
579.823071,-444.123565,-9178.553681,76.609550
579.823398,-444.123565,-8734.430116,153.219100
579.823726,-296.082377,-8586.388927,766.095498
579.824053,-814.226536,-8956.491898,76.609550
579.824381,-888.247130,-8956.491898,229.828649
579.824708,-1036.288319,-8882.471304,229.828649
579.825036,-518.144159,-8882.471304,306.438199
579.825363,0.000000,-8660.409521,612.876398
579.825691,0.000000,-8734.430116,306.438199
579.826018,-222.061783,-8586.388927,229.828649
579.826346,-148.041188,-8512.368333,536.266849
579.826673,-518.144159,-8364.327145,229.828649
579.827001,-518.144159,-8512.368333,459.657299
579.827328,-444.123565,-9474.636058,689.485948
579.827656,-962.267725,-9252.574275,766.095498
579.827983,-666.185348,-9178.553681,766.095498
579.828311,-592.164754,-9178.553681,919.314598
579.828638,-370.102971,-9104.533087,842.705048
579.828966,0.000000,-8882.471304,766.095498
579.829293,-444.123565,-8660.409521,459.657299
579.829621,0.000000,-8734.430116,459.657299
579.829948,-370.102971,-9030.512492,612.876398
579.830276,-666.185348,-9252.574275,689.485948
579.830603,-666.185348,-9474.636058,1225.752797
579.830931,-888.247130,-9030.512492,995.924147
579.831258,-444.123565,-9400.615463,766.095498
579.831586,-518.144159,-9252.574275,459.657299
579.831913,-296.082377,-9252.574275,536.266849
579.832241,-222.061783,-9178.553681,919.314598
579.832568,74.020594,-9252.574275,383.047749
579.832896,-518.144159,-9178.553681,536.266849
579.833223,-592.164754,-9252.574275,383.047749
579.833551,-666.185348,-9474.636058,612.876398
579.833878,0.000000,-9104.533087,536.266849
579.834206,-148.041188,-8882.471304,842.705048
579.834533,0.000000,-8882.471304,459.657299
579.834861,0.000000,-8808.450710,306.438199
579.835188,0.000000,-9252.574275,612.876398
579.835516,-222.061783,-9178.553681,229.828649
579.835843,74.020594,-9252.574275,536.266849
579.836171,-444.123565,-9474.636058,612.876398
579.836498,-444.123565,-9696.697840,536.266849
579.836826,-296.082377,-9770.718434,689.485948
579.837153,-296.082377,-9474.636058,536.266849
579.837481,0.000000,-9104.533087,459.657299
579.837808,-370.102971,-8660.409521,0.000000
579.838136,-740.205942,-8586.388927,459.657299
579.838463,-888.247130,-8586.388927,153.219100
579.838791,-1110.308913,-8586.388927,306.438199
579.839118,-1036.288319,-8586.388927,76.609550
579.839446,-962.267725,-9030.512492,612.876398
579.839773,-592.164754,-8956.491898,536.266849
579.840101,-148.041188,-8734.430116,612.876398
579.840428,296.082377,-8512.368333,612.876398
579.840756,370.102971,-7846.182985,459.657299
579.841083,444.123565,-8660.409521,842.705048
579.841411,74.020594,-9252.574275,612.876398
579.841738,-370.102971,-9696.697840,995.924147
579.842066,-370.102971,-9918.759623,1149.143247
579.842393,-518.144159,-9918.759623,1225.752797
579.842721,148.041188,-9326.594869,1608.800546
579.843048,444.123565,-9252.574275,766.095498
579.843376,740.205942,-8660.409521,612.876398
579.843703,814.226536,-8216.285956,229.828649
579.844030,444.123565,-7846.182985,0.000000
579.844358,518.144159,-7994.224174,536.266849
579.844685,-370.102971,-8586.388927,536.266849
579.845013,-666.185348,-9030.512492,536.266849
579.845340,-888.247130,-9474.636058,842.705048
579.845668,-740.205942,-9400.615463,689.485948
579.845995,-222.061783,-9178.553681,1455.581446
579.846323,222.061783,-8364.327145,0.000000
579.846650,0.000000,-8586.388927,306.438199
579.846978,296.082377,-8290.306550,153.219100
579.847305,222.061783,-8438.347739,0.000000
579.847633,-148.041188,-8882.471304,229.828649
579.847960,-444.123565,-9030.512492,689.485948
579.848288,-740.205942,-9696.697840,536.266849
579.848615,-740.205942,-9918.759623,306.438199
579.848943,-814.226536,-9770.718434,459.657299
579.849271,-444.123565,-9622.677246,229.828649
579.849598,0.000000,-9326.594869,76.609550
579.849926,222.061783,-9178.553681,229.828649
579.850253,296.082377,-9178.553681,459.657299
579.850581,148.041188,-9252.574275,459.657299
579.850908,0.000000,-9474.636058,459.657299
579.851236,148.041188,-9918.759623,1532.190996
579.851564,-740.205942,-9770.718434,1225.752797
579.851891,-592.164754,-9918.759623,842.705048
579.852219,-592.164754,-9474.636058,612.876398
579.852546,-444.123565,-9104.533087,459.657299
579.852874,-296.082377,-9474.636058,612.876398
579.853201,-518.144159,-8734.430116,536.266849
579.853529,-592.164754,-8808.450710,383.047749
579.853857,-666.185348,-9252.574275,766.095498
579.854184,-814.226536,-9474.636058,766.095498
579.854512,-666.185348,-9474.636058,842.705048
579.854839,-740.205942,-9178.553681,1225.752797
579.855167,-370.102971,-9400.615463,612.876398
579.855495,-518.144159,-9252.574275,536.266849
579.855822,-148.041188,-9252.574275,459.657299
579.856150,-370.102971,-9030.512492,689.485948
579.856477,-222.061783,-9474.636058,1302.362347
579.856805,-148.041188,-9178.553681,919.314598
579.857132,-444.123565,-9326.594869,995.924147
579.857460,-666.185348,-9326.594869,536.266849
579.857788,-666.185348,-9252.574275,689.485948
579.858115,-444.123565,-9030.512492,612.876398
579.858443,-444.123565,-8438.347739,842.705048
579.858770,-740.205942,-8068.244768,153.219100
579.859098,-444.123565,-8290.306550,306.438199
579.859425,-518.144159,-8290.306550,536.266849
579.859753,-518.144159,-8364.327145,306.438199
579.860081,-666.185348,-8216.285956,842.705048
579.860408,-444.123565,-8290.306550,536.266849
579.860736,-370.102971,-8808.450710,766.095498
579.861063,-444.123565,-8808.450710,383.047749
579.861391,-518.144159,-9030.512492,459.657299
579.861718,-148.041188,-8882.471304,1532.190996
579.862046,-296.082377,-9030.512492,383.047749
579.862374,-518.144159,-9030.512492,459.657299
579.862701,-592.164754,-8956.491898,306.438199
579.863029,-444.123565,-9030.512492,459.657299
579.863356,-444.123565,-8882.471304,612.876398
579.863684,0.000000,-8734.430116,459.657299
579.864012,0.000000,-8882.471304,153.219100
579.864339,0.000000,-8956.491898,536.266849
579.864667,222.061783,-9030.512492,229.828649
579.864994,296.082377,-9104.533087,689.485948
579.865322,296.082377,-9400.615463,766.095498
579.865649,74.020594,-9400.615463,919.314598
579.865977,148.041188,-9474.636058,766.095498
579.866305,0.000000,-9474.636058,689.485948
579.866632,222.061783,-9474.636058,766.095498
579.866960,148.041188,-9474.636058,229.828649
579.867287,0.000000,-9030.512492,612.876398
579.867615,0.000000,-9104.533087,459.657299
579.867942,0.000000,-8586.388927,229.828649
579.868270,-222.061783,-8586.388927,459.657299
579.868598,-222.061783,-8734.430116,919.314598
579.868925,-148.041188,-8956.491898,383.047749
579.869253,-518.144159,-9178.553681,612.876398
579.869580,-592.164754,-9400.615463,766.095498
579.869908,-370.102971,-9474.636058,766.095498
579.870235,-444.123565,-9178.553681,995.924147
579.870563,0.000000,-8956.491898,689.485948
579.870891,74.020594,-9474.636058,689.485948
579.871218,222.061783,-9400.615463,766.095498
579.871546,0.000000,-9474.636058,842.705048
579.871873,-148.041188,-9252.574275,919.314598
579.872201,-148.041188,-9252.574275,766.095498
579.872528,-444.123565,-9178.553681,459.657299
579.872856,-370.102971,-9252.574275,689.485948
579.873184,-296.082377,-8956.491898,459.657299
579.873511,0.000000,-8882.471304,383.047749
579.873839,0.000000,-8512.368333,842.705048
579.874166,0.000000,-8808.450710,306.438199
579.874494,0.000000,-9252.574275,306.438199
579.874822,0.000000,-9326.594869,0.000000
579.875149,0.000000,-9400.615463,612.876398
579.875477,0.000000,-9474.636058,1149.143247
579.875804,0.000000,-9548.656652,689.485948
579.876132,0.000000,-9474.636058,612.876398
579.876459,0.000000,-9400.615463,383.047749
579.876787,0.000000,-9252.574275,306.438199
579.877115,296.082377,-9252.574275,153.219100
579.877442,0.000000,-8882.471304,0.000000
579.877770,-222.061783,-8808.450710,306.438199
579.878097,-222.061783,-8808.450710,459.657299
579.878425,-296.082377,-9030.512492,306.438199
579.878752,-222.061783,-9178.553681,842.705048
579.879080,0.000000,-9474.636058,689.485948
579.879408,-296.082377,-9326.594869,612.876398
579.879735,0.000000,-9252.574275,766.095498
579.880063,0.000000,-9326.594869,612.876398
579.880390,0.000000,-9400.615463,689.485948
579.880718,74.020594,-9252.574275,995.924147
579.881045,0.000000,-9104.533087,689.485948
579.881373,-296.082377,-9252.574275,842.705048
579.881701,-666.185348,-9252.574275,766.095498
579.882028,-592.164754,-9252.574275,689.485948
579.882356,-518.144159,-8808.450710,689.485948
579.882683,-592.164754,-8882.471304,689.485948
579.883011,-518.144159,-8660.409521,459.657299
579.883339,-296.082377,-8660.409521,536.266849
579.883666,-222.061783,-8808.450710,459.657299
579.883994,0.000000,-8956.491898,919.314598
579.884321,-370.102971,-8660.409521,306.438199
579.884649,-296.082377,-9104.533087,689.485948
579.884976,0.000000,-9474.636058,689.485948
579.885304,-296.082377,-9326.594869,612.876398
579.885632,-296.082377,-9178.553681,1149.143247
579.885959,0.000000,-9400.615463,459.657299
579.886287,-592.164754,-9178.553681,306.438199
579.886614,-444.123565,-8808.450710,612.876398
579.886942,-740.205942,-8808.450710,536.266849
579.887269,-370.102971,-8956.491898,689.485948
579.887597,-296.082377,-9252.574275,0.000000
579.887925,-518.144159,-9178.553681,459.657299
579.888252,-370.102971,-9252.574275,383.047749
579.888580,-444.123565,-9030.512492,459.657299
579.888907,-370.102971,-9252.574275,383.047749
579.889235,-222.061783,-8882.471304,229.828649
579.889562,-444.123565,-9178.553681,919.314598
579.889890,-444.123565,-9178.553681,612.876398
579.890218,-370.102971,-9326.594869,612.876398
579.890545,-444.123565,-9252.574275,689.485948
579.890873,-296.082377,-9326.594869,766.095498
579.891200,-888.247130,-8808.450710,536.266849
579.891528,-888.247130,-9030.512492,383.047749
579.891856,-740.205942,-8808.450710,383.047749
579.892183,-888.247130,-8586.388927,459.657299
579.892511,-666.185348,-8512.368333,919.314598
579.892838,-888.247130,-8734.430116,689.485948
579.893166,-370.102971,-8808.450710,459.657299
579.893493,-296.082377,-8956.491898,766.095498
579.893821,0.000000,-9178.553681,919.314598
579.894149,-222.061783,-9104.533087,842.705048
579.894476,-592.164754,-8956.491898,1225.752797
579.894804,-222.061783,-9252.574275,766.095498
579.895131,-444.123565,-9400.615463,842.705048
579.895459,-296.082377,-9030.512492,612.876398
579.895786,-296.082377,-8882.471304,536.266849
579.896114,0.000000,-8808.450710,459.657299
579.896442,-592.164754,-8586.388927,306.438199
579.896769,-518.144159,-8808.450710,536.266849
579.897097,0.000000,-8808.450710,689.485948
579.897424,0.000000,-8586.388927,459.657299
579.897752,74.020594,-8734.430116,995.924147
579.898079,0.000000,-8734.430116,689.485948
579.898407,-148.041188,-9400.615463,459.657299
579.898735,0.000000,-9400.615463,383.047749
579.899062,0.000000,-9104.533087,383.047749
579.899390,-148.041188,-9400.615463,306.438199
579.899717,148.041188,-9548.656652,1225.752797
579.900045,0.000000,-9104.533087,306.438199
579.900373,74.020594,-8956.491898,459.657299
579.900700,0.000000,-9030.512492,0.000000
579.901028,-370.102971,-9104.533087,306.438199
579.901355,-518.144159,-9178.553681,766.095498
579.901683,0.000000,-9104.533087,306.438199
579.902010,148.041188,-9178.553681,306.438199
579.902338,148.041188,-9178.553681,689.485948
579.902666,222.061783,-9326.594869,689.485948
579.902993,74.020594,-9474.636058,689.485948
579.903321,444.123565,-9326.594869,612.876398
579.903648,0.000000,-9474.636058,536.266849
579.903976,-296.082377,-9548.656652,383.047749
579.904303,-222.061783,-9622.677246,536.266849
579.904631,-222.061783,-9474.636058,689.485948
579.904959,-222.061783,-9474.636058,689.485948
579.905286,-296.082377,-9474.636058,306.438199
579.905614,-222.061783,-9326.594869,612.876398
579.905941,-148.041188,-9030.512492,612.876398
579.906269,-222.061783,-9030.512492,459.657299
579.906596,74.020594,-9326.594869,919.314598
579.906924,0.000000,-9474.636058,383.047749
579.907252,0.000000,-9326.594869,383.047749
579.907579,-148.041188,-9474.636058,766.095498
579.907907,-148.041188,-9548.656652,766.095498
579.908234,0.000000,-9252.574275,1072.533697
579.908562,0.000000,-9474.636058,536.266849
579.908889,-296.082377,-9474.636058,689.485948
579.909217,-370.102971,-9400.615463,536.266849
579.909545,-296.082377,-9178.553681,612.876398
579.909872,-222.061783,-9400.615463,536.266849
579.910200,0.000000,-8882.471304,383.047749
579.910527,-296.082377,-8956.491898,383.047749
579.910855,-222.061783,-9030.512492,536.266849
579.911183,-148.041188,-8882.471304,383.047749
579.911510,-222.061783,-8956.491898,383.047749
579.911838,-296.082377,-9030.512492,306.438199
579.912165,-148.041188,-9474.636058,536.266849
579.912493,-148.041188,-9252.574275,612.876398
579.912820,-296.082377,-9178.553681,536.266849
579.913148,-148.041188,-9400.615463,612.876398
579.913476,0.000000,-9326.594869,842.705048
579.913803,-444.123565,-9252.574275,383.047749
579.914131,-740.205942,-8882.471304,612.876398
579.914458,-666.185348,-8956.491898,612.876398
579.914786,-1036.288319,-8808.450710,306.438199
579.915113,-296.082377,-8882.471304,0.000000
579.915441,-592.164754,-8364.327145,766.095498
579.915769,-370.102971,-8660.409521,459.657299
579.916096,-592.164754,-8734.430116,459.657299
579.916424,-518.144159,-8956.491898,536.266849
579.916751,-370.102971,-9030.512492,689.485948
579.917079,-740.205942,-8512.368333,1302.362347
579.917406,-592.164754,-9178.553681,612.876398
579.917734,-592.164754,-9178.553681,689.485948
579.918062,-666.185348,-8882.471304,536.266849
579.918389,-444.123565,-9178.553681,612.876398
579.918717,-666.185348,-8882.471304,919.314598
579.919044,-592.164754,-8734.430116,459.657299
579.919372,-518.144159,-8586.388927,536.266849
579.919700,-370.102971,-8512.368333,459.657299
579.920027,-444.123565,-8586.388927,229.828649
579.920355,-666.185348,-8512.368333,842.705048
579.920682,-444.123565,-8808.450710,612.876398
579.921010,-444.123565,-8808.450710,459.657299
579.921337,0.000000,-9104.533087,612.876398
579.921665,-370.102971,-8956.491898,689.485948
579.921993,-222.061783,-8882.471304,1149.143247
579.922320,0.000000,-9104.533087,689.485948
579.922648,-296.082377,-9030.512492,536.266849
579.922975,-370.102971,-8808.450710,306.438199
579.923303,-444.123565,-8808.450710,383.047749
579.923630,0.000000,-8882.471304,689.485948
579.923958,0.000000,-8956.491898,612.876398
579.924286,-296.082377,-9104.533087,383.047749
579.924613,-296.082377,-9178.553681,459.657299
579.924941,0.000000,-9252.574275,689.485948
579.925268,222.061783,-9400.615463,689.485948
579.925596,148.041188,-9030.512492,306.438199
579.925923,0.000000,-9622.677246,689.485948
579.926251,148.041188,-9474.636058,229.828649
579.926579,222.061783,-9548.656652,536.266849
579.926906,148.041188,-9326.594869,536.266849
579.927234,222.061783,-8956.491898,1378.971896
579.927561,0.000000,-9252.574275,306.438199
579.927889,0.000000,-9104.533087,459.657299
579.928217,-222.061783,-8808.450710,306.438199
579.928544,0.000000,-8956.491898,459.657299
579.928872,0.000000,-8882.471304,612.876398
579.929199,0.000000,-9104.533087,306.438199
579.929527,-444.123565,-9178.553681,383.047749
579.929854,0.000000,-9474.636058,689.485948
579.930182,-222.061783,-9548.656652,612.876398
579.930510,-148.041188,-9400.615463,919.314598
579.930837,296.082377,-9474.636058,766.095498
579.931165,0.000000,-9474.636058,919.314598
579.931492,0.000000,-9474.636058,689.485948
579.931820,-444.123565,-9252.574275,536.266849
579.932147,-370.102971,-9474.636058,689.485948
579.932475,-222.061783,-9252.574275,459.657299
579.932803,-592.164754,-9178.553681,842.705048
579.933130,-370.102971,-9252.574275,766.095498
579.933458,-370.102971,-9252.574275,766.095498
579.933785,-222.061783,-9474.636058,689.485948
579.934113,-518.144159,-8512.368333,1225.752797
579.934440,0.000000,-9326.594869,459.657299
579.934768,-370.102971,-8882.471304,536.266849
579.935096,-222.061783,-8956.491898,383.047749
579.935423,0.000000,-9030.512492,689.485948
579.935751,-148.041188,-9178.553681,995.924147
579.936078,0.000000,-8956.491898,459.657299
579.936406,-370.102971,-9178.553681,689.485948
579.936734,-444.123565,-9030.512492,689.485948
579.937061,-444.123565,-9400.615463,689.485948
579.937389,0.000000,-9252.574275,536.266849
579.937716,0.000000,-9104.533087,536.266849
579.938044,0.000000,-9178.553681,306.438199
579.938371,0.000000,-9178.553681,383.047749
579.938699,0.000000,-9178.553681,383.047749
579.939027,-148.041188,-9474.636058,612.876398
579.939354,-740.205942,-9252.574275,689.485948
579.939682,0.000000,-9400.615463,536.266849
579.940009,0.000000,-9474.636058,536.266849
579.940337,-148.041188,-9252.574275,536.266849
579.940664,0.000000,-9178.553681,689.485948
579.940992,0.000000,-8586.388927,689.485948
579.941320,-222.061783,-8882.471304,383.047749
579.941647,-370.102971,-8882.471304,229.828649
579.941975,-592.164754,-8882.471304,383.047749
579.942302,-518.144159,-8956.491898,536.266849
579.942630,-296.082377,-9030.512492,459.657299
579.942957,-296.082377,-8808.450710,766.095498
579.943285,-592.164754,-8882.471304,612.876398
579.943613,-444.123565,-8882.471304,612.876398
579.943940,-444.123565,-8734.430116,766.095498
579.944268,-370.102971,-8512.368333,1072.533697
579.944595,-444.123565,-8956.491898,842.705048
579.944923,-444.123565,-9104.533087,1072.533697
579.945251,-518.144159,-9030.512492,689.485948
579.945578,-444.123565,-9030.512492,689.485948
579.945906,-592.164754,-8956.491898,612.876398
579.946233,-518.144159,-8808.450710,612.876398
579.946561,-740.205942,-8882.471304,689.485948
579.946888,-592.164754,-8882.471304,383.047749
579.947216,-296.082377,-8882.471304,536.266849
579.947544,-444.123565,-8882.471304,766.095498
579.947871,-518.144159,-8586.388927,536.266849
579.948199,-148.041188,-8882.471304,689.485948
579.948526,-592.164754,-9030.512492,612.876398
579.948854,-444.123565,-8956.491898,612.876398
579.949181,-370.102971,-9030.512492,766.095498
579.949509,-444.123565,-8512.368333,689.485948
579.949837,-296.082377,-9030.512492,153.219100
579.950164,-148.041188,-8882.471304,536.266849
579.950492,-370.102971,-8734.430116,459.657299
579.950819,-296.082377,-8956.491898,612.876398
579.951147,-592.164754,-8882.471304,229.828649
579.951474,-148.041188,-8956.491898,536.266849
579.951802,0.000000,-8956.491898,306.438199
579.952129,-444.123565,-9252.574275,383.047749
579.952457,-518.144159,-9178.553681,459.657299
579.952784,-222.061783,-9400.615463,383.047749
579.953112,0.000000,-8882.471304,612.876398
579.953439,0.000000,-9030.512492,383.047749
579.953767,0.000000,-9030.512492,306.438199
579.954094,0.000000,-9104.533087,536.266849
579.954422,0.000000,-9252.574275,689.485948
579.954749,0.000000,-9030.512492,383.047749
579.955077,-592.164754,-8882.471304,612.876398
579.955404,-592.164754,-8808.450710,612.876398
579.955732,-222.061783,-9030.512492,536.266849
579.956059,-148.041188,-9178.553681,689.485948
579.956387,0.000000,-9178.553681,689.485948
579.956714,74.020594,-9252.574275,459.657299
579.957042,-296.082377,-9178.553681,689.485948
579.957370,-296.082377,-9474.636058,383.047749
579.957697,-370.102971,-9474.636058,612.876398
579.958025,-370.102971,-9474.636058,612.876398
579.958352,0.000000,-9252.574275,536.266849
579.958680,0.000000,-9844.739029,612.876398
579.959007,0.000000,-9474.636058,842.705048
579.959335,-148.041188,-9622.677246,306.438199
579.959662,0.000000,-9474.636058,459.657299
579.959990,-148.041188,-9326.594869,229.828649
579.960317,-296.082377,-9178.553681,689.485948
579.960645,-222.061783,-9252.574275,766.095498
579.960972,0.000000,-9104.533087,536.266849
579.961300,-148.041188,-9178.553681,689.485948
579.961627,0.000000,-9178.553681,459.657299
579.961955,-370.102971,-8956.491898,612.876398
579.962282,-518.144159,-9252.574275,536.266849
579.962610,-444.123565,-9178.553681,536.266849
579.962937,-518.144159,-9252.574275,459.657299
579.963265,0.000000,-9474.636058,459.657299
579.963592,-592.164754,-8882.471304,995.924147
579.963920,-370.102971,-9104.533087,536.266849
579.964247,-370.102971,-9104.533087,612.876398
579.964575,-296.082377,-9178.553681,536.266849
579.964902,-296.082377,-9030.512492,612.876398
579.965230,-814.226536,-8734.430116,995.924147
579.965557,-222.061783,-9104.533087,459.657299
579.965885,-222.061783,-9252.574275,536.266849
579.966212,0.000000,-9326.594869,919.314598
579.966540,0.000000,-9400.615463,766.095498
579.966868,-296.082377,-8734.430116,919.314598
579.967195,-222.061783,-9030.512492,459.657299
579.967523,-518.144159,-9252.574275,459.657299
579.967850,-518.144159,-9178.553681,689.485948
579.968178,-296.082377,-9178.553681,842.705048
579.968505,0.000000,-8512.368333,536.266849
579.968833,0.000000,-8734.430116,153.219100
579.969160,-222.061783,-8808.450710,536.266849
579.969488,-444.123565,-8808.450710,383.047749
579.969815,-148.041188,-8882.471304,306.438199
579.970143,0.000000,-8882.471304,689.485948
579.970470,0.000000,-8882.471304,459.657299
579.970798,0.000000,-8882.471304,153.219100
579.971125,-222.061783,-9178.553681,612.876398
579.971453,-296.082377,-9474.636058,383.047749
579.971780,-148.041188,-9474.636058,689.485948
579.972108,0.000000,-9252.574275,612.876398
579.972435,-148.041188,-9252.574275,612.876398
579.972763,-666.185348,-9178.553681,536.266849
579.973090,-444.123565,-8956.491898,459.657299
579.973418,-370.102971,-8660.409521,459.657299
579.973745,0.000000,-8660.409521,842.705048
579.974073,-370.102971,-8512.368333,306.438199
579.974400,0.000000,-8660.409521,383.047749
579.974728,-296.082377,-8808.450710,536.266849
579.975055,-518.144159,-8882.471304,612.876398
579.975383,-444.123565,-8808.450710,995.924147
579.975710,-222.061783,-9030.512492,536.266849
579.976038,-296.082377,-9104.533087,612.876398
579.976366,-740.205942,-9104.533087,766.095498
579.976693,-592.164754,-8882.471304,766.095498
579.977021,-518.144159,-8586.388927,766.095498
579.977348,-296.082377,-8586.388927,383.047749
579.977676,-740.205942,-8512.368333,612.876398
579.978003,-592.164754,-8734.430116,612.876398
579.978331,-592.164754,-8956.491898,689.485948
579.978658,-888.247130,-8956.491898,689.485948
579.978986,-666.185348,-8956.491898,229.828649
579.979313,-444.123565,-9326.594869,612.876398
579.979641,-518.144159,-9030.512492,842.705048
579.979968,-444.123565,-9252.574275,842.705048
579.980296,-222.061783,-9400.615463,766.095498
579.980623,148.041188,-9400.615463,1072.533697
579.980951,-666.185348,-8956.491898,689.485948
579.981278,-296.082377,-9104.533087,612.876398
579.981606,-296.082377,-9104.533087,612.876398
579.981933,-370.102971,-9104.533087,383.047749
579.982261,-444.123565,-9030.512492,995.924147
579.982588,-296.082377,-8734.430116,153.219100
579.982916,-444.123565,-8882.471304,383.047749
579.983243,0.000000,-8882.471304,229.828649
579.983571,0.000000,-9030.512492,229.828649
579.983898,0.000000,-9030.512492,536.266849
579.984226,222.061783,-9770.718434,766.095498
579.984553,0.000000,-9548.656652,153.219100
579.984881,0.000000,-9696.697840,536.266849
579.985208,0.000000,-9548.656652,383.047749
579.985536,74.020594,-9696.697840,459.657299
579.985864,0.000000,-9400.615463,383.047749
579.986191,0.000000,-9326.594869,612.876398
579.986519,-222.061783,-8956.491898,536.266849
579.986846,0.000000,-8882.471304,459.657299
579.987174,0.000000,-9030.512492,229.828649
579.987501,0.000000,-8956.491898,229.828649
579.987829,-296.082377,-8882.471304,383.047749
579.988156,-222.061783,-9252.574275,612.876398
579.988484,-296.082377,-9474.636058,612.876398
579.988811,-370.102971,-9474.636058,842.705048
579.989139,0.000000,-9548.656652,612.876398
579.989466,0.000000,-9178.553681,459.657299
579.989794,-222.061783,-9400.615463,766.095498
579.990121,-370.102971,-9400.615463,536.266849
579.990449,-444.123565,-9326.594869,689.485948
579.990776,0.000000,-9326.594869,995.924147
579.991104,0.000000,-9252.574275,995.924147
579.991431,-222.061783,-9104.533087,459.657299
579.991759,-592.164754,-9326.594869,459.657299
579.992086,-222.061783,-9104.533087,536.266849
579.992414,-296.082377,-8882.471304,689.485948
579.992741,-222.061783,-9104.533087,995.924147
579.993069,0.000000,-9474.636058,612.876398
579.993396,0.000000,-9400.615463,612.876398
579.993724,0.000000,-9400.615463,612.876398
579.994051,0.000000,-9252.574275,612.876398
579.994379,74.020594,-9622.677246,153.219100
579.994706,74.020594,-9030.512492,766.095498
579.995034,0.000000,-9252.574275,536.266849
579.995362,-222.061783,-9104.533087,306.438199
579.995689,-370.102971,-9030.512492,306.438199
579.996017,-296.082377,-9252.574275,153.219100
579.996344,0.000000,-8586.388927,0.000000
579.996672,-148.041188,-9104.533087,153.219100
579.996999,0.000000,-9030.512492,306.438199
579.997327,0.000000,-9252.574275,459.657299
579.997654,0.000000,-8660.409521,459.657299
579.997982,0.000000,-8660.409521,229.828649
579.998309,-296.082377,-9326.594869,612.876398
579.998637,-296.082377,-9178.553681,459.657299
579.998964,0.000000,-9326.594869,459.657299
579.999292,-222.061783,-9104.533087,459.657299
579.999619,-444.123565,-8660.409521,689.485948
579.999947,-888.247130,-8956.491898,766.095498
580.000274,-814.226536,-8808.450710,612.876398
580.000602,-666.185348,-8882.471304,383.047749
580.000929,-518.144159,-8586.388927,612.876398
580.001257,-444.123565,-8290.306550,536.266849
580.001584,-740.205942,-8660.409521,689.485948
580.001912,-592.164754,-8734.430116,766.095498
580.002239,-592.164754,-8808.450710,612.876398
580.002567,-740.205942,-9104.533087,612.876398
580.002894,-148.041188,-9326.594869,995.924147
580.003222,-592.164754,-8956.491898,689.485948
580.003549,-370.102971,-9030.512492,842.705048
580.003877,-444.123565,-9178.553681,689.485948
580.004204,-370.102971,-8882.471304,766.095498
580.004532,-518.144159,-8808.450710,995.924147
580.004859,-148.041188,-9252.574275,536.266849
580.005187,-814.226536,-8956.491898,612.876398
580.005515,-592.164754,-9030.512492,536.266849
580.005842,-518.144159,-8808.450710,536.266849
580.006170,-222.061783,-8956.491898,383.047749
580.006497,0.000000,-8734.430116,459.657299
580.006825,0.000000,-9252.574275,459.657299
580.007152,0.000000,-9178.553681,536.266849
580.007480,0.000000,-9400.615463,459.657299
580.007807,148.041188,-9252.574275,536.266849
580.008135,0.000000,-9400.615463,689.485948
580.008462,0.000000,-9474.636058,919.314598
580.008790,0.000000,-9400.615463,383.047749
580.009117,0.000000,-9400.615463,306.438199
580.009445,-444.123565,-9178.553681,536.266849
580.009772,-296.082377,-9104.533087,0.000000
580.010100,-518.144159,-8734.430116,766.095498
580.010427,-148.041188,-8882.471304,459.657299
580.010755,-370.102971,-8808.450710,306.438199
580.011082,-296.082377,-9252.574275,689.485948
580.011410,-518.144159,-9178.553681,1302.362347
580.011737,74.020594,-9400.615463,459.657299
580.012065,-444.123565,-9400.615463,689.485948
580.012392,-370.102971,-9548.656652,612.876398
580.012720,-518.144159,-9474.636058,689.485948
580.013047,-296.082377,-9548.656652,766.095498
580.013375,-296.082377,-9326.594869,612.876398
580.013702,-222.061783,-8956.491898,995.924147
580.014030,-592.164754,-9252.574275,536.266849
580.014357,-592.164754,-9474.636058,536.266849
580.014685,-592.164754,-8956.491898,536.266849
580.015013,-296.082377,-9252.574275,383.047749
580.015340,-296.082377,-8586.388927,919.314598
580.015668,0.000000,-9104.533087,229.828649
580.015995,0.000000,-9252.574275,612.876398
580.016323,0.000000,-9400.615463,229.828649
580.016650,-148.041188,-8956.491898,153.219100
580.016978,222.061783,-9252.574275,383.047749
580.017305,0.000000,-9326.594869,612.876398
580.017633,0.000000,-9548.656652,459.657299
580.017960,0.000000,-9474.636058,229.828649
580.018288,0.000000,-9252.574275,153.219100
580.018615,0.000000,-8734.430116,383.047749
580.018943,74.020594,-8956.491898,76.609550
580.019270,74.020594,-8882.471304,0.000000
580.019598,0.000000,-8734.430116,76.609550
580.019925,148.041188,-9030.512492,153.219100
580.020253,222.061783,-8882.471304,76.609550
580.020580,0.000000,-9030.512492,536.266849
580.020908,0.000000,-9326.594869,459.657299
580.021235,0.000000,-9474.636058,612.876398
580.021563,74.020594,-9474.636058,612.876398
580.021890,296.082377,-9252.574275,383.047749
580.022218,-222.061783,-9326.594869,383.047749
580.022545,-222.061783,-9178.553681,689.485948
580.022873,-296.082377,-9178.553681,612.876398
580.023200,-518.144159,-8882.471304,536.266849
580.023528,-518.144159,-8660.409521,919.314598
580.023855,-444.123565,-8734.430116,1225.752797
580.024183,-814.226536,-8956.491898,766.095498
580.024511,-444.123565,-8808.450710,612.876398
580.024838,-592.164754,-9030.512492,919.314598
580.025166,-740.205942,-8882.471304,842.705048
580.025493,-518.144159,-9104.533087,1455.581446
580.025821,-518.144159,-9178.553681,995.924147
580.026148,-518.144159,-9030.512492,919.314598
580.026476,-296.082377,-9326.594869,919.314598
580.026803,-444.123565,-9326.594869,1072.533697
580.027131,-444.123565,-9474.636058,536.266849
580.027458,-740.205942,-9104.533087,459.657299
580.027786,-666.185348,-9178.553681,689.485948
580.028113,-666.185348,-8956.491898,459.657299
580.028441,-518.144159,-9178.553681,536.266849
580.028768,0.000000,-9252.574275,459.657299
580.029096,-296.082377,-8364.327145,459.657299
580.029423,-222.061783,-9178.553681,459.657299
580.029751,-296.082377,-9474.636058,536.266849
580.030078,-148.041188,-9326.594869,459.657299
580.030406,0.000000,-8956.491898,536.266849
580.030733,74.020594,-9252.574275,766.095498
580.031061,0.000000,-9326.594869,229.828649
580.031388,0.000000,-9326.594869,306.438199
580.031716,0.000000,-9104.533087,306.438199
580.032043,-370.102971,-9104.533087,229.828649
580.032371,-740.205942,-8586.388927,383.047749
580.032698,-444.123565,-8956.491898,153.219100
580.033026,-592.164754,-8734.430116,229.828649
580.033353,-444.123565,-8586.388927,0.000000
580.033681,-370.102971,-8660.409521,153.219100
580.034009,-370.102971,-8660.409521,229.828649
580.034336,0.000000,-8808.450710,383.047749
580.034664,-222.061783,-8660.409521,153.219100
580.034991,-296.082377,-8882.471304,383.047749
580.035319,-222.061783,-9178.553681,612.876398
580.035646,-222.061783,-8734.430116,459.657299
580.035974,0.000000,-9030.512492,689.485948
580.036301,-370.102971,-8882.471304,842.705048
580.036629,-222.061783,-9030.512492,612.876398
580.036956,-592.164754,-8956.491898,383.047749
580.037284,-518.144159,-8586.388927,459.657299
580.037611,-518.144159,-8512.368333,459.657299
580.037939,-518.144159,-8734.430116,536.266849
580.038266,-518.144159,-8882.471304,766.095498
580.038594,-444.123565,-8882.471304,842.705048
580.038921,-444.123565,-8956.491898,766.095498
580.039249,-592.164754,-9178.553681,536.266849
580.039576,-666.185348,-9252.574275,689.485948
580.039904,-370.102971,-9400.615463,383.047749
580.040231,-666.185348,-9252.574275,842.705048
580.040559,-222.061783,-9252.574275,536.266849
580.040886,-444.123565,-9030.512492,766.095498
580.041214,0.000000,-9326.594869,689.485948
580.041541,-222.061783,-9252.574275,612.876398
580.041869,0.000000,-9252.574275,383.047749
580.042196,-222.061783,-8808.450710,306.438199
580.042524,74.020594,-8808.450710,306.438199
580.042851,0.000000,-9104.533087,536.266849
580.043179,0.000000,-9178.553681,536.266849
580.043507,0.000000,-9326.594869,383.047749
580.043834,0.000000,-9548.656652,536.266849
580.044162,0.000000,-9548.656652,919.314598
580.044489,-518.144159,-9400.615463,689.485948
580.044817,-148.041188,-9474.636058,612.876398
580.045144,0.000000,-9548.656652,612.876398
580.045472,0.000000,-9400.615463,612.876398
580.045799,0.000000,-9326.594869,689.485948
580.046127,0.000000,-9178.553681,689.485948
580.046454,0.000000,-9104.533087,612.876398
580.046782,-296.082377,-9252.574275,536.266849
580.047109,-222.061783,-9326.594869,459.657299
580.047437,-296.082377,-9252.574275,842.705048
580.047764,0.000000,-9400.615463,689.485948
580.048092,-370.102971,-9548.656652,536.266849
580.048419,-370.102971,-9474.636058,383.047749
580.048747,-370.102971,-9548.656652,689.485948
580.049074,-148.041188,-9326.594869,766.095498
580.049402,-222.061783,-9030.512492,1532.190996
580.049730,-296.082377,-9104.533087,766.095498
580.050057,-666.185348,-8882.471304,842.705048
580.050385,-592.164754,-8956.491898,689.485948
580.050712,-518.144159,-8808.450710,766.095498
580.051040,-444.123565,-8882.471304,612.876398
580.051367,0.000000,-8734.430116,842.705048
580.051695,-370.102971,-8882.471304,459.657299
580.052023,-444.123565,-9104.533087,689.485948
580.052350,-296.082377,-9252.574275,689.485948
580.052678,-148.041188,-9104.533087,536.266849
580.053005,222.061783,-8956.491898,536.266849
580.053333,222.061783,-9178.553681,766.095498
580.053660,0.000000,-8956.491898,459.657299
580.053988,0.000000,-9104.533087,459.657299
580.054316,-148.041188,-8882.471304,383.047749
580.054643,0.000000,-8512.368333,919.314598
580.054971,0.000000,-8660.409521,306.438199
580.055298,-370.102971,-8660.409521,76.609550
580.055626,-444.123565,-8734.430116,306.438199
580.055953,-370.102971,-8586.388927,229.828649
580.056281,-222.061783,-8586.388927,153.219100
580.056609,444.123565,-9030.512492,536.266849
580.056936,0.000000,-8956.491898,229.828649
580.057264,-222.061783,-8956.491898,612.876398
580.057591,-148.041188,-8808.450710,612.876398
580.057919,-148.041188,-8808.450710,383.047749
580.058246,0.000000,-8882.471304,612.876398
580.058574,0.000000,-9030.512492,459.657299
580.058902,-296.082377,-9104.533087,612.876398
580.059229,-592.164754,-8808.450710,383.047749
580.059557,-370.102971,-8882.471304,306.438199
580.059884,-666.185348,-8734.430116,612.876398
580.060212,-592.164754,-9030.512492,995.924147
580.060539,-740.205942,-9030.512492,766.095498
580.060867,-592.164754,-9030.512492,689.485948
580.061195,-666.185348,-9030.512492,536.266849
580.061522,-666.185348,-9030.512492,1455.581446
580.061850,-296.082377,-8956.491898,689.485948
580.062177,-444.123565,-9252.574275,536.266849
580.062505,-518.144159,-9178.553681,689.485948
580.062833,-740.205942,-9252.574275,842.705048
580.063160,-444.123565,-9400.615463,766.095498
580.063488,-962.267725,-8956.491898,842.705048
580.063815,-740.205942,-9326.594869,766.095498
580.064143,-666.185348,-9326.594869,536.266849
580.064470,-592.164754,-9400.615463,766.095498
580.064798,-444.123565,-9400.615463,536.266849
580.065126,0.000000,-8882.471304,766.095498
580.065453,0.000000,-9326.594869,766.095498
580.065781,-296.082377,-9326.594869,459.657299
580.066108,-296.082377,-9474.636058,383.047749
580.066436,-296.082377,-9696.697840,459.657299
580.066763,-222.061783,-9474.636058,383.047749
580.067091,0.000000,-9474.636058,689.485948
580.067419,0.000000,-9474.636058,153.219100
580.067746,0.000000,-9548.656652,383.047749
580.068074,-148.041188,-9252.574275,153.219100
580.068401,0.000000,-8660.409521,306.438199
580.068729,0.000000,-8882.471304,-153.219100
580.069056,-296.082377,-9400.615463,229.828649
580.069384,0.000000,-9252.574275,0.000000
580.069712,0.000000,-9030.512492,0.000000
580.070039,74.020594,-9252.574275,229.828649
580.070367,74.020594,-9104.533087,612.876398
580.070694,0.000000,-9252.574275,383.047749
580.071022,0.000000,-9326.594869,459.657299
580.071349,148.041188,-9178.553681,536.266849
580.071677,0.000000,-9030.512492,383.047749
580.072005,0.000000,-9104.533087,766.095498
580.072332,0.000000,-9400.615463,689.485948
580.072660,0.000000,-9252.574275,612.876398
580.072987,-518.144159,-9104.533087,689.485948
580.073315,-296.082377,-8956.491898,612.876398
580.073642,-148.041188,-9104.533087,1072.533697
580.073970,0.000000,-8586.388927,689.485948
580.074298,-222.061783,-8808.450710,536.266849
580.074625,-444.123565,-8956.491898,536.266849
580.074953,-370.102971,-9030.512492,919.314598
580.075280,-592.164754,-8882.471304,995.924147
580.075608,-222.061783,-8956.491898,842.705048
580.075935,-148.041188,-9178.553681,689.485948
580.076263,-370.102971,-9252.574275,689.485948
580.076591,-296.082377,-9252.574275,842.705048
580.076918,-518.144159,-9030.512492,842.705048
580.077246,0.000000,-9030.512492,766.095498
580.077573,-370.102971,-9104.533087,766.095498
580.077901,-444.123565,-9104.533087,383.047749
580.078228,-370.102971,-9252.574275,612.876398
580.078556,0.000000,-9252.574275,536.266849
580.078884,-222.061783,-8660.409521,536.266849
580.079211,370.102971,-9474.636058,612.876398
580.079539,0.000000,-9400.615463,459.657299
580.079866,0.000000,-9252.574275,153.219100
580.080194,0.000000,-9326.594869,229.828649
580.080521,0.000000,-9104.533087,842.705048
580.080849,74.020594,-9474.636058,76.609550
580.081177,0.000000,-9400.615463,459.657299
580.081504,0.000000,-9474.636058,536.266849
580.081832,-222.061783,-9400.615463,153.219100
580.082159,-814.226536,-8956.491898,383.047749
580.082487,-222.061783,-9030.512492,383.047749
580.082815,-148.041188,-9030.512492,536.266849
580.083142,-296.082377,-9178.553681,383.047749
580.083470,-148.041188,-9178.553681,766.095498
580.083797,-222.061783,-9252.574275,766.095498
580.084125,-370.102971,-8956.491898,612.876398
580.084452,-370.102971,-9474.636058,612.876398
580.084780,-444.123565,-9400.615463,536.266849
580.085108,-444.123565,-9104.533087,766.095498
580.085435,-296.082377,-9178.553681,689.485948
580.085763,0.000000,-9400.615463,842.705048
580.086090,-296.082377,-9030.512492,536.266849
580.086418,-666.185348,-9030.512492,689.485948
580.086745,-740.205942,-8956.491898,689.485948
580.087073,-740.205942,-9030.512492,842.705048
580.087401,-592.164754,-9326.594869,919.314598
580.087728,-592.164754,-8660.409521,306.438199
580.088056,-370.102971,-8808.450710,383.047749
580.088383,-370.102971,-8660.409521,689.485948
580.088711,-518.144159,-8734.430116,536.266849
580.089038,-518.144159,-8512.368333,536.266849
580.089366,-148.041188,-8734.430116,612.876398
580.089694,-370.102971,-9104.533087,306.438199
580.090021,-296.082377,-9252.574275,383.047749
580.090349,0.000000,-9030.512492,612.876398
580.090676,0.000000,-9104.533087,612.876398
580.091004,0.000000,-8734.430116,306.438199
580.091331,-222.061783,-8586.388927,153.219100
580.091659,0.000000,-8882.471304,76.609550
580.091987,0.000000,-8808.450710,76.609550
580.092314,148.041188,-8734.430116,459.657299
580.092642,370.102971,-9252.574275,76.609550
580.092969,0.000000,-9252.574275,383.047749
580.093297,148.041188,-9622.677246,76.609550
580.093624,74.020594,-9326.594869,383.047749
580.093952,0.000000,-9326.594869,459.657299
580.094280,74.020594,-9474.636058,-153.219100
580.094607,0.000000,-8808.450710,995.924147
580.094935,0.000000,-9252.574275,306.438199
580.095262,-296.082377,-9178.553681,383.047749
580.095590,-370.102971,-9030.512492,229.828649
580.095917,-592.164754,-9104.533087,229.828649
580.096245,-888.247130,-9030.512492,842.705048
580.096573,-370.102971,-9030.512492,383.047749
580.096900,-370.102971,-9104.533087,459.657299
580.097228,-222.061783,-9252.574275,766.095498
580.097555,-296.082377,-9104.533087,612.876398
580.097883,-444.123565,-8956.491898,689.485948
580.098210,0.000000,-9474.636058,995.924147
580.098538,-222.061783,-9548.656652,1072.533697
580.098866,-518.144159,-9548.656652,919.314598
580.099193,-444.123565,-9622.677246,842.705048
580.099521,-370.102971,-9326.594869,1149.143247
580.099848,-296.082377,-9400.615463,612.876398
580.100176,-370.102971,-9252.574275,919.314598
580.100503,-666.185348,-9178.553681,689.485948
580.100831,-592.164754,-9178.553681,766.095498
580.101159,-370.102971,-9030.512492,842.705048
580.101486,-370.102971,-9030.512492,995.924147
580.101814,-370.102971,-9252.574275,766.095498
580.102141,-592.164754,-9474.636058,842.705048
580.102469,-518.144159,-9548.656652,612.876398
580.102797,-370.102971,-9474.636058,995.924147
580.103124,0.000000,-9178.553681,766.095498
580.103452,-296.082377,-9104.533087,459.657299
580.103779,-148.041188,-9400.615463,536.266849
580.104107,0.000000,-9474.636058,383.047749
580.104434,0.000000,-9178.553681,383.047749
580.104762,-222.061783,-8734.430116,153.219100
580.105090,-296.082377,-9030.512492,383.047749
580.105417,-370.102971,-8734.430116,306.438199
580.105745,-222.061783,-8808.450710,459.657299
580.106072,-370.102971,-8956.491898,459.657299
580.106400,0.000000,-9030.512492,153.219100
580.106727,0.000000,-8438.347739,536.266849
580.107055,-222.061783,-8956.491898,383.047749
580.107383,-148.041188,-9104.533087,383.047749
580.107710,-74.020594,-9252.574275,536.266849
580.108038,-296.082377,-8882.471304,383.047749
580.108365,0.000000,-8808.450710,919.314598
580.108693,-296.082377,-9030.512492,766.095498
580.109020,-222.061783,-9030.512492,536.266849
580.109348,-370.102971,-8882.471304,459.657299
580.109676,-592.164754,-8734.430116,1302.362347
580.110003,-296.082377,-8512.368333,766.095498
580.110331,-518.144159,-8808.450710,306.438199
580.110658,-296.082377,-8734.430116,459.657299
580.110986,-148.041188,-8660.409521,766.095498
580.111313,-296.082377,-8660.409521,459.657299
580.111641,-370.102971,-8956.491898,842.705048
580.111969,-518.144159,-8808.450710,766.095498
580.112296,-370.102971,-8956.491898,536.266849
580.112624,-296.082377,-9030.512492,536.266849
580.112951,-370.102971,-8882.471304,459.657299
580.113279,-518.144159,-9104.533087,1072.533697
580.113606,0.000000,-9548.656652,766.095498
580.113934,-148.041188,-8660.409521,459.657299
580.114262,-666.185348,-8586.388927,229.828649
580.114589,-444.123565,-9030.512492,0.000000
580.114917,-222.061783,-8956.491898,536.266849
580.115244,-296.082377,-8660.409521,-229.828649
580.115572,0.000000,-8956.491898,153.219100
580.115899,0.000000,-9326.594869,229.828649
580.116227,0.000000,-9696.697840,459.657299
580.116555,0.000000,-9400.615463,229.828649
580.116882,148.041188,-9104.533087,536.266849
580.117210,0.000000,-9030.512492,536.266849
580.117537,-148.041188,-9400.615463,536.266849
580.117865,-444.123565,-9326.594869,536.266849
580.118192,-444.123565,-9178.553681,689.485948
580.118520,0.000000,-9030.512492,459.657299
580.118848,-518.144159,-8660.409521,383.047749
580.119175,-444.123565,-9030.512492,612.876398
580.119503,-740.205942,-8882.471304,766.095498
580.119830,-518.144159,-9030.512492,383.047749
580.120158,-148.041188,-8956.491898,229.828649
580.120485,-74.020594,-9326.594869,689.485948
580.120813,-296.082377,-9252.574275,919.314598
580.121141,-370.102971,-9474.636058,919.314598
580.121468,-444.123565,-9474.636058,1072.533697
580.121796,-296.082377,-9326.594869,1225.752797
580.122123,-444.123565,-9326.594869,1149.143247
580.122451,-296.082377,-9474.636058,766.095498
580.122779,-666.185348,-9030.512492,536.266849
580.123106,-370.102971,-9030.512492,766.095498
580.123434,-444.123565,-8808.450710,536.266849
580.123761,0.000000,-8438.347739,919.314598
580.124089,-592.164754,-8586.388927,536.266849
580.124416,-444.123565,-8956.491898,536.266849
580.124744,-296.082377,-8808.450710,689.485948
580.125072,-148.041188,-9252.574275,612.876398
580.125399,0.000000,-9178.553681,459.657299
580.125727,0.000000,-9474.636058,842.705048
580.126054,0.000000,-9474.636058,842.705048
580.126382,0.000000,-9326.594869,689.485948
580.126709,148.041188,-9474.636058,459.657299
580.127037,-148.041188,-9252.574275,0.000000
580.127365,-148.041188,-8956.491898,689.485948
580.127692,0.000000,-9400.615463,536.266849
580.128020,-148.041188,-9252.574275,383.047749
580.128347,0.000000,-9252.574275,383.047749
580.128675,-444.123565,-8808.450710,766.095498
580.129002,0.000000,-8956.491898,612.876398
580.129330,0.000000,-8956.491898,306.438199
580.129658,-148.041188,-9178.553681,536.266849
580.129985,0.000000,-9252.574275,689.485948
580.130313,0.000000,-9104.533087,612.876398
580.130640,-370.102971,-8956.491898,766.095498
580.130968,-222.061783,-9104.533087,612.876398
580.131295,-222.061783,-9104.533087,536.266849
580.131623,-222.061783,-9252.574275,612.876398
580.131951,-666.185348,-8956.491898,612.876398
580.132278,-518.144159,-8734.430116,612.876398
580.132606,-222.061783,-8882.471304,612.876398
580.132933,-740.205942,-8882.471304,383.047749
580.133261,-518.144159,-8734.430116,536.266849
580.133588,-666.185348,-9030.512492,306.438199
580.133916,-222.061783,-8586.388927,383.047749
580.134244,-222.061783,-8808.450710,459.657299
580.134571,-518.144159,-9326.594869,689.485948
580.134899,-370.102971,-9326.594869,536.266849
580.135226,-444.123565,-9474.636058,612.876398
580.135554,-296.082377,-9030.512492,459.657299
580.135881,-444.123565,-9030.512492,612.876398
580.136209,-444.123565,-9326.594869,689.485948
580.136537,-370.102971,-9326.594869,766.095498
580.136864,-518.144159,-9030.512492,766.095498
580.137192,-444.123565,-9030.512492,459.657299
580.137519,-592.164754,-8586.388927,76.609550
580.137847,-666.185348,-8956.491898,612.876398
580.138174,-518.144159,-8808.450710,383.047749
580.138502,-222.061783,-8882.471304,536.266849
580.138830,-148.041188,-9030.512492,306.438199
580.139157,-370.102971,-8660.409521,919.314598
580.139485,0.000000,-9104.533087,612.876398
580.139812,-518.144159,-9030.512492,536.266849
580.140140,-444.123565,-8956.491898,536.266849
580.140467,-370.102971,-9178.553681,612.876398
580.140795,-148.041188,-8808.450710,459.657299
580.141123,0.000000,-9104.533087,612.876398
580.141450,-370.102971,-8956.491898,383.047749
580.141778,-370.102971,-8808.450710,612.876398
580.142105,-222.061783,-8808.450710,306.438199
580.142433,-222.061783,-8956.491898,919.314598
580.142761,-296.082377,-8808.450710,842.705048
580.143088,-592.164754,-8660.409521,536.266849
580.143416,-370.102971,-9030.512492,459.657299
580.143743,0.000000,-9252.574275,766.095498
580.144071,0.000000,-9178.553681,459.657299
580.144398,222.061783,-8956.491898,1072.533697
580.144726,296.082377,-8956.491898,689.485948
580.145054,-148.041188,-9104.533087,459.657299
580.145381,-148.041188,-9030.512492,383.047749
580.145709,-592.164754,-9104.533087,459.657299
580.146036,-74.020594,-8660.409521,459.657299
580.146364,-222.061783,-9178.553681,383.047749
580.146691,-296.082377,-9104.533087,306.438199
580.147019,-222.061783,-8956.491898,459.657299
580.147347,-296.082377,-8734.430116,0.000000
580.147674,0.000000,-8808.450710,229.828649
580.148002,74.020594,-8882.471304,306.438199
580.148329,0.000000,-9030.512492,306.438199
580.148657,148.041188,-9326.594869,612.876398
580.148984,148.041188,-9696.697840,919.314598
580.149312,0.000000,-9844.739029,995.924147
580.149640,0.000000,-9770.718434,1225.752797
580.149967,0.000000,-9622.677246,612.876398
580.150295,0.000000,-9474.636058,612.876398
580.150622,0.000000,-9548.656652,459.657299
580.150950,0.000000,-9474.636058,536.266849
580.151277,0.000000,-9326.594869,536.266849
580.151605,-74.020594,-9030.512492,766.095498
580.151932,-148.041188,-9104.533087,536.266849
580.152260,-592.164754,-9252.574275,306.438199
580.152587,-592.164754,-9178.553681,612.876398
580.152915,-592.164754,-9474.636058,383.047749
580.153242,-444.123565,-9474.636058,995.924147
580.153570,0.000000,-9622.677246,919.314598
580.153897,74.020594,-9474.636058,689.485948
580.154225,0.000000,-9400.615463,612.876398
580.154552,0.000000,-9400.615463,1302.362347
580.154880,0.000000,-9622.677246,842.705048
580.155207,-370.102971,-9474.636058,612.876398
580.155535,-444.123565,-9474.636058,536.266849
580.155862,-666.185348,-9178.553681,536.266849
580.156190,-666.185348,-9252.574275,612.876398
580.156517,-222.061783,-9178.553681,459.657299
580.156845,-666.185348,-9104.533087,536.266849
580.157172,-370.102971,-8956.491898,383.047749
580.157500,-592.164754,-8586.388927,459.657299
580.157827,0.000000,-8808.450710,306.438199
580.158155,370.102971,-9104.533087,612.876398
580.158482,0.000000,-8734.430116,383.047749
580.158810,-296.082377,-9104.533087,612.876398
580.159137,-592.164754,-9474.636058,459.657299
580.159465,-444.123565,-9474.636058,612.876398
580.159793,-148.041188,-9252.574275,536.266849
580.160120,74.020594,-9252.574275,536.266849
580.160448,74.020594,-9178.553681,689.485948
580.160775,0.000000,-8882.471304,612.876398
580.161103,0.000000,-8808.450710,536.266849
580.161430,222.061783,-8290.306550,306.438199
580.161758,0.000000,-8808.450710,842.705048
580.162085,-148.041188,-8956.491898,612.876398
580.162413,-296.082377,-9030.512492,459.657299
580.162740,-518.144159,-8808.450710,689.485948
580.163068,-296.082377,-8734.430116,612.876398
580.163395,148.041188,-9104.533087,306.438199
580.163723,-296.082377,-8882.471304,306.438199
580.164050,-370.102971,-8660.409521,306.438199
580.164378,-518.144159,-8660.409521,459.657299
580.164705,-444.123565,-8808.450710,536.266849
580.165033,-222.061783,-9178.553681,536.266849
580.165360,-592.164754,-8586.388927,919.314598
580.165688,-592.164754,-9104.533087,536.266849
580.166015,-518.144159,-9104.533087,459.657299
580.166343,-296.082377,-9104.533087,459.657299
580.166670,0.000000,-8882.471304,306.438199
580.166998,74.020594,-8438.347739,229.828649
580.167325,0.000000,-9030.512492,306.438199
580.167653,0.000000,-9178.553681,306.438199
580.167980,0.000000,-9178.553681,459.657299
580.168308,222.061783,-9326.594869,612.876398
580.168635,0.000000,-9326.594869,1149.143247
580.168963,0.000000,-9474.636058,766.095498
580.169290,0.000000,-9474.636058,612.876398
580.169618,-148.041188,-9400.615463,536.266849
580.169945,-296.082377,-9104.533087,766.095498
580.170273,-222.061783,-8882.471304,766.095498
580.170600,-370.102971,-9030.512492,689.485948
580.170928,-370.102971,-9474.636058,306.438199
580.171255,-370.102971,-9326.594869,766.095498
580.171583,-222.061783,-9178.553681,459.657299
580.171910,-370.102971,-9326.594869,459.657299
580.172238,-592.164754,-9030.512492,995.924147
580.172566,-518.144159,-9474.636058,689.485948
580.172893,-518.144159,-9400.615463,766.095498
580.173221,-518.144159,-9252.574275,383.047749
580.173548,-592.164754,-8956.491898,919.314598
580.173876,296.082377,-9326.594869,842.705048
580.174203,-296.082377,-9400.615463,536.266849
580.174531,-296.082377,-9326.594869,612.876398
580.174858,-222.061783,-9252.574275,536.266849
580.175186,0.000000,-9252.574275,919.314598
580.175513,-222.061783,-9178.553681,383.047749
580.175841,-518.144159,-9178.553681,612.876398
580.176168,-518.144159,-9178.553681,689.485948
580.176496,-222.061783,-9178.553681,459.657299
580.176823,0.000000,-9104.533087,306.438199
580.177151,-370.102971,-8882.471304,689.485948
580.177478,0.000000,-8882.471304,766.095498
580.177806,0.000000,-8882.471304,459.657299
580.178133,-296.082377,-8956.491898,306.438199
580.178461,-370.102971,-9030.512492,76.609550
580.178788,-888.247130,-9030.512492,229.828649
580.179116,74.020594,-9548.656652,459.657299
580.179443,-370.102971,-9252.574275,229.828649
580.179771,-518.144159,-8956.491898,459.657299
580.180098,0.000000,-9178.553681,229.828649
580.180426,222.061783,-8808.450710,459.657299
580.180753,0.000000,-8512.368333,0.000000
580.181081,0.000000,-8660.409521,306.438199
580.181408,-222.061783,-8956.491898,383.047749
580.181736,-444.123565,-9326.594869,383.047749
580.182063,-148.041188,-9400.615463,383.047749
580.182391,0.000000,-9178.553681,612.876398
580.182718,0.000000,-9252.574275,919.314598
580.183046,148.041188,-9252.574275,919.314598
580.183373,74.020594,-8956.491898,612.876398
580.183701,0.000000,-8734.430116,612.876398
580.184028,74.020594,-8438.347739,995.924147
580.184356,-444.123565,-8660.409521,689.485948
580.184683,-444.123565,-9178.553681,612.876398
580.185011,-444.123565,-9252.574275,842.705048
580.185338,-444.123565,-9252.574275,689.485948
580.185666,-222.061783,-8956.491898,995.924147
580.185994,-296.082377,-9252.574275,612.876398
580.186321,0.000000,-8882.471304,689.485948
580.186649,0.000000,-8808.450710,612.876398
580.186976,-148.041188,-8586.388927,612.876398
580.187304,148.041188,-9030.512492,612.876398
580.187631,0.000000,-9474.636058,689.485948
580.187959,-370.102971,-9770.718434,766.095498
580.188286,-518.144159,-9622.677246,689.485948
580.188614,-296.082377,-9622.677246,842.705048
580.188941,-370.102971,-9474.636058,689.485948
580.189269,148.041188,-9030.512492,459.657299
580.189596,-222.061783,-9030.512492,306.438199
580.189924,148.041188,-8882.471304,229.828649
580.190251,74.020594,-8956.491898,536.266849
580.190579,-296.082377,-9178.553681,612.876398
580.190906,-296.082377,-9178.553681,536.266849
580.191234,-518.144159,-9030.512492,689.485948
580.191561,-296.082377,-9474.636058,689.485948
580.191889,-296.082377,-9326.594869,689.485948
580.192216,296.082377,-9178.553681,612.876398
580.192544,592.164754,-8660.409521,1378.971896
580.192871,1332.370696,-8956.491898,1455.581446
580.193199,1036.288319,-8808.450710,1608.800546
580.193526,518.144159,-9030.512492,1762.019645
580.193854,148.041188,-9474.636058,1838.629195
580.194181,0.000000,-9030.512492,2221.676944
580.194509,-222.061783,-8882.471304,2068.457845
580.194836,0.000000,-8882.471304,1991.848295
580.195164,74.020594,-9178.553681,2068.457845
580.195491,0.000000,-8734.430116,2298.286494
580.195819,-370.102971,-8438.347739,2221.676944
580.196146,0.000000,-8142.265362,2374.896044
580.196474,-222.061783,-8660.409521,2145.067394
580.196801,-444.123565,-8808.450710,2604.724693
580.197129,-592.164754,-8660.409521,2451.505594
580.197456,-592.164754,-8882.471304,2757.943793
580.197784,-666.185348,-9030.512492,3064.381992
580.198111,-666.185348,-8660.409521,2757.943793
580.198439,-814.226536,-8956.491898,2757.943793
580.198767,-888.247130,-8956.491898,2834.553343
580.199094,-962.267725,-8956.491898,2987.772442
580.199422,-1036.288319,-8660.409521,3370.820191
580.199749,-666.185348,-8808.450710,3447.429741
580.200077,-592.164754,-8808.450710,3217.601092
580.200404,-666.185348,-8882.471304,2987.772442
580.200732,-666.185348,-8808.450710,2987.772442
580.201059,-74.020594,-8808.450710,2757.943793
580.201387,-222.061783,-8734.430116,3140.991542
580.201714,-148.041188,-8882.471304,3217.601092
580.202042,-370.102971,-9030.512492,2987.772442
580.202369,0.000000,-9178.553681,3140.991542
580.202697,74.020594,-9474.636058,3140.991542
580.203024,148.041188,-8586.388927,3447.429741
580.203352,370.102971,-9474.636058,3370.820191
580.203679,370.102971,-9326.594869,3370.820191
580.204007,888.247130,-9252.574275,3983.696590
580.204334,1110.308913,-9252.574275,4136.915689
580.204662,1184.329507,-8882.471304,4596.572988
580.204989,1480.411884,-9326.594869,4519.963438
580.205317,1110.308913,-9548.656652,4903.011187
580.205644,888.247130,-9696.697840,5132.839837
580.205972,444.123565,-9770.718434,4903.011187
580.206299,222.061783,-9770.718434,5132.839837
580.206627,-148.041188,-9992.780217,4903.011187
580.206954,-666.185348,-9622.677246,4596.572988
580.207282,-888.247130,-9548.656652,4443.353888
580.207609,-1036.288319,-9548.656652,4060.306139
580.207937,-1702.473667,-9770.718434,4136.915689
580.208264,-2146.597232,-9030.512492,3064.381992
580.208592,-2294.638420,-9178.553681,3217.601092
580.208919,-1924.535449,-8882.471304,2911.162892
580.209247,-1184.329507,-8438.347739,3370.820191
580.209574,-148.041188,-8216.285956,3907.087040
580.209902,1480.411884,-7624.121203,5132.839837
580.210229,1776.494261,-7772.162391,5592.497135
580.210557,2072.576638,-8438.347739,6358.592633
580.210884,1850.514855,-9104.533087,6435.202183
580.211212,888.247130,-9918.759623,6511.811733
580.211540,-666.185348,-10732.986159,6435.202183
580.211867,-1998.556043,-11103.089130,5515.887586
580.212195,-2368.659014,-11177.109724,4749.792088
580.212522,-2368.659014,-10510.924376,4136.915689
580.212850,-1258.350101,-9178.553681,3907.087040
580.213177,222.061783,-8290.306550,4290.134789
580.213505,1998.556043,-7402.059420,4443.353888
580.213832,2294.638420,-7402.059420,4366.744339
580.214160,1702.473667,-7772.162391,4060.306139
580.214487,-1036.288319,-9252.574275,2987.772442
580.214815,-5995.668130,-11473.192101,1072.533697
580.215142,-10584.944971,-12953.603985,-919.314598
580.215470,-13101.645173,-12583.501014,-3294.210641
580.215797,-11325.150913,-10362.883188,-3983.696590
580.216125,-7772.162391,-7772.162391,-4060.306139
580.216452,2368.659014,-4959.379811,-1991.848295
580.216780,6217.729913,-3256.906145,153.219100
580.217107,11917.315666,-2960.823768,2221.676944
580.217435,11917.315666,-3997.112087,4136.915689
