#time,accel_x,accel_y,accel_z
244.391425,-444.123565,-8882.471304,766.095498
244.391753,-370.102971,-9178.553681,536.266849
244.392080,-148.041188,-9178.553681,689.485948
244.392407,-148.041188,-9104.533087,536.266849
244.392735,-370.102971,-9030.512492,612.876398
244.393062,0.000000,-9030.512492,919.314598
244.393389,-148.041188,-9252.574275,383.047749
244.393717,-222.061783,-8956.491898,536.266849
244.394044,-444.123565,-9178.553681,612.876398
244.394371,-444.123565,-9178.553681,689.485948
244.394699,-148.041188,-9030.512492,689.485948
244.395026,-444.123565,-8956.491898,306.438199
244.395353,-444.123565,-9104.533087,459.657299
244.395680,-222.061783,-9178.553681,383.047749
244.396008,-370.102971,-9178.553681,612.876398
244.396335,0.000000,-9104.533087,536.266849
244.396662,-370.102971,-8734.430116,766.095498
244.396990,0.000000,-9252.574275,536.266849
244.397317,-148.041188,-9178.553681,229.828649
244.397644,-296.082377,-9326.594869,459.657299
244.397972,-222.061783,-9178.553681,459.657299
244.398299,148.041188,-8808.450710,612.876398
244.398626,0.000000,-9178.553681,612.876398
244.398954,-222.061783,-9104.533087,459.657299
244.399281,-370.102971,-9252.574275,612.876398
244.399608,-296.082377,-9252.574275,459.657299
244.399936,-148.041188,-8956.491898,689.485948
244.400263,-444.123565,-8734.430116,612.876398
244.400590,-370.102971,-9030.512492,536.266849
244.400918,0.000000,-8956.491898,612.876398
244.401245,-370.102971,-9178.553681,383.047749
244.401572,-1036.288319,-9104.533087,0.000000
244.401899,-1702.473667,-9548.656652,0.000000
244.402227,-1850.514855,-9178.553681,-536.266849
244.402554,-1406.391290,-9104.533087,-536.266849
244.402881,-592.164754,-8956.491898,-689.485948
244.403209,-370.102971,-9030.512492,-383.047749
244.403536,-666.185348,-8660.409521,-995.924147
244.403863,-888.247130,-9104.533087,-689.485948
244.404191,-962.267725,-9178.553681,-995.924147
244.404518,-740.205942,-9030.512492,-1225.752797
244.404845,-518.144159,-8956.491898,-1378.971896
244.405173,-370.102971,-8734.430116,0.000000
244.405500,74.020594,-9030.512492,-919.314598
244.405827,222.061783,-9178.553681,-459.657299
244.406155,296.082377,-8882.471304,-536.266849
244.406482,222.061783,-9104.533087,-766.095498
244.406809,74.020594,-9104.533087,-536.266849
244.407137,222.061783,-9474.636058,-1149.143247
244.407464,370.102971,-9326.594869,-919.314598
244.407791,814.226536,-9252.574275,-919.314598
244.408119,962.267725,-9252.574275,-766.095498
244.408446,518.144159,-9104.533087,-536.266849
244.408773,222.061783,-9474.636058,-612.876398
244.409100,148.041188,-9326.594869,-1149.143247
244.409428,0.000000,-9326.594869,-1149.143247
244.409755,-222.061783,-9252.574275,-995.924147
244.410082,-222.061783,-9252.574275,-766.095498
244.410410,74.020594,-9104.533087,-766.095498
244.410737,-444.123565,-9104.533087,-383.047749
244.411064,-518.144159,-8956.491898,-459.657299
244.411392,-740.205942,-8808.450710,-689.485948
244.411719,-740.205942,-9178.553681,-766.095498
244.412046,-666.185348,-8882.471304,-842.705048
244.412374,-962.267725,-8734.430116,-842.705048
244.412701,-740.205942,-8808.450710,-689.485948
244.413028,-518.144159,-8882.471304,-459.657299
244.413356,-518.144159,-9104.533087,-306.438199
244.413683,-518.144159,-8586.388927,-306.438199
244.414010,-666.185348,-9030.512492,-306.438199
244.414338,-666.185348,-9178.553681,-459.657299
244.414665,-1036.288319,-9252.574275,-612.876398
244.414992,-962.267725,-9252.574275,-383.047749
244.415319,-518.144159,-8956.491898,0.000000
244.415647,-518.144159,-8956.491898,0.000000
244.415974,-444.123565,-9326.594869,0.000000
244.416301,-518.144159,-9326.594869,-153.219100
244.416629,-222.061783,-9030.512492,-153.219100
244.416956,-296.082377,-8956.491898,-306.438199
244.417283,74.020594,-8956.491898,0.000000
244.417611,0.000000,-9178.553681,-229.828649
244.417938,0.000000,-8956.491898,-229.828649
244.418265,0.000000,-9030.512492,-229.828649
244.418593,444.123565,-8956.491898,0.000000
244.418920,444.123565,-8660.409521,1225.752797
244.419247,370.102971,-9178.553681,306.438199
244.419575,296.082377,-9252.574275,0.000000
244.419902,74.020594,-9400.615463,229.828649
244.420229,74.020594,-9178.553681,306.438199
244.420557,0.000000,-8734.430116,842.705048
244.420884,592.164754,-9030.512492,842.705048
244.421211,444.123565,-9104.533087,689.485948
244.421539,592.164754,-9104.533087,689.485948
244.421866,296.082377,-9104.533087,995.924147
244.422193,148.041188,-9178.553681,459.657299
244.422520,-592.164754,-9178.553681,842.705048
244.422848,-740.205942,-9622.677246,842.705048
244.423175,-1110.308913,-9400.615463,842.705048
244.423502,-1036.288319,-9326.594869,689.485948
244.423830,-1406.391290,-9178.553681,536.266849
244.424157,-962.267725,-9400.615463,536.266849
244.424484,-1702.473667,-9104.533087,459.657299
244.424812,-1850.514855,-9030.512492,76.609550
244.425139,-1998.556043,-8660.409521,0.000000
244.425466,-1924.535449,-8808.450710,-306.438199
244.425794,-1776.494261,-8438.347739,383.047749
244.426121,-1184.329507,-8734.430116,-306.438199
244.426448,-740.205942,-8660.409521,153.219100
244.426776,-222.061783,-8808.450710,0.000000
244.427103,-148.041188,-8808.450710,536.266849
244.427430,0.000000,-8882.471304,689.485948
244.427758,148.041188,-8956.491898,689.485948
244.428085,222.061783,-9474.636058,459.657299
244.428412,222.061783,-9474.636058,306.438199
244.428739,444.123565,-9548.656652,689.485948
244.429067,1036.288319,-9400.615463,1149.143247
244.429394,1628.453072,-9252.574275,1302.362347
244.429721,1776.494261,-9030.512492,1225.752797
244.430049,1998.556043,-9178.553681,1455.581446
244.430376,1776.494261,-9326.594869,1455.581446
244.430703,1332.370696,-9178.553681,1302.362347
244.431031,962.267725,-9104.533087,1302.362347
244.431358,444.123565,-9474.636058,1072.533697
244.431685,74.020594,-9696.697840,1532.190996
244.432013,-370.102971,-9252.574275,1149.143247
244.432340,-592.164754,-9400.615463,1072.533697
244.432667,-1036.288319,-9252.574275,766.095498
244.432995,-1628.453072,-9030.512492,995.924147
244.433322,-1998.556043,-8956.491898,229.828649
244.433649,-1998.556043,-8808.450710,0.000000
244.433977,-2294.638420,-8660.409521,0.000000
244.434304,-1776.494261,-8734.430116,-383.047749
244.434631,-2220.617826,-8290.306550,76.609550
244.434958,-2072.576638,-8290.306550,0.000000
244.435286,-1924.535449,-8142.265362,0.000000
244.435613,-1332.370696,-8586.388927,0.000000
244.435940,-888.247130,-8438.347739,0.000000
244.436268,-888.247130,-8660.409521,383.047749
244.436595,-370.102971,-9104.533087,383.047749
244.436922,0.000000,-9178.553681,612.876398
244.437250,296.082377,-9474.636058,612.876398
244.437577,518.144159,-9696.697840,919.314598
244.437904,814.226536,-9400.615463,1072.533697
244.438232,1480.411884,-9622.677246,995.924147
244.438559,1036.288319,-9400.615463,919.314598
244.438886,1406.391290,-9474.636058,1072.533697
244.439214,1628.453072,-9178.553681,842.705048
244.439541,1258.350101,-8586.388927,1225.752797
244.439868,1924.535449,-9252.574275,1302.362347
244.440196,1110.308913,-9400.615463,995.924147
244.440523,518.144159,-9326.594869,842.705048
244.440850,222.061783,-9474.636058,612.876398
244.441178,-74.020594,-9326.594869,459.657299
244.441505,-962.267725,-9178.553681,153.219100
244.441832,-1332.370696,-9400.615463,229.828649
244.442159,-1554.432478,-9178.553681,0.000000
244.442487,-1702.473667,-9030.512492,-153.219100
244.442814,-1776.494261,-8660.409521,-306.438199
244.443141,-1776.494261,-8512.368333,0.000000
244.443469,-1776.494261,-8586.388927,-536.266849
244.443796,-1776.494261,-8290.306550,-612.876398
244.444123,-1480.411884,-8364.327145,-689.485948
244.444451,-1258.350101,-8512.368333,-612.876398
244.444778,-1036.288319,-8660.409521,0.000000
244.445105,-666.185348,-8660.409521,0.000000
244.445433,0.000000,-9178.553681,153.219100
244.445760,148.041188,-9400.615463,383.047749
244.446087,444.123565,-9474.636058,536.266849
244.446415,1110.308913,-9474.636058,919.314598
244.446742,962.267725,-9474.636058,995.924147
244.447069,1554.432478,-9696.697840,1072.533697
244.447397,1776.494261,-9474.636058,1302.362347
244.447724,1554.432478,-9474.636058,1455.581446
244.448051,1850.514855,-9030.512492,1762.019645
244.448378,1998.556043,-9252.574275,1302.362347
244.448706,1258.350101,-9400.615463,1149.143247
244.449033,1110.308913,-9474.636058,1378.971896
244.449360,814.226536,-9178.553681,1302.362347
244.449688,74.020594,-9252.574275,1378.971896
244.450015,0.000000,-9252.574275,766.095498
244.450343,-814.226536,-9326.594869,766.095498
244.450670,-1554.432478,-9326.594869,689.485948
244.450997,-1924.535449,-9104.533087,459.657299
244.451325,-2368.659014,-9030.512492,0.000000
244.451652,-2442.679609,-8882.471304,0.000000
244.451979,-2442.679609,-8586.388927,76.609550
244.452307,-2368.659014,-8438.347739,0.000000
244.452634,-2294.638420,-8216.285956,-306.438199
244.452961,-2146.597232,-8290.306550,-306.438199
244.453289,-1702.473667,-8586.388927,76.609550
244.453616,-1924.535449,-7994.224174,-383.047749
244.453943,-1258.350101,-8660.409521,-306.438199
244.454271,-666.185348,-9030.512492,0.000000
244.454598,0.000000,-9252.574275,76.609550
244.454925,222.061783,-9918.759623,383.047749
244.455253,814.226536,-9474.636058,995.924147
244.455580,1036.288319,-9622.677246,536.266849
244.455908,1332.370696,-9474.636058,842.705048
244.456235,1554.432478,-9770.718434,995.924147
244.456562,1850.514855,-9622.677246,1149.143247
244.456890,2146.597232,-9326.594869,1072.533697
244.457217,2368.659014,-9474.636058,1378.971896
244.457544,2294.638420,-9252.574275,1072.533697
244.457872,1332.370696,-9400.615463,766.095498
244.458199,1628.453072,-9548.656652,1225.752797
244.458526,814.226536,-9030.512492,1225.752797
244.458854,666.185348,-9400.615463,1149.143247
244.459181,148.041188,-9474.636058,842.705048
244.459508,-370.102971,-9400.615463,459.657299
244.459836,-1480.411884,-9400.615463,459.657299
244.460163,-1480.411884,-9030.512492,459.657299
244.460490,-2294.638420,-8586.388927,306.438199
244.460818,-2368.659014,-8956.491898,0.000000
244.461145,-2368.659014,-8734.430116,-229.828649
244.461473,-2590.720797,-8512.368333,-306.438199
244.461800,-2368.659014,-7846.182985,-689.485948
244.462127,-2072.576638,-7994.224174,-612.876398
244.462455,-1998.556043,-8364.327145,-536.266849
244.462782,-1628.453072,-8660.409521,-229.828649
244.463109,-1258.350101,-8660.409521,0.000000
244.463437,-814.226536,-8956.491898,0.000000
244.463764,-444.123565,-8956.491898,0.000000
244.464091,0.000000,-9326.594869,766.095498
244.464419,370.102971,-9400.615463,995.924147
244.464746,814.226536,-9400.615463,842.705048
244.465073,1258.350101,-9474.636058,1225.752797
244.465401,2072.576638,-9474.636058,1915.238745
244.465728,1998.556043,-9326.594869,1685.410096
244.466055,1998.556043,-9400.615463,1532.190996
244.466383,2146.597232,-9474.636058,1685.410096
244.466710,1480.411884,-9252.574275,1072.533697
244.467038,1258.350101,-9474.636058,2451.505594
244.467365,1850.514855,-9104.533087,1608.800546
244.467692,296.082377,-9622.677246,1378.971896
244.468020,0.000000,-9104.533087,1455.581446
244.468347,-444.123565,-9548.656652,1149.143247
244.468674,-1184.329507,-9400.615463,919.314598
244.469002,-2146.597232,-9030.512492,689.485948
244.469329,-2072.576638,-9178.553681,766.095498
244.469656,-2738.761985,-8808.450710,306.438199
244.469984,-2664.741391,-8660.409521,0.000000
244.470311,-2516.700203,-8586.388927,0.000000
244.470638,-2442.679609,-7994.224174,-536.266849
244.470966,-1998.556043,-8438.347739,0.000000
244.471293,-2146.597232,-8068.244768,-306.438199
244.471620,-1850.514855,-8142.265362,-229.828649
244.471948,-1628.453072,-8438.347739,0.000000
244.472275,-666.185348,-8660.409521,306.438199
244.472603,-740.205942,-9178.553681,0.000000
244.472930,-148.041188,-9400.615463,383.047749
244.473257,74.020594,-9474.636058,766.095498
244.473585,666.185348,-9918.759623,919.314598
244.473912,1258.350101,-9622.677246,919.314598
244.474239,1332.370696,-9918.759623,1072.533697
244.474567,1776.494261,-9844.739029,995.924147
244.474894,1850.514855,-9696.697840,1378.971896
244.475221,1702.473667,-9548.656652,1072.533697
244.475549,1924.535449,-9326.594869,919.314598
244.475876,2072.576638,-9326.594869,842.705048
244.476203,888.247130,-9252.574275,995.924147
244.476531,1406.391290,-9400.615463,689.485948
244.476858,666.185348,-9252.574275,1149.143247
244.477185,-444.123565,-9178.553681,995.924147
244.477513,-444.123565,-9474.636058,153.219100
244.477840,-1110.308913,-9178.553681,612.876398
244.478168,-1628.453072,-9474.636058,459.657299
244.478495,-1628.453072,-9030.512492,76.609550
244.478822,-2368.659014,-8956.491898,0.000000
244.479150,-2072.576638,-8512.368333,-536.266849
244.479477,-1924.535449,-8512.368333,0.000000
244.479804,-2368.659014,-8364.327145,-842.705048
244.480132,-1776.494261,-8216.285956,-766.095498
244.480459,-1776.494261,-8290.306550,-536.266849
244.480786,-1480.411884,-8068.244768,-383.047749
244.481114,-888.247130,-8364.327145,153.219100
244.481441,-592.164754,-8734.430116,0.000000
244.481768,-222.061783,-9178.553681,0.000000
244.482096,0.000000,-9326.594869,383.047749
244.482423,222.061783,-9548.656652,842.705048
244.482750,666.185348,-9474.636058,1072.533697
244.483078,1258.350101,-9770.718434,842.705048
244.483405,1110.308913,-9622.677246,995.924147
244.483732,1850.514855,-9474.636058,1225.752797
244.484060,1850.514855,-9548.656652,1378.971896
244.484387,1850.514855,-9030.512492,2068.457845
244.484715,2294.638420,-9030.512492,1532.190996
244.485042,1924.535449,-8808.450710,1838.629195
244.485369,740.205942,-9104.533087,1608.800546
244.485697,740.205942,-9252.574275,1685.410096
244.486024,222.061783,-8586.388927,1991.848295
244.486351,-888.247130,-9104.533087,1608.800546
244.486679,-1036.288319,-9178.553681,1149.143247
244.487006,-1184.329507,-9474.636058,842.705048
244.487333,-2220.617826,-9474.636058,536.266849
244.487661,-2146.597232,-8734.430116,536.266849
244.487988,-2590.720797,-8882.471304,459.657299
244.488315,-2590.720797,-8808.450710,-153.219100
244.488643,-2442.679609,-8586.388927,0.000000
244.488970,-2590.720797,-8364.327145,-612.876398
244.489297,-2294.638420,-8142.265362,-306.438199
244.489625,-1998.556043,-8290.306550,-153.219100
244.489952,-1776.494261,-8512.368333,-153.219100
244.490280,-1110.308913,-8512.368333,0.000000
244.490607,-888.247130,-9030.512492,229.828649
244.490934,-296.082377,-9178.553681,229.828649
244.491262,296.082377,-9474.636058,306.438199
244.491589,222.061783,-9474.636058,612.876398
244.491916,666.185348,-9770.718434,766.095498
244.492244,1184.329507,-9696.697840,919.314598
244.492571,1480.411884,-9770.718434,1072.533697
244.492898,1850.514855,-9844.739029,1072.533697
244.493226,1998.556043,-9622.677246,1378.971896
244.493553,2072.576638,-9474.636058,1225.752797
244.493880,2072.576638,-9326.594869,1455.581446
244.494208,2368.659014,-9474.636058,1762.019645
244.494535,1332.370696,-9252.574275,1225.752797
244.494862,740.205942,-9474.636058,1455.581446
244.495190,518.144159,-8808.450710,995.924147
244.495517,-370.102971,-9400.615463,995.924147
244.495845,-814.226536,-9326.594869,459.657299
244.496172,-1110.308913,-9400.615463,383.047749
244.496499,-2146.597232,-9178.553681,919.314598
244.496827,-1998.556043,-9030.512492,76.609550
244.497154,-2294.638420,-8882.471304,-153.219100
244.497481,-2368.659014,-8734.430116,-383.047749
244.497809,-2072.576638,-8586.388927,-536.266849
244.498136,-2146.597232,-7920.203579,-1149.143247
244.498463,-1924.535449,-8068.244768,-536.266849
244.498791,-1406.391290,-8216.285956,-536.266849
244.499118,-1406.391290,-8364.327145,-306.438199
244.499445,-1110.308913,-8438.347739,-306.438199
244.499773,-370.102971,-8660.409521,0.000000
244.500100,148.041188,-8734.430116,0.000000
244.500427,296.082377,-9326.594869,306.438199
244.500755,444.123565,-9474.636058,842.705048
244.501082,888.247130,-9770.718434,995.924147
244.501410,1406.391290,-9548.656652,1302.362347
244.501737,1776.494261,-9474.636058,1532.190996
244.502064,1924.535449,-9696.697840,1762.019645
244.502392,1998.556043,-9474.636058,1838.629195
244.502719,2072.576638,-9326.594869,1685.410096
244.503046,1702.473667,-9178.553681,1378.971896
244.503374,1702.473667,-9104.533087,1608.800546
244.503701,1406.391290,-8956.491898,1225.752797
244.504028,-222.061783,-9252.574275,1762.019645
244.504356,296.082377,-8956.491898,1302.362347
244.504683,-814.226536,-9252.574275,1225.752797
244.505010,-1702.473667,-8660.409521,1685.410096
244.505338,-1554.432478,-9326.594869,689.485948
244.505665,-2294.638420,-9326.594869,536.266849
244.505992,-2590.720797,-8956.491898,153.219100
244.506320,-2738.761985,-8734.430116,153.219100
244.506647,-2442.679609,-8734.430116,76.609550
244.506975,-2664.741391,-8068.244768,0.000000
244.507302,-2294.638420,-8216.285956,-153.219100
244.507629,-2072.576638,-8216.285956,-383.047749
244.507957,-1554.432478,-8364.327145,0.000000
244.508284,-1406.391290,-8734.430116,0.000000
244.508611,-1110.308913,-8290.306550,0.000000
244.508939,-518.144159,-8956.491898,229.828649
244.509266,0.000000,-9400.615463,536.266849
244.509593,444.123565,-9548.656652,842.705048
244.509921,592.164754,-9844.739029,689.485948
244.510248,1258.350101,-9770.718434,919.314598
244.510575,1480.411884,-9770.718434,1302.362347
244.510903,1702.473667,-9844.739029,1302.362347
244.511230,1776.494261,-9918.759623,1149.143247
244.511557,1924.535449,-9696.697840,1149.143247
244.511885,2146.597232,-9326.594869,995.924147
244.512212,1332.370696,-9252.574275,306.438199
244.512540,1036.288319,-9252.574275,1149.143247
244.512867,1480.411884,-9178.553681,612.876398
244.513194,444.123565,-9548.656652,612.876398
244.513522,370.102971,-9178.553681,1302.362347
244.513849,-592.164754,-9326.594869,612.876398
244.514176,-1258.350101,-9400.615463,153.219100
244.514504,-1702.473667,-9252.574275,0.000000
244.514831,-1850.514855,-9178.553681,229.828649
244.515158,-2368.659014,-8956.491898,0.000000
244.515486,-1924.535449,-9104.533087,-612.876398
244.515813,-2368.659014,-8512.368333,-766.095498
244.516140,-2442.679609,-8438.347739,-995.924147
244.516468,-1628.453072,-8438.347739,-689.485948
244.516795,-1702.473667,-8290.306550,-766.095498
244.517122,-888.247130,-8364.327145,-306.438199
244.517450,-814.226536,-8290.306550,-612.876398
244.517777,-444.123565,-8882.471304,-229.828649
244.518104,-148.041188,-8956.491898,0.000000
244.518432,148.041188,-9030.512492,229.828649
244.518759,518.144159,-9548.656652,536.266849
244.519087,814.226536,-9104.533087,1149.143247
244.519414,1332.370696,-9548.656652,1072.533697
244.519741,1480.411884,-9622.677246,995.924147
244.520069,1998.556043,-9548.656652,1378.971896
244.520396,2368.659014,-9770.718434,1225.752797
244.520723,1924.535449,-9474.636058,1685.410096
244.521051,1850.514855,-9326.594869,1378.971896
244.521378,1776.494261,-8956.491898,1378.971896
244.521705,592.164754,-8956.491898,1608.800546
244.522033,1110.308913,-8956.491898,1302.362347
244.522360,444.123565,-9030.512492,1302.362347
244.522687,-592.164754,-8956.491898,1455.581446
244.523015,-814.226536,-9104.533087,842.705048
244.523342,-1628.453072,-9104.533087,842.705048
244.523669,-2368.659014,-9252.574275,536.266849
244.523997,-1998.556043,-9104.533087,229.828649
244.524324,-2960.823768,-8660.409521,76.609550
244.524652,-2812.782580,-8882.471304,0.000000
244.524979,-2442.679609,-8512.368333,0.000000
244.525306,-2886.803174,-8364.327145,-153.219100
244.525634,-1998.556043,-8216.285956,76.609550
244.525961,-1924.535449,-8068.244768,-459.657299
244.526288,-1702.473667,-8438.347739,-229.828649
244.526616,-1184.329507,-8660.409521,0.000000
244.526943,-666.185348,-8956.491898,153.219100
244.527270,-296.082377,-8808.450710,306.438199
244.527598,148.041188,-9252.574275,919.314598
244.527925,592.164754,-9696.697840,842.705048
244.528252,814.226536,-9918.759623,842.705048
244.528580,962.267725,-9992.780217,1149.143247
244.528907,1332.370696,-9992.780217,842.705048
244.529234,1924.535449,-9918.759623,1225.752797
244.529562,1998.556043,-9844.739029,1072.533697
244.529889,2072.576638,-9696.697840,1302.362347
244.530217,2146.597232,-9474.636058,1378.971896
244.530544,2220.617826,-9326.594869,1378.971896
244.530871,1184.329507,-9400.615463,536.266849
244.531199,1258.350101,-9178.553681,842.705048
244.531526,592.164754,-9104.533087,1302.362347
244.531853,-666.185348,-9326.594869,842.705048
244.532181,-962.267725,-9252.574275,536.266849
244.532508,-1628.453072,-9030.512492,612.876398
244.532835,-1924.535449,-9622.677246,842.705048
244.533163,-1998.556043,-9178.553681,0.000000
244.533490,-2368.659014,-8808.450710,-153.219100
244.533817,-2664.741391,-8734.430116,-459.657299
244.534145,-2072.576638,-8438.347739,76.609550
244.534472,-2220.617826,-8290.306550,-306.438199
244.534799,-1850.514855,-8216.285956,-995.924147
244.535127,-1480.411884,-8142.265362,-612.876398
244.535454,-1258.350101,-8290.306550,-383.047749
244.535782,-592.164754,-8438.347739,0.000000
244.536109,-296.082377,-8438.347739,-459.657299
244.536436,222.061783,-8956.491898,0.000000
244.536764,444.123565,-9030.512492,306.438199
244.537091,592.164754,-9474.636058,766.095498
244.537418,1258.350101,-9622.677246,1072.533697
244.537746,1628.453072,-9548.656652,1225.752797
244.538073,1628.453072,-9474.636058,1532.190996
244.538400,2072.576638,-9474.636058,1685.410096
244.538728,2368.659014,-9622.677246,1762.019645
244.539055,2146.597232,-9400.615463,1685.410096
244.539382,1850.514855,-9252.574275,1532.190996
244.539710,1554.432478,-8808.450710,2681.334243
244.540037,1258.350101,-8956.491898,1455.581446
244.540364,0.000000,-9178.553681,1915.238745
244.540692,0.000000,-8586.388927,1225.752797
244.541019,-1184.329507,-9178.553681,1302.362347
244.541347,-1924.535449,-8882.471304,1378.971896
244.541674,-1998.556043,-8956.491898,612.876398
244.542001,-2886.803174,-8808.450710,536.266849
244.542329,-2812.782580,-8734.430116,383.047749
244.542656,-2812.782580,-8586.388927,76.609550
244.542983,-2960.823768,-7994.224174,0.000000
244.543311,-2590.720797,-8512.368333,-76.609550
244.543638,-2220.617826,-8438.347739,-229.828649
244.543965,-2146.597232,-7994.224174,-459.657299
244.544293,-1554.432478,-8216.285956,0.000000
244.544620,-1628.453072,-8586.388927,459.657299
244.544947,-592.164754,-8660.409521,229.828649
244.545275,-296.082377,-8956.491898,76.609550
244.545602,0.000000,-9252.574275,612.876398
244.545929,444.123565,-9622.677246,842.705048
244.546257,1184.329507,-9696.697840,1149.143247
244.546584,1332.370696,-10214.842000,1455.581446
244.546912,1406.391290,-9844.739029,1302.362347
244.547239,1776.494261,-9992.780217,1149.143247
244.547566,1850.514855,-9918.759623,1225.752797
244.547894,1924.535449,-9770.718434,1225.752797
244.548221,2368.659014,-9548.656652,1455.581446
244.548548,1258.350101,-9252.574275,536.266849
244.548876,1110.308913,-9400.615463,1302.362347
244.549203,1776.494261,-8956.491898,1149.143247
244.549530,296.082377,-9696.697840,766.095498
244.549858,0.000000,-9400.615463,995.924147
244.550185,-740.205942,-9474.636058,383.047749
244.550512,-1332.370696,-9474.636058,459.657299
244.550840,-1998.556043,-9252.574275,0.000000
244.551167,-1924.535449,-9104.533087,76.609550
244.551495,-2220.617826,-8882.471304,-153.219100
244.551822,-2368.659014,-8586.388927,-306.438199
244.552150,-2146.597232,-8364.327145,-612.876398
244.552478,-2516.700203,-8364.327145,-612.876398
244.552805,-1628.453072,-8364.327145,-536.266849
244.553133,-1258.350101,-8290.306550,-459.657299
244.553460,-1258.350101,-8290.306550,-306.438199
244.553788,-740.205942,-8512.368333,-383.047749
244.554116,-444.123565,-8734.430116,0.000000
244.554443,-222.061783,-9030.512492,153.219100
244.554771,370.102971,-9474.636058,459.657299
244.555099,814.226536,-9474.636058,689.485948
244.555426,1110.308913,-9474.636058,1149.143247
244.555754,1332.370696,-9622.677246,919.314598
244.556081,1628.453072,-9770.718434,1455.581446
244.556409,1776.494261,-9770.718434,1532.190996
244.556737,1850.514855,-9400.615463,1762.019645
244.557064,1776.494261,-9178.553681,1455.581446
244.557392,1850.514855,-8882.471304,1532.190996
244.557720,1776.494261,-8734.430116,1378.971896
244.558047,518.144159,-8734.430116,1072.533697
244.558375,888.247130,-8882.471304,1685.410096
244.558703,296.082377,-8808.450710,995.924147
244.559030,-1036.288319,-8956.491898,1378.971896
244.559358,-1110.308913,-9252.574275,766.095498
244.559685,-1628.453072,-9030.512492,842.705048
244.560013,-2516.700203,-9474.636058,306.438199
244.560341,-2072.576638,-8660.409521,306.438199
244.560668,-2886.803174,-8586.388927,76.609550
244.560996,-2812.782580,-8660.409521,-229.828649
244.561324,-2442.679609,-8512.368333,-153.219100
244.561651,-2442.679609,-8586.388927,-383.047749
244.561979,-1998.556043,-8068.244768,0.000000
244.562306,-1998.556043,-8142.265362,-229.828649
244.562634,-1406.391290,-8438.347739,-153.219100
244.562962,-1036.288319,-8586.388927,153.219100
244.563289,-518.144159,-8956.491898,0.000000
244.563617,296.082377,-9474.636058,229.828649
244.563945,222.061783,-9474.636058,689.485948
244.564272,592.164754,-9844.739029,689.485948
244.564600,888.247130,-9918.759623,1072.533697
244.564927,1258.350101,-9918.759623,1302.362347
244.565255,1628.453072,-10066.800811,1455.581446
244.565583,1776.494261,-10066.800811,1532.190996
244.565910,2220.617826,-9770.718434,1149.143247
244.566238,2072.576638,-9770.718434,1225.752797
244.566566,2146.597232,-9474.636058,1455.581446
244.566893,1924.535449,-9474.636058,1838.629195
244.567221,1036.288319,-9030.512492,1149.143247
244.567548,444.123565,-9622.677246,1302.362347
244.567876,296.082377,-8660.409521,536.266849
244.568204,-740.205942,-9474.636058,995.924147
244.568531,-1110.308913,-9326.594869,459.657299
244.568859,-1110.308913,-9252.574275,306.438199
244.569187,-1924.535449,-9548.656652,76.609550
244.569514,-2368.659014,-8882.471304,0.000000
244.569842,-2738.761985,-8956.491898,-306.438199
244.570169,-2738.761985,-8882.471304,-689.485948
244.570497,-2368.659014,-8438.347739,-306.438199
244.570825,-2146.597232,-8068.244768,-689.485948
244.571152,-1850.514855,-8216.285956,-766.095498
244.571480,-1480.411884,-8216.285956,-689.485948
244.571808,-1258.350101,-8364.327145,-612.876398
244.572135,-444.123565,-8438.347739,-153.219100
244.572463,-148.041188,-8364.327145,76.609550
244.572790,296.082377,-9400.615463,383.047749
244.573118,592.164754,-9252.574275,383.047749
244.573446,888.247130,-9548.656652,919.314598
244.573773,1184.329507,-9474.636058,1072.533697
244.574101,1998.556043,-9622.677246,1455.581446
244.574429,1998.556043,-9622.677246,1455.581446
244.574756,2072.576638,-9622.677246,1762.019645
244.575084,2294.638420,-9474.636058,1838.629195
244.575411,2220.617826,-9252.574275,1915.238745
244.575739,1554.432478,-8882.471304,1838.629195
244.576067,1776.494261,-9474.636058,2221.676944
244.576394,1332.370696,-8808.450710,1149.143247
244.576722,-296.082377,-9030.512492,1608.800546
244.577050,0.000000,-8882.471304,1225.752797
244.577377,-1184.329507,-9104.533087,1225.752797
244.577705,-1702.473667,-8882.471304,842.705048
244.578032,-1924.535449,-9030.512492,459.657299
244.578360,-2590.720797,-9030.512492,689.485948
244.578688,-3034.844362,-8586.388927,229.828649
244.579015,-2886.803174,-8734.430116,153.219100
244.579343,-2664.741391,-8142.265362,0.000000
244.579671,-2886.803174,-8364.327145,0.000000
244.579998,-2368.659014,-8364.327145,-229.828649
244.580326,-2220.617826,-8216.285956,-459.657299
244.580654,-1776.494261,-8438.347739,-306.438199
244.580981,-1480.411884,-8660.409521,0.000000
244.581309,-1258.350101,-8660.409521,76.609550
244.581636,-370.102971,-9030.512492,229.828649
244.581964,148.041188,-9400.615463,383.047749
244.582292,370.102971,-9622.677246,689.485948
244.582619,888.247130,-9992.780217,919.314598
244.582947,1184.329507,-9770.718434,1302.362347
244.583275,1406.391290,-10140.821405,1072.533697
244.583602,1628.453072,-10140.821405,995.924147
244.583930,2072.576638,-10066.800811,1225.752797
244.584257,1998.556043,-9622.677246,1378.971896
244.584585,1998.556043,-9326.594869,1532.190996
244.584913,1628.453072,-9474.636058,919.314598
244.585240,1628.453072,-9548.656652,1455.581446
244.585568,1776.494261,-9104.533087,919.314598
244.585896,-148.041188,-9548.656652,689.485948
244.586223,1036.288319,-9770.718434,995.924147
244.586551,-518.144159,-9326.594869,766.095498
244.586878,-1480.411884,-9474.636058,536.266849
244.587206,-1480.411884,-9178.553681,229.828649
244.587534,-1924.535449,-9326.594869,229.828649
244.587861,-2220.617826,-9030.512492,0.000000
244.588189,-2442.679609,-8660.409521,-306.438199
244.588517,-2368.659014,-8586.388927,-689.485948
244.588844,-2590.720797,-8512.368333,-766.095498
244.589172,-1850.514855,-8364.327145,-612.876398
244.589499,-1628.453072,-8216.285956,-153.219100
244.589827,-1036.288319,-8216.285956,-766.095498
244.590155,-888.247130,-8882.471304,-306.438199
244.590482,-740.205942,-8660.409521,0.000000
244.590810,-296.082377,-8808.450710,153.219100
244.591138,296.082377,-8956.491898,0.000000
244.591465,444.123565,-9474.636058,689.485948
244.591793,666.185348,-9474.636058,1072.533697
244.592120,1332.370696,-9548.656652,1378.971896
244.592448,1628.453072,-9696.697840,1302.362347
244.592776,1924.535449,-9770.718434,1685.410096
244.593103,2220.617826,-9178.553681,1838.629195
244.593431,1924.535449,-9104.533087,1455.581446
244.593759,1850.514855,-9326.594869,1685.410096
244.594086,1110.308913,-9030.512492,1072.533697
244.594414,814.226536,-9104.533087,1685.410096
244.594741,1406.391290,-8586.388927,1532.190996
244.595069,-296.082377,-9252.574275,1149.143247
244.595397,-148.041188,-9104.533087,1072.533697
244.595724,-888.247130,-9030.512492,842.705048
244.596052,-2072.576638,-9178.553681,612.876398
244.596380,-2220.617826,-8882.471304,689.485948
244.596707,-2368.659014,-9104.533087,153.219100
244.597035,-2960.823768,-8808.450710,76.609550
244.597362,-2738.761985,-8438.347739,0.000000
244.597690,-2516.700203,-8512.368333,-306.438199
244.598018,-2368.659014,-8290.306550,-689.485948
244.598345,-1850.514855,-8364.327145,-995.924147
244.598673,-1924.535449,-8216.285956,-383.047749
244.599001,-1554.432478,-8290.306550,-306.438199
244.599328,-1184.329507,-8734.430116,-306.438199
244.599656,-1036.288319,-8660.409521,-229.828649
244.599983,0.000000,-9400.615463,0.000000
244.600311,148.041188,-9400.615463,383.047749
244.600639,592.164754,-9622.677246,766.095498
244.600966,1110.308913,-9548.656652,766.095498
244.601294,1480.411884,-9918.759623,842.705048
244.601622,1924.535449,-10140.821405,536.266849
244.601949,1998.556043,-9696.697840,1302.362347
244.602277,1998.556043,-9770.718434,1149.143247
244.602605,2072.576638,-9696.697840,919.314598
244.602932,1924.535449,-9400.615463,1149.143247
244.603260,1628.453072,-9326.594869,0.000000
244.603587,1036.288319,-9252.574275,1302.362347
244.603915,1628.453072,-8956.491898,689.485948
244.604243,592.164754,-9474.636058,842.705048
244.604570,-518.144159,-9252.574275,766.095498
244.604898,-814.226536,-9400.615463,689.485948
244.605226,-1332.370696,-9104.533087,536.266849
244.605553,-2220.617826,-9252.574275,0.000000
244.605881,-2146.597232,-9104.533087,0.000000
244.606208,-2960.823768,-9030.512492,0.000000
244.606536,-2516.700203,-8956.491898,-383.047749
244.606864,-2368.659014,-8438.347739,-383.047749
244.607191,-2664.741391,-8142.265362,-919.314598
244.607519,-2072.576638,-8290.306550,-536.266849
244.607847,-1776.494261,-8290.306550,-612.876398
244.608174,-1554.432478,-8216.285956,0.000000
244.608502,-666.185348,-8068.244768,-229.828649
244.608829,-222.061783,-8882.471304,306.438199
244.609157,-370.102971,-9104.533087,306.438199
244.609485,222.061783,-9474.636058,689.485948
244.609812,740.205942,-9474.636058,842.705048
244.610140,1332.370696,-9178.553681,1302.362347
244.610468,1480.411884,-9400.615463,1762.019645
244.610795,1850.514855,-9844.739029,1608.800546
244.611123,2146.597232,-9548.656652,1838.629195
244.611450,2072.576638,-9474.636058,1838.629195
244.611778,2146.597232,-9252.574275,2068.457845
244.612106,2220.617826,-9030.512492,1915.238745
244.612433,1702.473667,-8882.471304,1532.190996
244.612761,444.123565,-8956.491898,1608.800546
244.613089,1110.308913,-8882.471304,1302.362347
244.613416,222.061783,-9104.533087,1378.971896
244.613744,-1036.288319,-8512.368333,1378.971896
244.614071,-1480.411884,-9326.594869,842.705048
244.614399,-1924.535449,-9030.512492,689.485948
244.614727,-2516.700203,-9030.512492,306.438199
244.615054,-2442.679609,-8734.430116,76.609550
244.615382,-3034.844362,-9030.512492,229.828649
244.615710,-2812.782580,-8660.409521,-459.657299
244.616037,-2516.700203,-8364.327145,-153.219100
244.616365,-2516.700203,-8216.285956,-536.266849
244.616692,-2220.617826,-8586.388927,-229.828649
244.617020,-2072.576638,-8290.306550,-229.828649
244.617348,-1406.391290,-8438.347739,153.219100
244.617675,-888.247130,-8734.430116,0.000000
244.618003,-592.164754,-9030.512492,229.828649
244.618331,0.000000,-9252.574275,153.219100
244.618658,518.144159,-9474.636058,76.609550
244.618986,1036.288319,-9548.656652,766.095498
244.619313,1184.329507,-9844.739029,842.705048
244.619641,1406.391290,-9918.759623,995.924147
244.619969,1628.453072,-9918.759623,1149.143247
244.620296,2072.576638,-9918.759623,1149.143247
244.620624,2220.617826,-9770.718434,1532.190996
244.620952,2368.659014,-9696.697840,1072.533697
244.621279,2220.617826,-9326.594869,1378.971896
244.621607,2072.576638,-9178.553681,1532.190996
244.621934,962.267725,-9400.615463,842.705048
244.622262,370.102971,-9770.718434,766.095498
244.622590,518.144159,-8808.450710,536.266849
244.622917,-1110.308913,-9400.615463,536.266849
244.623245,-1184.329507,-9252.574275,383.047749
244.623573,-1258.350101,-9104.533087,76.609550
244.623900,-2072.576638,-9104.533087,306.438199
244.624228,-1776.494261,-8956.491898,-153.219100
244.624556,-2368.659014,-8808.450710,-306.438199
244.624883,-2442.679609,-8734.430116,-689.485948
244.625211,-2294.638420,-8660.409521,-612.876398
244.625538,-2220.617826,-8438.347739,-536.266849
244.625866,-1332.370696,-8216.285956,-612.876398
244.626194,-1036.288319,-8068.244768,-383.047749
244.626521,-888.247130,-8586.388927,-153.219100
244.626849,-370.102971,-8882.471304,76.609550
244.627177,-148.041188,-9178.553681,383.047749
244.627504,0.000000,-8734.430116,459.657299
244.627832,296.082377,-9400.615463,842.705048
244.628159,666.185348,-9474.636058,1149.143247
244.628487,1332.370696,-9622.677246,1302.362347
244.628815,1628.453072,-9548.656652,1455.581446
244.629142,1924.535449,-9622.677246,1685.410096
244.629470,1776.494261,-9326.594869,1532.190996
244.629798,1776.494261,-9400.615463,1685.410096
244.630125,1776.494261,-9104.533087,1532.190996
244.630453,1184.329507,-9030.512492,1532.190996
244.630780,1332.370696,-9104.533087,2068.457845
244.631108,1110.308913,-9030.512492,1608.800546
244.631436,-444.123565,-9104.533087,1608.800546
244.631763,0.000000,-8586.388927,995.924147
244.632091,-1480.411884,-9104.533087,1072.533697
244.632419,-1924.535449,-9326.594869,612.876398
244.632746,-2220.617826,-8660.409521,459.657299
244.633074,-2738.761985,-9104.533087,383.047749
244.633401,-2664.741391,-8586.388927,76.609550
244.633729,-2516.700203,-8882.471304,0.000000
244.634057,-2442.679609,-8438.347739,-306.438199
244.634384,-1924.535449,-8808.450710,0.000000
244.634712,-1998.556043,-7994.224174,-306.438199
244.635040,-1850.514855,-8438.347739,-306.438199
244.635367,-1554.432478,-8364.327145,0.000000
244.635695,-1406.391290,-8734.430116,0.000000
244.636022,-222.061783,-9474.636058,76.609550
244.636350,-222.061783,-8956.491898,0.000000
244.636678,222.061783,-9474.636058,383.047749
244.637005,444.123565,-9548.656652,612.876398
244.637333,1036.288319,-9696.697840,689.485948
244.637661,1110.308913,-9696.697840,1378.971896
244.637988,1332.370696,-9474.636058,995.924147
244.638316,1776.494261,-9992.780217,1149.143247
244.638643,1924.535449,-9992.780217,1072.533697
244.638971,1924.535449,-9622.677246,1149.143247
244.639299,1924.535449,-9474.636058,1149.143247
244.639626,1554.432478,-9104.533087,995.924147
244.639954,1110.308913,-9474.636058,919.314598
244.640282,1480.411884,-9104.533087,766.095498
244.640609,370.102971,-9770.718434,536.266849
244.640937,-148.041188,-9252.574275,612.876398
244.641264,-592.164754,-9622.677246,459.657299
244.641592,-1184.329507,-9400.615463,0.000000
244.641920,-1998.556043,-9252.574275,0.000000
244.642247,-1924.535449,-9252.574275,76.609550
244.642575,-2516.700203,-8660.409521,0.000000
244.642903,-2220.617826,-8438.347739,-229.828649
244.643230,-2072.576638,-8438.347739,-383.047749
244.643558,-2590.720797,-8586.388927,-919.314598
244.643885,-1850.514855,-8068.244768,-766.095498
244.644213,-1702.473667,-8290.306550,-536.266849
244.644541,-1332.370696,-8142.265362,-536.266849
244.644868,-444.123565,-8882.471304,-536.266849
244.645196,-518.144159,-8882.471304,0.000000
244.645524,0.000000,-9104.533087,153.219100
244.645851,148.041188,-9178.553681,536.266849
244.646179,370.102971,-9548.656652,689.485948
244.646506,962.267725,-9474.636058,842.705048
244.646834,1332.370696,-9400.615463,1455.581446
244.647162,1702.473667,-9474.636058,1455.581446
244.647489,2072.576638,-9474.636058,1532.190996
244.647817,2146.597232,-9622.677246,1455.581446
244.648145,1924.535449,-9622.677246,1532.190996
244.648472,1924.535449,-8364.327145,1378.971896
244.648800,1258.350101,-8956.491898,995.924147
244.649128,1036.288319,-9252.574275,1455.581446
244.649455,1480.411884,-8882.471304,1072.533697
244.649783,592.164754,-9474.636058,536.266849
244.650110,-592.164754,-8734.430116,1838.629195
244.650438,-1110.308913,-9326.594869,919.314598
244.650766,-1850.514855,-9252.574275,1149.143247
244.651093,-2516.700203,-9178.553681,383.047749
244.651421,-2368.659014,-9104.533087,612.876398
244.651749,-2516.700203,-8660.409521,612.876398
244.652076,-2738.761985,-8512.368333,0.000000
244.652404,-2590.720797,-8512.368333,0.000000
244.652731,-2738.761985,-8290.306550,-153.219100
244.653059,-1850.514855,-8438.347739,0.000000
244.653386,-1628.453072,-8216.285956,0.000000
244.653714,-1480.411884,-8364.327145,-383.047749
244.654041,-1184.329507,-8586.388927,0.000000
244.654369,-1036.288319,-9104.533087,76.609550
244.654696,-222.061783,-9474.636058,612.876398
244.655024,370.102971,-9474.636058,842.705048
244.655351,444.123565,-9696.697840,842.705048
244.655679,888.247130,-9918.759623,995.924147
244.656006,1702.473667,-9918.759623,995.924147
244.656334,1480.411884,-10214.842000,766.095498
244.656661,2072.576638,-9844.739029,1149.143247
244.656989,2368.659014,-9770.718434,766.095498
244.657316,2072.576638,-9696.697840,1072.533697
244.657644,1628.453072,-9178.553681,1072.533697
244.657971,1554.432478,-9252.574275,689.485948
244.658299,1036.288319,-9474.636058,1149.143247
244.658626,1628.453072,-9104.533087,919.314598
244.658954,74.020594,-8882.471304,459.657299
244.659281,-592.164754,-9252.574275,842.705048
244.659609,-518.144159,-9326.594869,536.266849
244.659936,-1702.473667,-9104.533087,76.609550
244.660264,-2072.576638,-9400.615463,229.828649
244.660592,-1258.350101,-9030.512492,-153.219100
244.660919,-2368.659014,-9104.533087,-383.047749
244.661247,-2664.741391,-8216.285956,-536.266849
244.661574,-1850.514855,-8660.409521,-536.266849
244.661902,-1924.535449,-8216.285956,-766.095498
244.662229,-1628.453072,-8142.265362,-459.657299
244.662557,-1776.494261,-7994.224174,-919.314598
244.662884,-1110.308913,-8660.409521,-153.219100
244.663212,0.000000,-8660.409521,76.609550
244.663539,-370.102971,-9030.512492,0.000000
244.663867,-592.164754,-8586.388927,459.657299
244.664194,444.123565,-9622.677246,842.705048
244.664522,962.267725,-9696.697840,1072.533697
244.664849,1184.329507,-9548.656652,995.924147
244.665177,962.267725,-9326.594869,1149.143247
244.665504,1924.535449,-9918.759623,1762.019645
244.665832,2146.597232,-9474.636058,1685.410096
244.666159,2072.576638,-9548.656652,1532.190996
244.666487,1258.350101,-8660.409521,1608.800546
244.666814,2072.576638,-9474.636058,1838.629195
244.667142,2368.659014,-8660.409521,1532.190996
244.667469,0.000000,-8512.368333,689.485948
244.667797,740.205942,-9252.574275,1302.362347
244.668124,666.185348,-8660.409521,1532.190996
244.668452,-2368.659014,-8438.347739,766.095498
244.668779,-518.144159,-9474.636058,1149.143247
244.669107,-2220.617826,-8734.430116,0.000000
244.669434,-2738.761985,-9252.574275,383.047749
244.669762,-1258.350101,-8956.491898,536.266849
244.670089,-2960.823768,-9104.533087,-153.219100
244.670417,-2886.803174,-8364.327145,229.828649
244.670744,-2368.659014,-8364.327145,-842.705048
244.671072,-2368.659014,-8068.244768,-306.438199
244.671399,-1480.411884,-8364.327145,-153.219100
244.671727,-1332.370696,-8512.368333,-153.219100
244.672054,-1406.391290,-8512.368333,-383.047749
244.672382,-592.164754,-8734.430116,-306.438199
244.672709,-296.082377,-9252.574275,459.657299
244.673037,148.041188,-9326.594869,919.314598
244.673364,518.144159,-9918.759623,919.314598
244.673692,518.144159,-9622.677246,766.095498
244.674019,814.226536,-9696.697840,689.485948
244.674347,1554.432478,-9696.697840,919.314598
244.674674,1702.473667,-9992.780217,1149.143247
244.675002,2146.597232,-9992.780217,1225.752797
244.675329,1998.556043,-9770.718434,1072.533697
244.675657,1776.494261,-9474.636058,1225.752797
244.675984,1036.288319,-9104.533087,1455.581446
244.676312,1258.350101,-9548.656652,1302.362347
244.676639,1332.370696,-9400.615463,995.924147
244.676967,0.000000,-9474.636058,919.314598
244.677294,444.123565,-9474.636058,919.314598
244.677622,-666.185348,-9474.636058,229.828649
244.677949,-1924.535449,-9104.533087,153.219100
244.678277,-1924.535449,-9252.574275,229.828649
244.678604,-2294.638420,-9326.594869,153.219100
244.678932,-2220.617826,-9178.553681,-306.438199
244.679259,-2812.782580,-8216.285956,-459.657299
244.679587,-2294.638420,-8882.471304,-842.705048
244.679914,-1924.535449,-8216.285956,-612.876398
244.680242,-2072.576638,-8512.368333,-1225.752797
244.680569,-1110.308913,-8734.430116,-919.314598
244.680897,-1258.350101,-7920.203579,0.000000
244.681224,-1110.308913,-8364.327145,-383.047749
244.681552,0.000000,-8660.409521,0.000000
244.681879,-370.102971,-8956.491898,0.000000
244.682207,370.102971,-9474.636058,842.705048
244.682534,592.164754,-8956.491898,1072.533697
244.682862,1406.391290,-9548.656652,1149.143247
244.683189,1480.411884,-9400.615463,1149.143247
244.683517,1628.453072,-9696.697840,1225.752797
244.683844,1850.514855,-9474.636058,1532.190996
244.684172,2146.597232,-9622.677246,1225.752797
244.684499,2368.659014,-9030.512492,1378.971896
244.684827,1850.514855,-9030.512492,1455.581446
244.685154,1258.350101,-9104.533087,1072.533697
244.685482,740.205942,-8956.491898,1455.581446
244.685809,1258.350101,-8882.471304,1225.752797
244.686137,-148.041188,-9252.574275,1225.752797
244.686464,-444.123565,-9252.574275,1455.581446
244.686792,-1110.308913,-9178.553681,842.705048
244.687119,-2072.576638,-9030.512492,689.485948
244.687447,-2368.659014,-8882.471304,536.266849
244.687774,-2442.679609,-8734.430116,612.876398
244.688102,-2738.761985,-8734.430116,0.000000
244.688429,-2738.761985,-8586.388927,0.000000
244.688757,-2516.700203,-8660.409521,0.000000
244.689084,-2886.803174,-8290.306550,-229.828649
244.689412,-2072.576638,-8142.265362,-306.438199
244.689739,-1924.535449,-8216.285956,0.000000
244.690067,-1702.473667,-8438.347739,-153.219100
244.690394,-1258.350101,-8512.368333,0.000000
244.690722,-592.164754,-9104.533087,76.609550
244.691049,-370.102971,-9178.553681,459.657299
244.691377,148.041188,-9104.533087,383.047749
244.691704,444.123565,-9474.636058,459.657299
244.692032,1258.350101,-9992.780217,919.314598
244.692359,1554.432478,-10066.800811,1072.533697
244.692687,1628.453072,-9918.759623,1225.752797
244.693014,2220.617826,-9622.677246,919.314598
244.693342,2072.576638,-9474.636058,1455.581446
244.693669,1702.473667,-9622.677246,1378.971896
244.693997,2072.576638,-9474.636058,1378.971896
244.694324,1998.556043,-9252.574275,1072.533697
244.694652,814.226536,-9104.533087,1302.362347
244.694979,1554.432478,-9474.636058,1378.971896
244.695307,296.082377,-9326.594869,766.095498
244.695634,-962.267725,-9178.553681,842.705048
244.695962,-888.247130,-9400.615463,383.047749
244.696289,-1406.391290,-9178.553681,536.266849
244.696617,-2146.597232,-9178.553681,229.828649
244.696944,-1998.556043,-8956.491898,0.000000
244.697272,-2368.659014,-8956.491898,0.000000
244.697599,-2368.659014,-8586.388927,-153.219100
244.697927,-2368.659014,-8586.388927,-459.657299
244.698254,-2516.700203,-8142.265362,229.828649
244.698582,-1554.432478,-8438.347739,-383.047749
244.698909,-1554.432478,-8290.306550,-306.438199
244.699237,-1110.308913,-8586.388927,0.000000
244.699564,-592.164754,-8660.409521,0.000000
244.699892,-592.164754,-8438.347739,306.438199
244.700219,0.000000,-9030.512492,536.266849
244.700547,518.144159,-9474.636058,766.095498
244.700875,592.164754,-9474.636058,995.924147
244.701202,1184.329507,-9696.697840,1072.533697
244.701530,1628.453072,-9474.636058,1455.581446
244.701857,1850.514855,-9474.636058,1149.143247
244.702185,1850.514855,-9474.636058,1685.410096
244.702512,1776.494261,-9474.636058,1455.581446
244.702840,1850.514855,-9400.615463,1532.190996
244.703167,1998.556043,-8956.491898,1608.800546
244.703495,1776.494261,-8734.430116,1455.581446
244.703822,518.144159,-8808.450710,1149.143247
244.704150,222.061783,-9178.553681,1302.362347
244.704477,0.000000,-8586.388927,1302.362347
244.704805,-1184.329507,-8956.491898,1149.143247
244.705132,-1184.329507,-9030.512492,766.095498
244.705460,-1628.453072,-8956.491898,612.876398
244.705787,-2516.700203,-9252.574275,383.047749
244.706115,-2220.617826,-8734.430116,76.609550
244.706442,-2590.720797,-8734.430116,0.000000
244.706770,-2590.720797,-8438.347739,-153.219100
244.707097,-2368.659014,-8068.244768,0.000000
244.707425,-2294.638420,-8438.347739,-229.828649
244.707752,-1850.514855,-8512.368333,-383.047749
244.708080,-1332.370696,-8438.347739,-306.438199
244.708407,-1110.308913,-8660.409521,0.000000
244.708735,-888.247130,-8660.409521,153.219100
244.709062,-444.123565,-9252.574275,229.828649
244.709390,74.020594,-9474.636058,459.657299
244.709717,370.102971,-9548.656652,689.485948
244.710045,666.185348,-9844.739029,842.705048
244.710372,814.226536,-9918.759623,1302.362347
244.710700,1554.432478,-9770.718434,1149.143247
244.711027,1554.432478,-9844.739029,1225.752797
244.711355,1702.473667,-9770.718434,1149.143247
244.711682,1924.535449,-9474.636058,1378.971896
244.712010,1776.494261,-9178.553681,1608.800546
244.712337,1258.350101,-8882.471304,1455.581446
244.712665,1628.453072,-9622.677246,1455.581446
244.712992,888.247130,-9400.615463,766.095498
244.713320,-444.123565,-9474.636058,1149.143247
244.713647,74.020594,-9252.574275,689.485948
244.713975,-888.247130,-9548.656652,995.924147
244.714302,-1554.432478,-9252.574275,612.876398
244.714630,-1776.494261,-9474.636058,76.609550
244.714957,-2294.638420,-9400.615463,153.219100
244.715285,-2442.679609,-9104.533087,-153.219100
244.715612,-2146.597232,-8512.368333,-76.609550
244.715940,-2442.679609,-8660.409521,-612.876398
244.716267,-2294.638420,-8586.388927,-766.095498
244.716595,-1850.514855,-8438.347739,-689.485948
244.716922,-1702.473667,-8364.327145,-766.095498
244.717250,-962.267725,-8216.285956,-306.438199
244.717577,-740.205942,-8808.450710,0.000000
244.717905,-370.102971,-8808.450710,-153.219100
244.718232,148.041188,-9104.533087,0.000000
244.718560,296.082377,-9252.574275,306.438199
244.718887,74.020594,-9178.553681,1149.143247
244.719215,1702.473667,-9918.759623,842.705048
244.719542,1480.411884,-9696.697840,1225.752797
244.719870,1702.473667,-9622.677246,1378.971896
244.720197,1998.556043,-9548.656652,1532.190996
244.720525,2220.617826,-9474.636058,1838.629195
244.720852,2146.597232,-9474.636058,1532.190996
244.721180,1776.494261,-9326.594869,1532.190996
244.721507,1036.288319,-9030.512492,842.705048
244.721835,1036.288319,-9030.512492,1455.581446
244.722162,1184.329507,-8808.450710,1225.752797
244.722490,-148.041188,-9178.553681,1455.581446
244.722817,-296.082377,-9178.553681,1149.143247
244.723145,-962.267725,-9178.553681,919.314598
244.723472,-2146.597232,-9030.512492,689.485948
244.723800,-2368.659014,-8882.471304,383.047749
244.724127,-2442.679609,-8956.491898,612.876398
244.724455,-2886.803174,-8882.471304,306.438199
244.724782,-2960.823768,-8512.368333,76.609550
244.725110,-2738.761985,-8364.327145,-153.219100
244.725437,-2812.782580,-8438.347739,-306.438199
244.725765,-2368.659014,-8290.306550,229.828649
244.726092,-2294.638420,-8216.285956,-1072.533697
244.726420,-1924.535449,-8438.347739,0.000000
244.726747,-1184.329507,-8660.409521,0.000000
244.727075,-666.185348,-8808.450710,229.828649
244.727402,0.000000,-9178.553681,995.924147
244.727730,518.144159,-9770.718434,766.095498
244.728057,370.102971,-9770.718434,919.314598
244.728385,962.267725,-9918.759623,919.314598
244.728712,1036.288319,-10066.800811,1072.533697
244.729040,1480.411884,-9992.780217,1072.533697
244.729367,1924.535449,-9548.656652,1378.971896
244.729695,2146.597232,-9622.677246,1225.752797
244.730022,2368.659014,-9696.697840,1378.971896
244.730350,2442.679609,-9474.636058,1225.752797
244.730677,1702.473667,-9474.636058,612.876398
244.731005,1406.391290,-9104.533087,1455.581446
244.731332,1628.453072,-9252.574275,612.876398
244.731660,296.082377,-9770.718434,612.876398
244.731987,-222.061783,-9474.636058,459.657299
244.732315,-666.185348,-9474.636058,536.266849
244.732642,-1258.350101,-9252.574275,459.657299
244.732970,-1702.473667,-9104.533087,153.219100
244.733297,-2146.597232,-8956.491898,153.219100
244.733625,-2664.741391,-9030.512492,0.000000
244.733952,-2590.720797,-8882.471304,-229.828649
244.734280,-2368.659014,-8364.327145,-229.828649
244.734607,-2590.720797,-8216.285956,-459.657299
244.734935,-1702.473667,-8216.285956,-689.485948
244.735262,-1776.494261,-8290.306550,-459.657299
244.735590,-1406.391290,-8068.244768,-153.219100
244.735917,-1036.288319,-8438.347739,-229.828649
244.736245,-592.164754,-8586.388927,842.705048
244.736572,-222.061783,-9178.553681,229.828649
244.736900,148.041188,-9252.574275,766.095498
244.737227,518.144159,-9400.615463,995.924147
244.737555,1184.329507,-9622.677246,1149.143247
244.737882,1850.514855,-9474.636058,1608.800546
244.738210,1628.453072,-9696.697840,1455.581446
244.738537,1998.556043,-9622.677246,1685.410096
244.738865,1924.535449,-9474.636058,1532.190996
244.739192,1998.556043,-9252.574275,1762.019645
244.739520,1776.494261,-8956.491898,1302.362347
244.739847,1406.391290,-8956.491898,459.657299
244.740175,740.205942,-8956.491898,1378.971896
244.740502,1184.329507,-8956.491898,1149.143247
244.740830,74.020594,-9400.615463,1072.533697
244.741158,-888.247130,-8882.471304,919.314598
244.741485,-962.267725,-9104.533087,689.485948
244.741813,-2072.576638,-9326.594869,459.657299
244.742140,-2738.761985,-8956.491898,306.438199
244.742468,-2516.700203,-8734.430116,229.828649
244.742795,-2812.782580,-8660.409521,153.219100
244.743123,-2590.720797,-8364.327145,-306.438199
244.743450,-2516.700203,-8438.347739,76.609550
244.743778,-2368.659014,-8216.285956,-306.438199
244.744105,-1924.535449,-8290.306550,-383.047749
244.744433,-1850.514855,-8216.285956,-383.047749
244.744760,-1480.411884,-8216.285956,383.047749
244.745088,-444.123565,-8808.450710,0.000000
244.745415,-296.082377,-8956.491898,153.219100
244.745743,0.000000,-9252.574275,383.047749
244.746070,444.123565,-9400.615463,689.485948
244.746398,814.226536,-9400.615463,1225.752797
244.746725,1036.288319,-9696.697840,1225.752797
244.747053,1628.453072,-9992.780217,1149.143247
244.747380,1702.473667,-9918.759623,1225.752797
244.747708,1924.535449,-9844.739029,1072.533697
244.748035,1924.535449,-9770.718434,1302.362347
244.748363,2220.617826,-9474.636058,1455.581446
244.748690,2072.576638,-9474.636058,995.924147
244.749018,2072.576638,-9178.553681,1072.533697
244.749345,296.082377,-9178.553681,842.705048
244.749673,592.164754,-9400.615463,995.924147
244.750000,222.061783,-8808.450710,842.705048
244.750328,-1110.308913,-8956.491898,842.705048
244.750655,-1258.350101,-9178.553681,459.657299
244.750983,-1554.432478,-9252.574275,306.438199
244.751310,-2368.659014,-9252.574275,0.000000
244.751638,-1998.556043,-8882.471304,153.219100
244.751966,-2072.576638,-8734.430116,-536.266849
244.752293,-2664.741391,-8660.409521,-689.485948
244.752621,-2368.659014,-8660.409521,-459.657299
244.752948,-2220.617826,-8290.306550,-612.876398
244.753276,-1258.350101,-8068.244768,-919.314598
244.753604,-814.226536,-8364.327145,-383.047749
244.753931,-962.267725,-8586.388927,-459.657299
244.754259,-370.102971,-8808.450710,-153.219100
244.754587,0.000000,-9030.512492,0.000000
244.754914,296.082377,-9252.574275,229.828649
244.755242,1036.288319,-9400.615463,1532.190996
244.755569,962.267725,-9400.615463,1225.752797
244.755897,1332.370696,-9622.677246,1302.362347
244.756225,1850.514855,-9622.677246,1302.362347
244.756552,1998.556043,-9622.677246,1455.581446
244.756880,2368.659014,-9622.677246,1302.362347
244.757208,2072.576638,-9178.553681,1608.800546
244.757535,1850.514855,-9178.553681,1532.190996
244.757863,1406.391290,-9252.574275,1685.410096
244.758190,1406.391290,-9178.553681,1838.629195
244.758518,1036.288319,-8660.409521,1378.971896
244.758846,-370.102971,-8808.450710,1608.800546
244.759173,0.000000,-8660.409521,1225.752797
244.759501,-1406.391290,-9178.553681,995.924147
244.759829,-2072.576638,-9178.553681,842.705048
244.760156,-2146.597232,-8660.409521,612.876398
244.760484,-2368.659014,-8956.491898,842.705048
244.760811,-2886.803174,-8808.450710,0.000000
244.761139,-3034.844362,-8586.388927,0.000000
244.761467,-2738.761985,-8512.368333,-383.047749
244.761794,-2590.720797,-8512.368333,-383.047749
244.762122,-2146.597232,-8438.347739,-612.876398
244.762450,-2146.597232,-8438.347739,-459.657299
244.762777,-1702.473667,-8290.306550,-383.047749
244.763105,-1332.370696,-8734.430116,0.000000
244.763432,-740.205942,-8956.491898,0.000000
244.763760,148.041188,-9178.553681,153.219100
244.764088,148.041188,-9400.615463,306.438199
244.764415,592.164754,-9622.677246,689.485948
244.764743,1036.288319,-9844.739029,612.876398
244.765071,1332.370696,-10066.800811,1072.533697
244.765398,1924.535449,-9918.759623,919.314598
244.765726,2146.597232,-9622.677246,1225.752797
244.766053,2294.638420,-9770.718434,995.924147
244.766381,2368.659014,-9548.656652,1225.752797
244.766709,2368.659014,-9622.677246,1302.362347
244.767036,1628.453072,-9400.615463,1378.971896
244.767364,1480.411884,-9104.533087,1915.238745
244.767692,1554.432478,-9252.574275,995.924147
244.768019,-370.102971,-9326.594869,995.924147
244.768347,0.000000,-9548.656652,766.095498
244.768675,-814.226536,-9400.615463,766.095498
244.769002,-1480.411884,-8882.471304,689.485948
244.769330,-1850.514855,-8956.491898,0.000000
244.769657,-2146.597232,-9104.533087,383.047749
244.769985,-2294.638420,-8808.450710,0.000000
244.770313,-2590.720797,-8660.409521,0.000000
244.770640,-2368.659014,-8142.265362,229.828649
244.770968,-2368.659014,-8734.430116,-919.314598
244.771296,-1776.494261,-8438.347739,-689.485948
244.771623,-1998.556043,-8142.265362,-306.438199
244.771951,-1332.370696,-8290.306550,-306.438199
244.772278,-592.164754,-8586.388927,153.219100
244.772606,-444.123565,-8882.471304,459.657299
244.772934,-222.061783,-8956.491898,153.219100
244.773261,0.000000,-9178.553681,306.438199
244.773589,592.164754,-9548.656652,766.095498
244.773917,1110.308913,-9622.677246,995.924147
244.774244,1406.391290,-9548.656652,1455.581446
244.774572,1702.473667,-9474.636058,1302.362347
244.774899,2220.617826,-9474.636058,1762.019645
244.775227,1998.556043,-9548.656652,1762.019645
244.775555,1924.535449,-9326.594869,1608.800546
244.775882,1776.494261,-9474.636058,1915.238745
244.776210,1110.308913,-9252.574275,1532.190996
244.776538,1184.329507,-9326.594869,2298.286494
244.776865,962.267725,-8882.471304,1608.800546
244.777193,-518.144159,-9104.533087,1378.971896
244.777520,74.020594,-8956.491898,1455.581446
244.777848,-1332.370696,-8956.491898,1072.533697
244.778176,-2146.597232,-9252.574275,842.705048
244.778503,-2220.617826,-9104.533087,229.828649
244.778831,-2886.803174,-8808.450710,306.438199
244.779159,-2590.720797,-8364.327145,0.000000
244.779486,-2368.659014,-8290.306550,153.219100
244.779814,-2516.700203,-8290.306550,-306.438199
244.780141,-2664.741391,-8290.306550,-383.047749
244.780469,-1850.514855,-8586.388927,0.000000
244.780797,-1850.514855,-8438.347739,-536.266849
244.781124,-888.247130,-8364.327145,0.000000
244.781452,-962.267725,-8808.450710,0.000000
244.781780,-518.144159,-9178.553681,0.000000
244.782107,0.000000,-9474.636058,536.266849
244.782435,296.082377,-9548.656652,766.095498
244.782763,814.226536,-9474.636058,1608.800546
244.783090,1184.329507,-9844.739029,919.314598
244.783418,1258.350101,-10066.800811,995.924147
244.783745,1406.391290,-9844.739029,995.924147
244.784073,1850.514855,-9696.697840,919.314598
244.784401,1998.556043,-9104.533087,1378.971896
244.784728,2072.576638,-9474.636058,1762.019645
244.785056,1850.514855,-9474.636058,1225.752797
244.785384,1110.308913,-9104.533087,459.657299
244.785711,740.205942,-9104.533087,1072.533697
244.786039,1258.350101,-8586.388927,919.314598
244.786366,296.082377,-9696.697840,919.314598
244.786694,-666.185348,-9178.553681,766.095498
244.787022,-962.267725,-9252.574275,306.438199
244.787349,-1554.432478,-8956.491898,383.047749
244.787677,-2146.597232,-9178.553681,0.000000
244.788005,-1702.473667,-9400.615463,0.000000
244.788332,-2516.700203,-8956.491898,-459.657299
244.788660,-2368.659014,-8660.409521,-459.657299
244.788987,-2146.597232,-8438.347739,-842.705048
244.789315,-2368.659014,-8586.388927,-919.314598
244.789643,-1332.370696,-8512.368333,-229.828649
244.789970,-1258.350101,-8216.285956,-536.266849
244.790298,-1036.288319,-8512.368333,-306.438199
244.790626,-444.123565,-8882.471304,0.000000
244.790953,-222.061783,-9030.512492,76.609550
244.791281,296.082377,-9474.636058,153.219100
244.791608,592.164754,-9104.533087,766.095498
244.791936,740.205942,-9400.615463,995.924147
244.792264,1184.329507,-9474.636058,1225.752797
244.792591,1702.473667,-9622.677246,1455.581446
244.792919,1924.535449,-9622.677246,1455.581446
244.793247,2220.617826,-9474.636058,2068.457845
244.793574,1850.514855,-9548.656652,1685.410096
244.793902,1850.514855,-9400.615463,1532.190996
244.794229,1776.494261,-8956.491898,1991.848295
244.794557,1776.494261,-8956.491898,1455.581446
244.794885,592.164754,-8882.471304,1608.800546
244.795212,444.123565,-9104.533087,1225.752797
244.795540,-222.061783,-8882.471304,1532.190996
244.795868,-1480.411884,-9030.512492,1149.143247
244.796195,-1776.494261,-9030.512492,766.095498
244.796523,-2516.700203,-8808.450710,689.485948
244.796851,-2886.803174,-9178.553681,383.047749
244.797178,-2886.803174,-8882.471304,0.000000
244.797506,-3108.864956,-8882.471304,76.609550
244.797833,-2886.803174,-8512.368333,-306.438199
244.798161,-2442.679609,-8290.306550,76.609550
244.798489,-2072.576638,-7846.182985,-229.828649
244.798816,-1998.556043,-8586.388927,-229.828649
244.799144,-1628.453072,-8512.368333,-153.219100
244.799472,-1480.411884,-8660.409521,0.000000
244.799799,-444.123565,-9030.512492,76.609550
244.800127,0.000000,-9104.533087,153.219100
244.800454,74.020594,-9474.636058,612.876398
244.800782,740.205942,-9622.677246,766.095498
244.801110,1036.288319,-9844.739029,766.095498
244.801437,1184.329507,-9918.759623,842.705048
244.801765,1332.370696,-9548.656652,1072.533697
244.802093,2220.617826,-10140.821405,919.314598
244.802420,2294.638420,-9918.759623,995.924147
244.802748,2220.617826,-9400.615463,1149.143247
244.803075,2368.659014,-9622.677246,1302.362347
244.803403,1998.556043,-9252.574275,1225.752797
244.803731,1850.514855,-9474.636058,1225.752797
244.804058,1332.370696,-9178.553681,766.095498
244.804386,-370.102971,-9252.574275,1072.533697
244.804714,148.041188,-9400.615463,842.705048
244.805041,-1184.329507,-9252.574275,612.876398
244.805369,-1332.370696,-9178.553681,459.657299
244.805696,-1628.453072,-9178.553681,153.219100
244.806024,-2368.659014,-8956.491898,229.828649
244.806352,-2442.679609,-8734.430116,-229.828649
244.806679,-2368.659014,-9030.512492,0.000000
244.807007,-2368.659014,-8660.409521,-459.657299
244.807335,-2516.700203,-8142.265362,-842.705048
244.807662,-1554.432478,-8734.430116,-612.876398
244.807990,-1554.432478,-8364.327145,-229.828649
244.808317,-962.267725,-8216.285956,-306.438199
244.808645,-1036.288319,-8438.347739,0.000000
244.808973,-740.205942,-8586.388927,-153.219100
244.809300,0.000000,-9400.615463,459.657299
244.809628,74.020594,-9178.553681,536.266849
244.809956,518.144159,-9474.636058,612.876398
244.810283,1554.432478,-9844.739029,1225.752797
244.810611,1480.411884,-8956.491898,1455.581446
244.810938,1480.411884,-9474.636058,1378.971896
244.811266,1998.556043,-9622.677246,1762.019645
244.811594,2146.597232,-9474.636058,1685.410096
244.811921,1850.514855,-9104.533087,1532.190996
244.812249,1554.432478,-8734.430116,1838.629195
244.812577,1184.329507,-9326.594869,1455.581446
244.812904,1258.350101,-9178.553681,1762.019645
244.813232,1332.370696,-8882.471304,1608.800546
244.813560,-666.185348,-9178.553681,1455.581446
244.813887,0.000000,-9252.574275,919.314598
244.814215,-1628.453072,-9104.533087,995.924147
244.814542,-2294.638420,-9030.512492,612.876398
244.814870,-2442.679609,-8734.430116,383.047749
244.815198,-3108.864956,-9104.533087,306.438199
244.815525,-2812.782580,-8364.327145,229.828649
244.815853,-2442.679609,-8586.388927,0.000000
244.816181,-2368.659014,-8216.285956,0.000000
244.816508,-2516.700203,-8364.327145,-153.219100
244.816836,-2220.617826,-8438.347739,-306.438199
244.817163,-1776.494261,-8364.327145,-536.266849
244.817491,-1332.370696,-8364.327145,0.000000
244.817819,-1036.288319,-8660.409521,0.000000
244.818146,-740.205942,-9030.512492,306.438199
244.818474,0.000000,-9548.656652,612.876398
244.818802,-222.061783,-9252.574275,459.657299
244.819129,74.020594,-9104.533087,766.095498
244.819457,1110.308913,-9622.677246,1072.533697
244.819784,1184.329507,-9622.677246,919.314598
244.820112,1258.350101,-9992.780217,919.314598
244.820440,1850.514855,-9770.718434,1302.362347
244.820767,2220.617826,-9622.677246,1532.190996
244.821095,1924.535449,-9326.594869,1072.533697
244.821423,1850.514855,-9548.656652,1149.143247
244.821750,1258.350101,-9252.574275,536.266849
244.822078,888.247130,-9474.636058,1072.533697
244.822405,1554.432478,-9030.512492,766.095498
244.822733,0.000000,-9400.615463,306.438199
244.823061,-592.164754,-9400.615463,536.266849
244.823388,-1110.308913,-9252.574275,459.657299
244.823716,-1776.494261,-9400.615463,229.828649
244.824044,-1850.514855,-8956.491898,0.000000
244.824371,-1776.494261,-8956.491898,-229.828649
244.824699,-2664.741391,-8660.409521,0.000000
244.825026,-2516.700203,-8438.347739,-842.705048
244.825354,-2220.617826,-8438.347739,-612.876398
244.825682,-2220.617826,-8216.285956,-536.266849
244.826009,-1480.411884,-8364.327145,-536.266849
244.826337,-1480.411884,-8216.285956,-612.876398
244.826665,-962.267725,-8290.306550,-306.438199
244.826992,-370.102971,-8586.388927,-229.828649
244.827320,-222.061783,-8956.491898,153.219100
244.827648,444.123565,-9400.615463,612.876398
244.827975,592.164754,-9252.574275,1072.533697
244.828303,962.267725,-9696.697840,1072.533697
244.828630,1480.411884,-9548.656652,1302.362347
244.828958,1702.473667,-9474.636058,1532.190996
244.829286,2072.576638,-9474.636058,1455.581446
244.829613,1850.514855,-9474.636058,2068.457845
244.829941,1924.535449,-9474.636058,1915.238745
244.830269,1850.514855,-9252.574275,1455.581446
244.830596,1776.494261,-9178.553681,1838.629195
244.830924,1702.473667,-8734.430116,1685.410096
244.831251,444.123565,-8882.471304,1455.581446
244.831579,296.082377,-8956.491898,1608.800546
244.831907,0.000000,-8734.430116,1455.581446
244.832234,-1480.411884,-9252.574275,995.924147
244.832562,-1776.494261,-9252.574275,1149.143247
244.832890,-2368.659014,-9474.636058,689.485948
244.833217,-2812.782580,-9178.553681,0.000000
244.833545,-2590.720797,-8956.491898,0.000000
244.833872,-2886.803174,-8956.491898,153.219100
244.834200,-2738.761985,-8660.409521,0.000000
244.834528,-2220.617826,-8438.347739,0.000000
244.834855,-2220.617826,-8216.285956,-383.047749
244.835183,-2146.597232,-8364.327145,-229.828649
244.835511,-1776.494261,-8512.368333,-153.219100
244.835838,-1258.350101,-8512.368333,0.000000
244.836166,-518.144159,-9104.533087,612.876398
244.836493,0.000000,-9104.533087,153.219100
244.836821,0.000000,-9474.636058,689.485948
244.837149,740.205942,-9622.677246,919.314598
244.837476,888.247130,-9696.697840,766.095498
244.837804,1258.350101,-9844.739029,1225.752797
244.838132,1554.432478,-9918.759623,995.924147
244.838459,1554.432478,-9844.739029,1225.752797
244.838787,2072.576638,-9696.697840,1225.752797
244.839114,2146.597232,-9474.636058,1149.143247
244.839442,1924.535449,-9326.594869,1302.362347
244.839770,1628.453072,-9326.594869,1302.362347
244.840097,1406.391290,-9474.636058,1378.971896
244.840425,1110.308913,-9030.512492,306.438199
244.840753,-444.123565,-9178.553681,995.924147
244.841080,222.061783,-9104.533087,612.876398
244.841408,-888.247130,-9252.574275,612.876398
244.841735,-1480.411884,-9178.553681,153.219100
244.842063,-1628.453072,-9104.533087,0.000000
244.842391,-1998.556043,-9178.553681,153.219100
244.842718,-2220.617826,-8734.430116,-229.828649
244.843046,-2368.659014,-8512.368333,0.000000
244.843374,-2368.659014,-8586.388927,-689.485948
244.843701,-2368.659014,-8438.347739,-536.266849
244.844029,-1850.514855,-8290.306550,-536.266849
244.844357,-1702.473667,-8290.306550,-383.047749
244.844684,-1184.329507,-8364.327145,-383.047749
244.845012,-1110.308913,-8438.347739,-842.705048
244.845339,-444.123565,-8660.409521,0.000000
244.845667,-222.061783,-9104.533087,76.609550
244.845995,0.000000,-9104.533087,459.657299
244.846322,518.144159,-9400.615463,766.095498
244.846650,1184.329507,-9252.574275,459.657299
244.846978,1702.473667,-9622.677246,1302.362347
244.847305,1702.473667,-9474.636058,1455.581446
244.847633,1850.514855,-9696.697840,1532.190996
244.847960,1850.514855,-9474.636058,1608.800546
244.848288,1998.556043,-9400.615463,1378.971896
244.848616,1776.494261,-9400.615463,1762.019645
244.848943,888.247130,-9252.574275,919.314598
244.849271,1036.288319,-9326.594869,1608.800546
244.849599,1110.308913,-8882.471304,1302.362347
244.849926,-444.123565,-8956.491898,1149.143247
244.850254,-370.102971,-9178.553681,689.485948
244.850581,-1332.370696,-9104.533087,536.266849
244.850909,-2072.576638,-9178.553681,459.657299
244.851237,-2516.700203,-9104.533087,153.219100
244.851564,-2368.659014,-9178.553681,153.219100
244.851892,-2590.720797,-8734.430116,153.219100
244.852220,-2590.720797,-8586.388927,0.000000
244.852547,-2368.659014,-8586.388927,0.000000
244.852875,-2516.700203,-8364.327145,-153.219100
244.853202,-1924.535449,-8438.347739,0.000000
244.853530,-1850.514855,-8216.285956,0.000000
244.853857,-1480.411884,-8512.368333,-153.219100
244.854185,-962.267725,-9030.512492,0.000000
244.854513,-592.164754,-9252.574275,153.219100
244.854840,0.000000,-9400.615463,536.266849
244.855168,740.205942,-9474.636058,612.876398
244.855495,370.102971,-9622.677246,842.705048
244.855823,1036.288319,-10066.800811,1149.143247
244.856150,1406.391290,-9992.780217,766.095498
244.856478,1406.391290,-9992.780217,842.705048
244.856806,1998.556043,-9770.718434,995.924147
244.857133,1850.514855,-9622.677246,1455.581446
244.857461,2368.659014,-9474.636058,1225.752797
244.857788,1998.556043,-9400.615463,1378.971896
244.858116,1480.411884,-9178.553681,612.876398
244.858443,888.247130,-9622.677246,1455.581446
244.858771,1036.288319,-8808.450710,842.705048
244.859099,0.000000,-9548.656652,842.705048
244.859426,-740.205942,-9030.512492,919.314598
244.859754,-888.247130,-9400.615463,612.876398
244.860081,-1480.411884,-8956.491898,306.438199
244.860409,-2368.659014,-8808.450710,0.000000
244.860736,-1850.514855,-8586.388927,306.438199
244.861064,-2442.679609,-8956.491898,0.000000
244.861391,-2368.659014,-8512.368333,-383.047749
244.861719,-2072.576638,-8956.491898,-459.657299
244.862047,-2368.659014,-7772.162391,-766.095498
244.862374,-1554.432478,-8660.409521,-536.266849
244.862702,-1406.391290,-8290.306550,-459.657299
244.863029,-1110.308913,-8512.368333,-229.828649
244.863357,-148.041188,-8808.450710,0.000000
244.863684,0.000000,-8438.347739,1225.752797
244.864012,148.041188,-8956.491898,536.266849
244.864340,222.061783,-9548.656652,919.314598
244.864667,592.164754,-9548.656652,995.924147
244.864995,1332.370696,-9474.636058,995.924147
244.865322,1702.473667,-9474.636058,1915.238745
244.865650,1554.432478,-10066.800811,1608.800546
244.865977,1776.494261,-9844.739029,1378.971896
244.866305,1776.494261,-9474.636058,1455.581446
244.866633,1998.556043,-9252.574275,1532.190996
244.866960,1776.494261,-8808.450710,1685.410096
244.867288,1702.473667,-9104.533087,1838.629195
244.867615,592.164754,-9178.553681,1378.971896
244.867943,370.102971,-9252.574275,1302.362347
244.868270,-444.123565,-8512.368333,1608.800546
244.868598,-1480.411884,-8808.450710,995.924147
244.868925,-1850.514855,-9030.512492,536.266849
244.869253,-2294.638420,-9030.512492,383.047749
244.869581,-2812.782580,-9178.553681,229.828649
244.869908,-2368.659014,-8734.430116,76.609550
244.870236,-2886.803174,-8734.430116,0.000000
244.870563,-2812.782580,-8438.347739,-76.609550
244.870891,-2294.638420,-8586.388927,0.000000
244.871218,-2368.659014,-8142.265362,-306.438199
244.871546,-1850.514855,-8216.285956,0.000000
244.871874,-1554.432478,-8512.368333,-153.219100
244.872201,-1332.370696,-8734.430116,0.000000
244.872529,-592.164754,-8660.409521,306.438199
244.872856,-296.082377,-8956.491898,229.828649
244.873184,148.041188,-9474.636058,612.876398
244.873511,592.164754,-9548.656652,842.705048
244.873839,666.185348,-9992.780217,919.314598
244.874166,1480.411884,-10066.800811,919.314598
244.874494,1554.432478,-9844.739029,1149.143247
244.874822,1628.453072,-9770.718434,1072.533697
244.875149,1924.535449,-10066.800811,1225.752797
244.875477,1998.556043,-9474.636058,1302.362347
244.875804,2294.638420,-9030.512492,1532.190996
244.876132,1850.514855,-9030.512492,919.314598
244.876459,1628.453072,-9474.636058,1838.629195
244.876787,1258.350101,-9252.574275,612.876398
244.877115,-296.082377,-9474.636058,1149.143247
244.877442,-222.061783,-8734.430116,383.047749
244.877770,-1258.350101,-9326.594869,612.876398
244.878097,-1406.391290,-9178.553681,306.438199
244.878425,-1480.411884,-9252.574275,229.828649
244.878752,-2294.638420,-9252.574275,76.609550
244.879080,-2220.617826,-9104.533087,-229.828649
244.879408,-2368.659014,-8660.409521,-842.705048
244.879735,-2590.720797,-8808.450710,-536.266849
244.880063,-2220.617826,-8660.409521,-842.705048
244.880390,-1924.535449,-8512.368333,-995.924147
244.880718,-1776.494261,-8364.327145,-536.266849
244.881045,-666.185348,-8364.327145,-766.095498
244.881373,-962.267725,-8438.347739,0.000000
244.881700,-592.164754,-8956.491898,0.000000
244.882028,-148.041188,-9104.533087,0.000000
244.882356,0.000000,-9400.615463,459.657299
244.882683,814.226536,-9326.594869,766.095498
244.883011,1036.288319,-9400.615463,766.095498
244.883338,1480.411884,-9474.636058,1378.971896
244.883666,1776.494261,-9548.656652,1225.752797
244.883993,1924.535449,-9548.656652,1608.800546
244.884321,1776.494261,-9548.656652,2068.457845
244.884649,2220.617826,-9474.636058,1915.238745
244.884976,1850.514855,-9178.553681,1455.581446
244.885304,1480.411884,-9326.594869,1455.581446
244.885631,1406.391290,-9326.594869,1838.629195
244.885959,888.247130,-8882.471304,1302.362347
244.886286,-370.102971,-8956.491898,2221.676944
244.886614,0.000000,-9104.533087,1225.752797
244.886942,-1480.411884,-9326.594869,766.095498
244.887269,-2294.638420,-9252.574275,536.266849
244.887597,-2220.617826,-8956.491898,459.657299
244.887924,-2442.679609,-8882.471304,536.266849
244.888252,-2664.741391,-8660.409521,306.438199
244.888579,-2738.761985,-8586.388927,0.000000
244.888907,-2590.720797,-8660.409521,0.000000
244.889234,-2368.659014,-8364.327145,-153.219100
244.889562,-1924.535449,-8068.244768,153.219100
244.889890,-1554.432478,-8364.327145,-306.438199
244.890217,-1480.411884,-8586.388927,-153.219100
244.890545,-888.247130,-8660.409521,0.000000
244.890872,-370.102971,-8956.491898,76.609550
244.891200,0.000000,-8882.471304,76.609550
244.891527,148.041188,-9474.636058,383.047749
244.891855,666.185348,-9696.697840,842.705048
244.892183,962.267725,-9844.739029,842.705048
244.892510,1406.391290,-9844.739029,1072.533697
244.892838,1628.453072,-9992.780217,919.314598
244.893165,2072.576638,-9548.656652,842.705048
244.893493,1998.556043,-9622.677246,1302.362347
244.893820,1998.556043,-9474.636058,1378.971896
244.894148,1998.556043,-9474.636058,1225.752797
244.894476,1184.329507,-8956.491898,612.876398
244.894803,740.205942,-9030.512492,1838.629195
244.895131,1258.350101,-8956.491898,612.876398
244.895458,148.041188,-9622.677246,689.485948
244.895786,-814.226536,-9104.533087,689.485948
244.896113,-888.247130,-9326.594869,383.047749
244.896441,-1258.350101,-9178.553681,842.705048
244.896768,-2368.659014,-8512.368333,153.219100
244.897096,-2072.576638,-9178.553681,76.609550
244.897424,-2442.679609,-8734.430116,-306.438199
244.897751,-2368.659014,-8438.347739,-383.047749
244.898079,-1998.556043,-8438.347739,-536.266849
244.898406,-2294.638420,-7772.162391,-766.095498
244.898734,-1480.411884,-8142.265362,-459.657299
244.899061,-1258.350101,-8586.388927,0.000000
244.899389,-888.247130,-8438.347739,0.000000
244.899717,-592.164754,-8586.388927,76.609550
244.900044,-518.144159,-8882.471304,612.876398
244.900372,148.041188,-9474.636058,612.876398
244.900699,592.164754,-9474.636058,919.314598
244.901027,740.205942,-9400.615463,1378.971896
244.901354,1258.350101,-9474.636058,1149.143247
244.901682,1924.535449,-9474.636058,1685.410096
244.902010,1924.535449,-9770.718434,1608.800546
244.902337,1998.556043,-9622.677246,1532.190996
244.902665,1924.535449,-9400.615463,1532.190996
244.902992,1776.494261,-9252.574275,1762.019645
244.903320,1776.494261,-8734.430116,2145.067394
244.903647,1628.453072,-8808.450710,1991.848295
244.903975,592.164754,-8956.491898,1225.752797
244.904302,0.000000,-9178.553681,1685.410096
244.904630,-296.082377,-8438.347739,1378.971896
244.904958,-1628.453072,-9252.574275,1149.143247
244.905285,-1554.432478,-9030.512492,919.314598
244.905613,-2294.638420,-8882.471304,612.876398
244.905940,-2812.782580,-9178.553681,229.828649
244.906268,-2590.720797,-8660.409521,76.609550
244.906595,-2960.823768,-8882.471304,0.000000
244.906923,-2590.720797,-8438.347739,0.000000
244.907251,-2368.659014,-8512.368333,-306.438199
244.907578,-2368.659014,-8734.430116,-306.438199
244.907906,-1850.514855,-8586.388927,-459.657299
244.908233,-1406.391290,-8586.388927,-153.219100
244.908561,-1184.329507,-8512.368333,-229.828649
244.908888,-592.164754,-8808.450710,153.219100
244.909216,0.000000,-9178.553681,0.000000
244.909544,74.020594,-9474.636058,459.657299
244.909871,666.185348,-9770.718434,689.485948
244.910199,1036.288319,-9844.739029,536.266849
244.910526,1258.350101,-9770.718434,919.314598
244.910854,1406.391290,-9696.697840,842.705048
244.911181,1850.514855,-9918.759623,919.314598
244.911509,1998.556043,-9622.677246,842.705048
244.911836,2220.617826,-9474.636058,1225.752797
244.912164,2294.638420,-9104.533087,1072.533697
244.912492,1776.494261,-9178.553681,919.314598
244.912819,1554.432478,-9474.636058,1455.581446
244.913147,1184.329507,-9400.615463,689.485948
244.913474,-444.123565,-9474.636058,919.314598
244.913802,222.061783,-9326.594869,0.000000
244.914129,-1184.329507,-9252.574275,459.657299
244.914457,-1406.391290,-9326.594869,383.047749
244.914785,-1554.432478,-9030.512492,0.000000
244.915112,-2146.597232,-9252.574275,153.219100
244.915440,-2294.638420,-8882.471304,536.266849
244.915767,-2368.659014,-8882.471304,-383.047749
244.916095,-2442.679609,-8438.347739,-689.485948
244.916422,-2442.679609,-8364.327145,-612.876398
244.916750,-1702.473667,-8512.368333,-536.266849
244.917078,-1776.494261,-7772.162391,-459.657299
244.917405,-1184.329507,-8216.285956,0.000000
244.917733,-1110.308913,-8364.327145,0.000000
244.918060,-666.185348,-8660.409521,0.000000
244.918388,-518.144159,-9030.512492,76.609550
244.918715,0.000000,-9326.594869,383.047749
244.919043,518.144159,-9252.574275,1149.143247
244.919370,592.164754,-9474.636058,1072.533697
244.919698,1480.411884,-9770.718434,919.314598
244.920026,1480.411884,-9474.636058,1225.752797
244.920353,2072.576638,-9622.677246,1455.581446
244.920681,1998.556043,-9844.739029,1225.752797
244.921008,1776.494261,-9474.636058,1532.190996
244.921336,1776.494261,-9326.594869,1762.019645
244.921663,1332.370696,-9178.553681,1532.190996
244.921991,1406.391290,-9252.574275,1915.238745
244.922319,888.247130,-8956.491898,1685.410096
244.922646,-296.082377,-9178.553681,1838.629195
244.922974,74.020594,-9104.533087,1149.143247
244.923301,-1332.370696,-9178.553681,995.924147
244.923629,-1924.535449,-9104.533087,842.705048
244.923956,-2072.576638,-8882.471304,459.657299
244.924284,-2294.638420,-8734.430116,995.924147
244.924612,-2664.741391,-9104.533087,229.828649
244.924939,-2738.761985,-8808.450710,229.828649
244.925267,-2590.720797,-8438.347739,0.000000
244.925594,-2442.679609,-8586.388927,-153.219100
244.925922,-1998.556043,-8364.327145,-536.266849
244.926249,-2146.597232,-8586.388927,-229.828649
244.926577,-1406.391290,-8660.409521,-153.219100
244.926904,-1554.432478,-8660.409521,0.000000
244.927232,-740.205942,-8956.491898,229.828649
244.927560,-296.082377,-8808.450710,153.219100
244.927887,-148.041188,-9474.636058,459.657299
244.928215,74.020594,-9696.697840,689.485948
244.928542,888.247130,-9770.718434,995.924147
244.928870,1036.288319,-9770.718434,1072.533697
244.929197,1332.370696,-9844.739029,919.314598
244.929525,1850.514855,-9844.739029,1302.362347
244.929853,1776.494261,-9696.697840,1072.533697
244.930180,1924.535449,-9548.656652,1225.752797
244.930508,2220.617826,-9474.636058,1302.362347
244.930835,1702.473667,-9474.636058,1225.752797
244.931163,1924.535449,-9474.636058,1072.533697
244.931490,1184.329507,-9178.553681,612.876398
244.931818,-370.102971,-9400.615463,919.314598
244.932146,0.000000,-8882.471304,536.266849
244.932473,-1110.308913,-9474.636058,612.876398
244.932801,-1628.453072,-9178.553681,383.047749
244.933128,-1702.473667,-9030.512492,229.828649
244.933456,-2072.576638,-9178.553681,0.000000
244.933783,-2368.659014,-8808.450710,-229.828649
244.934111,-2294.638420,-8660.409521,-153.219100
244.934438,-2146.597232,-8660.409521,-383.047749
244.934766,-1480.411884,-8512.368333,-689.485948
244.935094,-1480.411884,-8438.347739,-612.876398
244.935421,-1554.432478,-8438.347739,-536.266849
244.935749,-1036.288319,-8364.327145,-459.657299
244.936076,-518.144159,-8586.388927,153.219100
244.936404,-296.082377,-8734.430116,0.000000
244.936731,0.000000,-9252.574275,76.609550
244.937059,74.020594,-9474.636058,689.485948
244.937387,740.205942,-9252.574275,766.095498
244.937714,1184.329507,-9622.677246,842.705048
244.938042,1332.370696,-9252.574275,1225.752797
244.938369,1850.514855,-9474.636058,1455.581446
244.938697,1998.556043,-9548.656652,1685.410096
244.939024,1924.535449,-9474.636058,1685.410096
244.939352,1776.494261,-9474.636058,1532.190996
244.939680,1628.453072,-8956.491898,1762.019645
244.940007,814.226536,-9178.553681,995.924147
244.940335,740.205942,-9326.594869,1532.190996
244.940662,740.205942,-9104.533087,1378.971896
244.940990,-370.102971,-9400.615463,1072.533697
244.941317,-444.123565,-8586.388927,1149.143247
244.941645,-1554.432478,-9104.533087,1149.143247
244.941972,-2368.659014,-9178.553681,689.485948
244.942300,-3034.844362,-8956.491898,0.000000
244.942628,-2516.700203,-9252.574275,459.657299
244.942955,-2590.720797,-8660.409521,229.828649
244.943283,-2442.679609,-8586.388927,383.047749
244.943610,-2368.659014,-8512.368333,153.219100
244.943938,-2738.761985,-8364.327145,-536.266849
244.944265,-1554.432478,-8660.409521,-153.219100
244.944593,-1924.535449,-8290.306550,-383.047749
244.944921,-1110.308913,-8660.409521,0.000000
244.945248,-1036.288319,-8808.450710,229.828649
244.945576,-518.144159,-9178.553681,76.609550
244.945903,0.000000,-9400.615463,536.266849
244.946231,518.144159,-9548.656652,612.876398
244.946558,296.082377,-9326.594869,995.924147
244.946886,1332.370696,-10140.821405,842.705048
244.947213,1628.453072,-9918.759623,766.095498
244.947541,1480.411884,-9844.739029,842.705048
244.947869,2146.597232,-10066.800811,766.095498
244.948196,2146.597232,-9474.636058,1149.143247
244.948524,2442.679609,-9548.656652,842.705048
244.948851,2368.659014,-9326.594869,1455.581446
244.949179,1776.494261,-9178.553681,689.485948
244.949506,666.185348,-9178.553681,842.705048
244.949834,1702.473667,-9622.677246,689.485948
244.950162,296.082377,-8956.491898,1225.752797
244.950489,-814.226536,-9104.533087,612.876398
244.950817,-888.247130,-9400.615463,306.438199
244.951144,-1258.350101,-8956.491898,536.266849
244.951472,-2442.679609,-9178.553681,0.000000
244.951800,-1628.453072,-8586.388927,229.828649
244.952127,-2590.720797,-8734.430116,-459.657299
244.952455,-2220.617826,-8512.368333,-459.657299
244.952782,-1628.453072,-8586.388927,-306.438199
244.953110,-2294.638420,-8438.347739,-842.705048
244.953438,-1332.370696,-8216.285956,0.000000
244.953765,-1332.370696,-7994.224174,-459.657299
244.954093,-1036.288319,-8808.450710,76.609550
244.954420,-1110.308913,-8216.285956,0.000000
244.954748,-296.082377,-8882.471304,536.266849
244.955076,-666.185348,-9178.553681,229.828649
244.955403,444.123565,-9400.615463,1302.362347
244.955731,740.205942,-9252.574275,842.705048
244.956058,1036.288319,-9326.594869,1302.362347
244.956386,1702.473667,-9622.677246,1532.190996
244.956714,1924.535449,-9548.656652,1685.410096
244.957041,1776.494261,-9104.533087,766.095498
244.957369,1776.494261,-9474.636058,1838.629195
244.957696,1850.514855,-8956.491898,1762.019645
244.958024,1702.473667,-9252.574275,1991.848295
244.958352,1258.350101,-8808.450710,1455.581446
244.958679,296.082377,-8882.471304,1915.238745
244.959007,740.205942,-9252.574275,1455.581446
244.959334,-222.061783,-8808.450710,1608.800546
244.959662,-1702.473667,-9104.533087,1455.581446
244.959990,-1554.432478,-8956.491898,1225.752797
244.960317,-2146.597232,-8956.491898,1072.533697
244.960645,-2886.803174,-9030.512492,459.657299
244.960972,-2590.720797,-8586.388927,229.828649
244.961300,-2738.761985,-8882.471304,229.828649
244.961628,-2590.720797,-8586.388927,0.000000
244.961955,-1850.514855,-8216.285956,229.828649
244.962283,-2220.617826,-8364.327145,229.828649
244.962610,-1776.494261,-8438.347739,0.000000
244.962938,-1702.473667,-8660.409521,-153.219100
244.963266,-1184.329507,-8660.409521,0.000000
244.963593,-814.226536,-9030.512492,153.219100
244.963921,0.000000,-8808.450710,612.876398
244.964248,74.020594,-9548.656652,306.438199
244.964576,370.102971,-9474.636058,919.314598
244.964904,666.185348,-9918.759623,995.924147
244.965231,1184.329507,-9844.739029,766.095498
244.965559,1480.411884,-9770.718434,1072.533697
244.965886,1554.432478,-9844.739029,995.924147
244.966214,1924.535449,-9844.739029,1072.533697
244.966542,1776.494261,-9696.697840,1302.362347
244.966869,2146.597232,-9252.574275,919.314598
244.967197,1480.411884,-9178.553681,1302.362347
244.967524,1480.411884,-9474.636058,1149.143247
244.967852,962.267725,-9252.574275,689.485948
244.968180,-444.123565,-9770.718434,919.314598
244.968507,0.000000,-9252.574275,536.266849
244.968835,-814.226536,-9178.553681,153.219100
244.969162,-1184.329507,-9474.636058,229.828649
244.969490,-1924.535449,-9178.553681,0.000000
244.969818,-2072.576638,-9104.533087,0.000000
244.970145,-2294.638420,-8734.430116,-383.047749
244.970473,-2220.617826,-8660.409521,-306.438199
244.970800,-2072.576638,-8438.347739,-459.657299
244.971128,-2294.638420,-8290.306550,-689.485948
244.971456,-1480.411884,-8364.327145,-536.266849
244.971783,-1554.432478,-8364.327145,-459.657299
244.972111,-666.185348,-8586.388927,0.000000
244.972438,-222.061783,-8660.409521,0.000000
244.972766,-296.082377,-8438.347739,229.828649
244.973094,74.020594,-9178.553681,459.657299
244.973421,222.061783,-9326.594869,689.485948
244.973749,740.205942,-9474.636058,919.314598
244.974076,1184.329507,-9400.615463,842.705048
244.974404,1480.411884,-9400.615463,1378.971896
244.974732,1480.411884,-9474.636058,1762.019645
244.975059,1776.494261,-9474.636058,1532.190996
244.975387,1702.473667,-9400.615463,1608.800546
244.975714,1554.432478,-9252.574275,1915.238745
244.976042,1332.370696,-8734.430116,1762.019645
244.976370,1258.350101,-8882.471304,1072.533697
244.976697,296.082377,-9104.533087,1455.581446
244.977025,888.247130,-8956.491898,1225.752797
244.977352,-222.061783,-9252.574275,995.924147
244.977680,-962.267725,-8882.471304,459.657299
244.978008,-1702.473667,-9030.512492,612.876398
244.978335,-2146.597232,-9326.594869,612.876398
244.978663,-2590.720797,-9178.553681,306.438199
244.978990,-2442.679609,-8882.471304,229.828649
244.979318,-2590.720797,-8586.388927,612.876398
244.979646,-2220.617826,-8586.388927,-153.219100
244.979973,-2368.659014,-8586.388927,0.000000
244.980301,-2368.659014,-8586.388927,-459.657299
244.980628,-1628.453072,-8660.409521,0.000000
244.980956,-1480.411884,-8290.306550,-76.609550
244.981284,-1110.308913,-8586.388927,0.000000
244.981611,-666.185348,-8956.491898,0.000000
244.981939,-296.082377,-9178.553681,153.219100
244.982266,0.000000,-9400.615463,459.657299
244.982594,444.123565,-9622.677246,536.266849
244.982922,1036.288319,-9474.636058,842.705048
244.983249,962.267725,-9696.697840,689.485948
244.983577,1332.370696,-9770.718434,612.876398
244.983904,1332.370696,-9770.718434,766.095498
244.984232,1850.514855,-10066.800811,919.314598
244.984560,2072.576638,-9918.759623,536.266849
244.984887,2072.576638,-9474.636058,1225.752797
244.985215,1998.556043,-9178.553681,1149.143247
244.985542,1776.494261,-9400.615463,1302.362347
244.985870,814.226536,-9252.574275,536.266849
244.986198,444.123565,-9696.697840,689.485948
244.986525,592.164754,-8734.430116,842.705048
244.986853,-740.205942,-9400.615463,689.485948
244.987180,-888.247130,-9400.615463,536.266849
244.987508,-1406.391290,-9252.574275,76.609550
244.987836,-1924.535449,-9326.594869,0.000000
244.988163,-1998.556043,-8882.471304,0.000000
244.988491,-2368.659014,-9030.512492,0.000000
244.988818,-2590.720797,-8660.409521,-459.657299
244.989146,-2072.576638,-8660.409521,-612.876398
244.989474,-2146.597232,-8586.388927,-612.876398
244.989801,-1998.556043,-8364.327145,-612.876398
244.990129,-1184.329507,-8068.244768,-612.876398
244.990456,-888.247130,-8660.409521,-306.438199
244.990784,-814.226536,-8512.368333,0.000000
244.991112,-518.144159,-8956.491898,306.438199
244.991439,0.000000,-8660.409521,842.705048
244.991767,518.144159,-9474.636058,919.314598
244.992094,740.205942,-9474.636058,842.705048
244.992422,1184.329507,-9474.636058,919.314598
244.992750,1776.494261,-9400.615463,1762.019645
244.993077,2072.576638,-9696.697840,2221.676944
244.993405,1702.473667,-9474.636058,1838.629195
244.993732,1924.535449,-9548.656652,1532.190996
244.994060,1850.514855,-9474.636058,1455.581446
244.994388,1554.432478,-8882.471304,1685.410096
244.994715,1776.494261,-8956.491898,2068.457845
244.995043,814.226536,-8660.409521,1302.362347
244.995370,296.082377,-9326.594869,1685.410096
244.995698,0.000000,-8734.430116,1608.800546
244.996026,-1480.411884,-9178.553681,1225.752797
244.996353,-1628.453072,-9178.553681,919.314598
244.996681,-2220.617826,-9474.636058,766.095498
244.997008,-2738.761985,-9252.574275,153.219100
244.997336,-2516.700203,-8734.430116,153.219100
244.997664,-2738.761985,-8734.430116,76.609550
244.997991,-2590.720797,-8438.347739,-306.438199
244.998319,-2146.597232,-7920.203579,-306.438199
244.998646,-2368.659014,-8068.244768,-306.438199
244.998974,-2072.576638,-8438.347739,0.000000
244.999302,-1480.411884,-8364.327145,0.000000
244.999629,-1480.411884,-8438.347739,-306.438199
244.999957,-814.226536,-8882.471304,0.000000
245.000284,-296.082377,-8956.491898,383.047749
245.000612,0.000000,-9474.636058,536.266849
245.000940,592.164754,-9548.656652,766.095498
245.001267,740.205942,-9622.677246,689.485948
245.001595,1184.329507,-9696.697840,689.485948
245.001922,1702.473667,-9696.697840,1149.143247
245.002250,2072.576638,-9770.718434,1072.533697
245.002578,2072.576638,-9844.739029,995.924147
245.002905,2220.617826,-9474.636058,1149.143247
245.003233,2072.576638,-9548.656652,1455.581446
245.003560,1776.494261,-9326.594869,2451.505594
245.003888,1776.494261,-9696.697840,1608.800546
245.004216,1110.308913,-9326.594869,919.314598
245.004543,-592.164754,-9178.553681,995.924147
245.004871,0.000000,-9030.512492,919.314598
245.005198,-1110.308913,-9326.594869,536.266849
245.005526,-1110.308913,-9326.594869,459.657299
245.005854,-1554.432478,-9030.512492,153.219100
245.006181,-1998.556043,-9030.512492,0.000000
245.006509,-2294.638420,-8808.450710,0.000000
245.006836,-2146.597232,-8734.430116,0.000000
245.007164,-2368.659014,-8512.368333,-536.266849
245.007492,-2072.576638,-8438.347739,-612.876398
245.007819,-1628.453072,-8290.306550,-689.485948
245.008147,-1480.411884,-8512.368333,-306.438199
245.008474,-814.226536,-8364.327145,-229.828649
245.008802,-444.123565,-8586.388927,229.828649
245.009130,-370.102971,-8956.491898,229.828649
245.009457,0.000000,-9252.574275,306.438199
245.009785,148.041188,-9474.636058,612.876398
245.010112,370.102971,-9474.636058,919.314598
245.010440,1332.370696,-9474.636058,2221.676944
245.010768,1258.350101,-9474.636058,1302.362347
245.011095,1554.432478,-9548.656652,1225.752797
245.011423,1776.494261,-9252.574275,1532.190996
245.011750,1776.494261,-9474.636058,1378.971896
245.012078,1776.494261,-9400.615463,2068.457845
245.012406,1628.453072,-8956.491898,1608.800546
245.012733,592.164754,-8956.491898,995.924147
245.013061,814.226536,-9326.594869,1608.800546
245.013388,740.205942,-9104.533087,1225.752797
245.013716,-888.247130,-9178.553681,1608.800546
245.014044,-666.185348,-9030.512492,842.705048
245.014371,-1332.370696,-9252.574275,842.705048
245.014699,-2146.597232,-9104.533087,536.266849
245.015026,-2368.659014,-8956.491898,76.609550
245.015354,-2368.659014,-8956.491898,306.438199
245.015682,-2368.659014,-8734.430116,383.047749
245.016009,-2516.700203,-8586.388927,0.000000
245.016337,-2072.576638,-8660.409521,0.000000
245.016664,-2294.638420,-8438.347739,-229.828649
245.016992,-1554.432478,-8364.327145,-153.219100
245.017320,-1554.432478,-8216.285956,306.438199
245.017647,-888.247130,-8808.450710,0.000000
245.017975,-592.164754,-8808.450710,229.828649
245.018302,-370.102971,-9400.615463,153.219100
245.018630,0.000000,-9326.594869,612.876398
245.018958,444.123565,-9474.636058,459.657299
245.019285,1184.329507,-9696.697840,919.314598
245.019613,1036.288319,-9548.656652,919.314598
245.019940,1480.411884,-9696.697840,995.924147
245.020268,1480.411884,-9696.697840,919.314598
245.020596,1776.494261,-9252.574275,995.924147
245.020923,1998.556043,-9474.636058,766.095498
245.021251,1850.514855,-9326.594869,919.314598
245.021578,1702.473667,-9326.594869,1225.752797
245.021906,1406.391290,-9178.553681,689.485948
245.022234,518.144159,-9400.615463,612.876398
245.022561,148.041188,-9548.656652,919.314598
245.022889,-296.082377,-8586.388927,1072.533697
245.023216,-1406.391290,-9178.553681,383.047749
245.023544,-1480.411884,-9474.636058,536.266849
245.023872,-1850.514855,-9104.533087,76.609550
245.024199,-2072.576638,-8956.491898,-536.266849
245.024527,-2220.617826,-8734.430116,153.219100
245.024854,-2368.659014,-8882.471304,-229.828649
245.025182,-2368.659014,-8808.450710,-459.657299
245.025510,-2146.597232,-8364.327145,-689.485948
245.025837,-2072.576638,-8142.265362,-1608.800546
245.026165,-1628.453072,-8142.265362,-459.657299
245.026492,-1110.308913,-8364.327145,-306.438199
245.026820,-888.247130,-8586.388927,-229.828649
245.027148,0.000000,-8808.450710,-383.047749
245.027475,222.061783,-8660.409521,76.609550
245.027803,444.123565,-8956.491898,536.266849
245.028130,888.247130,-9400.615463,612.876398
245.028458,962.267725,-9400.615463,689.485948
245.028786,1480.411884,-9474.636058,919.314598
245.029113,1628.453072,-9474.636058,995.924147
245.029441,1924.535449,-9178.553681,995.924147
245.029768,2072.576638,-9474.636058,1225.752797
245.030096,2072.576638,-9474.636058,1149.143247
245.030424,2072.576638,-9474.636058,1225.752797
245.030751,1184.329507,-9104.533087,995.924147
245.031079,1406.391290,-9252.574275,1685.410096
245.031406,1184.329507,-8660.409521,919.314598
245.031734,-370.102971,-9252.574275,1378.971896
245.032062,-222.061783,-9178.553681,1302.362347
245.032389,-1184.329507,-9030.512492,995.924147
245.032717,-2146.597232,-8734.430116,1149.143247
245.033044,-2146.597232,-8956.491898,383.047749
245.033372,-2590.720797,-9104.533087,689.485948
245.033700,-2738.761985,-8586.388927,306.438199
245.034027,-2664.741391,-8734.430116,229.828649
245.034355,-2590.720797,-8660.409521,0.000000
245.034682,-2442.679609,-8586.388927,-536.266849
245.035010,-2146.597232,-8364.327145,0.000000
245.035338,-1924.535449,-8438.347739,0.000000
245.035665,-1702.473667,-8438.347739,76.609550
245.035993,-1258.350101,-8882.471304,76.609550
245.036320,-740.205942,-9104.533087,0.000000
245.036648,-444.123565,-9178.553681,383.047749
245.036976,74.020594,-9548.656652,766.095498
245.037303,296.082377,-9474.636058,766.095498
245.037631,666.185348,-9992.780217,842.705048
245.037958,962.267725,-9622.677246,919.314598
245.038286,1480.411884,-9548.656652,1455.581446
245.038614,1702.473667,-9696.697840,1225.752797
245.038941,1998.556043,-9622.677246,1072.533697
245.039269,1850.514855,-9548.656652,995.924147
245.039596,2146.597232,-9770.718434,1302.362347
245.039924,888.247130,-8808.450710,842.705048
245.040252,1036.288319,-9400.615463,1149.143247
245.040579,1110.308913,-8882.471304,842.705048
245.040907,0.000000,-9326.594869,995.924147
245.041234,0.000000,-9400.615463,842.705048
245.041562,-592.164754,-9178.553681,612.876398
245.041890,-1480.411884,-9400.615463,612.876398
245.042217,-1776.494261,-9326.594869,153.219100
245.042545,-2146.597232,-9178.553681,0.000000
245.042872,-2368.659014,-8882.471304,0.000000
245.043200,-2146.597232,-8512.368333,-229.828649
245.043528,-1924.535449,-8586.388927,-306.438199
245.043855,-2072.576638,-8586.388927,-766.095498
245.044183,-1184.329507,-8438.347739,-536.266849
245.044510,-1332.370696,-8364.327145,-383.047749
245.044838,-1036.288319,-7772.162391,0.000000
245.045166,-222.061783,-8586.388927,-153.219100
245.045493,-740.205942,-8808.450710,0.000000
245.045821,0.000000,-9030.512492,229.828649
245.046148,296.082377,-9474.636058,766.095498
245.046476,740.205942,-9474.636058,1225.752797
245.046804,1110.308913,-9474.636058,1302.362347
245.047131,1184.329507,-9548.656652,1149.143247
245.047459,1406.391290,-9622.677246,1378.971896
245.047786,1702.473667,-9474.636058,1455.581446
245.048114,1702.473667,-9474.636058,1302.362347
245.048442,1924.535449,-8956.491898,1608.800546
245.048769,1406.391290,-8808.450710,1225.752797
245.049097,1110.308913,-8808.450710,689.485948
245.049424,518.144159,-9104.533087,1455.581446
245.049752,962.267725,-9030.512492,1225.752797
245.050080,74.020594,-9400.615463,919.314598
245.050407,-888.247130,-9104.533087,1072.533697
245.050735,-1036.288319,-9474.636058,689.485948
245.051062,-1998.556043,-9178.553681,766.095498
245.051390,-2368.659014,-9326.594869,383.047749
245.051718,-1924.535449,-9326.594869,612.876398
245.052045,-2664.741391,-8882.471304,-383.047749
245.052373,-2664.741391,-8882.471304,153.219100
245.052700,-2294.638420,-8734.430116,-153.219100
245.053028,-2368.659014,-8586.388927,-383.047749
245.053356,-1628.453072,-8438.347739,-306.438199
245.053683,-1702.473667,-8438.347739,0.000000
245.054011,-1110.308913,-8808.450710,-229.828649
245.054338,-740.205942,-8734.430116,0.000000
245.054666,-592.164754,-9178.553681,0.000000
245.054994,0.000000,-9474.636058,229.828649
245.055321,222.061783,-8882.471304,536.266849
245.055649,518.144159,-9548.656652,842.705048
245.055976,962.267725,-9918.759623,766.095498
245.056304,1258.350101,-9844.739029,995.924147
245.056632,1406.391290,-9622.677246,766.095498
245.056959,1924.535449,-9474.636058,1149.143247
245.057287,2294.638420,-9400.615463,1072.533697
245.057614,1850.514855,-9548.656652,1149.143247
245.057942,2072.576638,-9326.594869,1072.533697
245.058270,1924.535449,-9030.512492,919.314598
245.058597,740.205942,-9400.615463,612.876398
245.058925,1036.288319,-9104.533087,1685.410096
245.059252,370.102971,-9178.553681,459.657299
245.059580,-888.247130,-9400.615463,689.485948
245.059908,-962.267725,-9400.615463,229.828649
245.060235,-1332.370696,-9326.594869,229.828649
245.060563,-1998.556043,-9252.574275,1225.752797
245.060890,-1998.556043,-8882.471304,-76.609550
245.061218,-2368.659014,-9104.533087,-229.828649
245.061546,-2368.659014,-8808.450710,-383.047749
245.061873,-1998.556043,-8586.388927,-536.266849
245.062201,-2368.659014,-8142.265362,-536.266849
245.062528,-1554.432478,-8290.306550,-919.314598
245.062856,-1258.350101,-8364.327145,-459.657299
245.063184,-1036.288319,-8438.347739,-153.219100
245.063511,-592.164754,-8660.409521,0.000000
245.063839,-370.102971,-9030.512492,-229.828649
245.064166,0.000000,-9252.574275,229.828649
245.064494,592.164754,-9326.594869,459.657299
245.064822,740.205942,-9474.636058,612.876398
245.065149,1110.308913,-9548.656652,919.314598
245.065477,1406.391290,-9548.656652,1378.971896
245.065804,1850.514855,-9622.677246,1225.752797
245.066132,1850.514855,-9400.615463,1532.190996
245.066460,2146.597232,-9400.615463,1455.581446
245.066787,2072.576638,-9104.533087,1608.800546
245.067115,1998.556043,-9030.512492,1608.800546
245.067442,2146.597232,-9104.533087,995.924147
245.067770,296.082377,-8882.471304,1302.362347
245.068098,222.061783,-9326.594869,1608.800546
245.068425,0.000000,-8808.450710,1378.971896
245.068753,-1332.370696,-9400.615463,1225.752797
245.069080,-1554.432478,-9474.636058,995.924147
245.069408,-1702.473667,-9178.553681,536.266849
245.069736,-2664.741391,-9104.533087,306.438199
245.070063,-2220.617826,-9104.533087,229.828649
245.070391,-2738.761985,-8808.450710,459.657299
245.070718,-2812.782580,-8438.347739,0.000000
245.071046,-2368.659014,-8364.327145,0.000000
245.071374,-2220.617826,-8512.368333,-306.438199
245.071701,-1850.514855,-8290.306550,0.000000
245.072029,-1480.411884,-8290.306550,0.000000
245.072356,-1332.370696,-8808.450710,0.000000
245.072684,0.000000,-9400.615463,459.657299
245.073012,-148.041188,-9104.533087,383.047749
245.073339,0.000000,-9400.615463,536.266849
245.073667,296.082377,-9252.574275,1072.533697
245.073994,666.185348,-9622.677246,995.924147
245.074322,1110.308913,-9474.636058,995.924147
245.074650,1258.350101,-9918.759623,1149.143247
245.074977,1702.473667,-9622.677246,1149.143247
245.075305,2072.576638,-9696.697840,1072.533697
245.075633,1776.494261,-9474.636058,995.924147
245.075960,1776.494261,-9326.594869,1915.238745
245.076288,1406.391290,-9326.594869,995.924147
245.076615,1258.350101,-9474.636058,1532.190996
245.076943,888.247130,-9178.553681,842.705048
245.077271,-666.185348,-9400.615463,842.705048
245.077598,0.000000,-9252.574275,842.705048
245.077926,-888.247130,-8956.491898,459.657299
245.078253,-1850.514855,-9030.512492,306.438199
245.078581,-1850.514855,-8956.491898,0.000000
245.078909,-2368.659014,-9104.533087,0.000000
245.079236,-2368.659014,-8586.388927,-306.438199
245.079564,-1850.514855,-8586.388927,-383.047749
245.079891,-2072.576638,-8512.368333,-536.266849
245.080219,-1850.514855,-8290.306550,-689.485948
245.080547,-1406.391290,-8364.327145,-689.485948
245.080874,-1258.350101,-8364.327145,-306.438199
245.081202,-814.226536,-8068.244768,0.000000
245.081529,-666.185348,-8512.368333,-229.828649
245.081857,0.000000,-8882.471304,153.219100
245.082185,0.000000,-9178.553681,383.047749
245.082512,592.164754,-9400.615463,612.876398
245.082840,740.205942,-9030.512492,1072.533697
245.083167,1258.350101,-9622.677246,919.314598
245.083495,1332.370696,-9770.718434,1149.143247
245.083823,1628.453072,-9548.656652,1378.971896
245.084150,1998.556043,-9474.636058,1302.362347
245.084478,1702.473667,-9326.594869,1685.410096
245.084805,2146.597232,-9622.677246,1072.533697
245.085133,1406.391290,-8956.491898,1455.581446
245.085461,1110.308913,-8956.491898,1149.143247
245.085788,370.102971,-8956.491898,1302.362347
245.086116,666.185348,-9104.533087,1225.752797
245.086443,0.000000,-9178.553681,842.705048
245.086771,-1258.350101,-8808.450710,1378.971896
245.087099,-1480.411884,-9178.553681,612.876398
245.087426,-1998.556043,-9030.512492,612.876398
245.087754,-2442.679609,-9178.553681,536.266849
245.088081,-2072.576638,-8956.491898,0.000000
245.088409,-2368.659014,-8734.430116,383.047749
245.088737,-2590.720797,-8808.450710,0.000000
245.089064,-2220.617826,-8512.368333,0.000000
245.089392,-2220.617826,-8438.347739,-229.828649
245.089719,-1406.391290,-8142.265362,229.828649
245.090047,-1258.350101,-8364.327145,229.828649
245.090375,-1036.288319,-8586.388927,153.219100
245.090702,-814.226536,-8882.471304,76.609550
245.091030,-296.082377,-9104.533087,383.047749
245.091357,74.020594,-9326.594869,536.266849
245.091685,666.185348,-9474.636058,1072.533697
245.092013,740.205942,-9622.677246,919.314598
245.092340,1110.308913,-9474.636058,1302.362347
245.092668,1480.411884,-9696.697840,1072.533697
245.092995,1480.411884,-9918.759623,1225.752797
245.093323,1332.370696,-9474.636058,995.924147
245.093651,1850.514855,-9400.615463,1378.971896
245.093978,1702.473667,-9400.615463,1072.533697
245.094306,1258.350101,-9400.615463,1378.971896
245.094633,1258.350101,-9474.636058,1532.190996
245.094961,1110.308913,-8808.450710,766.095498
245.095289,-222.061783,-9252.574275,1149.143247
245.095616,0.000000,-8882.471304,842.705048
245.095944,-1110.308913,-9548.656652,612.876398
245.096271,-1554.432478,-9178.553681,306.438199
245.096599,-1258.350101,-8956.491898,0.000000
245.096927,-2146.597232,-9178.553681,0.000000
245.097254,-2294.638420,-9104.533087,-383.047749
245.097582,-2368.659014,-8956.491898,0.000000
245.097909,-2368.659014,-8586.388927,-383.047749
245.098237,-2220.617826,-8438.347739,-612.876398
245.098565,-1480.411884,-8364.327145,-1072.533697
245.098892,-1628.453072,-8290.306550,-612.876398
245.099220,-1110.308913,-8290.306550,-383.047749
245.099547,-962.267725,-8364.327145,-229.828649
245.099875,-444.123565,-8660.409521,0.000000
245.100203,-74.020594,-8586.388927,-229.828649
245.100530,74.020594,-9178.553681,459.657299
245.100858,666.185348,-9400.615463,459.657299
245.101185,1036.288319,-9474.636058,842.705048
245.101513,1184.329507,-9548.656652,995.924147
245.101841,1480.411884,-9770.718434,1225.752797
245.102168,1850.514855,-9474.636058,1302.362347
245.102496,1850.514855,-9474.636058,1225.752797
245.102823,1850.514855,-9030.512492,1302.362347
245.103151,1850.514855,-9104.533087,1378.971896
245.103479,666.185348,-8956.491898,1149.143247
245.103806,888.247130,-8882.471304,2221.676944
245.104134,1110.308913,-8808.450710,1149.143247
245.104462,-222.061783,-9252.574275,1378.971896
245.104789,-296.082377,-9326.594869,1302.362347
245.105117,-1110.308913,-9400.615463,995.924147
245.105444,-1628.453072,-9400.615463,1149.143247
245.105772,-1924.535449,-8808.450710,766.095498
245.106100,-2072.576638,-9178.553681,536.266849
245.106427,-2516.700203,-8734.430116,76.609550
245.106755,-2516.700203,-8808.450710,229.828649
245.107082,-2738.761985,-8438.347739,612.876398
245.107410,-2220.617826,-8438.347739,-153.219100
245.107738,-1776.494261,-8438.347739,0.000000
245.108065,-1998.556043,-8660.409521,0.000000
245.108393,-1332.370696,-8364.327145,0.000000
245.108720,-962.267725,-8586.388927,306.438199
245.109048,-740.205942,-8512.368333,306.438199
245.109376,-370.102971,-9400.615463,383.047749
245.109703,0.000000,-9548.656652,766.095498
245.110031,222.061783,-9548.656652,1072.533697
245.110358,518.144159,-9622.677246,1149.143247
245.110686,740.205942,-9918.759623,1608.800546
245.111014,1554.432478,-9770.718434,1225.752797
245.111341,1628.453072,-9622.677246,1225.752797
245.111669,1776.494261,-9770.718434,1149.143247
245.111996,1924.535449,-9622.677246,1302.362347
245.112324,1406.391290,-8734.430116,1225.752797
245.112652,740.205942,-9400.615463,689.485948
245.112979,740.205942,-9400.615463,1149.143247
245.113307,1184.329507,-9178.553681,766.095498
245.113634,148.041188,-9696.697840,689.485948
245.113962,0.000000,-9548.656652,612.876398
245.114290,-888.247130,-9252.574275,842.705048
245.114617,-1702.473667,-9400.615463,383.047749
245.114945,-1850.514855,-9400.615463,0.000000
245.115272,-1924.535449,-9178.553681,153.219100
245.115600,-2072.576638,-8808.450710,0.000000
245.115928,-1702.473667,-8586.388927,-229.828649
245.116255,-1776.494261,-8364.327145,-306.438199
245.116583,-1998.556043,-8216.285956,-459.657299
245.116910,-1332.370696,-8216.285956,-229.828649
245.117238,-1258.350101,-8290.306550,-229.828649
245.117566,-444.123565,-8290.306550,0.000000
245.117893,-370.102971,-8512.368333,-306.438199
245.118221,-222.061783,-8808.450710,76.609550
245.118548,370.102971,-9252.574275,459.657299
245.118876,444.123565,-9474.636058,612.876398
245.119204,1036.288319,-9400.615463,1072.533697
245.119531,1332.370696,-9548.656652,842.705048
245.119859,1258.350101,-9548.656652,1149.143247
245.120186,1332.370696,-9548.656652,1149.143247
245.120514,1628.453072,-9474.636058,1455.581446
245.120842,1702.473667,-8882.471304,1532.190996
245.121169,1924.535449,-9474.636058,1762.019645
245.121497,1628.453072,-8882.471304,1532.190996
245.121824,1258.350101,-9178.553681,1378.971896
245.122152,370.102971,-9178.553681,995.924147
245.122480,222.061783,-9104.533087,1072.533697
245.122807,0.000000,-8882.471304,1302.362347
245.123135,-1332.370696,-9030.512492,1225.752797
245.123462,-1628.453072,-9030.512492,842.705048
245.123790,-1776.494261,-9030.512492,536.266849
245.124118,-2368.659014,-9252.574275,229.828649
245.124445,-1924.535449,-8438.347739,-383.047749
245.124773,-2442.679609,-8660.409521,153.219100
245.125100,-2516.700203,-8438.347739,0.000000
245.125428,-2072.576638,-8660.409521,-229.828649
245.125756,-2294.638420,-8290.306550,0.000000
245.126083,-1850.514855,-8216.285956,383.047749
245.126411,-1110.308913,-8438.347739,-306.438199
245.126738,-1036.288319,-8586.388927,0.000000
245.127066,-444.123565,-8956.491898,229.828649
245.127394,-370.102971,-9030.512492,459.657299
245.127721,0.000000,-8956.491898,306.438199
245.128049,740.205942,-9696.697840,383.047749
245.128376,592.164754,-9770.718434,919.314598
245.128704,888.247130,-9844.739029,1149.143247
245.129032,1406.391290,-9844.739029,995.924147
245.129359,1332.370696,-9770.718434,1149.143247
245.129687,1998.556043,-9622.677246,766.095498
245.130014,1480.411884,-9622.677246,1149.143247
245.130342,1628.453072,-9474.636058,995.924147
245.130670,1036.288319,-9474.636058,842.705048
245.130997,888.247130,-9548.656652,1225.752797
245.131325,1184.329507,-9104.533087,919.314598
245.131653,0.000000,-9474.636058,689.485948
245.131980,0.000000,-9474.636058,536.266849
245.132308,-1036.288319,-9474.636058,306.438199
245.132635,-1554.432478,-9326.594869,459.657299
245.132963,-1628.453072,-9030.512492,229.828649
245.133291,-2220.617826,-9030.512492,76.609550
245.133618,-2368.659014,-9030.512492,0.000000
245.133946,-1998.556043,-8956.491898,-383.047749
245.134273,-1924.535449,-8808.450710,-536.266849
245.134601,-2294.638420,-8364.327145,-536.266849
245.134929,-1258.350101,-8512.368333,-689.485948
245.135256,-1480.411884,-8512.368333,-536.266849
245.135584,-888.247130,-8438.347739,-459.657299
245.135911,-814.226536,-8586.388927,-383.047749
245.136239,-518.144159,-8438.347739,229.828649
245.136567,148.041188,-8734.430116,383.047749
245.136894,296.082377,-9104.533087,459.657299
245.137222,592.164754,-9474.636058,536.266849
245.137549,1258.350101,-9474.636058,842.705048
245.137877,1332.370696,-9474.636058,995.924147
245.138205,1554.432478,-9474.636058,1685.410096
245.138532,1776.494261,-9474.636058,1072.533697
245.138860,1702.473667,-9474.636058,1072.533697
245.139187,1702.473667,-9178.553681,1302.362347
245.139515,1776.494261,-8956.491898,1225.752797
245.139843,1258.350101,-8734.430116,919.314598
245.140170,814.226536,-8882.471304,1455.581446
245.140498,1036.288319,-9030.512492,1072.533697
245.140825,0.000000,-9400.615463,1072.533697
245.141153,-518.144159,-9178.553681,919.314598
245.141481,-962.267725,-9474.636058,612.876398
245.141808,-1406.391290,-8808.450710,689.485948
245.142136,-2146.597232,-9178.553681,383.047749
245.142463,-2146.597232,-9104.533087,459.657299
245.142791,-2516.700203,-9030.512492,229.828649
245.143119,-2590.720797,-8808.450710,0.000000
245.143446,-2294.638420,-8364.327145,-306.438199
245.143774,-2516.700203,-8364.327145,-306.438199
245.144101,-1776.494261,-8438.347739,-153.219100
245.144429,-1776.494261,-8438.347739,0.000000
245.144757,-1332.370696,-8660.409521,0.000000
245.145084,-666.185348,-8586.388927,0.000000
245.145412,-814.226536,-8734.430116,229.828649
245.145739,-444.123565,-9252.574275,306.438199
245.146067,0.000000,-9474.636058,459.657299
245.146395,74.020594,-9548.656652,766.095498
245.146722,962.267725,-9474.636058,1302.362347
245.147050,1036.288319,-9400.615463,1149.143247
245.147377,1332.370696,-9844.739029,995.924147
245.147705,1406.391290,-9696.697840,995.924147
245.148033,1480.411884,-9696.697840,1149.143247
245.148360,1850.514855,-9696.697840,919.314598
245.148688,1628.453072,-9178.553681,1149.143247
245.149015,1110.308913,-9030.512492,383.047749
245.149343,814.226536,-9400.615463,1072.533697
245.149671,1406.391290,-9474.636058,766.095498
245.149998,370.102971,-9622.677246,689.485948
245.150326,222.061783,-9030.512492,995.924147
245.150653,-666.185348,-9474.636058,306.438199
245.150981,-1332.370696,-9400.615463,383.047749
245.151309,-2072.576638,-9326.594869,0.000000
245.151636,-1850.514855,-9178.553681,229.828649
245.151964,-2368.659014,-8882.471304,-459.657299
245.152291,-2146.597232,-8734.430116,-383.047749
245.152619,-1702.473667,-8660.409521,-689.485948
245.152947,-1924.535449,-8660.409521,-383.047749
245.153274,-1184.329507,-8438.347739,-383.047749
245.153602,-1036.288319,-8142.265362,-229.828649
245.153929,-740.205942,-8438.347739,-306.438199
245.154257,-444.123565,-8660.409521,76.609550
245.154584,-370.102971,-8882.471304,306.438199
245.154912,-74.020594,-9178.553681,229.828649
245.155239,370.102971,-9326.594869,842.705048
245.155567,740.205942,-9548.656652,229.828649
245.155894,814.226536,-9548.656652,995.924147
245.156222,1110.308913,-9474.636058,1302.362347
245.156549,1628.453072,-9474.636058,1302.362347
245.156877,1628.453072,-9622.677246,1455.581446
245.157204,2146.597232,-9104.533087,1225.752797
245.157532,1406.391290,-9252.574275,1608.800546
245.157859,1628.453072,-9104.533087,1608.800546
245.158187,1036.288319,-9030.512492,1225.752797
245.158514,74.020594,-9178.553681,1302.362347
245.158842,296.082377,-9104.533087,1302.362347
245.159169,0.000000,-9030.512492,1302.362347
245.159497,-1110.308913,-9030.512492,1072.533697
245.159824,-1332.370696,-9252.574275,689.485948
245.160152,-1850.514855,-9030.512492,842.705048
245.160479,-2368.659014,-8882.471304,306.438199
245.160807,-1998.556043,-8364.327145,229.828649
245.161134,-2294.638420,-8808.450710,229.828649
245.161462,-2368.659014,-8660.409521,0.000000
245.161789,-2072.576638,-8290.306550,76.609550
245.162117,-2220.617826,-8512.368333,0.000000
245.162444,-1554.432478,-8364.327145,76.609550
245.162772,-1258.350101,-8512.368333,76.609550
245.163099,-1184.329507,-8586.388927,76.609550
245.163427,-666.185348,-8882.471304,229.828649
245.163754,-518.144159,-9104.533087,306.438199
245.164082,0.000000,-9326.594869,766.095498
245.164409,518.144159,-9326.594869,766.095498
245.164737,592.164754,-9548.656652,689.485948
245.165064,962.267725,-9770.718434,766.095498
245.165392,1406.391290,-9770.718434,1072.533697
245.165719,1554.432478,-9770.718434,1302.362347
245.166047,1554.432478,-9622.677246,1149.143247
245.166374,1628.453072,-9622.677246,842.705048
245.166702,1480.411884,-9622.677246,1072.533697
245.167029,1110.308913,-9622.677246,1149.143247
245.167357,740.205942,-9474.636058,1378.971896
245.167684,1110.308913,-9252.574275,1302.362347
245.168012,-222.061783,-9474.636058,1072.533697
245.168339,0.000000,-8956.491898,995.924147
245.168667,-1036.288319,-9326.594869,612.876398
245.168994,-1554.432478,-9178.553681,459.657299
245.169321,-1480.411884,-8734.430116,306.438199
245.169649,-1924.535449,-9400.615463,229.828649
245.169976,-2072.576638,-8956.491898,0.000000
245.170304,-2220.617826,-8956.491898,0.000000
245.170631,-2220.617826,-8660.409521,-306.438199
245.170959,-2294.638420,-8438.347739,-153.219100
245.171286,-1554.432478,-8586.388927,-766.095498
245.171614,-1702.473667,-8586.388927,-766.095498
245.171941,-1110.308913,-8364.327145,-459.657299
245.172269,-888.247130,-8438.347739,-536.266849
245.172596,0.000000,-8512.368333,76.609550
245.172924,74.020594,-8808.450710,76.609550
245.173251,222.061783,-9104.533087,383.047749
245.173579,444.123565,-9474.636058,766.095498
245.173906,888.247130,-9474.636058,766.095498
245.174234,1258.350101,-9252.574275,459.657299
245.174561,1480.411884,-9474.636058,1149.143247
245.174889,1776.494261,-9474.636058,1302.362347
245.175216,1850.514855,-9474.636058,1302.362347
245.175544,1998.556043,-9474.636058,1072.533697
245.175871,1850.514855,-9252.574275,1302.362347
245.176199,962.267725,-8438.347739,919.314598
245.176526,1036.288319,-9178.553681,1685.410096
245.176854,1036.288319,-8882.471304,1302.362347
245.177181,0.000000,-9326.594869,1149.143247
245.177509,-296.082377,-9030.512492,1225.752797
245.177836,-888.247130,-9400.615463,1149.143247
245.178164,-1480.411884,-9326.594869,536.266849
245.178491,-2072.576638,-9178.553681,229.828649
245.178819,-2294.638420,-9178.553681,536.266849
245.179146,-2590.720797,-8956.491898,0.000000
245.179474,-2294.638420,-8882.471304,612.876398
245.179801,-2368.659014,-8364.327145,-459.657299
245.180129,-2516.700203,-8586.388927,0.000000
245.180456,-1702.473667,-8364.327145,0.000000
245.180784,-1776.494261,-8512.368333,-229.828649
245.181111,-1850.514855,-8734.430116,0.000000
245.181439,-1036.288319,-8734.430116,0.000000
245.181766,-740.205942,-8882.471304,0.000000
245.182094,-148.041188,-9178.553681,229.828649
245.182421,0.000000,-9474.636058,536.266849
245.182749,296.082377,-9548.656652,919.314598
245.183076,1036.288319,-9770.718434,1532.190996
245.183404,1036.288319,-9696.697840,1072.533697
245.183731,1332.370696,-9696.697840,1072.533697
245.184059,1554.432478,-9844.739029,1072.533697
245.184386,1628.453072,-9622.677246,919.314598
245.184714,1776.494261,-9326.594869,1149.143247
245.185041,2146.597232,-9178.553681,1302.362347
245.185369,1258.350101,-9400.615463,766.095498
245.185696,888.247130,-9400.615463,1302.362347
245.186023,1480.411884,-9474.636058,612.876398
245.186351,74.020594,-9400.615463,995.924147
245.186678,0.000000,-9474.636058,689.485948
245.187006,-888.247130,-9474.636058,612.876398
245.187333,-1554.432478,-9548.656652,612.876398
245.187661,-1998.556043,-9400.615463,306.438199
245.187988,-1850.514855,-9030.512492,306.438199
245.188316,-2072.576638,-8882.471304,229.828649
245.188643,-2220.617826,-8660.409521,0.000000
245.188971,-1998.556043,-8364.327145,-383.047749
245.189298,-2294.638420,-8438.347739,-383.047749
245.189626,-1480.411884,-8216.285956,-229.828649
245.189953,-1406.391290,-8290.306550,-153.219100
245.190281,-962.267725,-8216.285956,-229.828649
245.190608,-814.226536,-8660.409521,0.000000
245.190936,-296.082377,-9030.512492,229.828649
245.191263,0.000000,-9178.553681,229.828649
245.191591,444.123565,-9326.594869,306.438199
245.191918,444.123565,-9252.574275,459.657299
245.192246,888.247130,-9400.615463,1072.533697
245.192573,1332.370696,-9474.636058,1149.143247
245.192901,1332.370696,-9622.677246,1378.971896
245.193228,1850.514855,-9400.615463,1762.019645
245.193556,1702.473667,-9400.615463,1685.410096
245.193883,1702.473667,-9400.615463,1455.581446
245.194211,1554.432478,-9178.553681,1378.971896
245.194538,1480.411884,-9178.553681,919.314598
245.194866,444.123565,-9474.636058,1608.800546
245.195193,1332.370696,-9178.553681,766.095498
245.195521,0.000000,-9326.594869,1225.752797
245.195848,-888.247130,-9326.594869,1149.143247
245.196176,-1110.308913,-9326.594869,842.705048
245.196503,-1850.514855,-8956.491898,612.876398
245.196831,-2368.659014,-8734.430116,612.876398
245.197158,-2072.576638,-8956.491898,229.828649
245.197486,-2812.782580,-8586.388927,76.609550
245.197813,-2516.700203,-8438.347739,0.000000
245.198141,-2368.659014,-8290.306550,0.000000
245.198468,-2442.679609,-8290.306550,0.000000
245.198796,-1480.411884,-7994.224174,76.609550
245.199123,-1406.391290,-8290.306550,0.000000
245.199451,-1036.288319,-8808.450710,76.609550
245.199778,-518.144159,-8882.471304,0.000000
245.200106,-518.144159,-9030.512492,612.876398
245.200433,0.000000,-9104.533087,459.657299
245.200761,296.082377,-9474.636058,842.705048
245.201088,592.164754,-9622.677246,842.705048
245.201416,962.267725,-9622.677246,1072.533697
245.201743,1184.329507,-9918.759623,919.314598
245.202071,1554.432478,-9696.697840,766.095498
245.202398,1406.391290,-9622.677246,1149.143247
245.202725,1554.432478,-9474.636058,842.705048
245.203053,1554.432478,-9548.656652,1072.533697
245.203380,1480.411884,-9474.636058,1072.533697
245.203708,1258.350101,-9400.615463,1608.800546
245.204035,888.247130,-9326.594869,766.095498
245.204363,0.000000,-9400.615463,842.705048
245.204690,0.000000,-8956.491898,842.705048
245.205018,-962.267725,-9474.636058,459.657299
245.205345,-1036.288319,-9252.574275,383.047749
245.205673,-1110.308913,-9030.512492,306.438199
245.206000,-2072.576638,-9326.594869,76.609550
245.206328,-1998.556043,-9030.512492,0.000000
245.206655,-2294.638420,-8956.491898,0.000000
245.206983,-1776.494261,-8808.450710,-536.266849
245.207310,-2294.638420,-8364.327145,-766.095498
245.207638,-1924.535449,-8438.347739,-689.485948
245.207965,-1554.432478,-8438.347739,-612.876398
245.208293,-814.226536,-8512.368333,-536.266849
245.208620,-962.267725,-8438.347739,-229.828649
245.208948,-370.102971,-8438.347739,-229.828649
245.209275,0.000000,-8882.471304,153.219100
245.209603,148.041188,-9030.512492,229.828649
245.209930,518.144159,-9252.574275,689.485948
245.210258,962.267725,-9622.677246,612.876398
245.210585,1332.370696,-9696.697840,919.314598
245.210913,1110.308913,-9474.636058,1072.533697
245.211240,1554.432478,-9622.677246,1149.143247
245.211568,1776.494261,-9400.615463,1149.143247
245.211895,1924.535449,-9474.636058,1072.533697
245.212223,1850.514855,-9252.574275,1302.362347
245.212550,1110.308913,-8882.471304,1225.752797
245.212878,1184.329507,-9104.533087,1762.019645
245.213205,1258.350101,-8956.491898,1149.143247
245.213533,0.000000,-9326.594869,1302.362347
245.213860,148.041188,-9030.512492,1072.533697
245.214188,-592.164754,-9030.512492,842.705048
245.214515,-1702.473667,-9030.512492,995.924147
245.214843,-1998.556043,-9030.512492,689.485948
245.215170,-2368.659014,-9326.594869,612.876398
245.215498,-2368.659014,-8882.471304,0.000000
245.215825,-2368.659014,-8956.491898,0.000000
245.216153,-2812.782580,-8438.347739,0.000000
245.216480,-2886.803174,-8586.388927,0.000000
245.216808,-2220.617826,-8438.347739,0.000000
245.217135,-1998.556043,-8438.347739,0.000000
245.217463,-1628.453072,-7994.224174,306.438199
245.217790,-1184.329507,-8290.306550,229.828649
245.218118,-1036.288319,-8734.430116,76.609550
245.218445,-444.123565,-9030.512492,76.609550
245.218772,148.041188,-9548.656652,536.266849
245.219100,148.041188,-9326.594869,842.705048
245.219427,888.247130,-9548.656652,842.705048
245.219755,962.267725,-9696.697840,1072.533697
245.220082,1480.411884,-9992.780217,995.924147
245.220410,1776.494261,-9918.759623,1225.752797
245.220737,1776.494261,-9622.677246,1378.971896
245.221065,2072.576638,-9474.636058,1608.800546
