#time,accel_x,accel_y,accel_z
596.760554,148.041188,-8734.430116,612.876398
596.760882,-222.061783,-9178.553681,306.438199
596.761210,-296.082377,-9178.553681,459.657299
596.761538,-296.082377,-9326.594869,612.876398
596.761866,-296.082377,-8882.471304,306.438199
596.762194,74.020594,-9104.533087,536.266849
596.762522,-444.123565,-9030.512492,306.438199
596.762850,-222.061783,-9252.574275,153.219100
596.763177,0.000000,-9178.553681,459.657299
596.763505,0.000000,-9104.533087,612.876398
596.763833,74.020594,-9400.615463,612.876398
596.764161,-296.082377,-9178.553681,842.705048
596.764489,-444.123565,-9104.533087,459.657299
596.764817,-222.061783,-9252.574275,689.485948
596.765145,-296.082377,-9104.533087,459.657299
596.765473,-74.020594,-8808.450710,689.485948
596.765801,-444.123565,-9030.512492,383.047749
596.766129,-222.061783,-9252.574275,536.266849
596.766457,-222.061783,-8956.491898,612.876398
596.766785,-222.061783,-8956.491898,612.876398
596.767113,-148.041188,-9400.615463,0.000000
596.767441,-370.102971,-9252.574275,1225.752797
596.767769,-222.061783,-9104.533087,842.705048
596.768097,-296.082377,-9030.512492,612.876398
596.768425,-296.082377,-8956.491898,689.485948
596.768753,-222.061783,-9030.512492,919.314598
596.769080,-370.102971,-9030.512492,306.438199
596.769408,-148.041188,-9252.574275,612.876398
596.769736,-222.061783,-9104.533087,612.876398
596.770064,0.000000,-9104.533087,459.657299
596.770392,-666.185348,-9252.574275,383.047749
596.770720,-888.247130,-9326.594869,0.000000
596.771048,-1554.432478,-9252.574275,-229.828649
596.771376,-1258.350101,-9400.615463,-229.828649
596.771704,-1110.308913,-8956.491898,-306.438199
596.772032,-592.164754,-8882.471304,-536.266849
596.772360,-296.082377,-8808.450710,-383.047749
596.772688,-740.205942,-9400.615463,-1149.143247
596.773016,-1332.370696,-9326.594869,-1225.752797
596.773344,-1480.411884,-9252.574275,-1225.752797
596.773672,-1110.308913,-9178.553681,-1225.752797
596.774000,-740.205942,-9326.594869,-1149.143247
596.774328,-222.061783,-9474.636058,-1072.533697
596.774656,0.000000,-9104.533087,-1455.581446
596.774983,0.000000,-9030.512492,-1302.362347
596.775311,0.000000,-9030.512492,-1378.971896
596.775639,0.000000,-9326.594869,-1302.362347
596.775967,148.041188,-9030.512492,-1991.848295
596.776295,0.000000,-9104.533087,-1608.800546
596.776623,74.020594,-9104.533087,-1838.629195
596.776951,148.041188,-9474.636058,-1762.019645
596.777279,296.082377,-9474.636058,-1685.410096
596.777607,740.205942,-9326.594869,-1302.362347
596.777935,444.123565,-8882.471304,-1455.581446
596.778263,296.082377,-9326.594869,-1838.629195
596.778591,0.000000,-9252.574275,-1915.238745
596.778919,0.000000,-9178.553681,-1838.629195
596.779247,0.000000,-9030.512492,-1378.971896
596.779575,148.041188,-9104.533087,-1762.019645
596.779903,0.000000,-9326.594869,-1762.019645
596.780231,-296.082377,-9252.574275,-1762.019645
596.780559,-592.164754,-9104.533087,-1838.629195
596.780886,-888.247130,-8660.409521,-1838.629195
596.781214,-1036.288319,-9030.512492,-1915.238745
596.781542,-1332.370696,-9104.533087,-2451.505594
596.781870,-1850.514855,-9252.574275,-2374.896044
596.782198,-2072.576638,-9104.533087,-2911.162892
596.782526,-2072.576638,-8956.491898,-2834.553343
596.782854,-2146.597232,-8660.409521,-3294.210641
596.783182,-2294.638420,-9030.512492,-3677.258390
596.783510,-2146.597232,-8882.471304,-3907.087040
596.783838,-2146.597232,-8882.471304,-4136.915689
596.784166,-1850.514855,-8882.471304,-4136.915689
596.784494,-1184.329507,-9178.553681,-4366.744339
596.784822,-888.247130,-8586.388927,-3907.087040
596.785150,0.000000,-8882.471304,-3753.867940
596.785478,740.205942,-8882.471304,-3447.429741
596.785806,1628.453072,-9104.533087,-2911.162892
596.786134,1998.556043,-9104.533087,-2451.505594
596.786462,2072.576638,-9030.512492,-2068.457845
596.786789,2146.597232,-9548.656652,-2221.676944
596.787117,1628.453072,-9844.739029,-2221.676944
596.787445,962.267725,-10288.862594,-2221.676944
596.787773,444.123565,-10510.924376,-2757.943793
596.788101,-370.102971,-10140.821405,-3370.820191
596.788429,-1480.411884,-10362.883188,-4060.306139
596.788757,-1924.535449,-9844.739029,-4519.963438
596.789085,-1110.308913,-9178.553681,-4903.011187
596.789413,0.000000,-8586.388927,-4673.182538
596.789741,592.164754,-7254.018232,-3677.258390
596.790069,2516.700203,-7105.977043,-3370.820191
596.790397,2886.803174,-7402.059420,-2528.115143
596.790725,2368.659014,-8364.327145,-2068.457845
596.791053,1036.288319,-8956.491898,-1915.238745
596.791381,-1110.308913,-9622.677246,-1532.190996
596.791709,-2368.659014,-10807.006753,-2145.067394
596.792037,-3478.967927,-10881.027347,-2451.505594
596.792365,-2960.823768,-10510.924376,-2528.115143
596.792692,-1850.514855,-9622.677246,-2298.286494
596.793020,222.061783,-8216.285956,-1532.190996
596.793348,3034.844362,-7105.977043,-536.266849
596.793676,6735.874072,-5699.585753,1149.143247
596.794004,9992.780217,-5033.400406,3140.991542
596.794332,10436.903782,-6365.771101,4673.182538
596.794660,6957.935855,-9252.574275,4903.011187
596.794988,296.082377,-12139.377449,3907.087040
596.795316,-6809.894666,-14137.933492,1762.019645
596.795644,-10732.986159,-14730.098246,153.219100
596.795972,-11991.336260,-14063.912898,-1532.190996
596.796300,-10362.883188,-11991.336260,-2221.676944
596.796628,-7105.977043,-9992.780217,-2451.505594
596.796956,-2220.617826,-6661.853478,-919.314598
596.797284,-2442.679609,-4737.318029,-2451.505594
596.797612,-1406.391290,-4663.297435,-3447.429741
596.797940,-6365.771101,-5995.668130,-6741.640382
596.798267,-9844.739029,-7179.997637,-7737.564530
596.798595,-13989.892304,-8438.347739,-10265.679673
596.798923,-14063.912898,-8586.388927,-10878.556072
596.799251,-10288.862594,-8216.285956,-9499.584175
596.799579,-4959.379811,-7846.182985,-7967.393179
596.799907,1258.350101,-6735.874072,-6435.202183
596.800235,3849.070898,-7179.997637,-5745.716235
596.800563,5773.606348,-8808.450710,-5056.230287
596.800891,2960.823768,-9622.677246,-7048.078582
596.801219,4293.194464,-11251.130318,-6818.249932
596.801547,5921.647536,-10732.986159,-6665.030833
596.801875,9474.636058,-9622.677246,-5439.278036
596.802203,13027.624579,-9992.780217,-2834.553343
596.802531,13693.809927,-9992.780217,-1762.019645
596.802859,13545.768739,-10214.842000,-1685.410096
596.803187,13545.768739,-9770.718434,-1685.410096
596.803515,13471.748144,-10288.862594,-919.314598
596.803843,14137.933492,-11103.089130,-459.657299
596.804170,11621.233289,-11769.274478,-2221.676944
596.804498,518.144159,-14137.933492,-3140.991542
596.804826,-5107.421000,-15322.262999,-6665.030833
596.805154,-11695.253884,-13841.851115,-7967.393179
596.805482,-8808.450710,-8956.491898,-8120.612279
596.805810,-1554.432478,-3849.070898,-6052.154434
596.806138,3404.947333,-2368.659014,-2528.115143
596.806466,4589.276840,-1332.370696,-1302.362347
596.806794,2886.803174,-2664.741391,0.000000
596.807122,-2368.659014,-4293.194464,-612.876398
596.807450,-5699.585753,-4737.318029,-1455.581446
596.807778,-7254.018232,-7105.977043,-919.314598
596.808106,-7624.121203,-9104.533087,-842.705048
596.808434,-7031.956449,-9696.697840,1685.410096
596.808762,-5033.400406,-9844.739029,4443.353888
596.809090,-4515.256246,-8438.347739,5132.839837
596.809418,-1628.453072,-7179.997637,5439.278036
596.809746,-1924.535449,-9252.574275,2834.553343
596.810073,-4959.379811,-10955.047942,229.828649
596.810401,-7254.018232,-10955.047942,-1608.800546
596.810729,-7179.997637,-10881.027347,-1455.581446
596.811057,-4293.194464,-8512.368333,-229.828649
596.811385,-1480.411884,-8290.306550,1302.362347
596.811713,-888.247130,-8956.491898,612.876398
596.812041,-1554.432478,-9104.533087,612.876398
596.812369,-4367.215058,-9326.594869,0.000000
596.812697,-4589.276840,-9474.636058,0.000000
596.813025,-3849.070898,-9474.636058,-536.266849
596.813353,-3034.844362,-11103.089130,-1149.143247
596.813681,-2146.597232,-12435.459826,-2528.115143
596.814009,-3256.906145,-10140.821405,-1455.581446
596.814337,666.185348,-7698.141797,-1072.533697
596.814665,222.061783,-7698.141797,-1915.238745
596.814993,1036.288319,-6513.812290,-2987.772442
596.815321,1776.494261,-8586.388927,-4519.963438
596.815649,4293.194464,-8290.306550,-4136.915689
596.815976,5255.462188,-7846.182985,-4519.963438
596.816304,5995.668130,-8808.450710,-3524.039291
596.816632,4737.318029,-11695.253884,-3370.820191
596.816960,4293.194464,-14359.995275,-3140.991542
596.817288,3478.967927,-13545.768739,-3600.648841
596.817616,3034.844362,-12657.521608,-4060.306139
596.817944,2664.741391,-12139.377449,-4213.525239
596.818272,666.185348,-11399.171507,-4366.744339
596.818600,2590.720797,-11621.233289,-3140.991542
596.818928,2368.659014,-9548.656652,-2834.553343
596.819256,2220.617826,-8734.430116,-3600.648841
596.819583,370.102971,-8882.471304,-4290.134789
596.819911,-1628.453072,-8512.368333,-5209.449386
596.820238,-2664.741391,-7624.121203,-5822.325785
596.820566,-1998.556043,-7031.956449,-5822.325785
596.820893,-1480.411884,-6661.853478,-5362.668486
596.821221,-222.061783,-5033.400406,-4519.963438
596.821549,1554.432478,-4737.318029,-2911.162892
596.821876,1110.308913,-5995.668130,-2145.067394
596.822204,-962.267725,-7402.059420,-1685.410096
596.822531,-1406.391290,-8660.409521,-2068.457845
596.822859,-2590.720797,-9770.718434,-2451.505594
596.823186,-3404.947333,-10214.842000,-2528.115143
596.823514,-3849.070898,-10066.800811,-2145.067394
596.823841,-1628.453072,-8438.347739,-1302.362347
596.824169,148.041188,-7846.182985,-995.924147
596.824497,370.102971,-8068.244768,-1149.143247
596.824824,-2294.638420,-9770.718434,-2221.676944
596.825152,-3478.967927,-9326.594869,-3677.258390
596.825479,-4219.173869,-8808.450710,-4596.572988
596.825807,-3108.864956,-9326.594869,-3983.696590
596.826134,-1628.453072,-8438.347739,-4519.963438
596.826462,1184.329507,-6661.853478,-3140.991542
596.826790,4515.256246,-4959.379811,-1608.800546
596.827117,4071.132681,-6439.791695,-919.314598
596.827445,3034.844362,-7105.977043,-383.047749
596.827772,1036.288319,-7328.038826,-612.876398
596.828100,74.020594,-9252.574275,-1378.971896
596.828427,-1184.329507,-10436.903782,-612.876398
596.828755,-740.205942,-9992.780217,153.219100
596.829082,1110.308913,-8956.491898,306.438199
596.829410,3108.864956,-9474.636058,1455.581446
596.829738,2146.597232,-9474.636058,383.047749
596.830065,1110.308913,-9252.574275,-1149.143247
596.830393,74.020594,-8882.471304,-1838.629195
596.830720,-148.041188,-9400.615463,-2068.457845
596.831048,-1258.350101,-9400.615463,-995.924147
596.831375,370.102971,-9474.636058,-1225.752797
596.831703,1554.432478,-11029.068536,153.219100
596.832031,814.226536,-10807.006753,919.314598
596.832358,-1036.288319,-11103.089130,229.828649
596.832686,-3775.050304,-10436.903782,-306.438199
596.833013,-4219.173869,-11399.171507,-1072.533697
596.833341,-4663.297435,-10881.027347,-612.876398
596.833668,-4737.318029,-9252.574275,-995.924147
596.833996,-4219.173869,-8956.491898,-766.095498
596.834324,-3849.070898,-8438.347739,-842.705048
596.834651,-3404.947333,-8290.306550,-1455.581446
596.834979,-3404.947333,-7328.038826,-1991.848295
596.835306,-1702.473667,-7402.059420,-2145.067394
596.835634,74.020594,-7328.038826,-1685.410096
596.835961,0.000000,-7476.080014,-1608.800546
596.836289,592.164754,-8734.430116,0.000000
596.836616,666.185348,-9770.718434,-842.705048
596.836944,518.144159,-10066.800811,-612.876398
596.837272,1184.329507,-10510.924376,-229.828649
596.837599,1998.556043,-11325.150913,0.000000
596.837927,2516.700203,-11843.295072,689.485948
596.838254,2072.576638,-11843.295072,229.828649
596.838582,1036.288319,-11473.192101,76.609550
596.838909,1776.494261,-10658.965565,0.000000
596.839237,1850.514855,-9696.697840,-766.095498
596.839565,2442.679609,-8734.430116,153.219100
596.839892,4959.379811,-8438.347739,612.876398
596.840220,4367.215058,-8438.347739,766.095498
596.840547,2516.700203,-8586.388927,842.705048
596.840875,1036.288319,-9400.615463,383.047749
596.841202,-592.164754,-9030.512492,0.000000
596.841530,-1924.535449,-8956.491898,76.609550
596.841858,-1554.432478,-7994.224174,0.000000
596.842185,-2072.576638,-8364.327145,383.047749
596.842513,-1998.556043,-8438.347739,842.705048
596.842840,-2812.782580,-8586.388927,1149.143247
596.843168,-3923.091493,-7550.100608,536.266849
596.843495,-4589.276840,-7920.203579,-306.438199
596.843823,-4145.153275,-7476.080014,-919.314598
596.844150,-3034.844362,-6439.791695,-766.095498
596.844478,-962.267725,-6291.750507,0.000000
596.844806,-222.061783,-6587.832884,766.095498
596.845133,0.000000,-7772.162391,1072.533697
596.845461,-1258.350101,-8512.368333,842.705048
596.845788,-2294.638420,-9548.656652,919.314598
596.846116,-1998.556043,-9992.780217,995.924147
596.846443,-2146.597232,-9474.636058,383.047749
596.846771,-1406.391290,-9770.718434,612.876398
596.847099,-296.082377,-9622.677246,1378.971896
596.847426,0.000000,-8882.471304,1302.362347
596.847754,1406.391290,-8512.368333,1762.019645
596.848081,2516.700203,-7994.224174,1915.238745
596.848409,3775.050304,-7179.997637,2221.676944
596.848736,4441.235652,-6883.915261,2374.896044
596.849064,3404.947333,-7476.080014,1762.019645
596.849392,1850.514855,-8364.327145,1378.971896
596.849719,1036.288319,-9252.574275,1149.143247
596.850047,1406.391290,-9030.512492,1685.410096
596.850374,1036.288319,-9474.636058,1762.019645
596.850702,814.226536,-10510.924376,1532.190996
596.851029,296.082377,-10807.006753,1378.971896
596.851357,-1850.514855,-11325.150913,995.924147
596.851684,-2368.659014,-11177.109724,536.266849
596.852012,-2146.597232,-11103.089130,-919.314598
596.852340,-2146.597232,-10214.842000,-536.266849
596.852667,-444.123565,-9326.594869,-383.047749
596.852995,-444.123565,-9252.574275,76.609550
596.853322,-592.164754,-9770.718434,76.609550
596.853650,-2442.679609,-10066.800811,0.000000
596.853977,-3627.009116,-9918.759623,-995.924147
596.854305,-3552.988522,-10066.800811,-1225.752797
596.854633,-2960.823768,-10362.883188,-1149.143247
596.854960,-2368.659014,-10066.800811,-612.876398
596.855288,-1036.288319,-10436.903782,229.828649
596.855615,-222.061783,-9696.697840,153.219100
596.855943,370.102971,-9474.636058,0.000000
596.856270,1258.350101,-9474.636058,153.219100
596.856598,1776.494261,-9622.677246,229.828649
596.856926,2294.638420,-9844.739029,842.705048
596.857253,1702.473667,-9770.718434,995.924147
596.857581,1924.535449,-10881.027347,1532.190996
596.857908,740.205942,-11399.171507,919.314598
596.858236,-296.082377,-10955.047942,689.485948
596.858563,-296.082377,-10288.862594,0.000000
596.858891,666.185348,-9178.553681,536.266849
596.859218,2294.638420,-8216.285956,153.219100
596.859546,2294.638420,-8882.471304,995.924147
596.859874,888.247130,-9252.574275,995.924147
596.860201,74.020594,-9252.574275,995.924147
596.860529,888.247130,-7846.182985,842.705048
596.860856,666.185348,-7328.038826,1378.971896
596.861184,1036.288319,-7698.141797,1915.238745
596.861511,-296.082377,-8438.347739,1915.238745
596.861839,-1776.494261,-8882.471304,2145.067394
596.862167,-3404.947333,-7846.182985,919.314598
596.862494,-3849.070898,-8290.306550,383.047749
596.862822,-3034.844362,-7698.141797,0.000000
596.863149,-3478.967927,-6957.935855,-306.438199
596.863477,-1702.473667,-6587.832884,76.609550
596.863804,-1406.391290,-5847.626942,0.000000
596.864132,-1110.308913,-6291.750507,383.047749
596.864459,-1258.350101,-6735.874072,0.000000
596.864787,-962.267725,-7698.141797,459.657299
596.865115,0.000000,-7772.162391,1302.362347
596.865442,148.041188,-7624.121203,1455.581446
596.865770,0.000000,-7994.224174,1838.629195
596.866097,-962.267725,-9622.677246,1532.190996
596.866425,-1554.432478,-11177.109724,1149.143247
596.866752,-2146.597232,-10140.821405,689.485948
596.867080,-1110.308913,-9104.533087,306.438199
596.867408,222.061783,-8586.388927,459.657299
596.867735,1850.514855,-7698.141797,919.314598
596.868063,2368.659014,-7994.224174,612.876398
596.868390,2664.741391,-7772.162391,536.266849
596.868718,3182.885551,-7328.038826,766.095498
596.869045,2812.782580,-7105.977043,842.705048
596.869373,2812.782580,-8956.491898,2068.457845
596.869701,1998.556043,-9918.759623,1762.019645
596.870028,222.061783,-11769.274478,2374.896044
596.870356,-1776.494261,-12879.583391,1378.971896
596.870683,-2812.782580,-12879.583391,842.705048
596.871011,-3404.947333,-12731.542202,-76.609550
596.871338,-2960.823768,-11473.192101,-612.876398
596.871666,-2294.638420,-10955.047942,-1072.533697
596.871993,-1036.288319,-9474.636058,-1149.143247
596.872321,-296.082377,-7994.224174,-1532.190996
596.872649,740.205942,-7550.100608,-995.924147
596.872976,1258.350101,-7179.997637,-1532.190996
596.873304,1776.494261,-7994.224174,-459.657299
596.873631,1480.411884,-8364.327145,0.000000
596.873959,1406.391290,-8660.409521,1225.752797
596.874286,0.000000,-10066.800811,1532.190996
596.874614,-2368.659014,-11917.315666,1838.629195
596.874942,-4515.256246,-13175.665768,1149.143247
596.875269,-4811.338623,-12731.542202,995.924147
596.875597,-3775.050304,-10881.027347,383.047749
596.875924,-1480.411884,-9474.636058,153.219100
596.876252,-814.226536,-8586.388927,76.609550
596.876579,370.102971,-7624.121203,0.000000
596.876907,1036.288319,-6365.771101,-153.219100
596.877235,1924.535449,-5551.544565,0.000000
596.877562,2664.741391,-5551.544565,0.000000
596.877890,2368.659014,-6957.935855,689.485948
596.878217,1924.535449,-8068.244768,995.924147
596.878545,0.000000,-9844.739029,1532.190996
596.878872,-1776.494261,-11399.171507,1915.238745
596.879200,-3552.988522,-11769.274478,1762.019645
596.879527,-3552.988522,-11547.212695,1149.143247
596.879855,-3034.844362,-10955.047942,919.314598
596.880183,-2146.597232,-10362.883188,459.657299
596.880510,-814.226536,-8216.285956,306.438199
596.880838,-370.102971,-7402.059420,-306.438199
596.881165,592.164754,-5773.606348,-153.219100
596.881493,1924.535449,-5181.441594,-383.047749
596.881820,3256.906145,-5847.626942,229.828649
596.882148,3552.988522,-6143.709319,306.438199
596.882476,3849.070898,-7031.956449,1838.629195
596.882803,1776.494261,-8512.368333,1608.800546
596.883131,-518.144159,-10584.944971,1608.800546
596.883458,-2516.700203,-12287.418637,1225.752797
596.883786,-2738.761985,-12879.583391,1225.752797
596.884113,-2960.823768,-12435.459826,919.314598
596.884441,-1702.473667,-11547.212695,1072.533697
596.884769,-1258.350101,-10288.862594,842.705048
596.885096,-370.102971,-9770.718434,383.047749
596.885424,222.061783,-8586.388927,-459.657299
596.885751,1628.453072,-7179.997637,-229.828649
596.886079,2738.761985,-6661.853478,306.438199
596.886406,3552.988522,-6365.771101,919.314598
596.886734,3182.885551,-7179.997637,1302.362347
596.887061,1036.288319,-9104.533087,1838.629195
596.887389,-1480.411884,-10584.944971,1378.971896
596.887717,-3034.844362,-10807.006753,766.095498
596.888044,-3775.050304,-10732.986159,306.438199
596.888372,-3849.070898,-10732.986159,536.266849
596.888699,-3775.050304,-10362.883188,0.000000
596.889027,-2886.803174,-9622.677246,0.000000
596.889354,-2960.823768,-8734.430116,-536.266849
596.889682,-1554.432478,-7105.977043,-919.314598
596.890010,592.164754,-6513.812290,-612.876398
596.890337,2146.597232,-6217.729913,-229.828649
596.890665,3034.844362,-6957.935855,229.828649
596.890992,2516.700203,-8068.244768,842.705048
596.891320,1332.370696,-9696.697840,1225.752797
596.891647,-1480.411884,-10288.862594,1225.752797
596.891975,-1850.514855,-11917.315666,536.266849
596.892303,-2664.741391,-12213.398043,306.438199
596.892630,-2368.659014,-11991.336260,153.219100
596.892958,-1998.556043,-11103.089130,153.219100
596.893285,-1036.288319,-9918.759623,306.438199
596.893613,0.000000,-8808.450710,0.000000
596.893940,1258.350101,-7179.997637,-383.047749
596.894268,3256.906145,-6735.874072,0.000000
596.894595,4663.297435,-6217.729913,459.657299
596.894923,4737.318029,-5995.668130,995.924147
596.895251,4071.132681,-7402.059420,1915.238745
596.895578,2220.617826,-8808.450710,2451.505594
596.895906,-148.041188,-10214.842000,1915.238745
596.896233,-1998.556043,-11991.336260,1685.410096
596.896561,-2738.761985,-11991.336260,1455.581446
596.896888,-2738.761985,-11029.068536,1149.143247
596.897216,-2294.638420,-9770.718434,536.266849
596.897544,-2294.638420,-9326.594869,76.609550
596.897871,-2368.659014,-9252.574275,-383.047749
596.898199,-1406.391290,-7846.182985,-612.876398
596.898526,-74.020594,-6069.688724,-229.828649
596.898854,1702.473667,-5699.585753,689.485948
596.899181,1554.432478,-6143.709319,459.657299
596.899509,1628.453072,-8216.285956,1455.581446
596.899837,-148.041188,-9252.574275,1532.190996
596.900164,-1924.535449,-9252.574275,1302.362347
596.900492,-2886.803174,-10288.862594,1149.143247
596.900819,-3923.091493,-11325.150913,995.924147
596.901147,-3923.091493,-11325.150913,229.828649
596.901474,-3034.844362,-10510.924376,459.657299
596.901802,-2442.679609,-9178.553681,842.705048
596.902129,-1480.411884,-8956.491898,0.000000
596.902457,-592.164754,-7624.121203,-766.095498
596.902785,2442.679609,-6513.812290,0.000000
596.903112,3552.988522,-6143.709319,-76.609550
596.903440,5107.421000,-6365.771101,919.314598
596.903767,4293.194464,-7624.121203,1532.190996
596.904095,2442.679609,-9844.739029,1838.629195
596.904422,0.000000,-11029.068536,995.924147
596.904750,-1332.370696,-12139.377449,766.095498
596.905078,-2146.597232,-12435.459826,766.095498
596.905405,-1554.432478,-12361.439231,459.657299
596.905733,-1554.432478,-11695.253884,612.876398
596.906060,-1480.411884,-10362.883188,0.000000
596.906388,-518.144159,-9770.718434,-229.828649
596.906715,74.020594,-7328.038826,-766.095498
596.907043,1776.494261,-6957.935855,-919.314598
596.907370,3034.844362,-5403.503377,229.828649
596.907698,2812.782580,-5921.647536,459.657299
596.908026,1554.432478,-7328.038826,1149.143247
596.908353,-222.061783,-8216.285956,919.314598
596.908681,-2368.659014,-9474.636058,0.000000
596.909008,-3478.967927,-10658.965565,689.485948
596.909336,-4811.338623,-10658.965565,0.000000
596.909663,-3923.091493,-11325.150913,76.609550
596.909991,-4071.132681,-11251.130318,0.000000
596.910319,-3478.967927,-10510.924376,-689.485948
596.910646,-3182.885551,-9992.780217,-612.876398
596.910974,-1258.350101,-8068.244768,-1455.581446
596.911301,962.267725,-6661.853478,-1149.143247
596.911629,2886.803174,-6365.771101,-536.266849
596.911956,3701.029710,-6291.750507,536.266849
596.912284,3849.070898,-8068.244768,995.924147
596.912612,2146.597232,-9252.574275,1072.533697
596.912939,444.123565,-10066.800811,995.924147
596.913267,-148.041188,-11325.150913,1072.533697
596.913594,-518.144159,-11695.253884,1225.752797
596.913922,-370.102971,-11103.089130,995.924147
596.914249,-148.041188,-11325.150913,1762.019645
596.914577,-1406.391290,-10436.903782,459.657299
596.914904,-370.102971,-9474.636058,766.095498
596.915232,1406.391290,-7254.018232,76.609550
596.915560,2590.720797,-5773.606348,536.266849
596.915887,4663.297435,-5477.523971,919.314598
596.916215,4515.256246,-6143.709319,1225.752797
596.916542,2960.823768,-7994.224174,1915.238745
596.916870,888.247130,-9030.512492,1838.629195
596.917197,-592.164754,-10584.944971,1685.410096
596.917525,-2368.659014,-11621.233289,2528.115143
596.917853,-3478.967927,-12435.459826,1991.848295
596.918181,-4071.132681,-12139.377449,1991.848295
596.918508,-4293.194464,-11695.253884,1532.190996
596.918836,-4515.256246,-10807.006753,689.485948
596.919164,-4219.173869,-8142.265362,0.000000
596.919491,-2590.720797,-6957.935855,-919.314598
596.919819,-740.205942,-5773.606348,-842.705048
596.920147,518.144159,-4515.256246,-689.485948
596.920474,1924.535449,-5033.400406,383.047749
596.920802,814.226536,-5921.647536,1149.143247
596.921130,-888.247130,-7179.997637,536.266849
596.921458,-1998.556043,-9844.739029,383.047749
596.921785,-2072.576638,-10584.944971,1149.143247
596.922113,-2442.679609,-11103.089130,919.314598
596.922441,-1924.535449,-11251.130318,1608.800546
596.922768,-1998.556043,-11325.150913,919.314598
596.923096,-2220.617826,-11769.274478,383.047749
596.923424,-1332.370696,-9474.636058,-689.485948
596.923751,1110.308913,-7772.162391,-459.657299
596.924079,3627.009116,-6809.894666,0.000000
596.924407,5403.503377,-6069.688724,383.047749
596.924735,5625.565159,-6957.935855,919.314598
596.925062,4515.256246,-8808.450710,995.924147
596.925390,2368.659014,-9696.697840,1072.533697
596.925718,1258.350101,-10510.924376,919.314598
596.926045,0.000000,-11399.171507,1378.971896
596.926373,-888.247130,-12139.377449,1225.752797
596.926701,-1184.329507,-12361.439231,1072.533697
596.927028,-1998.556043,-11991.336260,1378.971896
596.927356,-2812.782580,-10658.965565,229.828649
596.927684,-2590.720797,-9696.697840,-612.876398
596.928011,-1480.411884,-7772.162391,-842.705048
596.928339,74.020594,-6735.874072,-995.924147
596.928667,962.267725,-6143.709319,-536.266849
596.928995,1554.432478,-6365.771101,153.219100
596.929322,296.082377,-6957.935855,229.828649
596.929650,-1110.308913,-7846.182985,306.438199
596.929978,-2368.659014,-9474.636058,153.219100
596.930305,-2294.638420,-10362.883188,766.095498
596.930633,-2886.803174,-10732.986159,766.095498
596.930961,-2664.741391,-11103.089130,1072.533697
596.931288,-2886.803174,-11399.171507,229.828649
596.931616,-2590.720797,-11251.130318,153.219100
596.931944,-1554.432478,-9918.759623,-459.657299
596.932272,444.123565,-9030.512492,-306.438199
596.932599,2220.617826,-7550.100608,153.219100
596.932927,3404.947333,-7031.956449,766.095498
596.933255,2812.782580,-7920.203579,919.314598
596.933582,2368.659014,-8734.430116,1072.533697
596.933910,518.144159,-8808.450710,612.876398
596.934238,222.061783,-9252.574275,536.266849
596.934565,148.041188,-9696.697840,842.705048
596.934893,74.020594,-9844.739029,1302.362347
596.935221,-370.102971,-11103.089130,1838.629195
596.935549,0.000000,-10881.027347,2068.457845
596.935876,-1110.308913,-9844.739029,1225.752797
596.936204,-296.082377,-9104.533087,1378.971896
596.936532,962.267725,-9030.512492,842.705048
596.936859,1110.308913,-8364.327145,1302.362347
596.937187,1480.411884,-7550.100608,1455.581446
596.937515,1776.494261,-7402.059420,1762.019645
596.937842,1332.370696,-7624.121203,1532.190996
596.938170,-740.205942,-8438.347739,766.095498
596.938498,-1628.453072,-8734.430116,536.266849
596.938826,-1702.473667,-8734.430116,842.705048
596.939153,-1850.514855,-8586.388927,612.876398
596.939481,-2220.617826,-9400.615463,1149.143247
596.939809,-3552.988522,-10362.883188,1149.143247
596.940136,-4219.173869,-10140.821405,459.657299
596.940464,-3775.050304,-8882.471304,0.000000
596.940792,-2516.700203,-8216.285956,306.438199
596.941119,-740.205942,-7328.038826,612.876398
596.941447,-370.102971,-6809.894666,919.314598
596.941775,592.164754,-6957.935855,995.924147
596.942103,-740.205942,-7254.018232,306.438199
596.942430,-740.205942,-7624.121203,229.828649
596.942758,-666.185348,-7846.182985,0.000000
596.943086,1036.288319,-8438.347739,383.047749
596.943413,666.185348,-8586.388927,229.828649
596.943741,222.061783,-10362.883188,842.705048
596.944069,0.000000,-11547.212695,459.657299
596.944396,-1110.308913,-11325.150913,0.000000
596.944724,444.123565,-10955.047942,229.828649
596.945052,1406.391290,-10066.800811,0.000000
596.945380,1702.473667,-10362.883188,459.657299
596.945707,1998.556043,-10732.986159,306.438199
596.946035,814.226536,-10732.986159,229.828649
596.946363,518.144159,-10362.883188,-153.219100
596.946690,222.061783,-10436.903782,-306.438199
596.947018,888.247130,-10584.944971,-612.876398
596.947346,518.144159,-10362.883188,-612.876398
596.947673,592.164754,-9696.697840,-306.438199
596.948001,1036.288319,-9326.594869,229.828649
596.948329,222.061783,-9178.553681,-229.828649
596.948656,0.000000,-9474.636058,-536.266849
596.948984,-296.082377,-9400.615463,-459.657299
596.949312,740.205942,-8808.450710,153.219100
596.949640,592.164754,-8216.285956,612.876398
596.949967,518.144159,-9252.574275,1685.410096
596.950295,-444.123565,-10066.800811,1302.362347
596.950623,-1480.411884,-10066.800811,1225.752797
596.950950,-1480.411884,-9696.697840,842.705048
596.951278,-1628.453072,-9844.739029,995.924147
596.951606,-962.267725,-10510.924376,1455.581446
596.951933,-1406.391290,-10288.862594,842.705048
596.952261,-1110.308913,-10066.800811,1378.971896
596.952589,-1258.350101,-9992.780217,919.314598
596.952917,-1924.535449,-9400.615463,459.657299
596.953244,-1406.391290,-8808.450710,383.047749
596.953572,-518.144159,-8586.388927,536.266849
596.953900,-296.082377,-7254.018232,1149.143247
596.954227,-370.102971,-7772.162391,1302.362347
596.954555,-740.205942,-8438.347739,1455.581446
596.954883,-2072.576638,-8290.306550,842.705048
596.955210,-2368.659014,-8660.409521,919.314598
596.955538,-1406.391290,-7550.100608,1149.143247
596.955866,-888.247130,-7550.100608,1149.143247
596.956194,370.102971,-7624.121203,1608.800546
596.956521,148.041188,-8142.265362,1455.581446
596.956849,-222.061783,-7698.141797,766.095498
596.957177,-814.226536,-7328.038826,1378.971896
596.957504,518.144159,-7328.038826,842.705048
596.957832,1702.473667,-7105.977043,1302.362347
596.958160,1776.494261,-7476.080014,1455.581446
596.958487,1332.370696,-8808.450710,1991.848295
596.958815,74.020594,-9178.553681,1302.362347
596.959143,-888.247130,-8956.491898,612.876398
596.959471,-1036.288319,-8956.491898,76.609550
596.959798,-740.205942,-9178.553681,306.438199
596.960126,-444.123565,-8734.430116,0.000000
596.960454,-222.061783,-8142.265362,459.657299
596.960781,148.041188,-8290.306550,383.047749
596.961109,-592.164754,-8290.306550,-153.219100
596.961437,-518.144159,-7772.162391,-229.828649
596.961764,0.000000,-8142.265362,0.000000
596.962092,444.123565,-8142.265362,76.609550
596.962420,666.185348,-7624.121203,766.095498
596.962748,0.000000,-9178.553681,995.924147
596.963075,-1480.411884,-10140.821405,76.609550
596.963403,-2516.700203,-10066.800811,-536.266849
596.963731,-2812.782580,-10066.800811,-995.924147
596.964058,-1702.473667,-9770.718434,-842.705048
596.964386,-1110.308913,-9104.533087,-1378.971896
596.964714,-222.061783,-9326.594869,-1225.752797
596.965041,148.041188,-9696.697840,-1072.533697
596.965369,148.041188,-9474.636058,-919.314598
596.965697,814.226536,-9474.636058,-1072.533697
596.966024,1406.391290,-9622.677246,-612.876398
596.966352,2368.659014,-9770.718434,76.609550
596.966680,2220.617826,-10658.965565,1149.143247
596.967008,1258.350101,-12139.377449,1532.190996
596.967335,-444.123565,-12065.356855,1072.533697
596.967663,-1258.350101,-11843.295072,1072.533697
596.967991,-1406.391290,-11399.171507,536.266849
596.968318,0.000000,-10658.965565,612.876398
596.968646,1332.370696,-9770.718434,842.705048
596.968974,2072.576638,-8956.491898,842.705048
596.969301,2812.782580,-8586.388927,1685.410096
596.969629,1998.556043,-8290.306550,919.314598
596.969957,2442.679609,-8364.327145,1532.190996
596.970285,1850.514855,-9400.615463,1915.238745
596.970612,2072.576638,-9326.594869,2451.505594
596.970940,1036.288319,-9696.697840,2757.943793
596.971268,-1332.370696,-11103.089130,2604.724693
596.971595,-3404.947333,-11695.253884,2068.457845
596.971923,-5255.462188,-11399.171507,612.876398
596.972251,-5181.441594,-11399.171507,766.095498
596.972578,-4515.256246,-9622.677246,306.438199
596.972906,-3849.070898,-9030.512492,0.000000
596.973234,-2886.803174,-8512.368333,612.876398
596.973562,-2368.659014,-7031.956449,153.219100
596.973889,-2146.597232,-5773.606348,-383.047749
596.974217,-592.164754,-5403.503377,383.047749
596.974545,0.000000,-5403.503377,306.438199
596.974872,0.000000,-6513.812290,1072.533697
596.975200,0.000000,-7328.038826,1915.238745
596.975528,-1480.411884,-8808.450710,1991.848295
596.975855,-2220.617826,-9326.594869,1838.629195
596.976183,-2442.679609,-9474.636058,536.266849
596.976511,-1776.494261,-9326.594869,76.609550
596.976839,-296.082377,-8364.327145,0.000000
596.977166,1332.370696,-7254.018232,0.000000
596.977494,2368.659014,-6883.915261,0.000000
596.977822,3404.947333,-7402.059420,229.828649
596.978149,2516.700203,-7105.977043,-153.219100
596.978477,3775.050304,-7105.977043,76.609550
596.978805,4515.256246,-7772.162391,1072.533697
596.979132,4367.215058,-7994.224174,1838.629195
596.979460,3108.864956,-9622.677246,2068.457845
596.979788,666.185348,-11399.171507,1915.238745
596.980116,-1776.494261,-11621.233289,919.314598
596.980443,-2664.741391,-11621.233289,383.047749
596.980771,-2516.700203,-10881.027347,229.828649
596.981099,-2294.638420,-9474.636058,-306.438199
596.981426,-1184.329507,-8660.409521,-536.266849
596.981754,-444.123565,-7846.182985,-995.924147
596.982082,-518.144159,-6735.874072,-995.924147
596.982409,-370.102971,-6291.750507,-1532.190996
596.982737,0.000000,-6291.750507,-306.438199
596.983065,1184.329507,-6883.915261,-459.657299
596.983393,370.102971,-7402.059420,0.000000
596.983720,370.102971,-8882.471304,689.485948
596.984048,-1998.556043,-10807.006753,459.657299
596.984376,-3256.906145,-11621.233289,612.876398
596.984703,-4663.297435,-12065.356855,0.000000
596.985031,-3256.906145,-11769.274478,76.609550
596.985359,-1776.494261,-11621.233289,0.000000
596.985686,0.000000,-10807.006753,0.000000
596.986014,148.041188,-10140.821405,-153.219100
596.986342,1110.308913,-8364.327145,153.219100
596.986669,2368.659014,-7179.997637,0.000000
596.986997,3478.967927,-7476.080014,383.047749
596.987325,3775.050304,-8438.347739,1225.752797
596.987653,3478.967927,-9474.636058,1991.848295
596.987980,1702.473667,-9844.739029,2374.896044
596.988308,74.020594,-11769.274478,2374.896044
596.988636,-1702.473667,-12213.398043,1915.238745
596.988963,-3330.926739,-12583.501014,1378.971896
596.989291,-1924.535449,-11843.295072,1378.971896
596.989619,-2886.803174,-9992.780217,0.000000
596.989946,-1554.432478,-9178.553681,1225.752797
596.990274,-1554.432478,-7994.224174,229.828649
596.990602,-740.205942,-6809.894666,0.000000
596.990930,0.000000,-6439.791695,-383.047749
596.991257,962.267725,-6143.709319,153.219100
596.991585,1924.535449,-6143.709319,1225.752797
596.991913,1258.350101,-7476.080014,1685.410096
596.992240,0.000000,-8734.430116,2145.067394
596.992568,-1924.535449,-10881.027347,2374.896044
596.992896,-3701.029710,-11547.212695,1149.143247
596.993223,-4145.153275,-12435.459826,919.314598
596.993551,-4293.194464,-10955.047942,842.705048
596.993879,-3552.988522,-10214.842000,306.438199
596.994207,-2664.741391,-9252.574275,-153.219100
596.994534,-1406.391290,-8586.388927,-306.438199
596.994862,0.000000,-6143.709319,-842.705048
596.995190,2368.659014,-5477.523971,-1149.143247
596.995517,3923.091493,-5403.503377,-229.828649
596.995845,4589.276840,-6291.750507,536.266849
596.996173,3923.091493,-7105.977043,919.314598
596.996500,2738.761985,-9400.615463,1225.752797
596.996828,962.267725,-10881.027347,1762.019645
596.997156,-962.267725,-11917.315666,1685.410096
596.997484,-2516.700203,-12361.439231,919.314598
596.997811,-3108.864956,-11917.315666,919.314598
596.998139,-1702.473667,-11177.109724,383.047749
596.998467,-666.185348,-9770.718434,229.828649
596.998794,-370.102971,-8586.388927,-306.438199
596.999122,222.061783,-6883.915261,-919.314598
596.999450,2220.617826,-5477.523971,-995.924147
596.999777,3108.864956,-5403.503377,-536.266849
597.000105,3923.091493,-5699.585753,0.000000
597.000433,3701.029710,-7179.997637,919.314598
597.000761,1184.329507,-9178.553681,1608.800546
597.001088,-1110.308913,-10362.883188,1532.190996
597.001416,-3034.844362,-11769.274478,1302.362347
597.001744,-5255.462188,-12509.480420,536.266849
597.002071,-5699.585753,-12361.439231,306.438199
597.002399,-4737.318029,-11029.068536,-306.438199
597.002727,-3108.864956,-8956.491898,-612.876398
597.003054,-1110.308913,-8586.388927,-229.828649
597.003382,444.123565,-6217.729913,-919.314598
597.003710,2072.576638,-5995.668130,0.000000
597.004038,3627.009116,-5995.668130,153.219100
597.004365,3627.009116,-5699.585753,612.876398
597.004693,3330.926739,-7328.038826,1762.019645
597.005021,1554.432478,-9400.615463,2145.067394
597.005348,-1036.288319,-10510.924376,2221.676944
597.005676,-2294.638420,-12583.501014,1608.800546
597.006004,-3404.947333,-12805.562797,1455.581446
597.006331,-2960.823768,-12287.418637,1378.971896
597.006659,-2960.823768,-10881.027347,689.485948
597.006987,-740.205942,-9844.739029,0.000000
597.007314,-1332.370696,-9696.697840,-612.876398
597.007642,-962.267725,-7476.080014,-1225.752797
597.007970,222.061783,-6365.771101,-1225.752797
597.008298,2146.597232,-5625.565159,-306.438199
597.008625,3108.864956,-5403.503377,459.657299
597.008953,3182.885551,-7254.018232,1455.581446
597.009281,370.102971,-9400.615463,1532.190996
597.009608,-1184.329507,-10362.883188,1149.143247
597.009936,-3034.844362,-11103.089130,689.485948
597.010264,-3256.906145,-11991.336260,1225.752797
597.010591,-2886.803174,-11769.274478,919.314598
597.010919,-2738.761985,-11325.150913,536.266849
597.011247,-1776.494261,-10288.862594,383.047749
597.011575,-592.164754,-8956.491898,0.000000
597.011902,444.123565,-7254.018232,-459.657299
597.012230,2516.700203,-5773.606348,0.000000
597.012558,4589.276840,-6513.812290,459.657299
597.012885,5033.400406,-6883.915261,842.705048
597.013213,4515.256246,-7846.182985,1762.019645
597.013541,2294.638420,-9696.697840,1762.019645
597.013868,-148.041188,-11103.089130,1915.238745
597.014196,-2294.638420,-13027.624579,1149.143247
597.014524,-2368.659014,-13471.748144,1608.800546
597.014852,-2886.803174,-12953.603985,1302.362347
597.015179,-2368.659014,-12287.418637,1532.190996
597.015507,-2516.700203,-10955.047942,612.876398
597.015835,-2886.803174,-10288.862594,-612.876398
597.016162,-1332.370696,-7846.182985,-1149.143247
597.016490,888.247130,-6439.791695,-919.314598
597.016818,2294.638420,-5773.606348,0.000000
597.017145,2960.823768,-5403.503377,229.828649
597.017473,1924.535449,-7179.997637,76.609550
597.017801,740.205942,-8216.285956,919.314598
597.018129,-1406.391290,-9474.636058,612.876398
597.018456,-2368.659014,-11325.150913,842.705048
597.018784,-3552.988522,-11917.315666,689.485948
597.019112,-3034.844362,-12435.459826,1455.581446
597.019439,-2590.720797,-11251.130318,919.314598
597.019767,-1998.556043,-9992.780217,229.828649
597.020094,-888.247130,-9474.636058,0.000000
597.020422,-444.123565,-8068.244768,-995.924147
597.020750,1406.391290,-6661.853478,-229.828649
597.021077,3330.926739,-4515.256246,0.000000
597.021405,4145.153275,-4589.276840,306.438199
597.021732,4367.215058,-7550.100608,1072.533697
597.022060,2442.679609,-8438.347739,1378.971896
597.022388,-444.123565,-9326.594869,995.924147
597.022715,-814.226536,-10584.944971,1532.190996
597.023043,-1480.411884,-10658.965565,1455.581446
597.023370,-2072.576638,-10881.027347,1532.190996
597.023698,-2072.576638,-10955.047942,1378.971896
597.024025,-2516.700203,-9696.697840,995.924147
597.024353,-2146.597232,-7698.141797,229.828649
597.024681,-1480.411884,-6587.832884,-306.438199
597.025008,296.082377,-5921.647536,-229.828649
597.025336,1110.308913,-5477.523971,0.000000
597.025663,2368.659014,-5181.441594,612.876398
597.025991,1776.494261,-6513.812290,919.314598
597.026319,296.082377,-8068.244768,919.314598
597.026646,-1036.288319,-8660.409521,689.485948
597.026974,-2368.659014,-10436.903782,919.314598
597.027301,-2368.659014,-11325.150913,919.314598
597.027629,-2738.761985,-10955.047942,689.485948
597.027957,-2442.679609,-11029.068536,459.657299
597.028284,-2738.761985,-10362.883188,153.219100
597.028612,-2442.679609,-9474.636058,-229.828649
597.028939,-1406.391290,-8586.388927,-689.485948
597.029267,1554.432478,-7328.038826,-306.438199
597.029595,2886.803174,-5551.544565,76.609550
597.029922,4219.173869,-6365.771101,766.095498
597.030250,2812.782580,-8364.327145,1378.971896
597.030577,1184.329507,-9178.553681,1302.362347
597.030905,222.061783,-10510.924376,1608.800546
597.031233,-1036.288319,-11325.150913,1685.410096
597.031560,-1110.308913,-12435.459826,1685.410096
597.031888,-1110.308913,-13027.624579,2068.457845
597.032215,-1406.391290,-12213.398043,1455.581446
597.032543,-1776.494261,-11991.336260,919.314598
597.032871,-1628.453072,-9844.739029,-842.705048
597.033198,0.000000,-8586.388927,-536.266849
597.033526,1332.370696,-8216.285956,-536.266849
597.033853,2516.700203,-7031.956449,-536.266849
597.034181,3330.926739,-6883.915261,76.609550
597.034509,2664.741391,-8068.244768,995.924147
597.034836,888.247130,-9178.553681,459.657299
597.035164,-740.205942,-10732.986159,459.657299
597.035491,-1998.556043,-12139.377449,766.095498
597.035819,-2294.638420,-11695.253884,1302.362347
597.036147,-2812.782580,-11917.315666,1072.533697
597.036474,-2960.823768,-11843.295072,1149.143247
597.036802,-3627.009116,-11695.253884,459.657299
597.037129,-3552.988522,-9696.697840,-689.485948
597.037457,-1776.494261,-8142.265362,-1225.752797
597.037785,518.144159,-7031.956449,-919.314598
597.038112,1406.391290,-6217.729913,-459.657299
597.038440,2738.761985,-6661.853478,0.000000
597.038767,1850.514855,-7328.038826,76.609550
597.039095,222.061783,-7994.224174,-383.047749
597.039423,148.041188,-9474.636058,229.828649
597.039750,-888.247130,-10362.883188,766.095498
597.040078,-1184.329507,-11325.150913,919.314598
597.040405,-1332.370696,-11843.295072,1302.362347
597.040733,-1628.453072,-11473.192101,919.314598
597.041061,-962.267725,-10658.965565,1072.533697
597.041388,0.000000,-9326.594869,919.314598
597.041716,222.061783,-7772.162391,153.219100
597.042043,2072.576638,-7254.018232,229.828649
597.042371,2886.803174,-5773.606348,842.705048
597.042699,3478.967927,-6069.688724,995.924147
597.043026,2738.761985,-6661.853478,1455.581446
597.043354,888.247130,-7105.977043,766.095498
597.043681,222.061783,-9104.533087,766.095498
597.044009,-444.123565,-9548.656652,1532.190996
597.044337,-962.267725,-9326.594869,1762.019645
597.044664,-1258.350101,-10288.862594,1762.019645
597.044992,-1628.453072,-10658.965565,1915.238745
597.045319,-2368.659014,-10140.821405,689.485948
597.045647,-3034.844362,-8734.430116,76.609550
597.045975,-1702.473667,-7105.977043,0.000000
597.046302,-1036.288319,-6587.832884,0.000000
597.046630,-148.041188,-5847.626942,0.000000
597.046957,-222.061783,-6217.729913,76.609550
597.047285,-814.226536,-6957.935855,153.219100
597.047613,-1924.535449,-7550.100608,-306.438199
597.047940,-1480.411884,-8660.409521,383.047749
597.048268,-1184.329507,-9104.533087,919.314598
597.048595,-814.226536,-9474.636058,1149.143247
597.048923,-1110.308913,-10066.800811,1072.533697
597.049251,-1628.453072,-10658.965565,1378.971896
597.049578,-1554.432478,-10140.821405,842.705048
597.049906,-1332.370696,-9326.594869,536.266849
597.050233,518.144159,-8660.409521,612.876398
597.050561,1406.391290,-7846.182985,229.828649
597.050888,2072.576638,-7328.038826,536.266849
597.051216,2072.576638,-7846.182985,919.314598
597.051544,1258.350101,-8290.306550,459.657299
597.051871,962.267725,-8882.471304,459.657299
597.052199,444.123565,-9844.739029,306.438199
597.052526,962.267725,-10288.862594,842.705048
597.052854,0.000000,-10362.883188,612.876398
597.053182,0.000000,-10732.986159,1072.533697
597.053509,-592.164754,-11029.068536,1608.800546
597.053837,-1258.350101,-9770.718434,612.876398
597.054164,-1036.288319,-10066.800811,153.219100
597.054492,-370.102971,-9844.739029,536.266849
597.054820,0.000000,-8808.450710,766.095498
597.055147,222.061783,-8216.285956,459.657299
597.055475,518.144159,-9030.512492,919.314598
597.055802,-962.267725,-8734.430116,229.828649
597.056130,-1776.494261,-8660.409521,-383.047749
597.056458,-1258.350101,-8956.491898,-383.047749
597.056785,-888.247130,-8734.430116,153.219100
597.057113,-740.205942,-9696.697840,766.095498
597.057440,-814.226536,-9548.656652,536.266849
597.057768,-1036.288319,-10584.944971,842.705048
597.058096,-1406.391290,-10658.965565,383.047749
597.058423,-962.267725,-10584.944971,229.828649
597.058751,-296.082377,-10732.986159,766.095498
597.059078,222.061783,-9548.656652,1072.533697
597.059406,592.164754,-9474.636058,919.314598
597.059734,518.144159,-10140.821405,1149.143247
597.060061,74.020594,-9770.718434,689.485948
597.060389,-592.164754,-8660.409521,536.266849
597.060716,-296.082377,-9474.636058,536.266849
597.061044,-222.061783,-9326.594869,612.876398
597.061372,74.020594,-8882.471304,919.314598
597.061699,222.061783,-9548.656652,1302.362347
597.062027,296.082377,-9326.594869,1378.971896
597.062354,-814.226536,-8882.471304,689.485948
597.062682,-370.102971,-9252.574275,995.924147
597.063010,0.000000,-8808.450710,1149.143247
597.063337,1036.288319,-7846.182985,1072.533697
597.063665,962.267725,-8364.327145,1072.533697
597.063992,518.144159,-8438.347739,1225.752797
597.064320,-518.144159,-8290.306550,842.705048
597.064648,-1110.308913,-8364.327145,536.266849
597.064975,-1628.453072,-8290.306550,0.000000
597.065303,-814.226536,-7994.224174,153.219100
597.065630,-518.144159,-7698.141797,995.924147
597.065958,-1184.329507,-8068.244768,229.828649
597.066286,-962.267725,-9178.553681,689.485948
597.066613,-1924.535449,-8660.409521,153.219100
597.066941,-740.205942,-8734.430116,383.047749
597.067268,0.000000,-8512.368333,995.924147
597.067596,592.164754,-8216.285956,1378.971896
597.067924,296.082377,-8956.491898,995.924147
597.068251,-222.061783,-9400.615463,1378.971896
597.068579,-1554.432478,-9178.553681,383.047749
597.068906,-1850.514855,-9622.677246,76.609550
597.069234,-1776.494261,-9400.615463,0.000000
597.069562,-962.267725,-8882.471304,0.000000
597.069889,-370.102971,-8512.368333,-229.828649
597.070217,74.020594,-8660.409521,536.266849
597.070544,592.164754,-8586.388927,229.828649
597.070872,222.061783,-8142.265362,0.000000
597.071200,1110.308913,-8882.471304,306.438199
597.071527,1332.370696,-8586.388927,229.828649
597.071855,1258.350101,-8586.388927,919.314598
597.072182,1036.288319,-9400.615463,689.485948
597.072510,148.041188,-9918.759623,612.876398
597.072838,-1110.308913,-10732.986159,0.000000
597.073165,-1480.411884,-10214.842000,-612.876398
597.073493,-962.267725,-10066.800811,-612.876398
597.073820,-222.061783,-9104.533087,-459.657299
597.074148,1036.288319,-9400.615463,689.485948
597.074476,0.000000,-9992.780217,-306.438199
597.074803,370.102971,-9548.656652,306.438199
597.075131,148.041188,-8438.347739,0.000000
597.075458,1406.391290,-7846.182985,536.266849
597.075786,1850.514855,-7920.203579,1149.143247
597.076113,1332.370696,-8142.265362,995.924147
597.076441,296.082377,-9474.636058,1762.019645
597.076769,-814.226536,-10214.842000,1455.581446
597.077096,-2664.741391,-10807.006753,689.485948
597.077424,-3034.844362,-10807.006753,612.876398
597.077751,-1776.494261,-9844.739029,0.000000
597.078079,-1480.411884,-9548.656652,153.219100
597.078407,-296.082377,-9400.615463,459.657299
597.078734,-518.144159,-9326.594869,536.266849
597.079062,-148.041188,-8142.265362,536.266849
597.079389,0.000000,-7179.997637,842.705048
597.079717,888.247130,-8290.306550,536.266849
597.080045,1036.288319,-7846.182985,1378.971896
597.080372,518.144159,-8734.430116,1608.800546
597.080700,-370.102971,-9400.615463,1991.848295
597.081027,-1332.370696,-9400.615463,1838.629195
597.081355,-3034.844362,-10288.862594,1302.362347
597.081683,-3182.885551,-10288.862594,459.657299
597.082010,-2368.659014,-9474.636058,306.438199
597.082338,-1036.288319,-8808.450710,383.047749
597.082665,-74.020594,-8068.244768,689.485948
597.082993,740.205942,-8660.409521,1149.143247
597.083321,1184.329507,-7328.038826,612.876398
597.083648,2368.659014,-6587.832884,1149.143247
597.083976,3849.070898,-7105.977043,2451.505594
597.084303,3997.112087,-7254.018232,3524.039291
597.084631,3256.906145,-8734.430116,4060.306139
597.084959,962.267725,-10288.862594,4136.915689
597.085286,-1110.308913,-11251.130318,3524.039291
597.085614,-3552.988522,-11473.192101,2068.457845
597.085941,-3849.070898,-11769.274478,2068.457845
597.086269,-2146.597232,-9844.739029,2068.457845
597.086597,-370.102971,-7846.182985,1991.848295
597.086924,1110.308913,-7624.121203,2987.772442
597.087252,1480.411884,-7254.018232,2528.115143
597.087579,1406.391290,-7105.977043,2451.505594
597.087907,0.000000,-6809.894666,1991.848295
597.088235,-666.185348,-7920.203579,1532.190996
597.088562,-1110.308913,-8216.285956,1762.019645
597.088890,-1480.411884,-8586.388927,2298.286494
597.089217,-1554.432478,-9474.636058,2987.772442
597.089545,-1554.432478,-9918.759623,3217.601092
597.089873,-2368.659014,-10362.883188,3447.429741
597.090200,-3775.050304,-11547.212695,2451.505594
597.090528,-4145.153275,-11103.089130,1838.629195
597.090855,-2738.761985,-9918.759623,1378.971896
597.091183,-2442.679609,-9104.533087,689.485948
597.091511,-1628.453072,-8956.491898,383.047749
597.091838,0.000000,-8068.244768,612.876398
597.092166,1332.370696,-7254.018232,1072.533697
597.092493,3404.947333,-6513.812290,2298.286494
597.092821,5625.565159,-6587.832884,3140.991542
597.093149,6217.729913,-8660.409521,4673.182538
597.093476,3923.091493,-10436.903782,4979.620737
597.093804,2072.576638,-12509.480420,5056.230287
597.094131,370.102971,-12953.603985,5132.839837
597.094459,-1850.514855,-13249.686362,4519.963438
597.094787,-1332.370696,-13175.665768,4519.963438
597.095114,-296.082377,-11325.150913,4979.620737
597.095442,1110.308913,-9548.656652,5439.278036
597.095769,444.123565,-8586.388927,4596.572988
597.096097,-148.041188,-8216.285956,3370.820191
597.096425,-1184.329507,-7476.080014,2987.772442
597.096752,-1628.453072,-6439.791695,995.924147
597.097080,-1628.453072,-6365.771101,1455.581446
597.097407,0.000000,-6809.894666,2528.115143
597.097735,814.226536,-6883.915261,4290.134789
597.098063,814.226536,-7772.162391,5515.887586
597.098390,0.000000,-9030.512492,6588.421283
597.098718,-2960.823768,-10955.047942,5975.544884
597.099045,-5477.523971,-11473.192101,4903.011187
597.099373,-6513.812290,-11177.109724,3447.429741
597.099701,-5921.647536,-10881.027347,3447.429741
597.100028,-4737.318029,-8956.491898,3830.477490
597.100356,-740.205942,-7550.100608,4136.915689
597.100683,1036.288319,-6439.791695,3830.477490
597.101011,1776.494261,-6513.812290,3447.429741
597.101338,74.020594,-5995.668130,2145.067394
597.101666,222.061783,-6069.688724,1915.238745
597.101994,666.185348,-7402.059420,1302.362347
597.102321,666.185348,-8068.244768,1838.629195
597.102649,2368.659014,-8956.491898,3370.820191
597.102976,4515.256246,-9252.574275,5132.839837
597.103304,4885.359217,-10140.821405,6818.249932
597.103632,2886.803174,-11177.109724,6588.421283
597.103959,-592.164754,-12435.459826,6128.763984
597.104287,-1998.556043,-12509.480420,4443.353888
597.104614,-2516.700203,-11399.171507,3370.820191
597.104942,-2146.597232,-9844.739029,2911.162892
597.105270,-518.144159,-8808.450710,3370.820191
597.105597,888.247130,-7624.121203,2911.162892
597.105925,1850.514855,-6365.771101,2681.334243
597.106252,2146.597232,-5773.606348,2451.505594
597.106580,370.102971,-6883.915261,1378.971896
597.106908,-2368.659014,-8882.471304,76.609550
597.107235,-4811.338623,-10214.842000,-536.266849
597.107563,-5107.421000,-10288.862594,-536.266849
597.107890,-3256.906145,-9770.718434,536.266849
597.108218,-888.247130,-9770.718434,1991.848295
597.108546,370.102971,-9696.697840,3370.820191
597.108873,666.185348,-10362.883188,3753.867940
597.109201,1332.370696,-9770.718434,4060.306139
597.109528,666.185348,-9252.574275,3677.258390
597.109856,888.247130,-9622.677246,3294.210641
597.110184,666.185348,-10362.883188,2834.553343
597.110511,1850.514855,-10066.800811,2757.943793
597.110839,2738.761985,-8808.450710,3753.867940
597.111166,4145.153275,-8586.388927,4519.963438
597.111494,4515.256246,-9326.594869,4903.011187
597.111822,3701.029710,-10510.924376,4519.963438
597.112149,2590.720797,-10955.047942,4826.401637
597.112477,1036.288319,-10362.883188,3753.867940
597.112804,666.185348,-10955.047942,4366.744339
597.113132,0.000000,-11103.089130,3983.696590
597.113460,-2368.659014,-12065.356855,4366.744339
597.113787,-3478.967927,-11325.150913,3830.477490
597.114115,-3404.947333,-9696.697840,3370.820191
597.114442,-3701.029710,-8290.306550,2911.162892
597.114770,-2516.700203,-7328.038826,2834.553343
597.115098,-2664.741391,-7179.997637,2757.943793
597.115425,-2960.823768,-7179.997637,2681.334243
597.115753,-2960.823768,-6661.853478,2451.505594
597.116080,-1850.514855,-6439.791695,2987.772442
597.116408,0.000000,-6365.771101,3447.429741
597.116736,1110.308913,-7846.182985,4290.134789
597.117063,0.000000,-9178.553681,4213.525239
597.117391,-1406.391290,-9844.739029,4596.572988
597.117719,-2072.576638,-10732.986159,4366.744339
597.118046,-1258.350101,-9992.780217,3830.477490
597.118374,814.226536,-9474.636058,4366.744339
597.118702,2294.638420,-9696.697840,4366.744339
597.119029,2368.659014,-9770.718434,4596.572988
597.119357,1998.556043,-9844.739029,3983.696590
597.119685,1036.288319,-9104.533087,3677.258390
597.120012,1406.391290,-8512.368333,3983.696590
597.120340,1702.473667,-8364.327145,3677.258390
597.120668,1110.308913,-8734.430116,3830.477490
597.120995,444.123565,-9030.512492,4136.915689
597.121323,-888.247130,-9104.533087,3447.429741
597.121651,-2738.761985,-9326.594869,3294.210641
597.121978,-2368.659014,-8882.471304,2528.115143
597.122306,-1850.514855,-8512.368333,3064.381992
597.122634,-1480.411884,-8142.265362,3600.648841
597.122961,-148.041188,-7920.203579,2987.772442
597.123289,-888.247130,-7698.141797,3524.039291
597.123617,-1554.432478,-7328.038826,2757.943793
597.123945,-2294.638420,-7772.162391,1762.019645
597.124272,-1480.411884,-7698.141797,1378.971896
597.124600,-1184.329507,-7994.224174,1685.410096
597.124928,592.164754,-7846.182985,2451.505594
597.125255,1702.473667,-8142.265362,3677.258390
597.125583,2368.659014,-8586.388927,4519.963438
597.125911,1998.556043,-9918.759623,4519.963438
597.126238,962.267725,-10881.027347,3600.648841
597.126566,-814.226536,-11621.233289,3140.991542
597.126894,-1110.308913,-11547.212695,3140.991542
597.127221,-814.226536,-11177.109724,3370.820191
597.127549,1332.370696,-10436.903782,4213.525239
597.127877,2516.700203,-9326.594869,4826.401637
597.128204,2960.823768,-9770.718434,4749.792088
597.128532,1850.514855,-9622.677246,4366.744339
597.128860,-1110.308913,-9474.636058,2604.724693
597.129187,-3256.906145,-9622.677246,1608.800546
597.129515,-3478.967927,-9326.594869,1608.800546
597.129843,-2294.638420,-9030.512492,2221.676944
597.130170,-814.226536,-7994.224174,2757.943793
597.130498,666.185348,-7550.100608,3830.477490
597.130826,1258.350101,-7624.121203,4366.744339
597.131154,-222.061783,-7920.203579,4213.525239
597.131481,-1184.329507,-9030.512492,3370.820191
597.131809,-2812.782580,-9992.780217,2528.115143
597.132137,-3256.906145,-10436.903782,1915.238745
597.132464,-2886.803174,-10214.842000,1991.848295
597.132792,-1184.329507,-9474.636058,3217.601092
597.133120,666.185348,-8882.471304,3524.039291
597.133447,1924.535449,-8808.450710,4060.306139
597.133775,2146.597232,-8660.409521,4213.525239
597.134103,1406.391290,-9178.553681,3600.648841
597.134430,222.061783,-9696.697840,3140.991542
597.134758,-370.102971,-10214.842000,2604.724693
597.135086,-444.123565,-10140.821405,2911.162892
597.135413,74.020594,-9992.780217,3294.210641
597.135741,148.041188,-9844.739029,3677.258390
597.136069,-222.061783,-9178.553681,3983.696590
597.136396,-444.123565,-8882.471304,3600.648841
597.136724,-666.185348,-8586.388927,2834.553343
597.137052,-444.123565,-8438.347739,2834.553343
597.137380,0.000000,-7994.224174,2528.115143
597.137707,444.123565,-7550.100608,2834.553343
597.138035,1480.411884,-7624.121203,3983.696590
597.138363,1258.350101,-7476.080014,4060.306139
597.138690,1406.391290,-8068.244768,4136.915689
597.139018,1110.308913,-8586.388927,4136.915689
597.139346,74.020594,-8956.491898,3983.696590
597.139673,-222.061783,-9474.636058,4519.963438
597.140001,-962.267725,-9622.677246,3753.867940
597.140329,-1036.288319,-9696.697840,3677.258390
597.140656,-592.164754,-9622.677246,3600.648841
597.140984,-296.082377,-9474.636058,3294.210641
597.141312,0.000000,-8882.471304,3294.210641
597.141639,-148.041188,-8882.471304,3064.381992
597.141967,-888.247130,-8586.388927,2834.553343
597.142295,-1110.308913,-8438.347739,2681.334243
597.142622,-1258.350101,-8660.409521,2451.505594
597.142950,-1258.350101,-8290.306550,2528.115143
597.143278,-1036.288319,-8142.265362,2834.553343
597.143606,-666.185348,-8142.265362,3064.381992
597.143933,0.000000,-8882.471304,3600.648841
597.144261,0.000000,-9178.553681,3753.867940
597.144589,-370.102971,-9474.636058,3600.648841
597.144916,-962.267725,-8956.491898,3677.258390
597.145244,-1480.411884,-9474.636058,3370.820191
597.145572,-1184.329507,-9548.656652,3140.991542
597.145899,-518.144159,-9178.553681,2911.162892
597.146227,222.061783,-9178.553681,2987.772442
597.146555,962.267725,-8808.450710,3447.429741
597.146882,1110.308913,-9326.594869,2681.334243
597.147210,370.102971,-9770.718434,2221.676944
597.147538,0.000000,-10288.862594,2374.896044
597.147865,-444.123565,-10362.883188,2068.457845
597.148193,0.000000,-10584.944971,1991.848295
597.148521,-518.144159,-9844.739029,1838.629195
597.148848,-296.082377,-10066.800811,1991.848295
597.149176,-296.082377,-9992.780217,1915.238745
597.149504,-814.226536,-9918.759623,1838.629195
597.149831,-1110.308913,-9474.636058,1455.581446
597.150159,-888.247130,-9252.574275,1378.971896
597.150487,-814.226536,-8808.450710,1378.971896
597.150815,-370.102971,-8068.244768,1149.143247
597.151142,296.082377,-7920.203579,1072.533697
597.151470,740.205942,-8142.265362,1302.362347
597.151798,740.205942,-8068.244768,1991.848295
597.152125,74.020594,-8290.306550,1149.143247
597.152453,0.000000,-8882.471304,1302.362347
597.152781,-148.041188,-9548.656652,1302.362347
597.153108,0.000000,-9770.718434,1225.752797
597.153436,740.205942,-9844.739029,1685.410096
597.153764,1332.370696,-9844.739029,1608.800546
597.154091,1258.350101,-9992.780217,2145.067394
597.154419,740.205942,-9622.677246,2145.067394
597.154747,444.123565,-9696.697840,1838.629195
597.155074,-296.082377,-9252.574275,1378.971896
597.155402,-592.164754,-8808.450710,1225.752797
597.155730,-1036.288319,-9030.512492,689.485948
597.156057,-888.247130,-8660.409521,995.924147
597.156385,-592.164754,-8512.368333,842.705048
597.156713,-518.144159,-8142.265362,1072.533697
597.157041,-370.102971,-7772.162391,995.924147
597.157368,-518.144159,-8142.265362,766.095498
597.157696,-814.226536,-7846.182985,612.876398
597.158024,-1036.288319,-7846.182985,536.266849
597.158351,-666.185348,-8216.285956,766.095498
597.158679,-962.267725,-8290.306550,842.705048
597.159007,-222.061783,-8438.347739,1302.362347
597.159334,-518.144159,-8882.471304,995.924147
597.159662,-296.082377,-8734.430116,1072.533697
597.159990,-222.061783,-9030.512492,919.314598
597.160317,0.000000,-8882.471304,0.000000
597.160645,0.000000,-8734.430116,919.314598
597.160973,148.041188,-9326.594869,842.705048
597.161300,222.061783,-9400.615463,919.314598
597.161628,0.000000,-9400.615463,1072.533697
597.161956,148.041188,-9622.677246,1072.533697
597.162283,74.020594,-9548.656652,1608.800546
597.162611,-444.123565,-9548.656652,1225.752797
597.162939,-296.082377,-9548.656652,919.314598
597.163266,-296.082377,-9326.594869,919.314598
597.163594,-666.185348,-9178.553681,689.485948
597.163922,-444.123565,-9326.594869,459.657299
597.164250,-592.164754,-8734.430116,995.924147
597.164577,-592.164754,-8734.430116,995.924147
597.164905,-666.185348,-8660.409521,612.876398
597.165233,-962.267725,-8660.409521,612.876398
597.165560,-1184.329507,-8882.471304,0.000000
597.165888,-888.247130,-8512.368333,536.266849
597.166216,-814.226536,-9178.553681,536.266849
597.166543,-740.205942,-9104.533087,383.047749
597.166871,-296.082377,-9326.594869,459.657299
597.167199,-296.082377,-9326.594869,612.876398
597.167526,370.102971,-9474.636058,766.095498
597.167854,148.041188,-9622.677246,383.047749
597.168182,0.000000,-9992.780217,383.047749
597.168509,-148.041188,-10066.800811,229.828649
597.168837,-296.082377,-10066.800811,383.047749
597.169165,-296.082377,-9696.697840,766.095498
597.169492,222.061783,-9918.759623,459.657299
597.169820,148.041188,-9548.656652,459.657299
597.170148,444.123565,-9622.677246,536.266849
597.170476,222.061783,-9400.615463,459.657299
597.170803,296.082377,-8734.430116,536.266849
597.171131,148.041188,-9030.512492,536.266849
597.171459,0.000000,-9030.512492,536.266849
597.171786,-296.082377,-9252.574275,612.876398
597.172114,-148.041188,-9030.512492,536.266849
597.172442,370.102971,-9030.512492,383.047749
597.172769,296.082377,-8734.430116,76.609550
597.173097,74.020594,-8882.471304,306.438199
597.173425,0.000000,-8734.430116,306.438199
597.173752,74.020594,-8512.368333,306.438199
597.174080,0.000000,-8364.327145,229.828649
597.174408,-518.144159,-8216.285956,536.266849
597.174735,-518.144159,-8734.430116,229.828649
597.175063,-740.205942,-9178.553681,306.438199
597.175391,-814.226536,-9178.553681,306.438199
597.175718,-740.205942,-9252.574275,536.266849
597.176046,-740.205942,-8586.388927,1072.533697
597.176374,-592.164754,-8586.388927,536.266849
597.176701,-444.123565,-8364.327145,306.438199
597.177029,-518.144159,-8586.388927,383.047749
597.177357,-518.144159,-8364.327145,306.438199
597.177685,-370.102971,-8660.409521,306.438199
597.178012,-740.205942,-8438.347739,612.876398
597.178340,-1036.288319,-8882.471304,612.876398
597.178668,-1036.288319,-9178.553681,536.266849
597.178995,-740.205942,-8956.491898,689.485948
597.179323,-222.061783,-8956.491898,612.876398
597.179651,-222.061783,-8512.368333,689.485948
597.179978,-370.102971,-8808.450710,459.657299
597.180306,-296.082377,-8956.491898,459.657299
597.180634,-370.102971,-9104.533087,536.266849
597.180961,-592.164754,-9252.574275,766.095498
597.181289,-222.061783,-9474.636058,306.438199
597.181617,-296.082377,-9474.636058,689.485948
597.181944,-148.041188,-9696.697840,612.876398
597.182272,0.000000,-9548.656652,536.266849
597.182600,0.000000,-9474.636058,536.266849
597.182927,-148.041188,-9178.553681,842.705048
597.183255,-148.041188,-9474.636058,306.438199
597.183583,-296.082377,-9326.594869,536.266849
597.183911,-518.144159,-9252.574275,612.876398
597.184238,-518.144159,-9400.615463,536.266849
597.184566,-222.061783,-9326.594869,919.314598
597.184894,-296.082377,-9326.594869,612.876398
597.185221,-148.041188,-9252.574275,612.876398
597.185549,-222.061783,-8882.471304,306.438199
597.185877,0.000000,-8882.471304,229.828649
597.186204,0.000000,-9178.553681,383.047749
597.186532,-370.102971,-9252.574275,919.314598
597.186860,-222.061783,-9400.615463,536.266849
597.187187,-592.164754,-9548.656652,919.314598
597.187515,-370.102971,-9696.697840,842.705048
597.187843,-222.061783,-9844.739029,1072.533697
597.188170,-370.102971,-9326.594869,689.485948
597.188498,-370.102971,-8734.430116,842.705048
597.188826,-814.226536,-8882.471304,459.657299
597.189153,-740.205942,-8882.471304,383.047749
597.189481,-1036.288319,-8956.491898,612.876398
597.189809,-962.267725,-9252.574275,459.657299
597.190136,-592.164754,-8882.471304,612.876398
597.190464,-592.164754,-8660.409521,689.485948
597.190792,-222.061783,-8586.388927,842.705048
597.191120,148.041188,-8512.368333,842.705048
597.191447,814.226536,-8142.265362,766.095498
597.191775,444.123565,-8290.306550,306.438199
597.192103,74.020594,-8882.471304,689.485948
597.192430,-222.061783,-9474.636058,842.705048
597.192758,-370.102971,-9844.739029,995.924147
597.193086,-370.102971,-9992.780217,1455.581446
597.193413,0.000000,-9918.759623,1378.971896
597.193741,222.061783,-9326.594869,842.705048
597.194069,592.164754,-8734.430116,306.438199
597.194396,592.164754,-8142.265362,0.000000
597.194724,518.144159,-7846.182985,229.828649
597.195052,666.185348,-7994.224174,0.000000
597.195379,0.000000,-8734.430116,229.828649
597.195707,-666.185348,-8808.450710,383.047749
597.196035,-592.164754,-9548.656652,612.876398
597.196362,-592.164754,-9474.636058,612.876398
597.196690,-296.082377,-9400.615463,153.219100
597.197018,-148.041188,-8956.491898,383.047749
597.197346,296.082377,-8586.388927,229.828649
597.197673,148.041188,-8512.368333,229.828649
597.198001,296.082377,-8660.409521,229.828649
597.198329,74.020594,-8882.471304,0.000000
597.198656,-296.082377,-9104.533087,766.095498
597.198984,-740.205942,-9400.615463,919.314598
597.199312,-814.226536,-9770.718434,689.485948
597.199639,-666.185348,-9770.718434,536.266849
597.199967,-444.123565,-9474.636058,536.266849
597.200295,-148.041188,-9030.512492,229.828649
597.200622,296.082377,-8808.450710,383.047749
597.200950,370.102971,-9030.512492,536.266849
597.201278,148.041188,-9178.553681,459.657299
597.201605,0.000000,-9696.697840,766.095498
597.201933,-518.144159,-9474.636058,1072.533697
597.202261,-444.123565,-10362.883188,842.705048
597.202588,-592.164754,-9992.780217,766.095498
597.202916,-518.144159,-9770.718434,612.876398
597.203244,-222.061783,-9474.636058,459.657299
597.203571,0.000000,-9326.594869,229.828649
597.203899,444.123565,-9104.533087,229.828649
597.204227,-444.123565,-8882.471304,612.876398
597.204555,-444.123565,-9252.574275,612.876398
597.204882,-814.226536,-9474.636058,612.876398
597.205210,-444.123565,-9548.656652,1072.533697
597.205538,-814.226536,-9474.636058,383.047749
597.205865,-370.102971,-9548.656652,689.485948
597.206193,-222.061783,-9400.615463,459.657299
597.206521,-148.041188,-9252.574275,459.657299
597.206848,0.000000,-8882.471304,995.924147
597.207176,-444.123565,-9030.512492,689.485948
597.207504,-444.123565,-9696.697840,766.095498
597.207831,-444.123565,-9770.718434,766.095498
597.208159,-592.164754,-9474.636058,995.924147
597.208487,-814.226536,-9548.656652,919.314598
597.208814,-666.185348,-9252.574275,1149.143247
597.209142,-888.247130,-8956.491898,229.828649
597.209470,-814.226536,-8364.327145,612.876398
597.209797,-592.164754,-7846.182985,536.266849
597.210125,-740.205942,-8068.244768,383.047749
597.210453,-518.144159,-8586.388927,612.876398
597.210781,-740.205942,-8586.388927,229.828649
597.211108,-740.205942,-8586.388927,536.266849
597.211436,-888.247130,-8808.450710,842.705048
597.211764,-740.205942,-8882.471304,612.876398
597.212091,-222.061783,-8808.450710,766.095498
597.212419,0.000000,-8734.430116,459.657299
597.212747,-444.123565,-8660.409521,536.266849
597.213074,-518.144159,-8586.388927,383.047749
597.213402,-370.102971,-8882.471304,766.095498
597.213730,0.000000,-9178.553681,919.314598
597.214057,-148.041188,-8734.430116,76.609550
597.214385,-592.164754,-8808.450710,689.485948
597.214713,-444.123565,-9030.512492,383.047749
597.215040,-444.123565,-8956.491898,153.219100
597.215368,74.020594,-8808.450710,383.047749
597.215696,148.041188,-8364.327145,383.047749
597.216023,222.061783,-8808.450710,383.047749
597.216351,296.082377,-8956.491898,306.438199
597.216679,222.061783,-9252.574275,612.876398
597.217007,222.061783,-9326.594869,612.876398
597.217334,0.000000,-9178.553681,995.924147
597.217662,0.000000,-9474.636058,229.828649
597.217990,-222.061783,-9252.574275,383.047749
597.218317,-222.061783,-8882.471304,229.828649
597.218645,0.000000,-8956.491898,229.828649
597.218973,0.000000,-8734.430116,536.266849
597.219300,0.000000,-8512.368333,536.266849
597.219628,-296.082377,-8956.491898,536.266849
597.219955,-296.082377,-8882.471304,459.657299
597.220283,-222.061783,-9400.615463,536.266849
597.220611,0.000000,-9474.636058,842.705048
597.220938,-222.061783,-9326.594869,689.485948
597.221266,-370.102971,-9622.677246,766.095498
597.221593,-296.082377,-9548.656652,919.314598
597.221921,-148.041188,-9474.636058,612.876398
597.222249,-148.041188,-9474.636058,919.314598
597.222576,0.000000,-9474.636058,536.266849
597.222904,0.000000,-9326.594869,612.876398
597.223232,-296.082377,-9178.553681,689.485948
597.223559,-296.082377,-9104.533087,383.047749
597.223887,-370.102971,-9030.512492,689.485948
597.224214,0.000000,-8956.491898,612.876398
597.224542,148.041188,-9474.636058,1149.143247
597.224870,-148.041188,-9178.553681,842.705048
597.225197,-222.061783,-9252.574275,612.876398
597.225525,0.000000,-9326.594869,689.485948
597.225852,0.000000,-9326.594869,536.266849
597.226180,296.082377,-9178.553681,842.705048
597.226508,74.020594,-9252.574275,459.657299
597.226835,0.000000,-9104.533087,306.438199
597.227163,0.000000,-9030.512492,383.047749
597.227491,0.000000,-9326.594869,383.047749
597.227818,-296.082377,-9104.533087,1072.533697
597.228146,-148.041188,-9178.553681,76.609550
597.228473,0.000000,-9178.553681,536.266849
597.228801,0.000000,-9178.553681,536.266849
597.229129,0.000000,-9104.533087,153.219100
597.229456,0.000000,-8956.491898,0.000000
597.229784,222.061783,-9178.553681,383.047749
597.230111,0.000000,-9030.512492,306.438199
597.230439,0.000000,-9178.553681,459.657299
597.230767,-222.061783,-9252.574275,383.047749
597.231094,0.000000,-8956.491898,842.705048
597.231422,0.000000,-9178.553681,536.266849
597.231750,0.000000,-9178.553681,536.266849
597.232077,-222.061783,-8882.471304,306.438199
597.232405,0.000000,-8882.471304,459.657299
597.232732,-148.041188,-9030.512492,536.266849
597.233060,0.000000,-8956.491898,459.657299
597.233388,-444.123565,-8956.491898,689.485948
597.233715,-518.144159,-9030.512492,612.876398
597.234043,-592.164754,-9326.594869,459.657299
597.234371,-666.185348,-9326.594869,689.485948
597.234698,-592.164754,-9104.533087,1378.971896
597.235026,-148.041188,-9030.512492,689.485948
597.235353,-518.144159,-8956.491898,536.266849
597.235681,-592.164754,-9030.512492,612.876398
597.236009,-592.164754,-8882.471304,459.657299
597.236336,-592.164754,-8808.450710,842.705048
597.236664,148.041188,-8956.491898,536.266849
597.236991,-518.144159,-9030.512492,689.485948
597.237319,-444.123565,-9326.594869,536.266849
597.237647,-592.164754,-9400.615463,459.657299
597.237974,-370.102971,-9474.636058,766.095498
597.238302,0.000000,-9030.512492,766.095498
597.238630,-370.102971,-9104.533087,689.485948
597.238957,-370.102971,-8956.491898,612.876398
597.239285,-444.123565,-8882.471304,306.438199
597.239612,-666.185348,-8956.491898,612.876398
597.239940,-666.185348,-8956.491898,1072.533697
597.240268,-740.205942,-9104.533087,919.314598
597.240595,-814.226536,-8956.491898,383.047749
597.240923,-740.205942,-9030.512492,459.657299
597.241250,-370.102971,-8956.491898,459.657299
597.241578,-444.123565,-8586.388927,689.485948
597.241906,-296.082377,-9030.512492,153.219100
597.242233,-740.205942,-9104.533087,536.266849
597.242561,-666.185348,-9104.533087,612.876398
597.242889,-592.164754,-8882.471304,689.485948
597.243216,-666.185348,-8808.450710,689.485948
597.243544,-222.061783,-9178.553681,229.828649
597.243871,-518.144159,-9178.553681,536.266849
597.244199,-296.082377,-8956.491898,306.438199
597.244527,-296.082377,-8808.450710,689.485948
597.244854,-296.082377,-8586.388927,536.266849
597.245182,148.041188,-8512.368333,459.657299
597.245509,-296.082377,-8956.491898,612.876398
597.245837,-222.061783,-8956.491898,612.876398
597.246165,-222.061783,-9104.533087,383.047749
597.246492,-370.102971,-9104.533087,459.657299
597.246820,0.000000,-9252.574275,612.876398
597.247148,-222.061783,-9178.553681,459.657299
597.247475,-222.061783,-8956.491898,459.657299
597.247803,0.000000,-8734.430116,536.266849
597.248130,0.000000,-8734.430116,306.438199
597.248458,-222.061783,-8808.450710,612.876398
597.248786,0.000000,-8956.491898,306.438199
597.249113,0.000000,-8882.471304,459.657299
597.249441,-148.041188,-9178.553681,306.438199
597.249768,-296.082377,-9252.574275,229.828649
597.250096,0.000000,-8956.491898,153.219100
597.250424,444.123565,-8956.491898,689.485948
597.250751,74.020594,-9104.533087,153.219100
597.251079,296.082377,-9252.574275,536.266849
597.251407,74.020594,-9030.512492,536.266849
597.251734,74.020594,-9252.574275,536.266849
597.252062,0.000000,-9252.574275,76.609550
597.252389,-296.082377,-9326.594869,842.705048
597.252717,-444.123565,-9252.574275,459.657299
597.253045,-74.020594,-9326.594869,612.876398
597.253372,0.000000,-9030.512492,459.657299
597.253700,370.102971,-9326.594869,229.828649
597.254027,0.000000,-9104.533087,612.876398
597.254355,0.000000,-9326.594869,459.657299
597.254683,-296.082377,-9400.615463,383.047749
597.255010,-148.041188,-9326.594869,459.657299
597.255338,-592.164754,-9104.533087,689.485948
597.255666,0.000000,-9326.594869,766.095498
597.255993,0.000000,-9400.615463,306.438199
597.256321,-370.102971,-9326.594869,536.266849
597.256648,-148.041188,-9252.574275,689.485948
597.256976,-370.102971,-9104.533087,229.828649
597.257304,-370.102971,-8882.471304,536.266849
597.257631,0.000000,-9326.594869,153.219100
597.257959,0.000000,-9326.594869,229.828649
597.258287,-296.082377,-9400.615463,459.657299
597.258614,-148.041188,-9548.656652,766.095498
597.258942,0.000000,-10066.800811,766.095498
597.259269,0.000000,-9548.656652,689.485948
597.259597,0.000000,-9770.718434,536.266849
597.259925,0.000000,-9474.636058,766.095498
597.260252,0.000000,-9474.636058,459.657299
597.260580,-444.123565,-8512.368333,919.314598
597.260907,0.000000,-9104.533087,536.266849
597.261235,0.000000,-8956.491898,536.266849
597.261563,0.000000,-9030.512492,689.485948
597.261890,-222.061783,-8956.491898,536.266849
597.262218,74.020594,-9030.512492,842.705048
597.262546,-740.205942,-8956.491898,689.485948
597.262873,-666.185348,-9252.574275,689.485948
597.263201,-740.205942,-9326.594869,459.657299
597.263528,-740.205942,-9252.574275,919.314598
597.263856,-370.102971,-9030.512492,919.314598
597.264184,-148.041188,-9252.574275,995.924147
597.264511,-518.144159,-9252.574275,689.485948
597.264839,-592.164754,-8956.491898,689.485948
597.265166,-444.123565,-8882.471304,766.095498
597.265494,-666.185348,-8882.471304,689.485948
597.265822,-518.144159,-8882.471304,919.314598
597.266149,-444.123565,-8882.471304,459.657299
597.266477,-296.082377,-9030.512492,766.095498
597.266805,-370.102971,-9104.533087,612.876398
597.267132,-592.164754,-8808.450710,536.266849
597.267460,-148.041188,-9030.512492,689.485948
597.267787,-666.185348,-8808.450710,536.266849
597.268115,-370.102971,-8956.491898,459.657299
597.268443,-370.102971,-8956.491898,689.485948
597.268770,-444.123565,-8808.450710,612.876398
597.269098,0.000000,-8660.409521,306.438199
597.269425,0.000000,-8512.368333,0.000000
597.269753,-444.123565,-8734.430116,229.828649
597.270081,-518.144159,-8660.409521,383.047749
597.270408,-592.164754,-8660.409521,306.438199
597.270736,-592.164754,-8586.388927,0.000000
597.271064,-222.061783,-8660.409521,995.924147
597.271391,-444.123565,-9252.574275,383.047749
597.271719,-518.144159,-9178.553681,229.828649
597.272046,-222.061783,-9104.533087,383.047749
597.272374,-148.041188,-9178.553681,153.219100
597.272702,-518.144159,-8882.471304,612.876398
597.273029,-370.102971,-8734.430116,153.219100
597.273357,-296.082377,-8882.471304,383.047749
597.273684,-296.082377,-8956.491898,459.657299
597.274012,0.000000,-9030.512492,459.657299
597.274340,0.000000,-8808.450710,766.095498
597.274667,0.000000,-8734.430116,229.828649
597.274995,-148.041188,-8956.491898,536.266849
597.275323,-296.082377,-8882.471304,536.266849
597.275650,-370.102971,-9178.553681,383.047749
597.275978,-370.102971,-8956.491898,766.095498
597.276305,0.000000,-8660.409521,995.924147
597.276633,-444.123565,-9326.594869,383.047749
597.276961,-296.082377,-9326.594869,536.266849
597.277288,-296.082377,-9178.553681,459.657299
597.277616,-296.082377,-9030.512492,689.485948
597.277944,0.000000,-8808.450710,995.924147
597.278271,0.000000,-8808.450710,536.266849
597.278599,-222.061783,-8956.491898,383.047749
597.278926,-592.164754,-9474.636058,383.047749
597.279254,-444.123565,-9326.594869,766.095498
597.279582,-666.185348,-9178.553681,612.876398
597.279909,-518.144159,-9252.574275,842.705048
597.280237,-444.123565,-9474.636058,842.705048
597.280564,-222.061783,-9548.656652,919.314598
597.280892,0.000000,-9400.615463,689.485948
597.281220,74.020594,-9030.512492,766.095498
597.281547,-296.082377,-9178.553681,459.657299
597.281875,-148.041188,-9252.574275,842.705048
597.282203,0.000000,-9400.615463,689.485948
597.282530,0.000000,-9326.594869,612.876398
597.282858,-296.082377,-9178.553681,766.095498
597.283185,0.000000,-9252.574275,919.314598
597.283513,0.000000,-9252.574275,689.485948
597.283841,0.000000,-9474.636058,459.657299
597.284168,0.000000,-9326.594869,689.485948
597.284496,0.000000,-9326.594869,612.876398
597.284823,0.000000,-9104.533087,0.000000
597.285151,0.000000,-9474.636058,459.657299
597.285479,0.000000,-9474.636058,689.485948
597.285806,-296.082377,-9252.574275,689.485948
597.286134,-148.041188,-9474.636058,766.095498
597.286462,74.020594,-9400.615463,536.266849
597.286789,0.000000,-8956.491898,612.876398
597.287117,0.000000,-9178.553681,459.657299
597.287444,0.000000,-9030.512492,459.657299
597.287772,-296.082377,-9178.553681,536.266849
597.288100,-222.061783,-9178.553681,919.314598
597.288427,-296.082377,-9252.574275,229.828649
597.288755,-370.102971,-9474.636058,536.266849
597.289082,-444.123565,-9326.594869,612.876398
597.289410,0.000000,-9400.615463,536.266849
597.289738,222.061783,-9326.594869,689.485948
597.290065,0.000000,-8808.450710,383.047749
597.290393,0.000000,-8956.491898,306.438199
597.290721,0.000000,-9030.512492,383.047749
597.291048,-296.082377,-9178.553681,459.657299
597.291376,-222.061783,-9030.512492,536.266849
597.291703,-222.061783,-9178.553681,383.047749
597.292031,-444.123565,-9252.574275,383.047749
597.292359,-518.144159,-9252.574275,766.095498
597.292686,-444.123565,-9178.553681,536.266849
597.293014,-296.082377,-9030.512492,383.047749
597.293341,-296.082377,-8734.430116,536.266849
597.293669,0.000000,-8882.471304,536.266849
597.293997,-370.102971,-8956.491898,536.266849
597.294324,-296.082377,-8956.491898,459.657299
597.294652,-518.144159,-8882.471304,459.657299
597.294980,-444.123565,-8660.409521,229.828649
597.295307,-962.267725,-8586.388927,459.657299
597.295635,-592.164754,-8734.430116,459.657299
597.295962,-592.164754,-8734.430116,536.266849
597.296290,-296.082377,-8734.430116,536.266849
597.296618,-222.061783,-8734.430116,153.219100
597.296945,-740.205942,-9030.512492,689.485948
597.297273,-518.144159,-8956.491898,383.047749
597.297600,-518.144159,-8956.491898,766.095498
597.297928,-444.123565,-8956.491898,766.095498
597.298256,-444.123565,-9474.636058,995.924147
597.298583,-296.082377,-8808.450710,919.314598
597.298911,-222.061783,-8512.368333,306.438199
597.299239,-370.102971,-8216.285956,383.047749
597.299566,-296.082377,-8216.285956,459.657299
597.299894,0.000000,-8734.430116,536.266849
597.300221,-296.082377,-8438.347739,919.314598
597.300549,-518.144159,-8956.491898,459.657299
597.300877,-592.164754,-9178.553681,842.705048
597.301204,-814.226536,-9400.615463,536.266849
597.301532,-518.144159,-9474.636058,766.095498
597.301860,-370.102971,-9548.656652,1149.143247
597.302187,0.000000,-9178.553681,766.095498
597.302515,-444.123565,-9030.512492,536.266849
597.302842,0.000000,-8956.491898,459.657299
597.303170,0.000000,-8956.491898,383.047749
597.303498,222.061783,-8956.491898,842.705048
597.303825,0.000000,-8808.450710,689.485948
597.304153,-148.041188,-9178.553681,459.657299
597.304480,-518.144159,-9178.553681,842.705048
597.304808,-518.144159,-9326.594869,689.485948
597.305136,-296.082377,-9252.574275,842.705048
597.305463,-148.041188,-9252.574275,842.705048
597.305791,-296.082377,-9252.574275,766.095498
597.306119,-222.061783,-9400.615463,842.705048
597.306446,-222.061783,-9400.615463,995.924147
597.306774,-518.144159,-9178.553681,536.266849
597.307101,-370.102971,-9474.636058,612.876398
597.307429,-370.102971,-9104.533087,612.876398
597.307757,-296.082377,-9178.553681,689.485948
597.308084,0.000000,-9178.553681,536.266849
597.308412,0.000000,-9178.553681,536.266849
597.308739,-148.041188,-8808.450710,459.657299
597.309067,0.000000,-9252.574275,842.705048
597.309395,-222.061783,-9252.574275,383.047749
597.309722,0.000000,-9770.718434,689.485948
597.310050,-148.041188,-9548.656652,689.485948
597.310378,0.000000,-9474.636058,1072.533697
597.310705,-296.082377,-9326.594869,383.047749
597.311033,0.000000,-9400.615463,306.438199
597.311360,-148.041188,-9178.553681,383.047749
597.311688,0.000000,-9030.512492,459.657299
597.312016,-148.041188,-8882.471304,229.828649
597.312343,148.041188,-8660.409521,536.266849
597.312671,0.000000,-8586.388927,306.438199
597.312998,-222.061783,-9030.512492,459.657299
597.313326,-148.041188,-9104.533087,383.047749
597.313654,-296.082377,-9252.574275,306.438199
597.313981,0.000000,-9474.636058,0.000000
597.314309,-148.041188,-9326.594869,536.266849
597.314637,0.000000,-9474.636058,459.657299
597.314964,74.020594,-9178.553681,459.657299
597.315292,296.082377,-9474.636058,383.047749
597.315619,0.000000,-9252.574275,383.047749
597.315947,0.000000,-9104.533087,1072.533697
597.316275,-296.082377,-8956.491898,612.876398
597.316602,74.020594,-9178.553681,536.266849
597.316930,0.000000,-9252.574275,383.047749
597.317257,-74.020594,-9104.533087,766.095498
597.317585,-296.082377,-8882.471304,459.657299
597.317913,0.000000,-9252.574275,383.047749
597.318240,-296.082377,-9252.574275,459.657299
597.318568,-296.082377,-9104.533087,612.876398
597.318896,-296.082377,-9178.553681,459.657299
597.319223,-296.082377,-9252.574275,306.438199
597.319551,-518.144159,-8808.450710,612.876398
597.319878,-222.061783,-8734.430116,612.876398
597.320206,-296.082377,-8882.471304,459.657299
597.320534,0.000000,-8808.450710,459.657299
597.320861,-296.082377,-8512.368333,995.924147
597.321189,-296.082377,-8660.409521,536.266849
597.321516,-370.102971,-9178.553681,689.485948
597.321844,-518.144159,-9252.574275,536.266849
597.322171,-518.144159,-9178.553681,842.705048
597.322499,-444.123565,-9252.574275,1149.143247
597.322826,-592.164754,-9178.553681,1225.752797
597.323154,-370.102971,-9474.636058,842.705048
597.323482,-518.144159,-9252.574275,612.876398
597.323809,-518.144159,-8956.491898,383.047749
597.324137,-222.061783,-9030.512492,306.438199
597.324464,-518.144159,-8364.327145,306.438199
597.324792,-666.185348,-8808.450710,383.047749
597.325119,-518.144159,-8882.471304,459.657299
597.325447,-740.205942,-8956.491898,536.266849
597.325774,-814.226536,-9030.512492,459.657299
597.326102,-814.226536,-8808.450710,842.705048
597.326429,-370.102971,-9178.553681,229.828649
597.326757,-370.102971,-8956.491898,842.705048
597.327085,-296.082377,-9030.512492,459.657299
597.327412,-370.102971,-9178.553681,536.266849
597.327740,-444.123565,-8586.388927,766.095498
597.328067,0.000000,-9252.574275,612.876398
597.328395,-222.061783,-8734.430116,689.485948
597.328722,-444.123565,-9030.512492,383.047749
597.329050,-370.102971,-8660.409521,459.657299
597.329377,-296.082377,-8882.471304,842.705048
597.329705,-148.041188,-8660.409521,536.266849
597.330033,-222.061783,-9252.574275,536.266849
597.330360,-222.061783,-9030.512492,612.876398
597.330688,-222.061783,-9252.574275,689.485948
597.331015,-222.061783,-9030.512492,689.485948
597.331343,0.000000,-9104.533087,612.876398
597.331670,-370.102971,-9030.512492,919.314598
597.331998,-370.102971,-8734.430116,612.876398
597.332325,-148.041188,-8808.450710,536.266849
597.332653,-370.102971,-8882.471304,612.876398
597.332980,-148.041188,-9030.512492,612.876398
597.333308,-370.102971,-8882.471304,383.047749
597.333636,-444.123565,-8586.388927,459.657299
597.333963,-740.205942,-8734.430116,612.876398
597.334291,-666.185348,-9252.574275,612.876398
597.334618,-444.123565,-9326.594869,689.485948
597.334946,-296.082377,-9400.615463,536.266849
597.335273,-296.082377,-9474.636058,459.657299
597.335601,-370.102971,-9474.636058,689.485948
597.335928,-222.061783,-9548.656652,842.705048
597.336256,0.000000,-9178.553681,612.876398
597.336583,148.041188,-9030.512492,383.047749
597.336911,0.000000,-9030.512492,306.438199
597.337239,-370.102971,-9030.512492,383.047749
597.337566,-296.082377,-9178.553681,229.828649
597.337894,0.000000,-9252.574275,459.657299
597.338221,0.000000,-9400.615463,383.047749
597.338549,0.000000,-9178.553681,306.438199
597.338876,74.020594,-9474.636058,383.047749
597.339204,74.020594,-9400.615463,306.438199
597.339531,0.000000,-9474.636058,229.828649
597.339859,148.041188,-9622.677246,0.000000
597.340187,0.000000,-9252.574275,383.047749
597.340514,-148.041188,-9400.615463,536.266849
597.340842,0.000000,-9326.594869,306.438199
597.341169,-296.082377,-9326.594869,459.657299
597.341497,0.000000,-9030.512492,306.438199
597.341824,0.000000,-8808.450710,383.047749
597.342152,-296.082377,-9104.533087,306.438199
597.342479,-370.102971,-9252.574275,536.266849
597.342807,-296.082377,-9326.594869,536.266849
597.343134,-296.082377,-9178.553681,612.876398
597.343462,-148.041188,-9326.594869,919.314598
597.343790,-518.144159,-9400.615463,842.705048
597.344117,-444.123565,-9326.594869,919.314598
597.344445,-296.082377,-9326.594869,766.095498
597.344772,-370.102971,-9030.512492,766.095498
597.345100,-518.144159,-8660.409521,766.095498
597.345427,-444.123565,-8808.450710,689.485948
597.345755,-592.164754,-8734.430116,842.705048
597.346082,-370.102971,-8660.409521,689.485948
597.346410,-370.102971,-8882.471304,766.095498
597.346738,0.000000,-8882.471304,689.485948
597.347065,-296.082377,-9326.594869,1072.533697
597.347393,-592.164754,-9252.574275,612.876398
597.347720,-370.102971,-9252.574275,842.705048
597.348048,-148.041188,-9400.615463,612.876398
597.348375,-148.041188,-9178.553681,842.705048
597.348703,0.000000,-9104.533087,612.876398
597.349030,-148.041188,-9104.533087,612.876398
597.349358,-222.061783,-8882.471304,612.876398
597.349685,-222.061783,-8956.491898,229.828649
597.350013,-148.041188,-8586.388927,536.266849
597.350341,0.000000,-9030.512492,842.705048
597.350668,-222.061783,-8808.450710,536.266849
597.350996,-148.041188,-9104.533087,536.266849
597.351323,-296.082377,-9252.574275,536.266849
597.351651,-370.102971,-9474.636058,459.657299
597.351978,0.000000,-9400.615463,919.314598
597.352306,0.000000,-9400.615463,766.095498
597.352633,0.000000,-9400.615463,995.924147
597.352961,-296.082377,-9252.574275,612.876398
597.353288,0.000000,-8956.491898,612.876398
597.353616,-222.061783,-8586.388927,1838.629195
597.353944,-444.123565,-8808.450710,383.047749
597.354271,-444.123565,-8734.430116,612.876398
597.354599,-370.102971,-8734.430116,689.485948
597.354926,-444.123565,-9030.512492,536.266849
597.355254,-444.123565,-8882.471304,995.924147
597.355581,-740.205942,-8808.450710,536.266849
597.355909,-814.226536,-9326.594869,536.266849
597.356236,-592.164754,-9326.594869,919.314598
597.356564,-740.205942,-9178.553681,995.924147
597.356892,-740.205942,-9030.512492,995.924147
597.357219,-444.123565,-8660.409521,766.095498
597.357547,-444.123565,-8882.471304,689.485948
597.357874,-592.164754,-8660.409521,536.266849
597.358202,-222.061783,-8882.471304,612.876398
597.358529,-222.061783,-8586.388927,536.266849
597.358857,0.000000,-8734.430116,842.705048
597.359184,-518.144159,-8734.430116,306.438199
597.359512,-296.082377,-9400.615463,306.438199
597.359839,-370.102971,-9178.553681,306.438199
597.360167,-296.082377,-9400.615463,306.438199
597.360495,-296.082377,-9474.636058,842.705048
597.360822,0.000000,-9474.636058,153.219100
597.361150,-148.041188,-9178.553681,153.219100
597.361477,-370.102971,-9030.512492,229.828649
597.361805,0.000000,-8956.491898,306.438199
597.362132,148.041188,-8512.368333,689.485948
597.362460,148.041188,-8808.450710,383.047749
597.362787,-148.041188,-8808.450710,0.000000
597.363115,0.000000,-9030.512492,76.609550
597.363443,0.000000,-9030.512492,383.047749
597.363770,-148.041188,-8956.491898,306.438199
597.364098,0.000000,-9252.574275,612.876398
597.364425,-370.102971,-9474.636058,383.047749
597.364753,0.000000,-9400.615463,459.657299
597.365080,-222.061783,-9326.594869,689.485948
597.365408,0.000000,-9252.574275,766.095498
597.365735,-222.061783,-9104.533087,536.266849
597.366063,0.000000,-8808.450710,766.095498
597.366390,148.041188,-9104.533087,612.876398
597.366718,0.000000,-9030.512492,459.657299
597.367046,0.000000,-8956.491898,612.876398
597.367373,-444.123565,-8364.327145,919.314598
597.367701,-592.164754,-9622.677246,919.314598
597.368028,-666.185348,-9474.636058,689.485948
597.368356,-666.185348,-9474.636058,766.095498
597.368683,-518.144159,-9474.636058,689.485948
597.369011,-370.102971,-9326.594869,1149.143247
597.369338,74.020594,-8956.491898,766.095498
597.369666,-222.061783,-9326.594869,612.876398
597.369994,-222.061783,-9252.574275,612.876398
597.370321,-370.102971,-9104.533087,306.438199
597.370649,-74.020594,-9104.533087,689.485948
597.370976,0.000000,-8956.491898,536.266849
597.371304,0.000000,-9252.574275,536.266849
597.371631,0.000000,-9326.594869,459.657299
597.371959,-148.041188,-9474.636058,689.485948
597.372286,-296.082377,-9474.636058,536.266849
597.372614,0.000000,-9474.636058,536.266849
597.372941,0.000000,-9474.636058,459.657299
597.373269,0.000000,-9696.697840,536.266849
597.373597,0.000000,-9474.636058,919.314598
597.373924,-222.061783,-9326.594869,612.876398
597.374252,0.000000,-8660.409521,842.705048
597.374579,0.000000,-8882.471304,612.876398
597.374907,0.000000,-9030.512492,612.876398
597.375234,0.000000,-8956.491898,536.266849
597.375562,0.000000,-8956.491898,229.828649
597.375889,0.000000,-8586.388927,612.876398
597.376217,-222.061783,-9252.574275,153.219100
597.376544,-444.123565,-9252.574275,612.876398
597.376872,-592.164754,-9400.615463,459.657299
597.377200,-592.164754,-9400.615463,766.095498
597.377527,-592.164754,-9474.636058,689.485948
597.377855,-222.061783,-9474.636058,1072.533697
597.378182,-370.102971,-8808.450710,612.876398
597.378510,0.000000,-8586.388927,766.095498
597.378837,0.000000,-8660.409521,612.876398
597.379165,-222.061783,-8364.327145,612.876398
597.379492,-592.164754,-8438.347739,306.438199
597.379820,-444.123565,-8586.388927,229.828649
597.380148,-666.185348,-8586.388927,612.876398
597.380475,-666.185348,-8808.450710,536.266849
597.380803,-592.164754,-9104.533087,459.657299
597.381130,-888.247130,-8956.491898,536.266849
597.381458,-296.082377,-9104.533087,842.705048
597.381785,-370.102971,-8956.491898,689.485948
597.382113,0.000000,-8956.491898,306.438199
597.382440,-148.041188,-8808.450710,459.657299
597.382768,-222.061783,-8512.368333,536.266849
597.383095,148.041188,-8808.450710,383.047749
597.383423,-296.082377,-8586.388927,612.876398
597.383751,-222.061783,-8882.471304,306.438199
597.384078,-222.061783,-8808.450710,229.828649
597.384406,-444.123565,-8808.450710,383.047749
597.384733,0.000000,-9326.594869,229.828649
597.385061,-296.082377,-9104.533087,306.438199
597.385388,-592.164754,-9252.574275,459.657299
597.385716,-370.102971,-9326.594869,536.266849
597.386043,-444.123565,-9178.553681,612.876398
597.386371,-740.205942,-8734.430116,766.095498
597.386699,-370.102971,-9252.574275,766.095498
597.387026,-592.164754,-8882.471304,229.828649
597.387354,-518.144159,-8808.450710,306.438199
597.387681,-296.082377,-8956.491898,459.657299
597.388009,-222.061783,-8882.471304,229.828649
597.388336,0.000000,-8660.409521,919.314598
597.388664,-296.082377,-8956.491898,536.266849
597.388991,-814.226536,-9252.574275,689.485948
597.389319,-740.205942,-9622.677246,689.485948
597.389646,-148.041188,-9548.656652,1072.533697
597.389974,-518.144159,-9400.615463,689.485948
597.390302,0.000000,-9400.615463,689.485948
597.390629,0.000000,-9474.636058,536.266849
597.390957,0.000000,-9400.615463,459.657299
597.391284,74.020594,-9104.533087,612.876398
597.391612,0.000000,-9030.512492,229.828649
597.391939,0.000000,-8808.450710,383.047749
597.392267,0.000000,-9252.574275,306.438199
597.392594,0.000000,-9252.574275,459.657299
597.392922,0.000000,-9474.636058,306.438199
597.393250,-592.164754,-8660.409521,689.485948
597.393577,-222.061783,-9400.615463,612.876398
597.393905,-370.102971,-9474.636058,383.047749
597.394232,0.000000,-9474.636058,536.266849
597.394560,-148.041188,-9400.615463,306.438199
597.394887,0.000000,-9548.656652,536.266849
597.395215,0.000000,-9178.553681,153.219100
597.395542,0.000000,-9030.512492,153.219100
597.395870,0.000000,-8808.450710,536.266849
597.396197,0.000000,-9178.553681,536.266849
597.396525,-518.144159,-9104.533087,536.266849
597.396853,-222.061783,-8956.491898,995.924147
597.397180,0.000000,-9326.594869,689.485948
597.397508,-444.123565,-9326.594869,689.485948
597.397835,-370.102971,-9622.677246,995.924147
597.398163,-518.144159,-9696.697840,842.705048
597.398490,0.000000,-9400.615463,1302.362347
597.398818,-370.102971,-9104.533087,919.314598
597.399145,-370.102971,-9104.533087,1072.533697
597.399473,-148.041188,-9252.574275,842.705048
597.399800,-296.082377,-8956.491898,919.314598
597.400128,0.000000,-8808.450710,919.314598
597.400456,-518.144159,-8512.368333,766.095498
597.400783,-518.144159,-9104.533087,612.876398
597.401111,-592.164754,-9030.512492,766.095498
597.401438,-666.185348,-9178.553681,842.705048
597.401766,-222.061783,-9326.594869,919.314598
597.402093,-148.041188,-9030.512492,229.828649
597.402421,-518.144159,-9252.574275,612.876398
597.402748,-518.144159,-9178.553681,612.876398
597.403076,-296.082377,-9030.512492,612.876398
597.403404,-148.041188,-8734.430116,612.876398
597.403731,0.000000,-8882.471304,536.266849
597.404059,-148.041188,-8956.491898,459.657299
597.404386,0.000000,-8808.450710,153.219100
597.404714,0.000000,-8734.430116,76.609550
597.405041,0.000000,-8956.491898,153.219100
597.405369,0.000000,-9104.533087,-229.828649
597.405696,0.000000,-9104.533087,459.657299
597.406024,0.000000,-9400.615463,153.219100
597.406351,-296.082377,-9400.615463,306.438199
597.406679,-296.082377,-9474.636058,459.657299
597.407007,-148.041188,-9474.636058,536.266849
597.407334,0.000000,-9252.574275,383.047749
597.407662,-444.123565,-9104.533087,536.266849
597.407989,-370.102971,-9104.533087,306.438199
597.408317,-518.144159,-8956.491898,229.828649
597.408644,-148.041188,-9030.512492,0.000000
597.408972,-592.164754,-8512.368333,536.266849
597.409299,-518.144159,-8808.450710,306.438199
597.409627,-740.205942,-8882.471304,612.876398
597.409955,-814.226536,-8956.491898,612.876398
597.410282,-888.247130,-9252.574275,919.314598
597.410610,-1184.329507,-9178.553681,1225.752797
597.410937,-592.164754,-9030.512492,766.095498
597.411265,-592.164754,-9178.553681,766.095498
597.411592,-370.102971,-9030.512492,919.314598
597.411920,-518.144159,-8882.471304,766.095498
597.412247,-370.102971,-8290.306550,995.924147
597.412575,-296.082377,-8512.368333,766.095498
597.412902,-370.102971,-8660.409521,919.314598
597.413230,0.000000,-8882.471304,689.485948
597.413558,-222.061783,-8660.409521,689.485948
597.413885,-222.061783,-8586.388927,689.485948
597.414213,0.000000,-9400.615463,536.266849
597.414540,-222.061783,-9326.594869,383.047749
597.414868,-444.123565,-9400.615463,459.657299
597.415195,-222.061783,-9548.656652,689.485948
597.415523,0.000000,-9474.636058,689.485948
597.415850,0.000000,-9252.574275,383.047749
597.416178,0.000000,-9030.512492,383.047749
597.416505,0.000000,-8956.491898,306.438199
597.416833,0.000000,-8882.471304,153.219100
597.417161,0.000000,-9030.512492,536.266849
597.417488,0.000000,-8882.471304,76.609550
597.417816,-296.082377,-8808.450710,229.828649
597.418143,-370.102971,-8956.491898,229.828649
597.418471,-444.123565,-9252.574275,306.438199
597.418798,-296.082377,-9400.615463,459.657299
597.419126,148.041188,-9474.636058,1072.533697
597.419453,-148.041188,-9474.636058,229.828649
597.419781,-222.061783,-9178.553681,689.485948
597.420109,0.000000,-9474.636058,536.266849
597.420436,0.000000,-9326.594869,612.876398
597.420764,0.000000,-9030.512492,995.924147
597.421091,74.020594,-9178.553681,689.485948
597.421419,-148.041188,-9178.553681,689.485948
597.421746,-296.082377,-9178.553681,689.485948
597.422074,-222.061783,-9326.594869,1072.533697
597.422401,0.000000,-9252.574275,1072.533697
597.422729,-518.144159,-9252.574275,842.705048
597.423056,-592.164754,-9474.636058,995.924147
597.423384,-666.185348,-9548.656652,919.314598
597.423711,-666.185348,-9474.636058,919.314598
597.424039,-888.247130,-9474.636058,612.876398
597.424367,-740.205942,-9326.594869,612.876398
597.424694,-370.102971,-9104.533087,689.485948
597.425022,-296.082377,-8956.491898,612.876398
597.425349,-148.041188,-8660.409521,612.876398
597.425677,-148.041188,-8512.368333,229.828649
597.426004,0.000000,-8142.265362,306.438199
597.426332,-148.041188,-9178.553681,612.876398
597.426659,-296.082377,-9104.533087,536.266849
597.426987,-370.102971,-9474.636058,459.657299
597.427314,-296.082377,-9770.718434,536.266849
597.427642,-296.082377,-9474.636058,1149.143247
597.427969,148.041188,-9770.718434,383.047749
597.428297,222.061783,-9474.636058,459.657299
597.428625,370.102971,-9178.553681,229.828649
597.428952,296.082377,-9326.594869,383.047749
597.429280,444.123565,-9178.553681,536.266849
597.429607,222.061783,-8808.450710,459.657299
597.429935,0.000000,-9030.512492,612.876398
597.430262,0.000000,-9030.512492,306.438199
597.430590,-148.041188,-9178.553681,459.657299
597.430917,-518.144159,-9104.533087,306.438199
597.431245,0.000000,-8956.491898,459.657299
597.431572,-222.061783,-9178.553681,536.266849
597.431900,-148.041188,-9252.574275,536.266849
597.432227,-370.102971,-9104.533087,612.876398
597.432555,-444.123565,-9030.512492,766.095498
597.432882,-296.082377,-8882.471304,1608.800546
597.433210,-592.164754,-8808.450710,689.485948
597.433538,-518.144159,-8660.409521,766.095498
597.433865,-518.144159,-8808.450710,995.924147
597.434193,-370.102971,-8882.471304,536.266849
597.434520,-222.061783,-8512.368333,919.314598
597.434848,-148.041188,-8882.471304,536.266849
597.435175,-444.123565,-9030.512492,842.705048
597.435503,-370.102971,-9252.574275,689.485948
597.435830,-518.144159,-9252.574275,842.705048
597.436158,-296.082377,-9104.533087,689.485948
597.436485,-222.061783,-9696.697840,842.705048
597.436813,-296.082377,-9252.574275,689.485948
597.437140,-296.082377,-9178.553681,689.485948
597.437468,-148.041188,-9030.512492,689.485948
597.437796,-296.082377,-8734.430116,459.657299
597.438123,0.000000,-8882.471304,229.828649
597.438451,-444.123565,-8734.430116,459.657299
597.438778,-444.123565,-8956.491898,229.828649
597.439106,-444.123565,-9030.512492,536.266849
597.439433,-592.164754,-9326.594869,306.438199
597.439761,-444.123565,-9252.574275,229.828649
597.440088,-888.247130,-9030.512492,536.266849
597.440416,-518.144159,-9326.594869,459.657299
597.440743,-444.123565,-9252.574275,459.657299
597.441071,-222.061783,-9252.574275,689.485948
597.441398,-148.041188,-8734.430116,306.438199
597.441726,0.000000,-8882.471304,689.485948
597.442053,-444.123565,-8956.491898,459.657299
597.442381,-148.041188,-8956.491898,536.266849
597.442709,-148.041188,-8956.491898,459.657299
597.443036,0.000000,-8512.368333,842.705048
597.443364,0.000000,-8734.430116,842.705048
597.443691,-296.082377,-9252.574275,689.485948
597.444019,-370.102971,-9400.615463,689.485948
597.444346,-444.123565,-9326.594869,689.485948
597.444674,-518.144159,-9400.615463,689.485948
597.445001,0.000000,-9030.512492,1302.362347
597.445329,-518.144159,-9178.553681,919.314598
597.445656,-444.123565,-9178.553681,766.095498
597.445984,-370.102971,-8956.491898,459.657299
597.446311,-296.082377,-8734.430116,383.047749
597.446639,0.000000,-8808.450710,459.657299
597.446966,-370.102971,-8734.430116,536.266849
597.447294,-444.123565,-8808.450710,229.828649
597.447622,-666.185348,-9030.512492,612.876398
597.447949,-444.123565,-9104.533087,612.876398
597.448277,-592.164754,-9252.574275,306.438199
597.448604,-222.061783,-9474.636058,459.657299
597.448932,-296.082377,-9548.656652,612.876398
597.449259,0.000000,-9474.636058,612.876398
597.449587,0.000000,-9400.615463,689.485948
597.449914,0.000000,-8882.471304,612.876398
597.450242,222.061783,-8808.450710,459.657299
597.450569,148.041188,-9178.553681,383.047749
597.450897,0.000000,-9030.512492,383.047749
597.451224,0.000000,-8956.491898,306.438199
597.451552,222.061783,-9104.533087,459.657299
597.451880,0.000000,-8512.368333,612.876398
597.452207,74.020594,-9326.594869,459.657299
597.452535,0.000000,-9474.636058,689.485948
597.452862,-296.082377,-9474.636058,459.657299
597.453190,-296.082377,-9548.656652,536.266849
597.453517,-74.020594,-9474.636058,995.924147
597.453845,0.000000,-9474.636058,689.485948
597.454172,0.000000,-9326.594869,766.095498
597.454500,0.000000,-9030.512492,536.266849
597.454827,-370.102971,-8882.471304,536.266849
597.455155,-296.082377,-8512.368333,306.438199
597.455482,-222.061783,-8734.430116,459.657299
597.455810,-296.082377,-8808.450710,536.266849
597.456137,-666.185348,-9030.512492,766.095498
597.456465,-666.185348,-9326.594869,612.876398
597.456793,-592.164754,-9252.574275,995.924147
597.457120,-370.102971,-9400.615463,919.314598
597.457448,-518.144159,-9474.636058,995.924147
597.457775,-444.123565,-9400.615463,842.705048
597.458103,-592.164754,-9474.636058,689.485948
597.458430,-296.082377,-9400.615463,612.876398
597.458758,0.000000,-8956.491898,766.095498
597.459085,0.000000,-8882.471304,383.047749
597.459413,-370.102971,-8808.450710,612.876398
597.459740,-444.123565,-8882.471304,229.828649
597.460068,-518.144159,-8808.450710,459.657299
597.460395,-740.205942,-8808.450710,612.876398
597.460723,-666.185348,-9178.553681,306.438199
597.461051,-740.205942,-9030.512492,383.047749
597.461378,-666.185348,-9252.574275,383.047749
597.461706,-518.144159,-9252.574275,689.485948
597.462033,-296.082377,-8956.491898,1072.533697
597.462361,-296.082377,-8882.471304,459.657299
597.462688,0.000000,-9178.553681,536.266849
597.463016,-296.082377,-9030.512492,229.828649
597.463343,-370.102971,-8956.491898,383.047749
597.463671,-444.123565,-8882.471304,536.266849
597.463998,0.000000,-9252.574275,689.485948
597.464326,-518.144159,-9178.553681,612.876398
597.464653,-666.185348,-9030.512492,612.876398
597.464981,-370.102971,-9178.553681,459.657299
597.465308,-370.102971,-9252.574275,766.095498
597.465636,-370.102971,-9104.533087,383.047749
597.465964,-222.061783,-8882.471304,1149.143247
597.466291,-222.061783,-8882.471304,689.485948
597.466619,-296.082377,-8660.409521,536.266849
597.466946,-444.123565,-8808.450710,612.876398
597.467274,-444.123565,-8882.471304,383.047749
597.467601,-592.164754,-8290.306550,842.705048
597.467929,-592.164754,-8438.347739,306.438199
597.468256,-592.164754,-8364.327145,229.828649
597.468584,-444.123565,-8586.388927,459.657299
597.468911,-666.185348,-8364.327145,536.266849
597.469239,0.000000,-8586.388927,919.314598
597.469566,-518.144159,-8956.491898,612.876398
597.469894,-518.144159,-8882.471304,689.485948
597.470221,-296.082377,-9178.553681,536.266849
597.470549,-222.061783,-9400.615463,459.657299
597.470877,0.000000,-8882.471304,919.314598
597.471204,0.000000,-9030.512492,536.266849
597.471532,0.000000,-9030.512492,383.047749
597.471859,0.000000,-8882.471304,612.876398
597.472187,0.000000,-8956.491898,459.657299
597.472514,-148.041188,-9400.615463,153.219100
597.472842,0.000000,-9400.615463,689.485948
597.473169,0.000000,-9474.636058,612.876398
597.473497,-148.041188,-9696.697840,612.876398
597.473824,0.000000,-9918.759623,766.095498
597.474152,74.020594,-9474.636058,612.876398
597.474479,518.144159,-9474.636058,459.657299
597.474807,296.082377,-9326.594869,229.828649
597.475135,148.041188,-9400.615463,612.876398
597.475462,148.041188,-9622.677246,612.876398
597.475790,0.000000,-9696.697840,612.876398
597.476117,-296.082377,-9030.512492,1225.752797
597.476445,-74.020594,-9326.594869,536.266849
597.476772,0.000000,-9474.636058,383.047749
597.477100,-222.061783,-9252.574275,612.876398
597.477427,-370.102971,-9104.533087,229.828649
597.477755,0.000000,-9104.533087,612.876398
597.478082,-222.061783,-8956.491898,459.657299
597.478410,-444.123565,-9400.615463,459.657299
597.478737,-222.061783,-9400.615463,766.095498
597.479065,-148.041188,-9474.636058,995.924147
597.479392,0.000000,-9474.636058,766.095498
597.479720,0.000000,-9400.615463,383.047749
597.480048,0.000000,-9474.636058,536.266849
597.480375,0.000000,-9178.553681,612.876398
597.480703,0.000000,-9104.533087,536.266849
597.481030,148.041188,-9030.512492,766.095498
597.481358,-222.061783,-9326.594869,536.266849
597.481685,-740.205942,-9326.594869,689.485948
597.482013,-814.226536,-9252.574275,689.485948
597.482340,-888.247130,-9030.512492,612.876398
597.482668,-518.144159,-9474.636058,383.047749
597.482995,-370.102971,-8956.491898,229.828649
597.483323,-740.205942,-8512.368333,306.438199
597.483650,0.000000,-8660.409521,459.657299
597.483978,-296.082377,-8660.409521,459.657299
597.484306,0.000000,-8882.471304,306.438199
597.484633,0.000000,-9104.533087,383.047749
597.484961,-296.082377,-8808.450710,536.266849
597.485288,-148.041188,-9326.594869,766.095498
597.485616,-222.061783,-9252.574275,842.705048
597.485943,0.000000,-9252.574275,536.266849
597.486271,222.061783,-8956.491898,842.705048
597.486598,0.000000,-8586.388927,306.438199
597.486926,-148.041188,-8882.471304,459.657299
597.487253,-370.102971,-8882.471304,383.047749
597.487581,-296.082377,-8808.450710,306.438199
597.487908,0.000000,-8956.491898,766.095498
597.488236,-370.102971,-9178.553681,995.924147
597.488563,-296.082377,-8956.491898,306.438199
597.488891,-296.082377,-9030.512492,612.876398
597.489219,-444.123565,-8882.471304,459.657299
597.489546,-370.102971,-8808.450710,459.657299
597.489874,0.000000,-8660.409521,153.219100
597.490201,-370.102971,-9252.574275,306.438199
597.490529,-444.123565,-9178.553681,612.876398
597.490856,-444.123565,-9400.615463,536.266849
597.491184,-518.144159,-9178.553681,689.485948
597.491511,-74.020594,-8882.471304,0.000000
597.491839,-518.144159,-8734.430116,306.438199
597.492166,-148.041188,-8734.430116,306.438199
597.492494,0.000000,-8808.450710,229.828649
597.492821,-148.041188,-8956.491898,459.657299
597.493149,-74.020594,-8734.430116,306.438199
597.493476,-518.144159,-8808.450710,536.266849
597.493804,0.000000,-9178.553681,383.047749
597.494132,0.000000,-9252.574275,536.266849
597.494459,0.000000,-9400.615463,536.266849
597.494787,74.020594,-9474.636058,306.438199
597.495114,-148.041188,-9030.512492,689.485948
597.495442,0.000000,-9178.553681,536.266849
597.495769,0.000000,-9030.512492,383.047749
597.496097,0.000000,-9252.574275,459.657299
597.496424,0.000000,-9326.594869,459.657299
597.496752,-370.102971,-8808.450710,459.657299
597.497079,-222.061783,-9178.553681,689.485948
597.497407,-148.041188,-9178.553681,689.485948
597.497734,0.000000,-9474.636058,536.266849
597.498062,-296.082377,-9474.636058,919.314598
597.498390,-296.082377,-8956.491898,995.924147
597.498717,-148.041188,-9400.615463,612.876398
597.499045,-444.123565,-9474.636058,766.095498
597.499372,-592.164754,-9622.677246,612.876398
597.499700,-666.185348,-9474.636058,689.485948
597.500027,-518.144159,-9178.553681,536.266849
597.500355,-444.123565,-8882.471304,842.705048
597.500682,-518.144159,-8956.491898,612.876398
597.501010,-296.082377,-8808.450710,612.876398
597.501337,-370.102971,-9030.512492,459.657299
597.501665,-222.061783,-8956.491898,689.485948
597.501992,-370.102971,-9326.594869,383.047749
597.502320,-296.082377,-9178.553681,459.657299
597.502647,-296.082377,-9326.594869,919.314598
597.502975,-370.102971,-9400.615463,766.095498
597.503303,-370.102971,-9252.574275,612.876398
597.503630,0.000000,-9104.533087,995.924147
597.503958,-222.061783,-9326.594869,383.047749
597.504285,-222.061783,-9104.533087,383.047749
597.504613,0.000000,-8956.491898,536.266849
597.504940,0.000000,-9030.512492,383.047749
597.505268,-148.041188,-9104.533087,612.876398
597.505595,0.000000,-9104.533087,383.047749
597.505923,-296.082377,-8956.491898,383.047749
597.506250,-74.020594,-9104.533087,689.485948
597.506578,-222.061783,-9252.574275,383.047749
597.506905,0.000000,-9104.533087,995.924147
597.507233,-222.061783,-8956.491898,153.219100
597.507561,-222.061783,-9178.553681,459.657299
597.507888,0.000000,-9030.512492,306.438199
597.508216,-148.041188,-9030.512492,76.609550
597.508543,148.041188,-9252.574275,229.828649
597.508871,74.020594,-9474.636058,0.000000
597.509198,-370.102971,-8956.491898,612.876398
597.509526,-370.102971,-8956.491898,229.828649
597.509853,-592.164754,-9104.533087,383.047749
597.510181,-222.061783,-9030.512492,536.266849
597.510508,74.020594,-8882.471304,306.438199
597.510836,-148.041188,-8734.430116,383.047749
597.511163,0.000000,-8734.430116,459.657299
597.511491,-296.082377,-8660.409521,459.657299
597.511818,-518.144159,-8956.491898,612.876398
597.512146,-814.226536,-8956.491898,766.095498
597.512474,-370.102971,-8882.471304,1072.533697
597.512801,-296.082377,-8956.491898,1149.143247
597.513129,0.000000,-9252.574275,766.095498
597.513456,0.000000,-8956.491898,766.095498
597.513784,74.020594,-8438.347739,1455.581446
597.514111,444.123565,-8734.430116,459.657299
597.514439,0.000000,-9030.512492,689.485948
597.514766,-296.082377,-9030.512492,689.485948
597.515094,-666.185348,-9252.574275,842.705048
597.515421,-222.061783,-9474.636058,919.314598
597.515749,-666.185348,-9400.615463,842.705048
597.516076,-444.123565,-9474.636058,612.876398
597.516404,-222.061783,-9104.533087,536.266849
597.516731,-296.082377,-8808.450710,536.266849
597.517059,-222.061783,-9030.512492,383.047749
597.517387,370.102971,-9030.512492,612.876398
597.517714,0.000000,-9104.533087,459.657299
597.518042,-74.020594,-9326.594869,536.266849
597.518369,-296.082377,-9326.594869,612.876398
597.518697,-444.123565,-9474.636058,612.876398
597.519024,-148.041188,-9474.636058,842.705048
597.519352,-222.061783,-9474.636058,689.485948
597.519679,0.000000,-9178.553681,459.657299
597.520007,-222.061783,-8956.491898,536.266849
597.520334,0.000000,-8956.491898,536.266849
597.520662,-148.041188,-8882.471304,1302.362347
597.520990,-296.082377,-8956.491898,536.266849
597.521317,-666.185348,-9178.553681,536.266849
597.521645,-740.205942,-9326.594869,306.438199
597.521972,-444.123565,-9252.574275,536.266849
597.522300,0.000000,-9178.553681,766.095498
597.522628,74.020594,-8586.388927,766.095498
597.522955,962.267725,-8586.388927,1149.143247
597.523283,1036.288319,-8586.388927,1302.362347
597.523610,888.247130,-9030.512492,1685.410096
597.523938,0.000000,-9178.553681,1915.238745
597.524266,0.000000,-9178.553681,1762.019645
597.524593,-370.102971,-9178.553681,1915.238745
597.524921,0.000000,-9104.533087,1838.629195
597.525248,0.000000,-8882.471304,2068.457845
597.525576,222.061783,-9178.553681,2221.676944
597.525904,74.020594,-8512.368333,1915.238745
597.526231,-518.144159,-8660.409521,2221.676944
597.526559,-518.144159,-8586.388927,1838.629195
597.526887,-296.082377,-8808.450710,2068.457845
597.527214,-296.082377,-8882.471304,2145.067394
597.527542,-518.144159,-8734.430116,3140.991542
597.527869,-296.082377,-8438.347739,2528.115143
597.528197,-666.185348,-8956.491898,2528.115143
597.528525,-592.164754,-8956.491898,2834.553343
597.528852,-740.205942,-9030.512492,2604.724693
597.529180,-814.226536,-9030.512492,2911.162892
597.529507,0.000000,-8734.430116,2834.553343
597.529835,-592.164754,-9030.512492,2987.772442
597.530163,-518.144159,-9400.615463,2911.162892
597.530490,-518.144159,-9178.553681,2987.772442
597.530818,-296.082377,-9030.512492,3140.991542
597.531145,0.000000,-9104.533087,3140.991542
597.531473,-148.041188,-8882.471304,2987.772442
597.531801,-222.061783,-9252.574275,2911.162892
597.532128,0.000000,-9030.512492,3140.991542
597.532456,74.020594,-9326.594869,2987.772442
597.532783,518.144159,-9326.594869,3524.039291
597.533111,222.061783,-9548.656652,3447.429741
597.533439,148.041188,-9474.636058,3677.258390
597.533766,148.041188,-9622.677246,3447.429741
597.534094,370.102971,-9252.574275,3677.258390
597.534421,1110.308913,-9178.553681,4443.353888
597.534749,1332.370696,-9178.553681,4443.353888
597.535077,1332.370696,-9326.594869,4673.182538
597.535404,962.267725,-9326.594869,4596.572988
597.535732,1110.308913,-9178.553681,4979.620737
597.536059,592.164754,-9474.636058,4903.011187
597.536387,296.082377,-9474.636058,5209.449386
597.536715,0.000000,-9770.718434,4903.011187
597.537042,-370.102971,-9696.697840,4903.011187
597.537370,-666.185348,-9548.656652,4673.182538
597.537697,-962.267725,-9400.615463,4596.572988
597.538025,-962.267725,-9400.615463,4060.306139
597.538353,-1702.473667,-9400.615463,4290.134789
597.538680,-2294.638420,-9252.574275,3830.477490
597.539008,-2294.638420,-8956.491898,3217.601092
597.539335,-2072.576638,-8882.471304,3140.991542
597.539663,-1480.411884,-8734.430116,2911.162892
597.539991,-296.082377,-7550.100608,4366.744339
597.540318,1036.288319,-7772.162391,4903.011187
597.540646,2072.576638,-7846.182985,5898.935335
597.540973,2146.597232,-7920.203579,6281.983084
597.541301,1554.432478,-9104.533087,6818.249932
597.541629,1036.288319,-9992.780217,7124.688131
597.541956,-1110.308913,-10807.006753,6052.154434
597.542284,-2294.638420,-11251.130318,5439.278036
597.542611,-2886.803174,-11029.068536,4826.401637
597.542939,-2738.761985,-10288.862594,3907.087040
597.543267,-1258.350101,-9178.553681,4596.572988
597.543594,518.144159,-7920.203579,3983.696590
597.543922,2220.617826,-7031.956449,4366.744339
597.544249,2960.823768,-6883.915261,4366.744339
597.544577,2368.659014,-7624.121203,4596.572988
597.544905,296.082377,-8364.327145,4136.915689
597.545232,-3404.947333,-11029.068536,2757.943793
597.545560,-9548.656652,-12953.603985,-153.219100
597.545887,-13545.768739,-13471.748144,-2528.115143
597.546215,-13915.871710,-12065.356855,-4290.134789
597.546543,-11251.130318,-8438.347739,-4213.525239
597.546870,-888.247130,-5625.565159,-3677.258390
597.547198,3404.947333,-3256.906145,-459.657299
597.547525,9992.780217,-2220.617826,153.219100
597.547853,11769.274478,-3404.947333,2834.553343
597.548181,9474.636058,-4145.153275,2604.724693
597.548508,6957.935855,-7994.224174,2911.162892
597.548836,3034.844362,-12139.377449,2757.943793
597.549164,-814.226536,-14582.057057,2911.162892
597.549491,444.123565,-14878.139434,4060.306139
597.549819,3034.844362,-13175.665768,5745.716235
597.550146,8586.388927,-10510.924376,8350.440928
597.550474,12953.603985,-9548.656652,9576.193725
597.550802,12213.398043,-9770.718434,9729.412825
597.551129,10510.924376,-9178.553681,7584.345430
597.551457,1924.535449,-10510.924376,5898.935335
597.551784,-2294.638420,-10362.883188,3294.210641
597.552112,-5329.482782,-10732.986159,2834.553343
597.552440,-5033.400406,-9548.656652,3907.087040
597.552767,-2442.679609,-7846.182985,5515.887586
597.553095,-1332.370696,-7105.977043,8350.440928
597.553422,-1924.535449,-6661.853478,8733.488677
597.553750,-5699.585753,-7105.977043,7967.393179
597.554078,-7624.121203,-8364.327145,6435.202183
597.554405,-9326.594869,-8734.430116,5592.497135
597.554733,-10436.903782,-8660.409521,4903.011187
597.555060,-10362.883188,-8808.450710,5132.839837
597.555388,-7846.182985,-7328.038826,6894.859482
597.555716,-4737.318029,-5181.441594,8197.221829
597.556043,1036.288319,-3701.029710,10265.679673
597.556371,3775.050304,-3552.988522,10878.556072
597.556698,2368.659014,-6883.915261,9882.631924
597.557026,-3404.947333,-10510.924376,7201.297681
597.557354,-11399.171507,-15544.324782,3140.991542
597.557681,-14730.098246,-17024.736666,-459.657299
597.558009,-12435.459826,-14582.057057,-2221.676944
597.558336,-6439.791695,-13027.624579,-1915.238745
597.558664,1850.514855,-10881.027347,306.438199
597.558992,4589.276840,-9104.533087,919.314598
597.559319,4145.153275,-7920.203579,612.876398
597.559647,1924.535449,-7624.121203,-2068.457845
597.559974,1036.288319,-8438.347739,-3677.258390
597.560302,2220.617826,-8734.430116,-3294.210641
597.560630,4811.338623,-9696.697840,-2681.334243
597.560957,6365.771101,-9622.677246,0.000000
597.561285,9622.677246,-9844.739029,2757.943793
597.561612,10288.862594,-10140.821405,4136.915689
597.561940,11769.274478,-9252.574275,5439.278036
597.562268,11251.130318,-9992.780217,4519.963438
597.562595,6957.935855,-11917.315666,2757.943793
597.562923,3552.988522,-14063.912898,1685.410096
597.563250,2516.700203,-13397.727550,1225.752797
597.563578,3775.050304,-11325.150913,1685.410096
597.563906,7179.997637,-7550.100608,3064.381992
597.564233,8956.491898,-7179.997637,3677.258390
597.564561,6365.771101,-8808.450710,2911.162892
597.564888,0.000000,-7994.224174,1685.410096
597.565216,-6957.935855,-8364.327145,-229.828649
597.565544,-9844.739029,-8290.306550,-536.266849
597.565871,-10140.821405,-8808.450710,-1072.533697
597.566199,-9918.759623,-9992.780217,-689.485948
597.566526,-5995.668130,-9400.615463,1991.848295
597.566854,-4959.379811,-6809.894666,4136.915689
597.567182,-1998.556043,-4811.338623,6435.202183
597.567509,-1480.411884,-5477.523971,6511.811733
597.567837,-2442.679609,-5921.647536,5822.325785
597.568164,-3404.947333,-6661.853478,5056.230287
597.568492,-3849.070898,-6735.874072,5286.058936
597.568820,-4737.318029,-6957.935855,6052.154434
597.569147,-3330.926739,-7772.162391,6741.640382
597.569475,-444.123565,-8364.327145,7814.174080
597.569802,3182.885551,-7402.059420,8273.831378
597.570130,5477.523971,-7772.162391,7890.783629
597.570458,4515.256246,-9178.553681,7277.907231
597.570785,1184.329507,-10066.800811,5975.544884
597.571113,-1924.535449,-11177.109724,4749.792088
597.571441,-3701.029710,-12139.377449,3447.429741
597.571768,-3997.112087,-12953.603985,3753.867940
597.572096,-2146.597232,-11917.315666,2757.943793
597.572423,-3182.885551,-10807.006753,3983.696590
597.572751,962.267725,-8882.471304,3830.477490
597.573079,1332.370696,-7772.162391,4443.353888
597.573406,370.102971,-8290.306550,3524.039291
597.573734,962.267725,-7624.121203,2757.943793
597.574061,-740.205942,-8142.265362,3140.991542
597.574389,-2442.679609,-8216.285956,2681.334243
597.574717,-3108.864956,-9178.553681,2987.772442
597.575044,-1850.514855,-9104.533087,3983.696590
597.575372,1184.329507,-8290.306550,4979.620737
597.575699,2220.617826,-8956.491898,5745.716235
597.576027,1702.473667,-8734.430116,5898.935335
597.576355,444.123565,-9474.636058,4519.963438
597.576682,-1480.411884,-10658.965565,2834.553343
597.577010,-3627.009116,-11695.253884,1455.581446
597.577337,-2886.803174,-11917.315666,842.705048
597.577665,-370.102971,-9622.677246,1685.410096
597.577993,2294.638420,-9918.759623,3294.210641
597.578320,3404.947333,-10140.821405,4366.744339
597.578648,3330.926739,-10584.944971,5515.887586
597.578975,2220.617826,-10658.965565,4826.401637
597.579303,0.000000,-11695.253884,3524.039291
597.579631,-3330.926739,-13249.686362,2528.115143
597.579958,-3627.009116,-12805.562797,2145.067394
597.580286,-2220.617826,-11251.130318,2681.334243
597.580613,-148.041188,-10362.883188,3753.867940
597.580941,740.205942,-9844.739029,4903.011187
597.581269,-370.102971,-8438.347739,3830.477490
597.581596,-1998.556043,-7920.203579,2451.505594
597.581924,-2590.720797,-7328.038826,536.266849
597.582251,-2664.741391,-6661.853478,-612.876398
597.582579,296.082377,-5255.462188,-306.438199
597.582907,2960.823768,-6365.771101,842.705048
597.583234,4737.318029,-6957.935855,2757.943793
597.583562,4737.318029,-6439.791695,3677.258390
597.583889,2664.741391,-7328.038826,2987.772442
597.584217,592.164754,-9474.636058,2987.772442
597.584545,-962.267725,-10658.965565,2451.505594
597.584872,-1850.514855,-10881.027347,1532.190996
597.585200,-2146.597232,-10658.965565,1455.581446
597.585527,-1184.329507,-11177.109724,2145.067394
597.585855,-1628.453072,-10436.903782,1608.800546
597.586183,-1924.535449,-9326.594869,229.828649
597.586510,-1184.329507,-8512.368333,306.438199
597.586838,-666.185348,-7105.977043,-1455.581446
597.587165,148.041188,-6143.709319,-1225.752797
597.587493,592.164754,-5847.626942,-1072.533697
597.587821,2294.638420,-6513.812290,536.266849
597.588148,1998.556043,-6291.750507,766.095498
597.588476,-222.061783,-6883.915261,842.705048
597.588803,148.041188,-7994.224174,1762.019645
597.589131,296.082377,-8290.306550,1991.848295
597.589459,-444.123565,-8290.306550,2145.067394
597.589786,-666.185348,-9030.512492,2221.676944
597.590114,-1258.350101,-10436.903782,1915.238745
597.590441,-3256.906145,-9844.739029,459.657299
597.590769,-3701.029710,-8956.491898,-612.876398
597.591097,-444.123565,-7179.997637,-612.876398
597.591424,3775.050304,-5551.544565,76.609550
597.591752,6513.812290,-5773.606348,1455.581446
597.592079,8216.285956,-6883.915261,2451.505594
597.592407,6735.874072,-8808.450710,3217.601092
597.592735,3404.947333,-10584.944971,3524.039291
