#time,accel_x,accel_y,accel_z
469.253938,-518.144159,-9326.594869,536.266849
469.254266,-148.041188,-9252.574275,536.266849
469.254594,-296.082377,-9252.574275,536.266849
469.254922,-444.123565,-8956.491898,766.095498
469.255250,-222.061783,-9030.512492,612.876398
469.255578,-444.123565,-9104.533087,689.485948
469.255905,-444.123565,-8808.450710,995.924147
469.256233,0.000000,-9178.553681,612.876398
469.256561,-222.061783,-9104.533087,459.657299
469.256889,-222.061783,-9178.553681,459.657299
469.257217,-370.102971,-9104.533087,229.828649
469.257545,74.020594,-9178.553681,689.485948
469.257872,-296.082377,-8956.491898,459.657299
469.258200,-222.061783,-9104.533087,229.828649
469.258528,-148.041188,-9030.512492,383.047749
469.258856,-222.061783,-9252.574275,536.266849
469.259184,0.000000,-9178.553681,612.876398
469.259512,0.000000,-8956.491898,306.438199
469.259840,0.000000,-9104.533087,536.266849
469.260167,-296.082377,-9104.533087,383.047749
469.260495,-148.041188,-9326.594869,689.485948
469.260823,0.000000,-9104.533087,459.657299
469.261151,0.000000,-9252.574275,536.266849
469.261479,-296.082377,-8956.491898,459.657299
469.261807,-148.041188,-9178.553681,459.657299
469.262134,-222.061783,-9252.574275,536.266849
469.262462,-222.061783,-9104.533087,536.266849
469.262790,-370.102971,-8660.409521,612.876398
469.263118,-222.061783,-9030.512492,383.047749
469.263446,-296.082377,-9104.533087,459.657299
469.263774,-296.082377,-9104.533087,306.438199
469.264102,-740.205942,-9326.594869,383.047749
469.264429,-1036.288319,-9474.636058,-229.828649
469.264757,-1850.514855,-9326.594869,0.000000
469.265085,-1406.391290,-9326.594869,-459.657299
469.265413,-814.226536,-8956.491898,-383.047749
469.265741,-518.144159,-8882.471304,-306.438199
469.266069,-444.123565,-9326.594869,-536.266849
469.266397,-1036.288319,-9104.533087,-842.705048
469.266724,-1110.308913,-9030.512492,-842.705048
469.267052,-1036.288319,-9104.533087,-1302.362347
469.267380,-962.267725,-9178.553681,-1149.143247
469.267708,-592.164754,-9252.574275,-689.485948
469.268036,-222.061783,-9548.656652,-919.314598
469.268364,0.000000,-9104.533087,-1455.581446
469.268691,0.000000,-9178.553681,-1225.752797
469.269019,0.000000,-9252.574275,-1838.629195
469.269347,0.000000,-9252.574275,-1532.190996
469.269675,296.082377,-9252.574275,-1225.752797
469.270003,148.041188,-9252.574275,-1608.800546
469.270331,148.041188,-9326.594869,-1455.581446
469.270659,296.082377,-9548.656652,-1685.410096
469.270986,222.061783,-9178.553681,-1608.800546
469.271314,444.123565,-9178.553681,-1915.238745
469.271642,296.082377,-9104.533087,-1532.190996
469.271970,296.082377,-9474.636058,-1838.629195
469.272298,74.020594,-9474.636058,-1991.848295
469.272626,0.000000,-9252.574275,-1991.848295
469.272954,0.000000,-9104.533087,-1762.019645
469.273281,222.061783,-9326.594869,-1762.019645
469.273609,-148.041188,-9178.553681,-1685.410096
469.273937,-444.123565,-9474.636058,-1762.019645
469.274265,-740.205942,-9252.574275,-2145.067394
469.274593,-1110.308913,-8734.430116,-1685.410096
469.274921,-1110.308913,-8808.450710,-2604.724693
469.275248,-1258.350101,-9252.574275,-2374.896044
469.275576,-1702.473667,-9030.512492,-2528.115143
469.275904,-1998.556043,-9030.512492,-2757.943793
469.276232,-1998.556043,-8882.471304,-3140.991542
469.276560,-1850.514855,-8660.409521,-3600.648841
469.276888,-1998.556043,-8734.430116,-3753.867940
469.277216,-1924.535449,-8882.471304,-3753.867940
469.277543,-1850.514855,-8956.491898,-3830.477490
469.277871,-1628.453072,-8808.450710,-4136.915689
469.278199,-1110.308913,-8808.450710,-3370.820191
469.278527,-518.144159,-8956.491898,-3447.429741
469.278855,74.020594,-9030.512492,-3447.429741
469.279183,444.123565,-9104.533087,-3447.429741
469.279510,1406.391290,-8882.471304,-2834.553343
469.279838,1924.535449,-8882.471304,-1991.848295
469.280166,2664.741391,-9474.636058,-2451.505594
469.280494,2368.659014,-9474.636058,-2221.676944
469.280822,1850.514855,-9770.718434,-1915.238745
469.281150,814.226536,-10066.800811,-2221.676944
469.281478,-592.164754,-10140.821405,-2834.553343
469.281805,-1184.329507,-10510.924376,-3753.867940
469.282133,-1924.535449,-10214.842000,-4213.525239
469.282461,-2590.720797,-9844.739029,-4596.572988
469.282789,-1628.453072,-9104.533087,-4903.011187
469.283117,-666.185348,-8364.327145,-4596.572988
469.283445,1258.350101,-7698.141797,-3600.648841
469.283773,2368.659014,-6957.935855,-3447.429741
469.284100,2812.782580,-7105.977043,-2374.896044
469.284428,2368.659014,-7624.121203,-1991.848295
469.284756,962.267725,-8734.430116,-1915.238745
469.285084,-1184.329507,-9622.677246,-1685.410096
469.285412,-2960.823768,-10658.965565,-2374.896044
469.285740,-4145.153275,-11177.109724,-2604.724693
469.286067,-3182.885551,-10807.006753,-2681.334243
469.286395,74.020594,-8956.491898,-1225.752797
469.286723,4885.359217,-6587.832884,536.266849
469.287051,9474.636058,-5329.482782,2834.553343
469.287379,10658.965565,-5773.606348,4213.525239
469.287707,7994.224174,-7846.182985,4136.915689
469.288035,2738.761985,-10214.842000,3064.381992
469.288362,-3330.926739,-12287.418637,1838.629195
469.288690,-8734.430116,-13397.727550,-1072.533697
469.289018,-11769.274478,-14359.995275,-2681.334243
469.289346,-11547.212695,-13619.789333,-4060.306139
469.289674,-11325.150913,-11843.295072,-4136.915689
469.290002,-4959.379811,-8438.347739,-4290.134789
469.290330,-3627.009116,-5033.400406,-2757.943793
469.290657,1036.288319,-4071.132681,-4060.306139
469.290985,296.082377,-4737.318029,-4443.353888
469.291313,-4515.256246,-6439.791695,-5209.449386
469.291641,-7105.977043,-7846.182985,-7354.516781
469.291969,-12213.398043,-9696.697840,-8427.050478
469.292297,-10140.821405,-10066.800811,-7737.564530
469.292624,-8068.244768,-9474.636058,-7507.735880
469.292952,-3034.844362,-7994.224174,-5515.887586
469.293280,4663.297435,-7105.977043,-3600.648841
469.293608,7846.182985,-7179.997637,-2374.896044
469.293936,8438.347739,-7698.141797,-2987.772442
469.294264,7105.977043,-10140.821405,-4060.306139
469.294592,4441.235652,-11177.109724,-5822.325785
469.294919,4515.256246,-11621.233289,-5745.716235
469.295247,7772.162391,-10214.842000,-3907.087040
469.295575,11769.274478,-8512.368333,-1838.629195
469.295903,14211.954086,-9252.574275,1302.362347
469.296231,13249.686362,-9770.718434,2145.067394
469.296559,9030.512492,-10066.800811,-536.266849
469.296886,6735.874072,-11251.130318,-153.219100
469.297214,6587.832884,-10658.965565,-612.876398
469.297542,5255.462188,-12065.356855,229.828649
469.297870,3108.864956,-11029.068536,459.657299
469.298198,-888.247130,-12065.356855,0.000000
469.298526,-6809.894666,-12361.439231,-1378.971896
469.298854,-12435.459826,-10214.842000,-3447.429741
469.299181,-12879.583391,-7328.038826,-4826.401637
469.299509,-10955.047942,-3627.009116,-5515.887586
469.299837,-3552.988522,-1850.514855,-4519.963438
469.300165,-1110.308913,-1850.514855,-1685.410096
469.300493,-518.144159,-1850.514855,-2528.115143
469.300821,-2146.597232,-4515.256246,0.000000
469.301149,-5255.462188,-5847.626942,-536.266849
469.301476,-5403.503377,-7105.977043,459.657299
469.301804,-4737.318029,-8660.409521,1225.752797
469.302132,-2960.823768,-9474.636058,3140.991542
469.302460,-2368.659014,-11399.171507,5286.058936
469.302788,-2146.597232,-11991.336260,6511.811733
469.303116,296.082377,-10955.047942,6435.202183
469.303443,3627.009116,-10658.965565,6358.592633
469.303771,4737.318029,-10658.965565,5669.106685
469.304099,4663.297435,-10955.047942,4903.011187
469.304427,2442.679609,-11473.192101,3907.087040
469.304755,1258.350101,-10066.800811,3447.429741
469.305083,962.267725,-9326.594869,3217.601092
469.305411,2072.576638,-8586.388927,3830.477490
469.305738,1702.473667,-8512.368333,2911.162892
469.306066,-1776.494261,-10140.821405,3524.039291
469.306394,-3404.947333,-10510.924376,2145.067394
469.306722,-7031.956449,-12583.501014,1532.190996
469.307050,-7994.224174,-10807.006753,612.876398
469.307378,-5403.503377,-9992.780217,0.000000
469.307705,-2442.679609,-7846.182985,0.000000
469.308033,-3256.906145,-7698.141797,0.000000
469.308361,-2812.782580,-6217.729913,306.438199
469.308689,-4737.318029,-7328.038826,-459.657299
469.309017,-6365.771101,-7698.141797,-2757.943793
469.309345,-3997.112087,-7402.059420,-3753.867940
469.309673,-1776.494261,-9104.533087,-3753.867940
469.310000,1258.350101,-8956.491898,-2987.772442
469.310328,1702.473667,-9770.718434,-2068.457845
469.310656,2072.576638,-10955.047942,-1378.971896
469.310984,1628.453072,-10955.047942,-1455.581446
469.311312,4293.194464,-10807.006753,-1302.362347
469.311640,5699.585753,-10584.944971,-1149.143247
469.311968,6439.791695,-10658.965565,-383.047749
469.312295,5773.606348,-11621.233289,919.314598
469.312623,4737.318029,-11843.295072,1378.971896
469.312951,3552.988522,-12139.377449,919.314598
469.313278,4219.173869,-10881.027347,842.705048
469.313606,5551.544565,-9474.636058,842.705048
469.313933,5847.626942,-8660.409521,612.876398
469.314261,3997.112087,-8438.347739,536.266849
469.314588,2368.659014,-8660.409521,995.924147
469.314916,666.185348,-7624.121203,0.000000
469.315243,-2220.617826,-6809.894666,842.705048
469.315571,962.267725,-6069.688724,-229.828649
469.315898,0.000000,-6883.915261,612.876398
469.316226,-1554.432478,-7624.121203,0.000000
469.316553,-3997.112087,-8734.430116,-536.266849
469.316881,-7179.997637,-9252.574275,-842.705048
469.317208,-8142.265362,-8512.368333,-1838.629195
469.317536,-6365.771101,-7994.224174,-1302.362347
469.317863,-5329.482782,-7179.997637,-459.657299
469.318191,-4367.215058,-6957.935855,-536.266849
469.318518,-4663.297435,-7920.203579,0.000000
469.318846,-4663.297435,-7476.080014,-766.095498
469.319173,-2960.823768,-7105.977043,-766.095498
469.319501,-444.123565,-6661.853478,0.000000
469.319828,2368.659014,-6957.935855,689.485948
469.320156,2664.741391,-7772.162391,1838.629195
469.320483,1554.432478,-8364.327145,2451.505594
469.320811,370.102971,-9548.656652,2834.553343
469.321138,814.226536,-9548.656652,2911.162892
469.321466,1998.556043,-9104.533087,3370.820191
469.321793,4515.256246,-9844.739029,3524.039291
469.322121,4145.153275,-10362.883188,3217.601092
469.322448,2294.638420,-10732.986159,3370.820191
469.322776,888.247130,-10362.883188,2757.943793
469.323103,1480.411884,-9622.677246,1915.238745
469.323431,3404.947333,-8660.409521,2528.115143
469.323758,4737.318029,-9030.512492,3370.820191
469.324086,2368.659014,-9326.594869,1072.533697
469.324413,-2368.659014,-10807.006753,2451.505594
469.324741,-4219.173869,-9622.677246,1532.190996
469.325068,-6217.729913,-11029.068536,0.000000
469.325396,-4737.318029,-10066.800811,-612.876398
469.325723,-2146.597232,-9696.697840,-612.876398
469.326051,-2590.720797,-9844.739029,0.000000
469.326378,-3478.967927,-9252.574275,-383.047749
469.326706,-5107.421000,-9548.656652,0.000000
469.327033,-5995.668130,-8808.450710,-1225.752797
469.327361,-2886.803174,-7698.141797,-1762.019645
469.327688,-518.144159,-7105.977043,-842.705048
469.328016,1258.350101,-7105.977043,-612.876398
469.328343,1184.329507,-7846.182985,76.609550
469.328671,-296.082377,-9178.553681,153.219100
469.328998,-962.267725,-9992.780217,0.000000
469.329326,296.082377,-10214.842000,0.000000
469.329653,2146.597232,-10214.842000,459.657299
469.329981,3108.864956,-9918.759623,1149.143247
469.330308,2960.823768,-11769.274478,1608.800546
469.330636,1776.494261,-11621.233289,1149.143247
469.330964,1184.329507,-11769.274478,919.314598
469.331291,2442.679609,-10732.986159,995.924147
469.331619,4145.153275,-9844.739029,1608.800546
469.331946,4663.297435,-9844.739029,1149.143247
469.332274,2442.679609,-9992.780217,1149.143247
469.332601,74.020594,-10140.821405,612.876398
469.332929,-3775.050304,-10066.800811,-383.047749
469.333256,-1258.350101,-9326.594869,0.000000
469.333584,-740.205942,-7476.080014,-153.219100
469.333911,-296.082377,-7476.080014,383.047749
469.334239,-962.267725,-7846.182985,0.000000
469.334566,-2812.782580,-8142.265362,0.000000
469.334894,-5107.421000,-8216.285956,-689.485948
469.335221,-2960.823768,-6883.915261,0.000000
469.335549,-1258.350101,-6069.688724,-842.705048
469.335876,740.205942,-6439.791695,76.609550
469.336204,1332.370696,-7105.977043,689.485948
469.336531,-1184.329507,-8438.347739,1378.971896
469.336859,-2368.659014,-9104.533087,1225.752797
469.337186,-2294.638420,-9252.574275,842.705048
469.337514,-666.185348,-8882.471304,383.047749
469.337841,1110.308913,-8808.450710,536.266849
469.338169,1776.494261,-9548.656652,1072.533697
469.338496,814.226536,-9400.615463,1455.581446
469.338824,0.000000,-9474.636058,1225.752797
469.339151,0.000000,-8882.471304,1608.800546
469.339479,1628.453072,-8216.285956,1532.190996
469.339806,2812.782580,-7994.224174,1762.019645
469.340134,1924.535449,-8882.471304,1838.629195
469.340461,0.000000,-9326.594869,1991.848295
469.340789,-2220.617826,-9844.739029,1378.971896
469.341116,-2516.700203,-9400.615463,995.924147
469.341444,-740.205942,-8734.430116,1302.362347
469.341771,740.205942,-8660.409521,1838.629195
469.342099,1036.288319,-7698.141797,1072.533697
469.342426,-2368.659014,-9030.512492,1378.971896
469.342754,-2738.761985,-8734.430116,0.000000
469.343081,-3404.947333,-8882.471304,-306.438199
469.343409,-1258.350101,-7698.141797,-689.485948
469.343736,1480.411884,-7328.038826,229.828649
469.344064,1850.514855,-7846.182985,536.266849
469.344391,296.082377,-9030.512492,766.095498
469.344719,-2072.576638,-10214.842000,229.828649
469.345046,-3182.885551,-10807.006753,-459.657299
469.345374,-1554.432478,-10658.965565,-459.657299
469.345701,444.123565,-9992.780217,-536.266849
469.346029,1184.329507,-10066.800811,0.000000
469.346356,740.205942,-10066.800811,612.876398
469.346684,-518.144159,-10140.821405,536.266849
469.347011,-740.205942,-9770.718434,153.219100
469.347339,444.123565,-9326.594869,0.000000
469.347666,1998.556043,-8586.388927,0.000000
469.347994,2442.679609,-8808.450710,153.219100
469.348321,1184.329507,-9400.615463,536.266849
469.348649,-1332.370696,-10584.944971,766.095498
469.348976,-2516.700203,-10510.924376,1072.533697
469.349304,-1554.432478,-10140.821405,-459.657299
469.349631,666.185348,-9326.594869,0.000000
469.349959,1924.535449,-9030.512492,459.657299
469.350286,444.123565,-9844.739029,153.219100
469.350614,-1924.535449,-10362.883188,459.657299
469.350941,-2664.741391,-9844.739029,-995.924147
469.351269,-2368.659014,-8882.471304,-306.438199
469.351596,1184.329507,-7698.141797,-383.047749
469.351924,2886.803174,-8068.244768,459.657299
469.352251,2072.576638,-8364.327145,1302.362347
469.352579,296.082377,-9326.594869,612.876398
469.352906,-2516.700203,-9992.780217,459.657299
469.353234,-2072.576638,-9548.656652,0.000000
469.353561,-518.144159,-9178.553681,0.000000
469.353889,1258.350101,-8734.430116,536.266849
469.354216,1554.432478,-8808.450710,1608.800546
469.354544,222.061783,-9474.636058,1225.752797
469.354871,-1184.329507,-9030.512492,1149.143247
469.355199,-518.144159,-8142.265362,1302.362347
469.355526,1406.391290,-7402.059420,1149.143247
469.355854,2664.741391,-7328.038826,995.924147
469.356181,1628.453072,-8216.285956,2068.457845
469.356509,-518.144159,-9326.594869,1685.410096
469.356836,-2886.803174,-9696.697840,1532.190996
469.357164,-2960.823768,-9474.636058,1532.190996
469.357491,-1554.432478,-9104.533087,1149.143247
469.357819,296.082377,-8956.491898,1302.362347
469.358146,-370.102971,-9474.636058,1532.190996
469.358474,-2738.761985,-9622.677246,919.314598
469.358801,-4145.153275,-9548.656652,383.047749
469.359129,-3775.050304,-8290.306550,0.000000
469.359456,-962.267725,-7254.018232,306.438199
469.359784,1850.514855,-6809.894666,153.219100
469.360111,2072.576638,-6809.894666,995.924147
469.360439,74.020594,-7846.182985,1302.362347
469.360766,-2146.597232,-9178.553681,1072.533697
469.361094,-3256.906145,-9030.512492,76.609550
469.361421,-2072.576638,-8808.450710,229.828649
469.361749,222.061783,-8808.450710,76.609550
469.362076,1332.370696,-9030.512492,766.095498
469.362404,370.102971,-9474.636058,1149.143247
469.362731,-1184.329507,-9770.718434,1378.971896
469.363059,-1184.329507,-9548.656652,689.485948
469.363386,444.123565,-8734.430116,76.609550
469.363714,2516.700203,-8438.347739,229.828649
469.364042,3256.906145,-8882.471304,459.657299
469.364369,1480.411884,-9474.636058,766.095498
469.364697,-1110.308913,-10658.965565,-229.828649
469.365024,-1998.556043,-10436.903782,0.000000
469.365352,-1036.288319,-9770.718434,0.000000
469.365679,1332.370696,-9400.615463,76.609550
469.366007,1628.453072,-9326.594869,76.609550
469.366334,814.226536,-10140.821405,612.876398
469.366662,-1628.453072,-10584.944971,306.438199
469.366989,-2368.659014,-9770.718434,0.000000
469.367317,-1036.288319,-9178.553681,-153.219100
469.367644,1332.370696,-8438.347739,306.438199
469.367972,2960.823768,-8438.347739,1532.190996
469.368299,1184.329507,-8882.471304,1378.971896
469.368627,-1110.308913,-9400.615463,766.095498
469.368954,-2664.741391,-9474.636058,229.828649
469.369282,-2516.700203,-9178.553681,-536.266849
469.369609,-222.061783,-8364.327145,-76.609550
469.369937,1110.308913,-8290.306550,-229.828649
469.370264,444.123565,-9030.512492,383.047749
469.370592,-1036.288319,-9548.656652,153.219100
469.370919,-2368.659014,-9696.697840,-229.828649
469.371247,-1554.432478,-9474.636058,-306.438199
469.371574,518.144159,-8808.450710,0.000000
469.371902,1776.494261,-9178.553681,229.828649
469.372229,962.267725,-9696.697840,766.095498
469.372557,-962.267725,-10732.986159,919.314598
469.372884,-2738.761985,-10955.047942,995.924147
469.373212,-2072.576638,-9992.780217,-153.219100
469.373539,296.082377,-9178.553681,229.828649
469.373867,2442.679609,-8438.347739,536.266849
469.374194,2590.720797,-8586.388927,1225.752797
469.374522,962.267725,-9178.553681,1225.752797
469.374849,-962.267725,-9252.574275,536.266849
469.375177,-370.102971,-8882.471304,1072.533697
469.375504,1480.411884,-7994.224174,1072.533697
469.375832,3034.844362,-8068.244768,1608.800546
469.376159,2368.659014,-8882.471304,1838.629195
469.376487,148.041188,-9622.677246,2528.115143
469.376814,-2516.700203,-9844.739029,1915.238745
469.377142,-2960.823768,-9622.677246,995.924147
469.377469,-1332.370696,-9252.574275,536.266849
469.377797,370.102971,-8808.450710,612.876398
469.378124,370.102971,-8808.450710,1149.143247
469.378452,-1554.432478,-9474.636058,1302.362347
469.378779,-3330.926739,-9030.512492,612.876398
469.379107,-3478.967927,-8512.368333,76.609550
469.379434,-1776.494261,-7698.141797,0.000000
469.379762,370.102971,-7254.018232,229.828649
469.380089,444.123565,-7254.018232,842.705048
469.380417,-1184.329507,-7994.224174,1225.752797
469.380744,-3330.926739,-8808.450710,612.876398
469.381072,-3849.070898,-9104.533087,153.219100
469.381399,-1998.556043,-8956.491898,0.000000
469.381727,0.000000,-8142.265362,153.219100
469.382054,740.205942,-8290.306550,842.705048
469.382382,222.061783,-8512.368333,842.705048
469.382709,-1258.350101,-9104.533087,306.438199
469.383037,-1184.329507,-9252.574275,0.000000
469.383364,888.247130,-8586.388927,229.828649
469.383692,2738.761985,-7994.224174,689.485948
469.384019,3330.926739,-8586.388927,766.095498
469.384347,1480.411884,-9770.718434,919.314598
469.384674,-1036.288319,-10658.965565,536.266849
469.385002,-2220.617826,-11029.068536,0.000000
469.385329,-1184.329507,-9992.780217,0.000000
469.385657,0.000000,-9770.718434,-229.828649
469.385984,1850.514855,-9474.636058,-229.828649
469.386312,962.267725,-9474.636058,0.000000
469.386639,-1036.288319,-9474.636058,-383.047749
469.386967,-1554.432478,-9030.512492,-306.438199
469.387294,-888.247130,-8290.306550,-1072.533697
469.387622,1776.494261,-7624.121203,-612.876398
469.387949,2960.823768,-7550.100608,-153.219100
469.388277,2146.597232,-8438.347739,536.266849
469.388604,74.020594,-9474.636058,0.000000
469.388932,-2146.597232,-10214.842000,153.219100
469.389259,-1850.514855,-9918.759623,0.000000
469.389587,444.123565,-9474.636058,459.657299
469.389914,1924.535449,-9622.677246,689.485948
469.390242,1480.411884,-10214.842000,1532.190996
469.390569,-296.082377,-10510.924376,1302.362347
469.390897,-1332.370696,-9918.759623,1149.143247
469.391224,-148.041188,-9474.636058,1149.143247
469.391552,2146.597232,-8808.450710,1532.190996
469.391879,3256.906145,-8734.430116,2145.067394
469.392207,1998.556043,-9104.533087,2068.457845
469.392534,-814.226536,-10066.800811,1685.410096
469.392862,-3330.926739,-10436.903782,1302.362347
469.393189,-3775.050304,-9992.780217,689.485948
469.393517,-2294.638420,-9104.533087,536.266849
469.393844,-148.041188,-8142.265362,612.876398
469.394172,-888.247130,-8512.368333,1532.190996
469.394499,-2294.638420,-8882.471304,1225.752797
469.394827,-3923.091493,-8438.347739,383.047749
469.395154,-3849.070898,-7476.080014,153.219100
469.395482,-1480.411884,-6735.874072,306.438199
469.395809,444.123565,-6439.791695,459.657299
469.396137,444.123565,-7031.956449,689.485948
469.396464,-1258.350101,-7994.224174,919.314598
469.396792,-3108.864956,-8882.471304,919.314598
469.397120,-3478.967927,-9104.533087,383.047749
469.397447,-1998.556043,-8956.491898,0.000000
469.397775,296.082377,-8586.388927,153.219100
469.398102,1184.329507,-8882.471304,459.657299
469.398430,296.082377,-9474.636058,689.485948
469.398757,-1258.350101,-9992.780217,153.219100
469.399085,-296.082377,-9474.636058,383.047749
469.399412,1998.556043,-8956.491898,842.705048
469.399740,3849.070898,-8808.450710,1072.533697
469.400067,3849.070898,-8808.450710,1455.581446
469.400395,2072.576638,-9696.697840,1455.581446
469.400722,-814.226536,-10140.821405,1072.533697
469.401050,-2146.597232,-10658.965565,612.876398
469.401377,-666.185348,-9918.759623,0.000000
469.401705,666.185348,-9178.553681,-153.219100
469.402032,1850.514855,-9178.553681,153.219100
469.402360,518.144159,-9178.553681,0.000000
469.402687,-1628.453072,-9474.636058,153.219100
469.403015,-2886.803174,-9326.594869,-766.095498
469.403342,-1406.391290,-8068.244768,-1455.581446
469.403670,740.205942,-7476.080014,-1072.533697
469.403997,2294.638420,-7476.080014,-306.438199
469.404325,962.267725,-8216.285956,-383.047749
469.404652,-1332.370696,-9622.677246,76.609550
469.404980,-2664.741391,-10362.883188,-306.438199
469.405307,-2146.597232,-10362.883188,-229.828649
469.405635,0.000000,-9844.739029,459.657299
469.405962,1480.411884,-9770.718434,459.657299
469.406290,1184.329507,-10288.862594,919.314598
469.406617,-296.082377,-10658.965565,995.924147
469.406945,-740.205942,-10436.903782,1149.143247
469.407272,592.164754,-9474.636058,1455.581446
469.407600,3034.844362,-9030.512492,1455.581446
469.407927,3552.988522,-8882.471304,2145.067394
469.408255,2294.638420,-9844.739029,2451.505594
469.408582,-1036.288319,-10584.944971,1762.019645
469.408910,-3034.844362,-11103.089130,1838.629195
469.409237,-2664.741391,-10140.821405,1455.581446
469.409565,-1406.391290,-9104.533087,1685.410096
469.409892,444.123565,-8808.450710,1149.143247
469.410220,-370.102971,-8808.450710,1455.581446
469.410547,-2516.700203,-8956.491898,919.314598
469.410875,-3923.091493,-8512.368333,536.266849
469.411202,-3923.091493,-7772.162391,0.000000
469.411530,-1332.370696,-7031.956449,0.000000
469.411857,518.144159,-6735.874072,0.000000
469.412185,148.041188,-7031.956449,306.438199
469.412512,-1332.370696,-8290.306550,612.876398
469.412840,-4071.132681,-8660.409521,153.219100
469.413167,-3849.070898,-8956.491898,-229.828649
469.413495,-1332.370696,-8216.285956,0.000000
469.413823,1184.329507,-8216.285956,229.828649
469.414150,2368.659014,-8364.327145,919.314598
469.414478,1850.514855,-8586.388927,2068.457845
469.414805,888.247130,-8808.450710,1685.410096
469.415133,1480.411884,-8512.368333,1685.410096
469.415460,3182.885551,-8068.244768,1762.019645
469.415788,4589.276840,-8586.388927,1991.848295
469.416115,3923.091493,-8956.491898,2298.286494
469.416443,1332.370696,-9918.759623,2451.505594
469.416770,-1406.391290,-10436.903782,1838.629195
469.417098,-1998.556043,-10140.821405,1378.971896
469.417425,-370.102971,-9326.594869,383.047749
469.417753,740.205942,-8586.388927,766.095498
469.418081,888.247130,-8068.244768,766.095498
469.418408,-1554.432478,-9326.594869,459.657299
469.418736,-3923.091493,-9400.615463,-459.657299
469.419063,-4441.235652,-8734.430116,-1302.362347
469.419391,-2960.823768,-7920.203579,-1302.362347
469.419718,-666.185348,-7105.977043,-612.876398
469.420046,296.082377,-7105.977043,0.000000
469.420373,-1036.288319,-7772.162391,306.438199
469.420701,-2960.823768,-8660.409521,-229.828649
469.421028,-4367.215058,-9104.533087,-689.485948
469.421356,-3034.844362,-9474.636058,-1378.971896
469.421683,-592.164754,-8882.471304,-766.095498
469.422011,444.123565,-8882.471304,-153.219100
469.422339,888.247130,-9252.574275,76.609550
469.422666,0.000000,-9400.615463,536.266849
469.422994,-222.061783,-9474.636058,229.828649
469.423321,2072.576638,-9474.636058,0.000000
469.423649,4737.318029,-8808.450710,689.485948
469.423976,4367.215058,-9400.615463,153.219100
469.424304,4441.235652,-11029.068536,1762.019645
469.424631,1036.288319,-10807.006753,766.095498
469.424959,-1332.370696,-10732.986159,1225.752797
469.425286,148.041188,-11547.212695,1072.533697
469.425614,1258.350101,-10881.027347,1378.971896
469.425941,2368.659014,-9696.697840,1685.410096
469.426269,0.000000,-9918.759623,919.314598
469.426597,-1702.473667,-9696.697840,612.876398
469.426924,-3182.885551,-10288.862594,306.438199
469.427252,-3182.885551,-8660.409521,-612.876398
469.427579,-444.123565,-8216.285956,-153.219100
469.427907,1258.350101,-7328.038826,229.828649
469.428234,592.164754,-8290.306550,229.828649
469.428562,-2294.638420,-9252.574275,689.485948
469.428889,-4737.318029,-10066.800811,0.000000
469.429217,-3997.112087,-9474.636058,-689.485948
469.429544,-2220.617826,-9104.533087,-536.266849
469.429872,444.123565,-9104.533087,0.000000
469.430199,666.185348,-9252.574275,919.314598
469.430527,-444.123565,-10288.862594,1608.800546
469.430855,-1702.473667,-9918.759623,1072.533697
469.431182,-370.102971,-9400.615463,1608.800546
469.431510,1776.494261,-8660.409521,1685.410096
469.431837,3701.029710,-9030.512492,1991.848295
469.432165,3034.844362,-9770.718434,2451.505594
469.432492,740.205942,-10066.800811,2528.115143
469.432820,-1258.350101,-10362.883188,2451.505594
469.433147,-1258.350101,-9918.759623,1915.238745
469.433475,518.144159,-8956.491898,1608.800546
469.433802,2294.638420,-8882.471304,1991.848295
469.434130,1554.432478,-8808.450710,2298.286494
469.434457,-1554.432478,-9326.594869,1608.800546
469.434785,-3330.926739,-9548.656652,1225.752797
469.435113,-3627.009116,-7994.224174,612.876398
469.435440,-1776.494261,-7402.059420,306.438199
469.435768,-222.061783,-7105.977043,0.000000
469.436095,-222.061783,-7698.141797,612.876398
469.436423,-2960.823768,-8512.368333,229.828649
469.436750,-4663.297435,-8734.430116,0.000000
469.437078,-5033.400406,-8808.450710,-1072.533697
469.437405,-3034.844362,-8068.244768,-1685.410096
469.437733,148.041188,-7476.080014,-1149.143247
469.438060,1406.391290,-7624.121203,-536.266849
469.438388,1702.473667,-8068.244768,306.438199
469.438715,370.102971,-8438.347739,689.485948
469.439043,148.041188,-8956.491898,306.438199
469.439371,1850.514855,-8956.491898,229.828649
469.439698,3775.050304,-8808.450710,383.047749
469.440026,4441.235652,-8882.471304,1302.362347
469.440353,3849.070898,-9844.739029,1838.629195
469.440681,1184.329507,-10362.883188,1915.238745
469.441008,444.123565,-10140.821405,1225.752797
469.441336,1332.370696,-9548.656652,689.485948
469.441663,2664.741391,-8882.471304,689.485948
469.441991,3034.844362,-8956.491898,229.828649
469.442318,1110.308913,-9474.636058,842.705048
469.442646,-1924.535449,-9918.759623,-306.438199
469.442973,-3108.864956,-9474.636058,-689.485948
469.443301,-1628.453072,-7698.141797,-1149.143247
469.443628,0.000000,-7402.059420,-766.095498
469.443956,592.164754,-7402.059420,-306.438199
469.444284,-814.226536,-8808.450710,0.000000
469.444611,-3997.112087,-9622.677246,-306.438199
469.444939,-5699.585753,-9844.739029,-1149.143247
469.445266,-5181.441594,-9400.615463,-1991.848295
469.445594,-2738.761985,-8512.368333,-1302.362347
469.445921,0.000000,-8364.327145,-842.705048
469.446249,370.102971,-8216.285956,229.828649
469.446576,0.000000,-8734.430116,76.609550
469.446904,-370.102971,-9104.533087,383.047749
469.447231,740.205942,-8364.327145,229.828649
469.447559,2442.679609,-8216.285956,383.047749
469.447886,4145.153275,-8660.409521,1455.581446
469.448214,3552.988522,-9696.697840,1991.848295
469.448542,1628.453072,-11103.089130,2145.067394
469.448869,222.061783,-11547.212695,2451.505594
469.449197,296.082377,-11103.089130,2068.457845
469.449524,2072.576638,-10510.924376,2757.943793
469.449852,3034.844362,-10362.883188,2221.676944
469.450179,1924.535449,-10436.903782,2374.896044
469.450507,-444.123565,-10436.903782,1608.800546
469.450834,-3108.864956,-9400.615463,1072.533697
469.451162,-2368.659014,-8660.409521,536.266849
469.451489,-666.185348,-7846.182985,842.705048
469.451817,0.000000,-7550.100608,766.095498
469.452144,-814.226536,-7920.203579,995.924147
469.452472,-3552.988522,-8808.450710,842.705048
469.452800,-7031.956449,-9622.677246,-153.219100
469.453127,-7105.977043,-8956.491898,-1225.752797
469.453455,-5033.400406,-8660.409521,-1532.190996
469.453782,-1776.494261,-8364.327145,-689.485948
469.454110,444.123565,-7920.203579,995.924147
469.454437,0.000000,-8734.430116,919.314598
469.454765,-962.267725,-8956.491898,919.314598
469.455092,-888.247130,-8956.491898,842.705048
469.455420,888.247130,-8734.430116,842.705048
469.455747,3182.885551,-8364.327145,995.924147
469.456075,3108.864956,-9400.615463,1838.629195
469.456402,1924.535449,-10510.924376,2298.286494
469.456730,444.123565,-10955.047942,2374.896044
469.457058,370.102971,-10732.986159,1685.410096
469.457385,1998.556043,-10288.862594,1762.019645
469.457713,3775.050304,-9696.697840,1302.362347
469.458040,3108.864956,-9918.759623,1762.019645
469.458368,1110.308913,-10214.842000,1608.800546
469.458695,-1702.473667,-10066.800811,689.485948
469.459023,-2072.576638,-9474.636058,536.266849
469.459350,-296.082377,-8068.244768,0.000000
469.459678,518.144159,-7698.141797,153.219100
469.460005,962.267725,-7624.121203,689.485948
469.460333,-1554.432478,-8216.285956,842.705048
469.460660,-4959.379811,-8956.491898,0.000000
469.460988,-6143.709319,-8882.471304,-1455.581446
469.461316,-4885.359217,-8068.244768,-1991.848295
469.461643,-2368.659014,-7105.977043,-1838.629195
469.461971,-222.061783,-6809.894666,-766.095498
469.462298,0.000000,-7179.997637,-459.657299
469.462626,-1110.308913,-7994.224174,229.828649
469.462953,-1702.473667,-8438.347739,-229.828649
469.463281,-666.185348,-8068.244768,-459.657299
469.463608,1628.453072,-8364.327145,-459.657299
469.463936,3256.906145,-8882.471304,306.438199
469.464263,3034.844362,-9844.739029,842.705048
469.464591,1924.535449,-10288.862594,1762.019645
469.464918,814.226536,-10214.842000,1455.581446
469.465246,1628.453072,-9992.780217,1072.533697
469.465574,2886.803174,-9548.656652,842.705048
469.465901,3404.947333,-9474.636058,919.314598
469.466229,2664.741391,-9622.677246,1149.143247
469.466556,222.061783,-9474.636058,229.828649
469.466884,-1036.288319,-9474.636058,229.828649
469.467211,-518.144159,-8068.244768,-459.657299
469.467539,888.247130,-7476.080014,229.828649
469.467866,2664.741391,-7105.977043,995.924147
469.468194,1332.370696,-8956.491898,536.266849
469.468521,-2516.700203,-9326.594869,459.657299
469.468849,-4959.379811,-10288.862594,-229.828649
469.469176,-5625.565159,-9474.636058,-1225.752797
469.469504,-3923.091493,-8956.491898,-995.924147
469.469832,-814.226536,-8290.306550,-766.095498
469.470159,-888.247130,-8734.430116,-153.219100
469.470487,-2146.597232,-9030.512492,0.000000
469.470814,-2812.782580,-9474.636058,-536.266849
469.471142,-2886.803174,-8660.409521,-766.095498
469.471469,518.144159,-8660.409521,-306.438199
469.471797,2664.741391,-8438.347739,383.047749
469.472124,3330.926739,-9030.512492,1072.533697
469.472452,2442.679609,-10140.821405,2145.067394
469.472779,962.267725,-11029.068536,2374.896044
469.473107,296.082377,-10807.006753,2451.505594
469.473434,1702.473667,-10732.986159,1838.629195
469.473762,2442.679609,-10807.006753,2298.286494
469.474090,2146.597232,-11103.089130,2681.334243
469.474417,518.144159,-11177.109724,2451.505594
469.474745,-1332.370696,-10584.944971,2221.676944
469.475072,-1110.308913,-9844.739029,1685.410096
469.475400,-148.041188,-8512.368333,842.705048
469.475727,1406.391290,-7772.162391,1302.362347
469.476055,1332.370696,-8142.265362,995.924147
469.476382,-2220.617826,-9030.512492,1225.752797
469.476710,-4589.276840,-9696.697840,0.000000
469.477037,-6365.771101,-9474.636058,-689.485948
469.477365,-4589.276840,-9030.512492,-919.314598
469.477692,-2146.597232,-8142.265362,-612.876398
469.478020,0.000000,-8586.388927,229.828649
469.478348,-1110.308913,-8438.347739,383.047749
469.478675,-3108.864956,-9030.512492,536.266849
469.479003,-3330.926739,-8734.430116,-306.438199
469.479330,-1480.411884,-8068.244768,-153.219100
469.479658,1332.370696,-7624.121203,383.047749
469.479985,3330.926739,-7994.224174,1378.971896
469.480313,2960.823768,-8586.388927,2221.676944
469.480640,1332.370696,-9326.594869,2451.505594
469.480968,518.144159,-9548.656652,2068.457845
469.481295,814.226536,-9474.636058,1608.800546
469.481623,2146.597232,-9326.594869,1225.752797
469.481950,2368.659014,-9474.636058,1532.190996
469.482278,1554.432478,-9622.677246,1225.752797
469.482606,-444.123565,-9918.759623,1072.533697
469.482933,-1406.391290,-9474.636058,536.266849
469.483261,0.000000,-8364.327145,1149.143247
469.483588,1998.556043,-7402.059420,76.609550
469.483916,1258.350101,-7772.162391,229.828649
469.484243,-370.102971,-8586.388927,306.438199
469.484571,-3627.009116,-9400.615463,-383.047749
469.484898,-5921.647536,-9548.656652,-766.095498
469.485226,-5255.462188,-8882.471304,-2068.457845
469.485553,-2516.700203,-8142.265362,-1685.410096
469.485881,-888.247130,-7994.224174,-995.924147
469.486208,0.000000,-7846.182985,-383.047749
469.486536,-1776.494261,-8586.388927,-842.705048
469.486863,-2368.659014,-8364.327145,-1072.533697
469.487191,-1628.453072,-8068.244768,-1302.362347
469.487519,1184.329507,-7624.121203,-1455.581446
469.487846,4071.132681,-7698.141797,-153.219100
469.488174,4737.318029,-8882.471304,1072.533697
469.488501,3256.906145,-9474.636058,1991.848295
469.488829,1628.453072,-10658.965565,1608.800546
469.489156,1332.370696,-10807.006753,1225.752797
469.489484,2368.659014,-10732.986159,919.314598
469.489811,3330.926739,-10732.986159,1149.143247
469.490139,3108.864956,-11103.089130,1762.019645
469.490466,1480.411884,-11177.109724,1455.581446
469.490794,0.000000,-11177.109724,1455.581446
469.491121,-444.123565,-10140.821405,689.485948
469.491449,1110.308913,-9326.594869,1455.581446
469.491777,2146.597232,-9030.512492,995.924147
469.492104,296.082377,-9326.594869,1072.533697
469.492432,-3034.844362,-9992.780217,306.438199
469.492759,-5995.668130,-10214.842000,-306.438199
469.493087,-6661.853478,-9622.677246,-1072.533697
469.493414,-4737.318029,-8438.347739,-1225.752797
469.493742,-1702.473667,-7624.121203,76.609550
469.494069,-518.144159,-7698.141797,76.609550
469.494397,-1184.329507,-8512.368333,612.876398
469.494724,-3108.864956,-8586.388927,229.828649
469.495052,-3330.926739,-8660.409521,0.000000
469.495379,-962.267725,-8364.327145,0.000000
469.495707,888.247130,-7846.182985,689.485948
469.496035,2368.659014,-8660.409521,1762.019645
469.496362,1924.535449,-9696.697840,2528.115143
469.496690,518.144159,-10436.903782,2604.724693
469.497017,0.000000,-11029.068536,1991.848295
469.497345,666.185348,-10288.862594,1991.848295
469.497672,2368.659014,-10066.800811,1991.848295
469.498000,2590.720797,-10288.862594,2298.286494
469.498327,1554.432478,-10140.821405,2298.286494
469.498655,0.000000,-10066.800811,2145.067394
469.498982,0.000000,-9326.594869,2451.505594
469.499310,222.061783,-8660.409521,1685.410096
469.499637,2220.617826,-7550.100608,2374.896044
469.499965,1924.535449,-7698.141797,2145.067394
469.500293,-1702.473667,-8808.450710,1838.629195
469.500620,-4737.318029,-9400.615463,229.828649
469.500948,-6513.812290,-8808.450710,-459.657299
469.501275,-5625.565159,-7846.182985,-1149.143247
469.501603,-2590.720797,-7031.956449,-689.485948
469.501930,-740.205942,-6587.832884,0.000000
469.502258,-814.226536,-6661.853478,0.000000
469.502585,-2516.700203,-7476.080014,-306.438199
469.502913,-3701.029710,-7328.038826,-1149.143247
469.503240,-2960.823768,-7402.059420,-1685.410096
469.503568,0.000000,-7105.977043,-1149.143247
469.503895,2368.659014,-7846.182985,-612.876398
469.504223,2442.679609,-8216.285956,459.657299
469.504551,1110.308913,-9918.759623,766.095498
469.504878,-148.041188,-10510.924376,612.876398
469.505206,74.020594,-10066.800811,0.000000
469.505533,1998.556043,-9844.739029,0.000000
469.505861,3256.906145,-9696.697840,229.828649
469.506188,3701.029710,-10140.821405,306.438199
469.506516,2368.659014,-10288.862594,995.924147
469.506843,1554.432478,-10066.800811,766.095498
469.507171,2368.659014,-9400.615463,842.705048
469.507498,3849.070898,-8734.430116,1072.533697
469.507826,3478.967927,-8586.388927,153.219100
469.508153,1628.453072,-9918.759623,766.095498
469.508481,-740.205942,-10288.862594,0.000000
469.508809,-3775.050304,-10732.986159,-919.314598
469.509136,-4367.215058,-9400.615463,-1149.143247
469.509464,-1702.473667,-9326.594869,-1149.143247
469.509791,-370.102971,-8438.347739,-842.705048
469.510119,-222.061783,-8290.306550,-383.047749
469.510446,-1554.432478,-8882.471304,0.000000
469.510774,-3552.988522,-9474.636058,-612.876398
469.511101,-3627.009116,-9474.636058,-1149.143247
469.511429,-1702.473667,-8364.327145,-1149.143247
469.511756,1036.288319,-7994.224174,0.000000
469.512084,2368.659014,-8660.409521,1302.362347
469.512411,666.185348,-9474.636058,1915.238745
469.512739,-1110.308913,-10436.903782,1915.238745
469.513067,-1850.514855,-10584.944971,1608.800546
469.513395,-592.164754,-10214.842000,1225.752797
469.513722,1332.370696,-9844.739029,1378.971896
469.514050,2072.576638,-9918.759623,1991.848295
469.514378,1554.432478,-10214.842000,2604.724693
469.514705,222.061783,-9918.759623,2604.724693
469.515033,296.082377,-9474.636058,2451.505594
469.515361,1554.432478,-8512.368333,2451.505594
469.515689,2516.700203,-8512.368333,2451.505594
469.516016,2146.597232,-9252.574275,2451.505594
469.516344,-962.267725,-9622.677246,1685.410096
469.516672,-3478.967927,-10066.800811,1685.410096
469.516999,-4737.318029,-9474.636058,306.438199
469.517327,-3997.112087,-8882.471304,766.095498
469.517655,-1184.329507,-8142.265362,306.438199
469.517983,-814.226536,-8216.285956,459.657299
469.518310,-2072.576638,-8660.409521,383.047749
469.518638,-3997.112087,-8956.491898,0.000000
469.518966,-5033.400406,-8438.347739,-689.485948
469.519293,-3108.864956,-7624.121203,-1225.752797
469.519621,-74.020594,-6439.791695,-459.657299
469.519949,2368.659014,-7105.977043,229.828649
469.520277,2368.659014,-7920.203579,1378.971896
469.520604,74.020594,-9252.574275,1225.752797
469.520932,-1554.432478,-10140.821405,919.314598
469.521260,-1480.411884,-10214.842000,306.438199
469.521587,666.185348,-9622.677246,689.485948
469.521915,2294.638420,-9696.697840,689.485948
469.522243,2368.659014,-9548.656652,1455.581446
469.522571,1998.556043,-9992.780217,1915.238745
469.522898,1332.370696,-9696.697840,1149.143247
469.523226,1628.453072,-9104.533087,1455.581446
469.523554,2812.782580,-8660.409521,995.924147
469.523881,2960.823768,-8808.450710,1149.143247
469.524209,962.267725,-9548.656652,536.266849
469.524537,-2294.638420,-10362.883188,459.657299
469.524865,-4071.132681,-10362.883188,-229.828649
469.525192,-3404.947333,-9252.574275,-919.314598
469.525520,-1628.453072,-8512.368333,-689.485948
469.525848,370.102971,-7846.182985,-536.266849
469.526175,0.000000,-8586.388927,-306.438199
469.526503,-3034.844362,-8882.471304,-153.219100
469.526831,-3997.112087,-8660.409521,-1378.971896
469.527159,-3404.947333,-8364.327145,-1532.190996
469.527486,-814.226536,-7105.977043,-1685.410096
469.527814,1924.535449,-7105.977043,-306.438199
469.528142,2664.741391,-7254.018232,995.924147
469.528469,1258.350101,-9178.553681,919.314598
469.528797,-888.247130,-9844.739029,612.876398
469.529125,-1702.473667,-9844.739029,229.828649
469.529453,-370.102971,-9918.759623,-229.828649
469.529780,2146.597232,-9696.697840,76.609550
469.530108,3182.885551,-9844.739029,842.705048
469.530436,2368.659014,-10214.842000,1532.190996
469.530763,1406.391290,-10214.842000,1762.019645
469.531091,1776.494261,-9918.759623,1455.581446
469.531419,2368.659014,-9178.553681,1149.143247
469.531747,2960.823768,-8586.388927,766.095498
469.532074,2072.576638,-9474.636058,919.314598
469.532402,-666.185348,-10140.821405,842.705048
469.532730,-2960.823768,-10436.903782,1072.533697
469.533057,-3552.988522,-9992.780217,153.219100
469.533385,-2146.597232,-9030.512492,919.314598
469.533713,518.144159,-8364.327145,766.095498
469.534041,518.144159,-8586.388927,689.485948
469.534368,-1554.432478,-9252.574275,1072.533697
469.534696,-4071.132681,-9326.594869,229.828649
469.535024,-4219.173869,-8734.430116,0.000000
469.535351,-2294.638420,-7698.141797,-689.485948
469.535679,814.226536,-7476.080014,153.219100
469.536007,1998.556043,-7994.224174,1302.362347
469.536335,592.164754,-8882.471304,1762.019645
469.536662,-1924.535449,-9548.656652,1838.629195
469.536990,-3256.906145,-10214.842000,842.705048
469.537318,-2220.617826,-9548.656652,0.000000
469.537645,-74.020594,-9326.594869,306.438199
469.537973,1554.432478,-9326.594869,612.876398
469.538301,1554.432478,-9400.615463,1838.629195
469.538629,1258.350101,-9474.636058,2221.676944
469.538956,370.102971,-8956.491898,2145.067394
469.539284,1258.350101,-8660.409521,1762.019645
469.539612,2220.617826,-8438.347739,1608.800546
469.539939,1628.453072,-8734.430116,1762.019645
469.540267,0.000000,-9326.594869,2145.067394
469.540595,-2442.679609,-9622.677246,1685.410096
469.540923,-3108.864956,-9622.677246,1225.752797
469.541250,-1924.535449,-8956.491898,1149.143247
469.541578,0.000000,-8216.285956,689.485948
469.541906,666.185348,-7846.182985,1915.238745
469.542233,0.000000,-8216.285956,1225.752797
469.542561,-3108.864956,-9326.594869,536.266849
469.542889,-4367.215058,-9252.574275,0.000000
469.543217,-3182.885551,-8438.347739,-536.266849
469.543544,-666.185348,-7550.100608,76.609550
469.543872,1924.535449,-7105.977043,306.438199
469.544200,1480.411884,-8068.244768,1072.533697
469.544527,-888.247130,-9178.553681,536.266849
469.544855,-2812.782580,-9844.739029,0.000000
469.545183,-3108.864956,-9696.697840,-842.705048
469.545511,-1332.370696,-8956.491898,-1225.752797
469.545838,1110.308913,-8956.491898,-919.314598
469.546166,1776.494261,-8660.409521,76.609550
469.546494,1628.453072,-9178.553681,995.924147
469.546821,666.185348,-9178.553681,689.485948
469.547149,592.164754,-8364.327145,612.876398
469.547477,1776.494261,-8438.347739,153.219100
469.547805,2442.679609,-8586.388927,229.828649
469.548132,2220.617826,-9178.553681,383.047749
469.548460,74.020594,-9918.759623,459.657299
469.548788,-1332.370696,-9992.780217,689.485948
469.549115,-962.267725,-9622.677246,0.000000
469.549443,666.185348,-8882.471304,-229.828649
469.549771,1702.473667,-9030.512492,0.000000
469.550099,1332.370696,-9696.697840,0.000000
469.550426,-1332.370696,-9992.780217,-459.657299
469.550754,-3330.926739,-10881.027347,-459.657299
469.551082,-3108.864956,-9770.718434,-1532.190996
469.551409,-962.267725,-8882.471304,-1225.752797
469.551737,1998.556043,-8586.388927,-383.047749
469.552065,3108.864956,-8808.450710,842.705048
469.552393,888.247130,-9474.636058,1532.190996
469.552720,-1406.391290,-10288.862594,1072.533697
469.553048,-2590.720797,-10362.883188,229.828649
469.553376,-2442.679609,-10140.821405,-383.047749
469.553703,0.000000,-9696.697840,0.000000
469.554031,1332.370696,-9622.677246,459.657299
469.554359,814.226536,-9622.677246,1532.190996
469.554687,0.000000,-9844.739029,1762.019645
469.555014,0.000000,-9326.594869,1378.971896
469.555342,814.226536,-8586.388927,995.924147
469.555670,2442.679609,-8438.347739,842.705048
469.555997,2294.638420,-8808.450710,1149.143247
469.556325,222.061783,-10066.800811,1378.971896
469.556653,-1332.370696,-10732.986159,1608.800546
469.556981,-2072.576638,-10510.924376,1762.019645
469.557308,-888.247130,-9992.780217,1685.410096
469.557636,1776.494261,-9622.677246,1762.019645
469.557964,1184.329507,-9400.615463,1838.629195
469.558291,-666.185348,-9548.656652,2068.457845
469.558619,-2664.741391,-9992.780217,1532.190996
469.558947,-3923.091493,-9252.574275,766.095498
469.559275,-2590.720797,-7624.121203,612.876398
469.559602,814.226536,-7328.038826,919.314598
469.559930,1998.556043,-7105.977043,2068.457845
469.560258,888.247130,-8068.244768,2374.896044
469.560585,-2368.659014,-9104.533087,1838.629195
469.560913,-4515.256246,-9326.594869,1302.362347
469.561241,-4219.173869,-8734.430116,-229.828649
469.561569,-2220.617826,-8586.388927,-383.047749
469.561896,0.000000,-8216.285956,229.828649
469.562224,518.144159,-8290.306550,995.924147
469.562552,0.000000,-8808.450710,1838.629195
469.562879,-888.247130,-8438.347739,1302.362347
469.563207,-592.164754,-7698.141797,306.438199
469.563535,740.205942,-7846.182985,0.000000
469.563863,1184.329507,-8364.327145,153.219100
469.564190,0.000000,-8956.491898,306.438199
469.564518,-1036.288319,-9844.739029,766.095498
469.564846,-2368.659014,-9770.718434,76.609550
469.565173,-1406.391290,-9252.574275,76.609550
469.565501,962.267725,-8290.306550,0.000000
469.565829,2590.720797,-8142.265362,306.438199
469.566157,2368.659014,-8660.409521,766.095498
469.566484,814.226536,-9400.615463,536.266849
469.566812,-962.267725,-9030.512492,-153.219100
469.567140,-518.144159,-8586.388927,-536.266849
469.567467,1628.453072,-8068.244768,-306.438199
469.567795,3256.906145,-7920.203579,842.705048
469.568123,2664.741391,-8808.450710,1455.581446
469.568451,0.000000,-9844.739029,1149.143247
469.568778,-2516.700203,-10658.965565,0.000000
469.569106,-3478.967927,-10214.842000,-1149.143247
469.569434,-1480.411884,-9622.677246,-1608.800546
469.569762,592.164754,-8512.368333,-919.314598
469.570089,1480.411884,-8956.491898,0.000000
469.570417,1036.288319,-9326.594869,383.047749
469.570745,-296.082377,-9474.636058,76.609550
469.571072,-1036.288319,-8956.491898,-306.438199
469.571400,-370.102971,-8290.306550,-306.438199
469.571728,888.247130,-8808.450710,76.609550
469.572056,666.185348,-9326.594869,153.219100
469.572383,0.000000,-9770.718434,842.705048
469.572711,-1776.494261,-10066.800811,842.705048
469.573039,-1850.514855,-9992.780217,1072.533697
469.573366,-370.102971,-9474.636058,536.266849
469.573694,666.185348,-8956.491898,689.485948
469.574022,592.164754,-8956.491898,1072.533697
469.574350,-444.123565,-9474.636058,1302.362347
469.574677,-2146.597232,-9696.697840,766.095498
469.575005,-1850.514855,-8734.430116,536.266849
469.575333,-370.102971,-8290.306550,383.047749
469.575660,1776.494261,-7846.182985,1378.971896
469.575988,2590.720797,-8142.265362,1762.019645
469.576316,518.144159,-9252.574275,2451.505594
469.576644,-1924.535449,-9474.636058,1838.629195
469.576971,-3997.112087,-10510.924376,612.876398
469.577299,-3404.947333,-9844.739029,0.000000
469.577627,-1110.308913,-8808.450710,383.047749
469.577954,592.164754,-8882.471304,1378.971896
469.578282,814.226536,-8808.450710,1685.410096
469.578610,-740.205942,-9030.512492,1532.190996
469.578938,-1628.453072,-8882.471304,1072.533697
469.579265,-1258.350101,-8216.285956,459.657299
469.579593,148.041188,-7772.162391,306.438199
469.579921,962.267725,-7772.162391,842.705048
469.580248,444.123565,-8512.368333,995.924147
469.580576,-740.205942,-9030.512492,1532.190996
469.580904,-1776.494261,-9178.553681,919.314598
469.581232,-1332.370696,-8808.450710,536.266849
469.581559,518.144159,-8734.430116,383.047749
469.581887,1628.453072,-9326.594869,995.924147
469.582215,296.082377,-9474.636058,842.705048
469.582542,-888.247130,-10140.821405,383.047749
469.582870,-1998.556043,-9844.739029,306.438199
469.583198,-370.102971,-9104.533087,0.000000
469.583526,1776.494261,-7994.224174,689.485948
469.583853,3404.947333,-8438.347739,1302.362347
469.584181,3182.885551,-9474.636058,1838.629195
469.584509,148.041188,-10658.965565,1302.362347
469.584836,-2664.741391,-10881.027347,842.705048
469.585164,-3034.844362,-10214.842000,-229.828649
469.585492,-1924.535449,-9992.780217,-229.828649
469.585820,148.041188,-9548.656652,-153.219100
469.586147,592.164754,-9400.615463,306.438199
469.586475,-592.164754,-9104.533087,383.047749
469.586803,-2146.597232,-8660.409521,229.828649
469.587130,-1776.494261,-8512.368333,-1072.533697
469.587458,-962.267725,-7846.182985,-1532.190996
469.587786,592.164754,-7846.182985,-1302.362347
469.588114,1036.288319,-8068.244768,-766.095498
469.588441,-296.082377,-8660.409521,-306.438199
469.588769,-1702.473667,-9400.615463,-306.438199
469.589097,-2368.659014,-9178.553681,-1072.533697
469.589424,-888.247130,-9030.512492,-919.314598
469.589752,1036.288319,-9474.636058,-536.266849
469.590080,1332.370696,-9474.636058,0.000000
469.590408,296.082377,-9918.759623,536.266849
469.590735,-518.144159,-10288.862594,383.047749
469.591063,-148.041188,-9474.636058,0.000000
469.591391,1924.535449,-8734.430116,383.047749
469.591718,4367.215058,-8364.327145,1149.143247
469.592046,4441.235652,-8512.368333,1915.238745
469.592374,2442.679609,-9844.739029,2145.067394
469.592702,-740.205942,-10510.924376,1455.581446
469.593029,-2368.659014,-10362.883188,612.876398
469.593357,-1406.391290,-9696.697840,459.657299
469.593685,666.185348,-9326.594869,1149.143247
469.594012,1110.308913,-9178.553681,1302.362347
469.594340,444.123565,-9548.656652,1762.019645
469.594668,-1628.453072,-9326.594869,1762.019645
469.594996,-2812.782580,-8734.430116,919.314598
469.595323,-1998.556043,-8142.265362,536.266849
469.595651,-666.185348,-7994.224174,536.266849
469.595979,0.000000,-8142.265362,689.485948
469.596306,-1184.329507,-8586.388927,1302.362347
469.596634,-2886.803174,-9104.533087,1378.971896
469.596962,-3627.009116,-9030.512492,766.095498
469.597290,-1998.556043,-8142.265362,383.047749
469.597617,0.000000,-8216.285956,612.876398
469.597945,666.185348,-8808.450710,1072.533697
469.598273,148.041188,-9622.677246,1302.362347
469.598600,-1776.494261,-9992.780217,1455.581446
469.598928,-2220.617826,-9770.718434,1225.752797
469.599256,-148.041188,-9104.533087,1072.533697
469.599584,2368.659014,-8660.409521,1762.019645
469.599911,3627.009116,-8882.471304,2298.286494
469.600239,2442.679609,-9770.718434,2681.334243
469.600567,-370.102971,-9696.697840,2145.067394
469.600894,-2146.597232,-10214.842000,1838.629195
469.601222,-1924.535449,-9548.656652,306.438199
469.601550,-444.123565,-9178.553681,76.609550
469.601878,888.247130,-8882.471304,536.266849
469.602205,1110.308913,-8586.388927,842.705048
469.602533,-1332.370696,-8808.450710,306.438199
469.602861,-2294.638420,-9178.553681,-229.828649
469.603188,-2368.659014,-8438.347739,-995.924147
469.603516,-1184.329507,-8068.244768,-1225.752797
469.603844,296.082377,-8216.285956,-689.485948
469.604172,-148.041188,-7994.224174,-536.266849
469.604499,-1184.329507,-8956.491898,306.438199
469.604827,-2368.659014,-9104.533087,-459.657299
469.605155,-2220.617826,-9178.553681,-689.485948
469.605482,-444.123565,-8808.450710,-1072.533697
469.605810,1332.370696,-8660.409521,-536.266849
469.606138,814.226536,-8364.327145,-229.828649
469.606466,222.061783,-9030.512492,76.609550
469.606793,-592.164754,-9326.594869,-306.438199
469.607121,222.061783,-8660.409521,-153.219100
469.607449,2960.823768,-7624.121203,766.095498
469.607776,5033.400406,-7994.224174,1225.752797
469.608104,3923.091493,-9030.512492,2145.067394
469.608432,1258.350101,-10362.883188,2145.067394
469.608760,-1554.432478,-11251.130318,1532.190996
469.609087,-2294.638420,-10807.006753,689.485948
469.609415,-740.205942,-10288.862594,306.438199
469.609743,370.102971,-9770.718434,306.438199
469.610070,740.205942,-9326.594869,1072.533697
469.610398,0.000000,-9178.553681,995.924147
469.610726,-2220.617826,-9030.512492,459.657299
469.611054,-2516.700203,-8068.244768,-766.095498
469.611381,-1924.535449,-7328.038826,-1455.581446
469.611709,-666.185348,-6957.935855,-766.095498
469.612037,148.041188,-7328.038826,-306.438199
469.612364,-1184.329507,-8068.244768,153.219100
469.612692,-3256.906145,-8808.450710,229.828649
469.613020,-3330.926739,-9030.512492,-383.047749
469.613348,-2368.659014,-9104.533087,-459.657299
469.613675,-444.123565,-9178.553681,0.000000
469.614003,888.247130,-9696.697840,612.876398
469.614330,666.185348,-9844.739029,1455.581446
469.614658,0.000000,-10288.862594,1302.362347
469.614986,148.041188,-9474.636058,1225.752797
469.615313,2072.576638,-8808.450710,1608.800546
469.615641,4367.215058,-8734.430116,2145.067394
469.615968,4515.256246,-9326.594869,2374.896044
469.616296,2812.782580,-10510.924376,2528.115143
469.616623,-370.102971,-10881.027347,1915.238745
469.616951,-1850.514855,-10881.027347,1378.971896
469.617278,-962.267725,-10362.883188,766.095498
469.617606,444.123565,-9548.656652,919.314598
469.617933,1332.370696,-9474.636058,1915.238745
469.618261,592.164754,-9104.533087,1838.629195
469.618588,-2590.720797,-9696.697840,1378.971896
469.618916,-3997.112087,-9548.656652,536.266849
469.619243,-3701.029710,-8660.409521,-459.657299
469.619571,-1998.556043,-8216.285956,-919.314598
469.619898,-962.267725,-7402.059420,0.000000
469.620226,-1406.391290,-7994.224174,689.485948
469.620553,-2812.782580,-8068.244768,459.657299
469.620881,-3478.967927,-8068.244768,-153.219100
469.621209,-3552.988522,-7994.224174,-306.438199
469.621536,-1036.288319,-7550.100608,-536.266849
469.621864,370.102971,-7920.203579,-229.828649
469.622191,666.185348,-8512.368333,153.219100
469.622519,148.041188,-9104.533087,612.876398
469.622846,222.061783,-9548.656652,919.314598
469.623174,814.226536,-9104.533087,1072.533697
469.623501,3404.947333,-8882.471304,1302.362347
469.623829,4663.297435,-9400.615463,1915.238745
469.624156,3478.967927,-10362.883188,2145.067394
469.624484,962.267725,-11251.130318,1762.019645
469.624811,-1110.308913,-11547.212695,689.485948
469.625139,-1036.288319,-10510.924376,612.876398
469.625466,0.000000,-9474.636058,0.000000
469.625794,1776.494261,-9178.553681,689.485948
469.626121,2072.576638,-8586.388927,919.314598
469.626449,0.000000,-9252.574275,383.047749
469.626776,-2146.597232,-8808.450710,76.609550
469.627104,-2886.803174,-8364.327145,-995.924147
469.627431,-2220.617826,-7698.141797,-1455.581446
469.627759,-740.205942,-7772.162391,-842.705048
469.628087,0.000000,-8216.285956,612.876398
469.628414,-1184.329507,-8586.388927,0.000000
469.628742,-2220.617826,-9030.512492,229.828649
469.629069,-2960.823768,-9252.574275,-229.828649
469.629397,-2294.638420,-9252.574275,-536.266849
469.629724,74.020594,-8882.471304,-536.266849
469.630052,814.226536,-9400.615463,0.000000
469.630379,518.144159,-8956.491898,306.438199
469.630707,-222.061783,-9400.615463,306.438199
469.631034,0.000000,-9030.512492,383.047749
469.631362,1998.556043,-8586.388927,689.485948
469.631689,4219.173869,-8734.430116,1455.581446
469.632017,3923.091493,-8882.471304,2145.067394
469.632344,1998.556043,-10584.944971,2221.676944
469.632672,-740.205942,-11547.212695,1915.238745
469.632999,-2220.617826,-11251.130318,1302.362347
469.633327,-1258.350101,-10140.821405,1072.533697
469.633654,370.102971,-9474.636058,1302.362347
469.633982,666.185348,-9770.718434,1838.629195
469.634309,74.020594,-9400.615463,1762.019645
469.634637,-2146.597232,-8956.491898,1072.533697
469.634965,-3552.988522,-7920.203579,459.657299
469.635292,-2664.741391,-7550.100608,-229.828649
469.635620,-888.247130,-6957.935855,-383.047749
469.635947,-296.082377,-7031.956449,229.828649
469.636275,-666.185348,-7402.059420,536.266849
469.636602,-2960.823768,-8660.409521,229.828649
469.636930,-4145.153275,-8956.491898,76.609550
469.637257,-3923.091493,-8734.430116,-612.876398
469.637585,-1924.535449,-8734.430116,-689.485948
469.637912,0.000000,-8956.491898,0.000000
469.638240,74.020594,-9178.553681,383.047749
469.638567,0.000000,-9474.636058,919.314598
469.638895,0.000000,-9030.512492,689.485948
469.639222,1258.350101,-8512.368333,766.095498
469.639550,3330.926739,-8290.306550,1149.143247
469.639877,4589.276840,-8364.327145,1455.581446
469.640205,3701.029710,-9474.636058,1838.629195
469.640532,1480.411884,-10066.800811,1991.848295
469.640860,-444.123565,-10658.965565,1685.410096
469.641187,-296.082377,-10214.842000,995.924147
469.641515,1036.288319,-9622.677246,1072.533697
469.641843,2146.597232,-9548.656652,1302.362347
469.642170,1332.370696,-9696.697840,1762.019645
469.642498,-296.082377,-9696.697840,1149.143247
469.642825,-2368.659014,-10066.800811,536.266849
469.643153,-2960.823768,-9104.533087,-153.219100
469.643480,-1628.453072,-8660.409521,-612.876398
469.643808,0.000000,-8068.244768,-383.047749
469.644135,-1184.329507,-8512.368333,0.000000
469.644463,-2368.659014,-9030.512492,0.000000
469.644790,-4737.318029,-9474.636058,-689.485948
469.645118,-4959.379811,-9474.636058,-1838.629195
469.645445,-3330.926739,-8956.491898,-1608.800546
469.645773,-740.205942,-8068.244768,-1149.143247
469.646100,888.247130,-8512.368333,-383.047749
469.646428,666.185348,-8734.430116,153.219100
469.646755,0.000000,-9474.636058,383.047749
469.647083,444.123565,-9030.512492,153.219100
469.647410,2294.638420,-8364.327145,306.438199
469.647738,4663.297435,-9104.533087,1225.752797
469.648065,4071.132681,-9844.739029,1915.238745
469.648393,2294.638420,-11029.068536,2374.896044
469.648721,222.061783,-11325.150913,1838.629195
469.649048,370.102971,-10436.903782,1149.143247
469.649376,1628.453072,-9696.697840,1302.362347
469.649703,2960.823768,-9548.656652,1838.629195
469.650031,2220.617826,-9770.718434,1532.190996
469.650358,296.082377,-10214.842000,1838.629195
469.650686,-2220.617826,-9178.553681,1149.143247
469.651013,-3034.844362,-9474.636058,76.609550
469.651341,-2442.679609,-8660.409521,0.000000
469.651668,-888.247130,-8290.306550,0.000000
469.651996,-814.226536,-8142.265362,612.876398
469.652323,-1924.535449,-7994.224174,536.266849
469.652651,-3923.091493,-8586.388927,1072.533697
469.652978,-5847.626942,-8586.388927,-306.438199
469.653306,-4811.338623,-8216.285956,-1149.143247
469.653633,-2886.803174,-7624.121203,-1072.533697
469.653961,-814.226536,-7254.018232,0.000000
469.654288,-222.061783,-7402.059420,306.438199
469.654616,-962.267725,-7550.100608,919.314598
469.654944,-370.102971,-7476.080014,459.657299
469.655271,740.205942,-7105.977043,383.047749
469.655599,2664.741391,-7476.080014,1072.533697
469.655926,3552.988522,-7772.162391,1378.971896
469.656254,2368.659014,-9474.636058,1915.238745
469.656581,592.164754,-10584.944971,1762.019645
469.656909,74.020594,-10658.965565,1302.362347
469.657236,814.226536,-10140.821405,1302.362347
469.657564,2664.741391,-9474.636058,1991.848295
469.657891,3701.029710,-9918.759623,1838.629195
469.658219,2368.659014,-10288.862594,1838.629195
469.658546,-296.082377,-10066.800811,919.314598
469.658874,-2220.617826,-9844.739029,612.876398
469.659201,-1480.411884,-8734.430116,-306.438199
469.659529,-370.102971,-8956.491898,-612.876398
469.659856,296.082377,-8290.306550,229.828649
469.660184,0.000000,-8586.388927,689.485948
469.660511,-2442.679609,-8808.450710,229.828649
469.660839,-4663.297435,-9178.553681,-1302.362347
469.661166,-5181.441594,-8586.388927,-1378.971896
469.661494,-3552.988522,-8142.265362,-1685.410096
469.661822,-1184.329507,-8216.285956,-1149.143247
469.662149,-148.041188,-8290.306550,-459.657299
469.662477,-370.102971,-9104.533087,0.000000
469.662804,-296.082377,-9252.574275,229.828649
469.663132,-148.041188,-8882.471304,153.219100
469.663459,1628.453072,-8512.368333,306.438199
469.663787,3256.906145,-8808.450710,1072.533697
469.664114,3256.906145,-9918.759623,2068.457845
469.664442,2072.576638,-10955.047942,1991.848295
469.664769,444.123565,-11399.171507,1915.238745
469.665097,0.000000,-11029.068536,1838.629195
469.665424,1184.329507,-10362.883188,1762.019645
469.665752,2442.679609,-9992.780217,1991.848295
469.666079,2220.617826,-9696.697840,1915.238745
469.666407,518.144159,-10362.883188,1838.629195
469.666734,-2146.597232,-10140.821405,842.705048
469.667062,-2664.741391,-9474.636058,689.485948
469.667389,-1184.329507,-8216.285956,76.609550
469.667717,0.000000,-7994.224174,306.438199
469.668044,296.082377,-8142.265362,766.095498
469.668372,-2220.617826,-8808.450710,995.924147
469.668700,-5033.400406,-9178.553681,76.609550
469.669027,-6365.771101,-8808.450710,-1149.143247
469.669355,-4811.338623,-7772.162391,-1608.800546
469.669682,-2294.638420,-6291.750507,-1762.019645
469.670010,0.000000,-7179.997637,-459.657299
469.670337,74.020594,-7550.100608,0.000000
469.670665,-888.247130,-7846.182985,0.000000
469.670992,-740.205942,-7994.224174,-229.828649
469.671320,296.082377,-7328.038826,0.000000
469.671647,2664.741391,-8068.244768,153.219100
469.671975,3849.070898,-8882.471304,995.924147
469.672302,3034.844362,-10214.842000,1915.238745
469.672630,1258.350101,-10732.986159,1685.410096
469.672957,222.061783,-11177.109724,1762.019645
469.673285,1258.350101,-10288.862594,1378.971896
469.673612,2664.741391,-10140.821405,1149.143247
469.673940,3182.885551,-10214.842000,1302.362347
469.674267,1850.514855,-10140.821405,1378.971896
469.674595,-296.082377,-9696.697840,1302.362347
469.674922,-962.267725,-9474.636058,383.047749
469.675250,-1776.494261,-8882.471304,0.000000
469.675578,444.123565,-8068.244768,-459.657299
469.675905,444.123565,-8216.285956,153.219100
469.676233,-1258.350101,-8512.368333,536.266849
469.676560,-3849.070898,-9474.636058,0.000000
469.676888,-5477.523971,-9252.574275,-1072.533697
469.677215,-5403.503377,-9326.594869,-1991.848295
469.677543,-2590.720797,-8512.368333,-1532.190996
469.677870,-518.144159,-8216.285956,-995.924147
469.678198,0.000000,-8290.306550,-153.219100
469.678525,0.000000,-8808.450710,536.266849
469.678853,-1110.308913,-9030.512492,306.438199
469.679180,74.020594,-8956.491898,229.828649
469.679508,1998.556043,-8882.471304,536.266849
469.679835,3330.926739,-8734.430116,1378.971896
469.680163,2960.823768,-10066.800811,1915.238745
469.680490,1258.350101,-11103.089130,2145.067394
469.680818,0.000000,-11621.233289,1915.238745
469.681145,592.164754,-10955.047942,1685.410096
469.681473,2294.638420,-10658.965565,1838.629195
469.681800,3034.844362,-9992.780217,1915.238745
469.682128,1998.556043,-10732.986159,2221.676944
469.682456,0.000000,-10881.027347,1838.629195
469.682783,-2146.597232,-10584.944971,1378.971896
469.683111,-2146.597232,-9770.718434,1225.752797
469.683438,-148.041188,-9030.512492,536.266849
469.683766,74.020594,-9104.533087,1072.533697
469.684093,-444.123565,-9104.533087,1608.800546
469.684421,-2738.761985,-9622.677246,1302.362347
469.684748,-5107.421000,-9696.697840,383.047749
469.685076,-5625.565159,-8808.450710,-612.876398
469.685403,-3997.112087,-8290.306550,-689.485948
469.685731,-1702.473667,-7994.224174,-842.705048
469.686058,-296.082377,-7772.162391,0.000000
469.686386,-592.164754,-7846.182985,229.828649
469.686713,-1258.350101,-8068.244768,459.657299
469.687041,-666.185348,-7624.121203,76.609550
469.687368,666.185348,-7328.038826,-153.219100
469.687696,2812.782580,-7846.182985,383.047749
469.688023,3404.947333,-8438.347739,1149.143247
469.688351,2368.659014,-9622.677246,1915.238745
469.688679,1036.288319,-10140.821405,2221.676944
469.689006,148.041188,-9992.780217,1455.581446
469.689334,1110.308913,-9992.780217,1302.362347
469.689661,2220.617826,-9474.636058,919.314598
469.689989,2368.659014,-9474.636058,995.924147
469.690316,1406.391290,-9474.636058,1455.581446
469.690644,-444.123565,-9548.656652,536.266849
469.690971,-1554.432478,-8512.368333,-459.657299
469.691299,-370.102971,-7402.059420,-459.657299
469.691626,1776.494261,-6957.935855,-306.438199
469.691954,1628.453072,-7402.059420,1072.533697
469.692281,0.000000,-7772.162391,995.924147
469.692609,-3108.864956,-8956.491898,383.047749
469.692936,-4737.318029,-9400.615463,-536.266849
469.693264,-4737.318029,-8808.450710,-1225.752797
469.693591,-2516.700203,-8068.244768,-1455.581446
469.693919,-1036.288319,-7624.121203,-383.047749
469.694246,-814.226536,-7994.224174,0.000000
469.694574,-1554.432478,-8290.306550,0.000000
469.694901,-2220.617826,-8216.285956,-919.314598
469.695229,-444.123565,-7328.038826,-1072.533697
469.695557,1480.411884,-7402.059420,-1225.752797
469.695884,3182.885551,-7550.100608,0.000000
469.696212,2738.761985,-8660.409521,919.314598
469.696539,1628.453072,-9474.636058,1225.752797
469.696867,222.061783,-10288.862594,1072.533697
469.697194,518.144159,-9918.759623,1149.143247
469.697522,1480.411884,-10658.965565,1455.581446
469.697849,2516.700203,-10584.944971,1685.410096
469.698177,2220.617826,-10881.027347,1762.019645
469.698504,370.102971,-10955.047942,1838.629195
469.698832,-444.123565,-10732.986159,2298.286494
469.699159,-740.205942,-9474.636058,842.705048
469.699487,962.267725,-8808.450710,1149.143247
469.699814,1924.535449,-8364.327145,1378.971896
469.700142,0.000000,-9178.553681,1225.752797
469.700469,-1850.514855,-9918.759623,1149.143247
469.700797,-5107.421000,-9992.780217,0.000000
469.701124,-5773.606348,-9548.656652,-459.657299
469.701452,-3997.112087,-8808.450710,-766.095498
469.701779,-1850.514855,-8882.471304,-229.828649
469.702107,-1110.308913,-8216.285956,383.047749
469.702435,-1702.473667,-9030.512492,1302.362347
469.702762,-2738.761985,-8956.491898,-153.219100
469.703090,-3034.844362,-8660.409521,0.000000
469.703417,-962.267725,-8438.347739,-153.219100
469.703745,1036.288319,-8364.327145,689.485948
469.704072,1924.535449,-8808.450710,1455.581446
469.704400,888.247130,-9622.677246,2068.457845
469.704727,-444.123565,-9992.780217,1762.019645
469.705055,-518.144159,-10140.821405,1532.190996
469.705382,592.164754,-9548.656652,1378.971896
469.705710,2294.638420,-9326.594869,1685.410096
469.706037,2960.823768,-9844.739029,1762.019645
469.706365,1702.473667,-9992.780217,2221.676944
469.706692,148.041188,-10066.800811,1608.800546
469.707020,0.000000,-9178.553681,1455.581446
469.707347,1184.329507,-8660.409521,1149.143247
469.707675,2590.720797,-7772.162391,1608.800546
469.708002,888.247130,-8808.450710,1378.971896
469.708330,-1628.453072,-9400.615463,1608.800546
469.708657,-3849.070898,-9622.677246,459.657299
469.708985,-5699.585753,-9622.677246,-383.047749
469.709313,-3997.112087,-8438.347739,-612.876398
469.709640,-1924.535449,-7920.203579,-1072.533697
469.709968,-740.205942,-7772.162391,-383.047749
469.710295,-814.226536,-7698.141797,-153.219100
469.710623,-1850.514855,-7920.203579,-766.095498
469.710950,-2368.659014,-7846.182985,-1225.752797
469.711278,-592.164754,-7254.018232,-1072.533697
469.711605,1406.391290,-7698.141797,-842.705048
469.711933,2442.679609,-7698.141797,153.219100
469.712260,2368.659014,-8808.450710,1225.752797
469.712588,592.164754,-9622.677246,1378.971896
469.712915,444.123565,-9918.759623,1455.581446
469.713243,518.144159,-10288.862594,689.485948
469.713570,1702.473667,-9992.780217,689.485948
469.713898,2738.761985,-9992.780217,842.705048
469.714225,2146.597232,-10066.800811,1072.533697
469.714553,962.267725,-9918.759623,1685.410096
469.714880,296.082377,-9992.780217,919.314598
469.715208,888.247130,-9178.553681,306.438199
469.715536,1776.494261,-8512.368333,766.095498
469.715863,2442.679609,-8660.409521,1302.362347
469.716190,962.267725,-9030.512492,842.705048
469.716518,-2590.720797,-9992.780217,919.314598
469.716845,-4293.194464,-10214.842000,-153.219100
469.717173,-4811.338623,-9770.718434,-536.266849
469.717500,-3256.906145,-9030.512492,-536.266849
469.717828,-962.267725,-8512.368333,-229.828649
469.718155,-814.226536,-8512.368333,229.828649
469.718483,-2220.617826,-8364.327145,0.000000
469.718810,-3256.906145,-8364.327145,-459.657299
469.719138,-2516.700203,-7698.141797,-1225.752797
469.719465,0.000000,-6957.935855,-842.705048
469.719793,2442.679609,-7179.997637,0.000000
469.720120,2516.700203,-8216.285956,1149.143247
469.720448,1850.514855,-9178.553681,1149.143247
469.720775,148.041188,-10066.800811,1608.800546
469.721103,-370.102971,-10362.883188,919.314598
469.721430,888.247130,-10066.800811,1608.800546
469.721758,2368.659014,-10436.903782,1149.143247
469.722085,2368.659014,-10881.027347,1915.238745
469.722413,1184.329507,-10955.047942,1991.848295
469.722740,148.041188,-10881.027347,1608.800546
469.723068,444.123565,-9844.739029,1302.362347
469.723395,1406.391290,-8660.409521,842.705048
469.723723,2368.659014,-8660.409521,995.924147
469.724050,1480.411884,-9400.615463,1762.019645
469.724378,-666.185348,-9844.739029,1225.752797
469.724705,-3478.967927,-10214.842000,459.657299
469.725033,-5033.400406,-9400.615463,306.438199
469.725360,-3923.091493,-9178.553681,-383.047749
469.725688,-1924.535449,-9030.512492,-153.219100
469.726015,-1480.411884,-8956.491898,153.219100
469.726343,-2146.597232,-8956.491898,842.705048
469.726670,-3478.967927,-8882.471304,-153.219100
469.726998,-3775.050304,-8068.244768,-919.314598
469.727325,-1406.391290,-7328.038826,-1072.533697
469.727653,814.226536,-7031.956449,-383.047749
469.727980,2146.597232,-7402.059420,0.000000
469.728308,1332.370696,-7994.224174,1072.533697
469.728635,0.000000,-9326.594869,1072.533697
469.728963,-370.102971,-9622.677246,459.657299
469.729290,148.041188,-9622.677246,536.266849
469.729618,1702.473667,-9474.636058,383.047749
469.729945,2886.803174,-9696.697840,842.705048
469.730273,2368.659014,-10214.842000,1455.581446
469.730600,666.185348,-9918.759623,1225.752797
469.730928,0.000000,-9474.636058,689.485948
469.731255,1036.288319,-9030.512492,536.266849
469.731583,2738.761985,-8734.430116,612.876398
469.731910,2294.638420,-9030.512492,1149.143247
469.732238,666.185348,-9474.636058,1225.752797
469.732565,-1628.453072,-9992.780217,612.876398
469.732893,-4145.153275,-9918.759623,-229.828649
469.733220,-2960.823768,-9252.574275,-153.219100
469.733548,-1554.432478,-8068.244768,-383.047749
469.733875,-296.082377,-7920.203579,0.000000
469.734203,-666.185348,-7994.224174,76.609550
469.734530,-2220.617826,-8882.471304,76.609550
469.734858,-2886.803174,-8290.306550,-153.219100
469.735185,-2072.576638,-7994.224174,-383.047749
469.735513,0.000000,-6883.915261,-383.047749
469.735840,1406.391290,-7476.080014,306.438199
469.736168,1332.370696,-8438.347739,1378.971896
469.736495,-222.061783,-9252.574275,1302.362347
469.736823,-1480.411884,-9474.636058,842.705048
469.737150,-1332.370696,-9622.677246,766.095498
469.737478,74.020594,-9696.697840,76.609550
469.737805,1702.473667,-9548.656652,689.485948
469.738133,1998.556043,-9770.718434,1532.190996
469.738460,814.226536,-9844.739029,1302.362347
469.738788,0.000000,-9844.739029,1532.190996
469.739115,296.082377,-9400.615463,1302.362347
469.739443,1406.391290,-9104.533087,842.705048
469.739770,1924.535449,-9400.615463,1225.752797
469.740098,1110.308913,-9844.739029,1762.019645
469.740425,-1332.370696,-10140.821405,1991.848295
469.740753,-3330.926739,-10584.944971,919.314598
469.741080,-3182.885551,-9992.780217,306.438199
469.741408,-1554.432478,-8956.491898,153.219100
469.741735,148.041188,-8290.306550,536.266849
469.742063,444.123565,-8290.306550,1302.362347
469.742390,-888.247130,-8734.430116,1072.533697
469.742718,-2812.782580,-9104.533087,76.609550
469.743045,-2738.761985,-8586.388927,-459.657299
469.743373,-1258.350101,-7698.141797,-459.657299
469.743700,1258.350101,-7624.121203,0.000000
469.744028,1776.494261,-7550.100608,612.876398
469.744355,666.185348,-9178.553681,1608.800546
469.744683,-1332.370696,-9548.656652,919.314598
469.745010,-2294.638420,-10066.800811,536.266849
469.745338,-1406.391290,-9326.594869,0.000000
469.745665,370.102971,-9178.553681,76.609550
469.745993,1184.329507,-9696.697840,459.657299
469.746320,592.164754,-9918.759623,1149.143247
469.746648,-296.082377,-9770.718434,766.095498
469.746975,-444.123565,-9326.594869,459.657299
469.747303,1110.308913,-8216.285956,153.219100
469.747630,2368.659014,-8142.265362,612.876398
469.747958,2368.659014,-8364.327145,919.314598
469.748285,518.144159,-9474.636058,1149.143247
469.748613,-1406.391290,-9770.718434,842.705048
469.748940,-2590.720797,-9474.636058,995.924147
469.749268,-2072.576638,-9252.574275,76.609550
469.749595,74.020594,-8956.491898,459.657299
469.749922,518.144159,-9178.553681,842.705048
469.750250,-148.041188,-9252.574275,1378.971896
469.750577,-1998.556043,-9474.636058,612.876398
469.750905,-2368.659014,-8882.471304,0.000000
469.751232,-1776.494261,-8216.285956,-842.705048
469.751560,740.205942,-7402.059420,-153.219100
469.751887,2072.576638,-7402.059420,306.438199
469.752215,1924.535449,-7920.203579,1149.143247
469.752542,-518.144159,-8660.409521,842.705048
469.752870,-2368.659014,-9474.636058,153.219100
469.753197,-2368.659014,-9474.636058,-383.047749
469.753525,-592.164754,-9178.553681,-612.876398
469.753852,518.144159,-9178.553681,0.000000
469.754180,888.247130,-9400.615463,766.095498
469.754507,0.000000,-9474.636058,1072.533697
469.754835,-296.082377,-9400.615463,1149.143247
469.755162,296.082377,-8438.347739,536.266849
469.755490,1332.370696,-8586.388927,612.876398
469.755817,1850.514855,-8438.347739,919.314598
469.756145,1036.288319,-9326.594869,919.314598
469.756472,-888.247130,-10066.800811,1149.143247
469.756800,-2368.659014,-9992.780217,766.095498
469.757127,-1998.556043,-9474.636058,153.219100
469.757455,74.020594,-8956.491898,995.924147
469.757782,1554.432478,-8586.388927,536.266849
469.758110,592.164754,-9178.553681,919.314598
469.758437,-740.205942,-9548.656652,919.314598
469.758765,-2664.741391,-9548.656652,229.828649
469.759092,-2294.638420,-9104.533087,0.000000
469.759420,-444.123565,-8068.244768,153.219100
469.759747,1406.391290,-8290.306550,766.095498
469.760075,1332.370696,-8808.450710,1455.581446
469.760402,-518.144159,-9622.677246,1378.971896
469.760730,-2590.720797,-10214.842000,919.314598
469.761057,-3256.906145,-9622.677246,0.000000
469.761385,-1776.494261,-9252.574275,-153.219100
469.761712,296.082377,-9252.574275,0.000000
469.762040,1258.350101,-8882.471304,919.314598
469.762367,666.185348,-9030.512492,1072.533697
469.762695,-518.144159,-8512.368333,919.314598
469.763022,0.000000,-8808.450710,995.924147
469.763350,444.123565,-8216.285956,383.047749
469.763677,1702.473667,-8364.327145,689.485948
469.764005,1184.329507,-9178.553681,1072.533697
469.764332,-518.144159,-9474.636058,1302.362347
469.764660,-1850.514855,-10436.903782,995.924147
469.764987,-2442.679609,-10140.821405,919.314598
469.765315,-1258.350101,-9844.739029,536.266849
469.765642,740.205942,-9474.636058,689.485948
469.765970,888.247130,-9622.677246,689.485948
469.766297,0.000000,-10066.800811,842.705048
469.766625,-1628.453072,-9622.677246,459.657299
469.766952,-1702.473667,-9400.615463,153.219100
469.767280,-444.123565,-8512.368333,76.609550
469.767607,1628.453072,-7994.224174,306.438199
469.767935,2664.741391,-8438.347739,1072.533697
469.768262,814.226536,-8882.471304,1225.752797
469.768590,-1702.473667,-9474.636058,842.705048
469.768917,-3034.844362,-9622.677246,229.828649
469.769245,-2664.741391,-9178.553681,-383.047749
469.769572,-296.082377,-8734.430116,-306.438199
469.769900,1036.288319,-8734.430116,0.000000
469.770227,592.164754,-9104.533087,459.657299
469.770555,-592.164754,-9178.553681,612.876398
469.770882,-1480.411884,-8734.430116,0.000000
469.771210,-148.041188,-8364.327145,-383.047749
469.771537,1406.391290,-7846.182985,0.000000
469.771865,2368.659014,-8216.285956,229.828649
469.772192,1702.473667,-8956.491898,842.705048
469.772520,0.000000,-10140.821405,1455.581446
469.772847,-1332.370696,-10288.862594,1532.190996
469.773175,-888.247130,-9844.739029,536.266849
469.773502,0.000000,-9770.718434,306.438199
469.773830,740.205942,-9770.718434,842.705048
469.774157,370.102971,-10066.800811,995.924147
469.774485,-1184.329507,-10214.842000,1225.752797
469.774812,-1924.535449,-9622.677246,0.000000
469.775140,-962.267725,-8512.368333,153.219100
469.775467,1258.350101,-7698.141797,459.657299
469.775795,2294.638420,-7698.141797,919.314598
469.776122,1776.494261,-8216.285956,1378.971896
469.776450,-370.102971,-8734.430116,1072.533697
469.776777,-2590.720797,-9178.553681,1072.533697
469.777105,-3182.885551,-9104.533087,-306.438199
469.777432,-1554.432478,-9030.512492,-306.438199
469.777760,0.000000,-8586.388927,76.609550
469.778087,0.000000,-8734.430116,919.314598
469.778415,-962.267725,-8734.430116,612.876398
469.778742,-2146.597232,-9252.574275,536.266849
469.779070,-1924.535449,-8660.409521,0.000000
469.779397,-296.082377,-7994.224174,-229.828649
469.779725,814.226536,-7846.182985,0.000000
469.780052,1628.453072,-8216.285956,229.828649
469.780380,444.123565,-9474.636058,1072.533697
469.780707,-1036.288319,-9918.759623,842.705048
469.781035,-1776.494261,-9696.697840,536.266849
469.781362,-666.185348,-9622.677246,306.438199
469.781690,962.267725,-9622.677246,1072.533697
469.782017,740.205942,-9770.718434,689.485948
469.782345,0.000000,-10658.965565,1149.143247
469.782672,-1480.411884,-10510.924376,919.314598
469.783000,-1480.411884,-9622.677246,459.657299
469.783327,666.185348,-8586.388927,612.876398
469.783654,2738.761985,-7920.203579,919.314598
469.783982,2664.741391,-8290.306550,1608.800546
469.784309,1332.370696,-8956.491898,1991.848295
469.784637,-1184.329507,-9252.574275,1378.971896
469.784964,-1998.556043,-9474.636058,995.924147
469.785292,-1480.411884,-8660.409521,0.000000
469.785619,74.020594,-8734.430116,229.828649
469.785947,592.164754,-9030.512492,383.047749
469.786274,0.000000,-9474.636058,766.095498
469.786602,-1850.514855,-9252.574275,612.876398
469.786929,-2220.617826,-9030.512492,-153.219100
469.787257,-1480.411884,-8290.306550,-383.047749
469.787584,296.082377,-8216.285956,0.000000
469.787912,814.226536,-8512.368333,76.609550
469.788239,0.000000,-9474.636058,612.876398
469.788567,-1850.514855,-9844.739029,612.876398
469.788894,-3182.885551,-9770.718434,0.000000
469.789222,-2442.679609,-9696.697840,-536.266849
469.789549,-370.102971,-9474.636058,-459.657299
469.789877,962.267725,-9178.553681,153.219100
469.790204,962.267725,-9030.512492,1302.362347
469.790532,148.041188,-9474.636058,612.876398
469.790859,-666.185348,-9252.574275,536.266849
469.791187,370.102971,-8734.430116,306.438199
469.791514,2220.617826,-8438.347739,459.657299
469.791842,3256.906145,-8290.306550,1455.581446
469.792169,2368.659014,-9030.512492,1225.752797
469.792497,0.000000,-10140.821405,1455.581446
469.792824,-1480.411884,-10288.862594,1225.752797
469.793152,-1702.473667,-9844.739029,306.438199
469.793479,-148.041188,-9252.574275,153.219100
469.793807,740.205942,-8882.471304,306.438199
469.794134,518.144159,-9178.553681,919.314598
469.794462,-814.226536,-9326.594869,689.485948
469.794789,-1998.556043,-9252.574275,153.219100
469.795117,-1850.514855,-8734.430116,0.000000
469.795444,-888.247130,-7328.038826,-306.438199
469.795772,444.123565,-7920.203579,229.828649
469.796099,74.020594,-8364.327145,306.438199
469.796427,-1702.473667,-9400.615463,536.266849
469.796754,-3478.967927,-9548.656652,76.609550
469.797082,-3182.885551,-9918.759623,0.000000
469.797409,-1480.411884,-9030.512492,-383.047749
469.797737,518.144159,-8882.471304,0.000000
469.798064,1184.329507,-8956.491898,842.705048
469.798392,592.164754,-9252.574275,1378.971896
469.798719,-518.144159,-9252.574275,1378.971896
469.799047,222.061783,-8586.388927,1378.971896
469.799374,1924.535449,-7994.224174,1072.533697
469.799702,3034.844362,-7772.162391,1455.581446
469.800029,3034.844362,-8808.450710,2145.067394
469.800357,740.205942,-9844.739029,2374.896044
469.800684,-1480.411884,-9918.759623,1915.238745
469.801012,-2072.576638,-10140.821405,1378.971896
469.801339,-1110.308913,-9400.615463,766.095498
469.801667,0.000000,-9400.615463,689.485948
469.801994,592.164754,-9252.574275,842.705048
469.802322,-814.226536,-8956.491898,1072.533697
469.802649,-2960.823768,-9252.574275,536.266849
469.802977,-3330.926739,-8882.471304,-383.047749
469.803304,-1776.494261,-8216.285956,-689.485948
469.803632,0.000000,-7254.018232,-536.266849
469.803959,1036.288319,-7476.080014,306.438199
469.804287,222.061783,-7994.224174,689.485948
469.804614,-1924.535449,-8956.491898,306.438199
469.804942,-2664.741391,-9252.574275,459.657299
469.805269,-2368.659014,-9178.553681,-306.438199
469.805597,-444.123565,-9104.533087,229.828649
469.805924,592.164754,-9178.553681,76.609550
469.806252,0.000000,-9548.656652,842.705048
469.806579,-740.205942,-9918.759623,842.705048
469.806907,-370.102971,-9770.718434,689.485948
469.807234,1184.329507,-8882.471304,536.266849
469.807562,3701.029710,-8512.368333,612.876398
469.807889,3849.070898,-8882.471304,1455.581446
469.808217,2590.720797,-9918.759623,1608.800546
469.808544,444.123565,-10658.965565,1302.362347
469.808872,-1406.391290,-10807.006753,842.705048
469.809199,-888.247130,-10362.883188,153.219100
469.809527,296.082377,-9548.656652,842.705048
469.809854,148.041188,-9474.636058,1072.533697
469.810182,0.000000,-9474.636058,842.705048
469.810509,-2146.597232,-9770.718434,536.266849
469.810837,-3330.926739,-9326.594869,-153.219100
469.811164,-2812.782580,-8586.388927,-919.314598
469.811492,-814.226536,-7254.018232,-919.314598
469.811819,814.226536,-6957.935855,-459.657299
469.812147,888.247130,-7402.059420,229.828649
469.812474,-1628.453072,-8364.327145,153.219100
469.812802,-2368.659014,-8808.450710,-1149.143247
469.813129,-2886.803174,-9030.512492,-766.095498
469.813457,-1184.329507,-8956.491898,-689.485948
469.813784,592.164754,-9030.512492,-306.438199
469.814112,1184.329507,-9474.636058,536.266849
469.814439,962.267725,-9474.636058,1532.190996
469.814767,148.041188,-9474.636058,1149.143247
469.815094,444.123565,-9030.512492,1149.143247
469.815422,2294.638420,-8808.450710,1532.190996
469.815750,3701.029710,-8734.430116,1455.581446
469.816077,2738.761985,-9252.574275,2068.457845
469.816405,1332.370696,-10066.800811,2374.896044
469.816733,-962.267725,-10732.986159,1991.848295
469.817060,-2146.597232,-9992.780217,995.924147
469.817388,-592.164754,-9400.615463,766.095498
469.817715,1258.350101,-8734.430116,919.314598
469.818043,518.144159,-9252.574275,689.485948
469.818371,-1554.432478,-9104.533087,536.266849
469.818698,-3552.988522,-9178.553681,0.000000
469.819026,-4145.153275,-8142.265362,-536.266849
469.819353,-2294.638420,-7254.018232,-842.705048
469.819681,-296.082377,-7031.956449,-459.657299
469.820009,-222.061783,-7105.977043,229.828649
469.820336,-1332.370696,-8216.285956,612.876398
469.820664,-3404.947333,-8882.471304,0.000000
469.820991,-4663.297435,-9252.574275,-612.876398
469.821319,-2812.782580,-9104.533087,-919.314598
469.821647,-444.123565,-8586.388927,-459.657299
469.821974,962.267725,-8882.471304,383.047749
469.822302,1480.411884,-9400.615463,919.314598
469.822629,1036.288319,-9844.739029,1532.190996
469.822957,1110.308913,-9622.677246,1762.019645
469.823285,2072.576638,-9474.636058,1072.533697
469.823612,3404.947333,-9548.656652,1378.971896
469.823940,3552.988522,-10066.800811,1685.410096
469.824268,2220.617826,-10732.986159,2145.067394
469.824595,74.020594,-11029.068536,2374.896044
469.824923,-666.185348,-10732.986159,1608.800546
469.825250,0.000000,-9696.697840,995.924147
469.825578,814.226536,-9474.636058,766.095498
469.825906,962.267725,-9548.656652,919.314598
469.826233,0.000000,-9474.636058,995.924147
469.826561,-2590.720797,-9844.739029,689.485948
469.826888,-3404.947333,-9400.615463,0.000000
469.827216,-2886.803174,-8586.388927,-612.876398
469.827544,-888.247130,-7920.203579,0.000000
469.827871,222.061783,-7994.224174,76.609550
469.828199,-1110.308913,-8216.285956,459.657299
469.828526,-3330.926739,-9400.615463,153.219100
469.828854,-4663.297435,-9548.656652,-689.485948
469.829182,-4515.256246,-9178.553681,-1378.971896
469.829509,-1628.453072,-8364.327145,-1225.752797
469.829837,296.082377,-7920.203579,-536.266849
469.830165,1702.473667,-8734.430116,153.219100
469.830492,1406.391290,-8956.491898,995.924147
469.830820,666.185348,-8882.471304,1455.581446
469.831147,1258.350101,-8882.471304,919.314598
469.831475,2664.741391,-8808.450710,459.657299
469.831803,3330.926739,-9178.553681,995.924147
469.832130,2516.700203,-10288.862594,2068.457845
469.832458,962.267725,-11177.109724,2451.505594
469.832785,-592.164754,-11029.068536,1991.848295
469.833113,-370.102971,-10362.883188,1608.800546
469.833441,740.205942,-9696.697840,1072.533697
469.833768,1628.453072,-9326.594869,1302.362347
469.834096,1036.288319,-8808.450710,842.705048
469.834423,-1850.514855,-9104.533087,689.485948
469.834751,-2812.782580,-8734.430116,-229.828649
469.835079,-2960.823768,-7772.162391,-689.485948
469.835406,-1332.370696,-7105.977043,-689.485948
469.835734,0.000000,-6735.874072,-229.828649
469.836061,74.020594,-7550.100608,689.485948
469.836389,-1776.494261,-8438.347739,995.924147
469.836717,-3627.009116,-8808.450710,459.657299
469.837044,-3997.112087,-9104.533087,0.000000
469.837372,-3182.885551,-8734.430116,-995.924147
469.837700,-962.267725,-8512.368333,-383.047749
469.838027,-148.041188,-8142.265362,229.828649
469.838355,296.082377,-8364.327145,766.095498
469.838682,74.020594,-8586.388927,459.657299
469.839010,148.041188,-8290.306550,689.485948
469.839338,1850.514855,-7772.162391,306.438199
469.839665,3478.967927,-8216.285956,919.314598
469.839993,3478.967927,-8808.450710,1532.190996
469.840320,2220.617826,-9178.553681,2221.676944
469.840648,370.102971,-10807.006753,2068.457845
469.840976,-296.082377,-10881.027347,1991.848295
469.841303,296.082377,-10214.842000,1378.971896
469.841631,1628.453072,-9622.677246,1685.410096
469.841958,1850.514855,-9770.718434,1685.410096
469.842286,0.000000,-10362.883188,1378.971896
469.842614,-2516.700203,-10140.821405,995.924147
469.842941,-3182.885551,-8882.471304,0.000000
469.843269,-2220.617826,-8068.244768,-229.828649
469.843596,222.061783,-7254.018232,-766.095498
469.843924,1036.288319,-7105.977043,306.438199
469.844252,-740.205942,-8142.265362,612.876398
469.844579,-2516.700203,-9104.533087,306.438199
469.844907,-4737.318029,-9474.636058,-612.876398
469.845235,-4145.153275,-8956.491898,-1149.143247
469.845562,-1332.370696,-8660.409521,-383.047749
469.845890,-222.061783,-8660.409521,-459.657299
469.846217,518.144159,-9326.594869,459.657299
469.846545,-222.061783,-9474.636058,995.924147
469.846873,-666.185348,-9326.594869,612.876398
469.847200,370.102971,-8660.409521,-383.047749
469.847528,2146.597232,-8438.347739,383.047749
469.847855,3330.926739,-9252.574275,766.095498
469.848183,2812.782580,-9918.759623,1685.410096
469.848511,1332.370696,-10584.944971,2298.286494
469.848838,444.123565,-10881.027347,2451.505594
469.849166,444.123565,-10807.006753,1762.019645
469.849493,1036.288319,-10658.965565,1762.019645
469.849821,1554.432478,-10362.883188,1532.190996
469.850149,296.082377,-10214.842000,995.924147
469.850476,-1776.494261,-10362.883188,1455.581446
469.850804,-2886.803174,-10214.842000,0.000000
469.851131,-3108.864956,-9252.574275,-459.657299
469.851459,-1628.453072,-7328.038826,-536.266849
469.851787,0.000000,-7179.997637,-306.438199
469.852114,-370.102971,-7328.038826,689.485948
469.852442,-2664.741391,-7846.182985,0.000000
469.852770,-4589.276840,-9104.533087,-919.314598
469.853097,-5921.647536,-8882.471304,-1762.019645
469.853425,-3627.009116,-8586.388927,-2221.676944
469.853752,-592.164754,-8364.327145,-1149.143247
469.854080,518.144159,-8290.306550,153.219100
469.854408,1554.432478,-9178.553681,536.266849
469.854735,592.164754,-9474.636058,919.314598
469.855063,962.267725,-9326.594869,383.047749
469.855390,2442.679609,-8882.471304,689.485948
469.855718,3923.091493,-8808.450710,919.314598
469.856046,4737.318029,-9400.615463,2298.286494
469.856373,3627.009116,-10140.821405,2451.505594
469.856701,1924.535449,-10732.986159,2528.115143
469.857028,1406.391290,-10214.842000,2298.286494
469.857356,2072.576638,-9696.697840,1991.848295
469.857684,2516.700203,-9326.594869,2145.067394
469.858011,1998.556043,-9918.759623,1532.190996
469.858339,-962.267725,-10510.924376,1225.752797
469.858666,-2442.679609,-10214.842000,689.485948
469.858994,-3404.947333,-9104.533087,229.828649
469.859322,-2590.720797,-7698.141797,229.828649
469.859649,-518.144159,-7402.059420,306.438199
469.859977,0.000000,-7402.059420,766.095498
469.860305,-2220.617826,-8290.306550,995.924147
469.860632,-4219.173869,-8586.388927,536.266849
469.860960,-6217.729913,-9252.574275,0.000000
469.861287,-5329.482782,-8586.388927,-1225.752797
469.861615,-2368.659014,-7772.162391,-383.047749
469.861943,-148.041188,-7698.141797,306.438199
469.862270,740.205942,-8068.244768,1455.581446
469.862598,296.082377,-7920.203579,1455.581446
469.862925,444.123565,-8512.368333,1915.238745
469.863253,1258.350101,-8512.368333,1302.362347
469.863581,3108.864956,-8882.471304,1838.629195
469.863908,4441.235652,-9400.615463,2757.943793
469.864236,4293.194464,-10214.842000,3217.601092
469.864563,3701.029710,-11177.109724,4826.401637
469.864891,1924.535449,-11325.150913,4136.915689
469.865219,1332.370696,-11251.130318,3447.429741
469.865546,1554.432478,-10955.047942,2911.162892
469.865874,2072.576638,-10658.965565,3294.210641
469.866201,1628.453072,-10140.821405,4136.915689
469.866529,0.000000,-9770.718434,3294.210641
469.866857,-2146.597232,-9548.656652,2911.162892
469.867184,-2368.659014,-8660.409521,1915.238745
469.867512,-3256.906145,-8438.347739,1225.752797
469.867840,-2368.659014,-7772.162391,1302.362347
469.868167,-1406.391290,-7179.997637,1762.019645
469.868495,-1776.494261,-7179.997637,2528.115143
469.868822,-2220.617826,-7698.141797,2987.772442
469.869150,-3478.967927,-8882.471304,2451.505594
469.869478,-4441.235652,-8586.388927,1378.971896
469.869805,-4515.256246,-9400.615463,842.705048
469.870133,-3404.947333,-8808.450710,1149.143247
469.870460,-1332.370696,-7920.203579,1991.848295
469.870788,1554.432478,-7920.203579,3677.258390
469.871116,2442.679609,-7994.224174,3983.696590
469.871443,1924.535449,-8882.471304,3677.258390
469.871771,0.000000,-9844.739029,2834.553343
469.872098,-962.267725,-10140.821405,1838.629195
469.872426,-148.041188,-10140.821405,2528.115143
469.872754,2368.659014,-9474.636058,3524.039291
469.873081,4885.359217,-8956.491898,5669.106685
469.873409,5921.647536,-9548.656652,6358.592633
469.873737,4441.235652,-10066.800811,6358.592633
469.874064,1036.288319,-11029.068536,4903.011187
469.874392,-2442.679609,-11621.233289,3753.867940
469.874719,-3552.988522,-11029.068536,3064.381992
469.875047,-2368.659014,-9696.697840,2604.724693
469.875375,-592.164754,-8438.347739,4136.915689
469.875702,2812.782580,-7328.038826,4749.792088
469.876030,2664.741391,-7476.080014,5975.544884
469.876357,222.061783,-8142.265362,4673.182538
469.876685,-3034.844362,-8142.265362,3524.039291
469.877013,-5699.585753,-9104.533087,2298.286494
469.877340,-6661.853478,-9030.512492,995.924147
469.877668,-4885.359217,-8956.491898,1225.752797
469.877995,-2072.576638,-8660.409521,2911.162892
469.878323,888.247130,-7105.977043,4749.792088
469.878651,2072.576638,-7402.059420,5439.278036
469.878978,1110.308913,-7476.080014,4903.011187
469.879306,-592.164754,-9030.512492,4213.525239
469.879633,-3182.885551,-10066.800811,2604.724693
469.879961,-4293.194464,-11029.068536,689.485948
469.880289,-3997.112087,-10807.006753,1225.752797
469.880616,-1850.514855,-10288.862594,1838.629195
469.880944,740.205942,-8586.388927,3524.039291
469.881272,3182.885551,-7476.080014,4136.915689
469.881599,3775.050304,-7254.018232,4290.134789
469.881927,3552.988522,-8438.347739,3907.087040
469.882254,1776.494261,-9400.615463,2987.772442
469.882582,296.082377,-10362.883188,2298.286494
469.882910,0.000000,-10436.903782,2451.505594
469.883237,592.164754,-10214.842000,2987.772442
469.883565,740.205942,-10140.821405,3983.696590
469.883892,962.267725,-9844.739029,4519.963438
469.884220,592.164754,-9400.615463,3677.258390
469.884548,-962.267725,-9252.574275,3370.820191
469.884875,0.000000,-8660.409521,2298.286494
469.885203,-814.226536,-8734.430116,1991.848295
469.885530,148.041188,-8734.430116,1991.848295
469.885858,962.267725,-8290.306550,2145.067394
469.886186,1110.308913,-8438.347739,2987.772442
469.886513,1406.391290,-8216.285956,3753.867940
469.886841,1628.453072,-8586.388927,4213.525239
469.887168,666.185348,-9030.512492,3983.696590
469.887496,-592.164754,-9474.636058,3677.258390
469.887824,-1480.411884,-9844.739029,3600.648841
469.888151,-2294.638420,-9992.780217,3294.210641
469.888479,-2220.617826,-9622.677246,3447.429741
469.888807,-1924.535449,-9696.697840,3294.210641
469.889134,-814.226536,-9030.512492,3524.039291
469.889462,0.000000,-8142.265362,3217.601092
469.889789,0.000000,-7698.141797,3217.601092
469.890117,0.000000,-7476.080014,3524.039291
469.890445,-888.247130,-8290.306550,2911.162892
469.890772,-1332.370696,-8438.347739,2681.334243
469.891100,-1258.350101,-8882.471304,3217.601092
469.891427,-592.164754,-9326.594869,3830.477490
469.891755,0.000000,-9474.636058,3907.087040
469.892083,888.247130,-9844.739029,4519.963438
469.892410,222.061783,-10214.842000,4366.744339
469.892738,-444.123565,-10288.862594,4443.353888
469.893065,-1036.288319,-9770.718434,4290.134789
469.893393,-1554.432478,-9474.636058,3524.039291
469.893721,-1036.288319,-8882.471304,3370.820191
469.894048,148.041188,-8068.244768,3447.429741
469.894376,666.185348,-8512.368333,2987.772442
469.894703,814.226536,-8808.450710,2834.553343
469.895031,444.123565,-8956.491898,2911.162892
469.895359,-666.185348,-8956.491898,2911.162892
469.895686,-148.041188,-9326.594869,2374.896044
469.896014,-518.144159,-9400.615463,2068.457845
469.896342,-518.144159,-9400.615463,1915.238745
469.896669,-370.102971,-9030.512492,2068.457845
469.896997,-148.041188,-9474.636058,2298.286494
469.897324,-370.102971,-9770.718434,1762.019645
469.897652,-888.247130,-9548.656652,1915.238745
469.897980,-1184.329507,-9400.615463,1762.019645
469.898307,-962.267725,-9178.553681,1455.581446
469.898635,-444.123565,-8586.388927,1302.362347
469.898962,148.041188,-8216.285956,1149.143247
469.899290,370.102971,-8438.347739,1378.971896
469.899618,592.164754,-8512.368333,995.924147
469.899945,222.061783,-9252.574275,1072.533697
469.900273,0.000000,-9474.636058,1149.143247
469.900600,-222.061783,-10066.800811,1302.362347
469.900928,0.000000,-10510.924376,1378.971896
469.901256,296.082377,-10214.842000,1378.971896
469.901583,1036.288319,-9918.759623,1685.410096
469.901911,1406.391290,-9770.718434,1991.848295
469.902238,1258.350101,-8882.471304,1991.848295
469.902566,518.144159,-9326.594869,1455.581446
469.902894,0.000000,-8734.430116,1455.581446
469.903221,-814.226536,-8956.491898,919.314598
469.903549,-740.205942,-8808.450710,842.705048
469.903877,-370.102971,-8364.327145,612.876398
469.904204,-296.082377,-9030.512492,612.876398
469.904532,-444.123565,-8586.388927,766.095498
469.904859,-592.164754,-8586.388927,612.876398
469.905187,-444.123565,-8660.409521,842.705048
469.905515,-296.082377,-8586.388927,229.828649
469.905842,-888.247130,-8364.327145,459.657299
469.906170,-148.041188,-8660.409521,306.438199
469.906497,-296.082377,-9104.533087,766.095498
469.906825,-518.144159,-9252.574275,766.095498
469.907153,-740.205942,-9474.636058,1378.971896
469.907480,-444.123565,-9548.656652,1762.019645
469.907808,0.000000,-9400.615463,1225.752797
469.908135,-296.082377,-9104.533087,1149.143247
469.908463,-296.082377,-9030.512492,995.924147
469.908791,0.000000,-8956.491898,919.314598
469.909118,148.041188,-9030.512492,1225.752797
469.909446,74.020594,-8956.491898,919.314598
469.909773,0.000000,-9104.533087,1149.143247
469.910101,-148.041188,-9326.594869,1149.143247
469.910429,-148.041188,-9178.553681,919.314598
469.910756,-296.082377,-9030.512492,1378.971896
469.911084,0.000000,-8438.347739,842.705048
469.911412,-444.123565,-8734.430116,842.705048
469.911739,0.000000,-8882.471304,689.485948
469.912067,-518.144159,-8734.430116,1072.533697
469.912394,-666.185348,-9030.512492,919.314598
469.912722,-222.061783,-8956.491898,1225.752797
469.913050,-1036.288319,-9030.512492,536.266849
469.913377,-814.226536,-9178.553681,689.485948
469.913705,-814.226536,-9104.533087,459.657299
469.914032,-814.226536,-9104.533087,536.266849
469.914360,-666.185348,-9178.553681,612.876398
469.914688,-740.205942,-8882.471304,536.266849
469.915015,-222.061783,-9178.553681,689.485948
469.915343,0.000000,-9104.533087,459.657299
469.915670,0.000000,-9178.553681,536.266849
469.915998,0.000000,-9696.697840,612.876398
469.916326,-222.061783,-9030.512492,459.657299
469.916653,-518.144159,-9770.718434,536.266849
469.916981,-444.123565,-9918.759623,612.876398
469.917308,-222.061783,-9844.739029,383.047749
469.917636,148.041188,-9696.697840,842.705048
469.917963,370.102971,-9326.594869,766.095498
469.918291,370.102971,-9178.553681,612.876398
469.918619,518.144159,-9252.574275,459.657299
469.918946,74.020594,-9252.574275,383.047749
469.919274,0.000000,-9178.553681,459.657299
469.919601,666.185348,-9400.615463,383.047749
469.919929,296.082377,-9474.636058,306.438199
469.920256,148.041188,-9252.574275,153.219100
469.920584,0.000000,-9030.512492,306.438199
469.920911,0.000000,-9030.512492,383.047749
469.921239,0.000000,-8808.450710,153.219100
469.921567,0.000000,-8882.471304,306.438199
469.921894,-370.102971,-8512.368333,0.000000
469.922222,-444.123565,-8808.450710,229.828649
469.922549,-814.226536,-9030.512492,229.828649
469.922877,-814.226536,-8956.491898,459.657299
469.923204,-1184.329507,-9326.594869,536.266849
469.923532,-962.267725,-8956.491898,536.266849
469.923860,-518.144159,-8956.491898,306.438199
469.924187,-740.205942,-8808.450710,459.657299
469.924515,-592.164754,-8956.491898,536.266849
469.924842,-814.226536,-7698.141797,536.266849
469.925170,-518.144159,-8956.491898,689.485948
469.925497,-666.185348,-9030.512492,689.485948
469.925825,-740.205942,-9400.615463,919.314598
469.926153,-1036.288319,-9326.594869,995.924147
469.926480,-888.247130,-9104.533087,1072.533697
469.926808,-814.226536,-9178.553681,766.095498
469.927135,-740.205942,-9178.553681,612.876398
469.927463,-370.102971,-8808.450710,689.485948
469.927790,-222.061783,-8660.409521,689.485948
469.928118,-592.164754,-8586.388927,612.876398
469.928446,-296.082377,-8512.368333,1149.143247
469.928773,-740.205942,-8956.491898,766.095498
469.929101,-888.247130,-9178.553681,919.314598
469.929428,-888.247130,-9252.574275,995.924147
469.929756,-518.144159,-9030.512492,536.266849
469.930083,-222.061783,-8290.306550,919.314598
469.930411,-296.082377,-9104.533087,459.657299
469.930739,-740.205942,-9030.512492,536.266849
469.931066,-518.144159,-9400.615463,536.266849
469.931394,-592.164754,-9030.512492,766.095498
469.931721,0.000000,-8734.430116,766.095498
469.932049,-296.082377,-9326.594869,536.266849
469.932376,-222.061783,-9474.636058,536.266849
469.932704,-592.164754,-9252.574275,383.047749
469.933031,-296.082377,-9252.574275,459.657299
469.933359,-222.061783,-9030.512492,153.219100
469.933687,0.000000,-9030.512492,76.609550
469.934014,-148.041188,-9252.574275,383.047749
469.934342,0.000000,-9030.512492,612.876398
469.934669,0.000000,-9104.533087,459.657299
469.934997,-296.082377,-8956.491898,766.095498
469.935324,-666.185348,-8438.347739,383.047749
469.935652,-888.247130,-8808.450710,153.219100
469.935980,-1184.329507,-8660.409521,306.438199
469.936307,-1036.288319,-8882.471304,459.657299
469.936635,-1184.329507,-8808.450710,383.047749
469.936962,-518.144159,-8586.388927,383.047749
469.937290,-148.041188,-8438.347739,536.266849
469.937617,148.041188,-8660.409521,229.828649
469.937945,296.082377,-8808.450710,459.657299
469.938273,518.144159,-8734.430116,459.657299
469.938600,148.041188,-9030.512492,919.314598
469.938928,74.020594,-9474.636058,536.266849
469.939255,-222.061783,-9622.677246,766.095498
469.939583,-370.102971,-10066.800811,842.705048
469.939910,0.000000,-9992.780217,842.705048
469.940238,370.102971,-9622.677246,1455.581446
469.940566,666.185348,-9252.574275,383.047749
469.940893,740.205942,-8882.471304,536.266849
469.941221,740.205942,-8364.327145,229.828649
469.941548,740.205942,-8142.265362,306.438199
469.941876,148.041188,-7994.224174,153.219100
469.942203,0.000000,-8586.388927,459.657299
469.942531,-148.041188,-9178.553681,536.266849
469.942858,-518.144159,-9326.594869,612.876398
469.943186,0.000000,-9178.553681,612.876398
469.943514,0.000000,-9104.533087,536.266849
469.943841,740.205942,-8882.471304,0.000000
469.944169,370.102971,-8512.368333,76.609550
469.944496,296.082377,-8512.368333,0.000000
469.944824,592.164754,-8808.450710,153.219100
469.945151,296.082377,-9252.574275,229.828649
469.945479,74.020594,-9548.656652,0.000000
469.945807,-148.041188,-9622.677246,612.876398
469.946134,-222.061783,-9696.697840,383.047749
469.946462,0.000000,-9474.636058,459.657299
469.946789,0.000000,-9178.553681,229.828649
469.947117,222.061783,-8882.471304,919.314598
469.947444,0.000000,-8660.409521,306.438199
469.947772,0.000000,-8956.491898,383.047749
469.948100,0.000000,-9326.594869,536.266849
469.948427,-370.102971,-9622.677246,612.876398
469.948755,0.000000,-10140.821405,842.705048
469.949082,-666.185348,-9400.615463,612.876398
469.949410,-592.164754,-9696.697840,612.876398
469.949737,-592.164754,-9252.574275,612.876398
469.950065,-444.123565,-9104.533087,459.657299
469.950393,-444.123565,-9030.512492,536.266849
469.950720,-370.102971,-8882.471304,612.876398
469.951048,-962.267725,-9326.594869,919.314598
469.951375,-962.267725,-9474.636058,766.095498
469.951703,-888.247130,-9622.677246,842.705048
469.952030,-1036.288319,-9918.759623,689.485948
469.952358,-1184.329507,-9178.553681,842.705048
469.952686,-592.164754,-9400.615463,766.095498
469.953013,-518.144159,-9104.533087,689.485948
469.953341,-296.082377,-9400.615463,536.266849
469.953668,-296.082377,-9474.636058,689.485948
469.953996,-592.164754,-9326.594869,689.485948
469.954323,-370.102971,-9548.656652,689.485948
469.954651,-814.226536,-9474.636058,842.705048
469.954978,-962.267725,-9548.656652,689.485948
469.955306,-814.226536,-9252.574275,766.095498
469.955634,-1036.288319,-9030.512492,536.266849
469.955961,-592.164754,-8586.388927,612.876398
469.956289,-666.185348,-8660.409521,229.828649
469.956616,-740.205942,-8882.471304,612.876398
469.956944,-592.164754,-8956.491898,306.438199
469.957271,-592.164754,-8808.450710,612.876398
469.957599,-148.041188,-8808.450710,919.314598
469.957927,-740.205942,-8956.491898,612.876398
469.958254,-592.164754,-8734.430116,459.657299
469.958582,-740.205942,-8734.430116,689.485948
469.958909,-444.123565,-8660.409521,229.828649
469.959237,-296.082377,-8438.347739,0.000000
469.959564,-444.123565,-8734.430116,383.047749
469.959892,-518.144159,-8808.450710,306.438199
469.960220,-148.041188,-9030.512492,459.657299
469.960547,0.000000,-8882.471304,612.876398
469.960875,0.000000,-8068.244768,229.828649
469.961202,0.000000,-8734.430116,612.876398
469.961530,148.041188,-8734.430116,536.266849
469.961857,222.061783,-8882.471304,536.266849
469.962185,74.020594,-8882.471304,459.657299
469.962513,74.020594,-8660.409521,612.876398
469.962840,148.041188,-9030.512492,306.438199
469.963168,148.041188,-9104.533087,842.705048
469.963495,222.061783,-9326.594869,536.266849
469.963823,74.020594,-9030.512492,536.266849
469.964150,0.000000,-9030.512492,536.266849
469.964478,-148.041188,-8734.430116,536.266849
469.964806,0.000000,-9178.553681,383.047749
469.965133,74.020594,-9178.553681,306.438199
469.965461,0.000000,-9252.574275,459.657299
469.965788,-222.061783,-9252.574275,306.438199
469.966116,-148.041188,-9104.533087,536.266849
469.966443,0.000000,-9104.533087,229.828649
469.966771,0.000000,-8956.491898,229.828649
469.967098,0.000000,-9030.512492,612.876398
469.967426,0.000000,-9104.533087,229.828649
469.967754,-296.082377,-9178.553681,919.314598
469.968081,0.000000,-9252.574275,919.314598
469.968409,0.000000,-9326.594869,612.876398
469.968736,0.000000,-9400.615463,612.876398
469.969064,0.000000,-9474.636058,689.485948
469.969391,0.000000,-9400.615463,766.095498
469.969719,222.061783,-9474.636058,536.266849
469.970047,0.000000,-9252.574275,383.047749
469.970374,0.000000,-9400.615463,536.266849
469.970702,0.000000,-9548.656652,612.876398
469.971029,0.000000,-9474.636058,459.657299
469.971357,-296.082377,-9178.553681,766.095498
469.971684,0.000000,-9474.636058,459.657299
469.972012,0.000000,-9474.636058,459.657299
469.972340,-296.082377,-9474.636058,766.095498
469.972667,-370.102971,-9474.636058,536.266849
469.972995,-222.061783,-9030.512492,306.438199
469.973322,0.000000,-9104.533087,536.266849
469.973650,-370.102971,-9326.594869,459.657299
469.973977,-444.123565,-9178.553681,536.266849
469.974305,-592.164754,-9178.553681,766.095498
469.974633,-296.082377,-9030.512492,536.266849
469.974960,-296.082377,-9178.553681,842.705048
469.975288,-518.144159,-9104.533087,383.047749
469.975615,-592.164754,-9252.574275,536.266849
469.975943,-296.082377,-9178.553681,536.266849
469.976270,-296.082377,-9104.533087,842.705048
469.976598,-222.061783,-8882.471304,689.485948
469.976925,-296.082377,-9178.553681,612.876398
469.977253,0.000000,-9474.636058,459.657299
469.977581,-222.061783,-9400.615463,842.705048
469.977908,0.000000,-9326.594869,306.438199
469.978236,-296.082377,-8660.409521,612.876398
469.978563,0.000000,-9326.594869,612.876398
469.978891,0.000000,-9178.553681,536.266849
469.979218,0.000000,-9104.533087,536.266849
469.979546,-148.041188,-9252.574275,689.485948
469.979874,-148.041188,-8882.471304,1149.143247
469.980201,-222.061783,-8734.430116,536.266849
469.980529,-222.061783,-9178.553681,383.047749
469.980856,-370.102971,-8956.491898,766.095498
469.981184,-444.123565,-8956.491898,383.047749
469.981511,-296.082377,-8586.388927,383.047749
469.981839,-222.061783,-8808.450710,459.657299
469.982167,-444.123565,-9030.512492,612.876398
469.982494,-296.082377,-9104.533087,306.438199
469.982822,-444.123565,-9104.533087,612.876398
469.983149,-444.123565,-9030.512492,459.657299
469.983477,-296.082377,-8660.409521,-306.438199
469.983804,-444.123565,-9104.533087,689.485948
469.984132,-370.102971,-9178.553681,536.266849
469.984460,-370.102971,-9104.533087,459.657299
469.984787,-296.082377,-9178.553681,459.657299
469.985115,222.061783,-8956.491898,842.705048
469.985442,-148.041188,-9104.533087,612.876398
469.985770,-444.123565,-8734.430116,536.266849
469.986097,-444.123565,-9030.512492,689.485948
469.986425,-296.082377,-9178.553681,842.705048
469.986753,-666.185348,-8586.388927,766.095498
469.987080,-148.041188,-8586.388927,919.314598
469.987408,-666.185348,-8734.430116,612.876398
469.987735,-444.123565,-8586.388927,459.657299
469.988063,-740.205942,-8808.450710,612.876398
469.988390,-962.267725,-8734.430116,0.000000
469.988718,-1036.288319,-8512.368333,612.876398
469.989045,-814.226536,-8808.450710,612.876398
469.989373,-888.247130,-8808.450710,536.266849
469.989701,-814.226536,-8734.430116,536.266849
469.990028,-814.226536,-8956.491898,383.047749
469.990356,-592.164754,-8364.327145,536.266849
469.990683,-592.164754,-8734.430116,383.047749
469.991011,-666.185348,-8956.491898,459.657299
469.991338,-666.185348,-9104.533087,536.266849
469.991666,-370.102971,-9030.512492,383.047749
469.991994,-370.102971,-8660.409521,919.314598
469.992321,0.000000,-9326.594869,459.657299
469.992649,-444.123565,-9178.553681,612.876398
469.992976,-222.061783,-9030.512492,766.095498
469.993304,-222.061783,-9030.512492,459.657299
469.993631,0.000000,-8586.388927,689.485948
469.993959,0.000000,-8586.388927,612.876398
469.994287,-148.041188,-8808.450710,536.266849
469.994614,0.000000,-9030.512492,459.657299
469.994942,-222.061783,-8882.471304,766.095498
469.995269,-148.041188,-8586.388927,306.438199
469.995597,-222.061783,-8660.409521,766.095498
469.995924,-370.102971,-8808.450710,536.266849
469.996252,-296.082377,-9326.594869,536.266849
469.996580,-370.102971,-9400.615463,229.828649
469.996907,-444.123565,-9178.553681,383.047749
469.997235,-370.102971,-8660.409521,842.705048
469.997562,74.020594,-9178.553681,459.657299
469.997890,-296.082377,-9252.574275,612.876398
469.998217,0.000000,-9178.553681,612.876398
469.998545,-222.061783,-9252.574275,612.876398
469.998873,148.041188,-9252.574275,536.266849
469.999200,-444.123565,-9252.574275,459.657299
469.999528,-222.061783,-9474.636058,536.266849
469.999855,-296.082377,-9326.594869,459.657299
470.000183,0.000000,-9400.615463,536.266849
470.000510,0.000000,-9548.656652,842.705048
470.000838,518.144159,-9104.533087,919.314598
470.001165,74.020594,-9400.615463,919.314598
470.001493,0.000000,-9326.594869,612.876398
470.001821,0.000000,-9474.636058,612.876398
470.002148,0.000000,-9252.574275,919.314598
470.002476,518.144159,-9474.636058,842.705048
470.002803,0.000000,-9474.636058,459.657299
470.003131,0.000000,-9400.615463,536.266849
470.003458,148.041188,-9400.615463,459.657299
470.003786,0.000000,-9400.615463,459.657299
470.004114,0.000000,-9474.636058,842.705048
470.004441,-222.061783,-9178.553681,383.047749
470.004769,-296.082377,-9474.636058,459.657299
470.005096,-296.082377,-9474.636058,383.047749
470.005424,0.000000,-9178.553681,459.657299
470.005751,0.000000,-9400.615463,612.876398
470.006079,74.020594,-9400.615463,229.828649
470.006407,-296.082377,-9474.636058,536.266849
470.006734,-222.061783,-9400.615463,229.828649
470.007062,-518.144159,-9400.615463,383.047749
470.007389,0.000000,-8956.491898,306.438199
470.007717,-222.061783,-9030.512492,459.657299
470.008044,0.000000,-9252.574275,383.047749
470.008372,0.000000,-9178.553681,459.657299
470.008700,0.000000,-9178.553681,536.266849
470.009027,0.000000,-9030.512492,229.828649
470.009355,-148.041188,-9252.574275,536.266849
470.009682,-296.082377,-9326.594869,689.485948
470.010010,0.000000,-9400.615463,536.266849
470.010337,0.000000,-9326.594869,536.266849
470.010665,0.000000,-9030.512492,689.485948
470.010992,-444.123565,-8364.327145,383.047749
470.011320,0.000000,-8808.450710,536.266849
470.011648,-296.082377,-8660.409521,536.266849
470.011975,-518.144159,-8808.450710,383.047749
470.012303,-370.102971,-8882.471304,612.876398
470.012630,-666.185348,-8512.368333,536.266849
470.012958,-592.164754,-8734.430116,689.485948
470.013285,-740.205942,-8438.347739,459.657299
470.013613,-740.205942,-8734.430116,689.485948
470.013941,-888.247130,-8734.430116,689.485948
470.014268,-518.144159,-8512.368333,306.438199
470.014596,-740.205942,-8364.327145,459.657299
470.014923,-888.247130,-8882.471304,689.485948
470.015251,-814.226536,-8734.430116,689.485948
470.015578,-888.247130,-8808.450710,306.438199
470.015906,-1036.288319,-8808.450710,919.314598
470.016234,-962.267725,-8808.450710,612.876398
470.016561,-740.205942,-8882.471304,459.657299
470.016889,-592.164754,-8882.471304,536.266849
470.017216,-370.102971,-8808.450710,689.485948
470.017544,-518.144159,-8882.471304,459.657299
470.017871,-74.020594,-8586.388927,612.876398
470.018199,-222.061783,-8660.409521,536.266849
470.018527,-592.164754,-8808.450710,383.047749
470.018854,-444.123565,-8808.450710,459.657299
470.019182,-444.123565,-8734.430116,536.266849
470.019509,-444.123565,-8512.368333,306.438199
470.019837,0.000000,-8956.491898,383.047749
470.020165,-296.082377,-9104.533087,229.828649
470.020492,-296.082377,-8808.450710,229.828649
470.020820,-296.082377,-9104.533087,306.438199
470.021147,-148.041188,-8586.388927,0.000000
470.021475,-518.144159,-8882.471304,612.876398
470.021803,-444.123565,-8882.471304,306.438199
470.022130,0.000000,-9178.553681,383.047749
470.022458,-148.041188,-9252.574275,459.657299
470.022785,-296.082377,-9326.594869,612.876398
470.023113,0.000000,-8882.471304,459.657299
470.023441,-222.061783,-9400.615463,383.047749
470.023768,0.000000,-9474.636058,383.047749
470.024096,-148.041188,-9400.615463,536.266849
470.024423,0.000000,-9400.615463,459.657299
470.024751,0.000000,-8956.491898,919.314598
470.025079,222.061783,-9400.615463,689.485948
470.025406,0.000000,-9326.594869,612.876398
470.025734,0.000000,-9474.636058,536.266849
470.026061,0.000000,-9400.615463,766.095498
470.026389,0.000000,-8734.430116,919.314598
470.026717,222.061783,-9400.615463,689.485948
470.027044,0.000000,-9104.533087,689.485948
470.027372,148.041188,-9178.553681,612.876398
470.027699,148.041188,-9326.594869,536.266849
470.028027,0.000000,-9252.574275,0.000000
470.028355,148.041188,-8956.491898,383.047749
470.028682,74.020594,-8956.491898,612.876398
470.029010,0.000000,-9178.553681,536.266849
470.029337,0.000000,-9252.574275,536.266849
470.029665,0.000000,-9474.636058,306.438199
470.029993,0.000000,-8882.471304,536.266849
470.030320,0.000000,-9474.636058,536.266849
470.030648,0.000000,-9252.574275,536.266849
470.030975,0.000000,-9474.636058,536.266849
470.031303,-296.082377,-9474.636058,459.657299
470.031631,74.020594,-9104.533087,306.438199
470.031958,0.000000,-9252.574275,459.657299
470.032286,0.000000,-9474.636058,383.047749
470.032613,-148.041188,-9400.615463,919.314598
470.032941,-296.082377,-9474.636058,459.657299
470.033269,0.000000,-9400.615463,383.047749
470.033596,74.020594,-9326.594869,153.219100
470.033924,-222.061783,-9178.553681,383.047749
470.034251,-148.041188,-9400.615463,612.876398
470.034579,0.000000,-9326.594869,612.876398
470.034907,-148.041188,-9030.512492,229.828649
470.035234,0.000000,-9030.512492,1072.533697
470.035562,-444.123565,-9030.512492,612.876398
470.035889,-370.102971,-9104.533087,459.657299
470.036217,-296.082377,-9104.533087,536.266849
470.036545,-370.102971,-9252.574275,306.438199
470.036872,-592.164754,-8512.368333,383.047749
470.037200,-444.123565,-9030.512492,689.485948
470.037527,-518.144159,-9030.512492,383.047749
470.037855,-666.185348,-8882.471304,536.266849
470.038183,-740.205942,-8956.491898,459.657299
470.038510,-592.164754,-8808.450710,383.047749
470.038838,-666.185348,-9252.574275,153.219100
470.039165,-666.185348,-9178.553681,306.438199
470.039493,-888.247130,-8808.450710,536.266849
470.039821,-444.123565,-9326.594869,612.876398
470.040148,-814.226536,-9252.574275,689.485948
470.040476,0.000000,-9104.533087,766.095498
470.040803,-370.102971,-9178.553681,536.266849
470.041131,-518.144159,-9030.512492,459.657299
470.041459,-444.123565,-8956.491898,536.266849
470.041786,-518.144159,-8882.471304,766.095498
470.042114,0.000000,-8956.491898,536.266849
470.042441,-222.061783,-8660.409521,842.705048
470.042769,-370.102971,-8660.409521,459.657299
470.043097,-444.123565,-8956.491898,689.485948
470.043424,-518.144159,-8586.388927,459.657299
470.043752,148.041188,-8882.471304,766.095498
470.044079,-370.102971,-8660.409521,383.047749
470.044407,-370.102971,-8660.409521,459.657299
470.044734,-370.102971,-8660.409521,229.828649
470.045062,-518.144159,-8734.430116,459.657299
470.045390,-666.185348,-8438.347739,766.095498
470.045717,-296.082377,-9326.594869,612.876398
470.046045,-296.082377,-8882.471304,383.047749
470.046372,-592.164754,-8882.471304,459.657299
470.046700,-666.185348,-8808.450710,689.485948
470.047028,-444.123565,-9104.533087,459.657299
470.047355,-296.082377,-8734.430116,919.314598
470.047683,-370.102971,-9030.512492,383.047749
470.048010,-148.041188,-9030.512492,689.485948
470.048338,0.000000,-9252.574275,459.657299
470.048666,-296.082377,-9104.533087,1149.143247
470.048993,0.000000,-9326.594869,536.266849
470.049321,-222.061783,-9178.553681,612.876398
470.049648,-296.082377,-9104.533087,612.876398
470.049976,-444.123565,-9178.553681,612.876398
470.050304,-296.082377,-9104.533087,689.485948
470.050631,222.061783,-9178.553681,612.876398
470.050959,-296.082377,-9178.553681,536.266849
470.051286,-148.041188,-9252.574275,459.657299
470.051614,0.000000,-9326.594869,766.095498
470.051942,0.000000,-9178.553681,459.657299
470.052269,0.000000,-8956.491898,459.657299
470.052597,-518.144159,-9104.533087,689.485948
470.052924,-222.061783,-9326.594869,153.219100
470.053252,-148.041188,-9326.594869,306.438199
470.053580,0.000000,-9252.574275,536.266849
470.053907,148.041188,-9178.553681,536.266849
470.054235,-222.061783,-9252.574275,612.876398
470.054562,-148.041188,-9400.615463,383.047749
470.054890,-222.061783,-9326.594869,689.485948
470.055218,-148.041188,-9474.636058,612.876398
470.055545,-370.102971,-9474.636058,536.266849
470.055873,-222.061783,-9474.636058,842.705048
470.056200,-222.061783,-9326.594869,383.047749
470.056528,0.000000,-9474.636058,383.047749
470.056856,-296.082377,-9474.636058,612.876398
470.057183,-222.061783,-9474.636058,229.828649
470.057511,74.020594,-9400.615463,919.314598
470.057838,0.000000,-9252.574275,689.485948
470.058166,-222.061783,-9474.636058,459.657299
470.058494,0.000000,-9474.636058,536.266849
470.058821,-222.061783,-9400.615463,459.657299
470.059149,-222.061783,-8956.491898,612.876398
470.059476,0.000000,-9178.553681,766.095498
470.059804,-148.041188,-9178.553681,383.047749
470.060132,0.000000,-9104.533087,459.657299
470.060459,0.000000,-9030.512492,536.266849
470.060787,-222.061783,-8956.491898,153.219100
470.061114,-148.041188,-8882.471304,1455.581446
470.061442,-444.123565,-9104.533087,612.876398
470.061770,-296.082377,-9178.553681,689.485948
470.062097,-296.082377,-9178.553681,766.095498
470.062425,-296.082377,-9030.512492,459.657299
470.062752,-148.041188,-9252.574275,536.266849
470.063080,-296.082377,-9252.574275,612.876398
470.063408,-222.061783,-9252.574275,689.485948
470.063735,-148.041188,-9104.533087,689.485948
470.064063,-222.061783,-8956.491898,459.657299
470.064390,0.000000,-9400.615463,0.000000
470.064718,-222.061783,-9474.636058,153.219100
470.065046,0.000000,-9400.615463,536.266849
470.065373,0.000000,-9178.553681,383.047749
470.065701,0.000000,-9178.553681,536.266849
470.066028,0.000000,-9252.574275,459.657299
470.066356,0.000000,-8734.430116,766.095498
470.066684,0.000000,-9104.533087,536.266849
470.067011,0.000000,-8882.471304,689.485948
470.067339,-296.082377,-9030.512492,612.876398
470.067666,0.000000,-8956.491898,612.876398
470.067994,-296.082377,-8808.450710,995.924147
470.068322,0.000000,-8956.491898,383.047749
470.068649,-296.082377,-8586.388927,536.266849
470.068977,-518.144159,-8660.409521,536.266849
470.069304,-444.123565,-8956.491898,459.657299
470.069632,-814.226536,-8808.450710,995.924147
470.069960,-370.102971,-8882.471304,383.047749
470.070287,-592.164754,-8808.450710,459.657299
470.070615,-740.205942,-9030.512492,689.485948
470.070942,-592.164754,-9178.553681,536.266849
470.071270,-592.164754,-8734.430116,459.657299
470.071597,-518.144159,-9252.574275,689.485948
470.071925,-518.144159,-9252.574275,459.657299
470.072253,-666.185348,-9400.615463,536.266849
470.072580,-592.164754,-9178.553681,612.876398
470.072908,-296.082377,-8734.430116,1072.533697
470.073235,-518.144159,-9030.512492,766.095498
470.073563,-222.061783,-9252.574275,766.095498
470.073891,-222.061783,-9178.553681,689.485948
470.074218,-148.041188,-9030.512492,536.266849
470.074546,-370.102971,-8882.471304,153.219100
470.074873,-222.061783,-8734.430116,1302.362347
470.075201,-444.123565,-8734.430116,689.485948
470.075529,-444.123565,-8882.471304,612.876398
470.075856,-592.164754,-8734.430116,536.266849
470.076184,-370.102971,-8956.491898,459.657299
470.076511,-740.205942,-8290.306550,383.047749
470.076839,-592.164754,-8660.409521,689.485948
470.077167,-666.185348,-8734.430116,612.876398
470.077494,-592.164754,-8808.450710,536.266849
470.077822,-814.226536,-9030.512492,689.485948
470.078149,-592.164754,-8586.388927,459.657299
470.078477,-666.185348,-8586.388927,842.705048
470.078805,-518.144159,-9030.512492,612.876398
470.079132,-814.226536,-8956.491898,612.876398
470.079460,-740.205942,-8882.471304,766.095498
470.079787,-518.144159,-8956.491898,842.705048
470.080115,-518.144159,-9178.553681,0.000000
470.080443,-518.144159,-9326.594869,766.095498
470.080770,-370.102971,-9104.533087,536.266849
470.081098,-370.102971,-9030.512492,689.485948
470.081425,0.000000,-8956.491898,536.266849
470.081753,74.020594,-9178.553681,1455.581446
470.082081,-222.061783,-9104.533087,459.657299
470.082408,-370.102971,-9326.594869,689.485948
470.082736,0.000000,-9178.553681,383.047749
470.083063,-148.041188,-9178.553681,459.657299
470.083391,0.000000,-8956.491898,306.438199
