#time,accel_x,accel_y,accel_z
571.781889,-222.061783,-9178.553681,459.657299
571.782217,-148.041188,-9252.574275,612.876398
571.782545,-222.061783,-9030.512492,306.438199
571.782872,-148.041188,-9104.533087,383.047749
571.783200,-444.123565,-9178.553681,536.266849
571.783527,0.000000,-9178.553681,842.705048
571.783855,0.000000,-8882.471304,383.047749
571.784183,-222.061783,-9030.512492,459.657299
571.784510,-296.082377,-9104.533087,612.876398
571.784838,-370.102971,-9326.594869,536.266849
571.785166,-296.082377,-9400.615463,306.438199
571.785493,0.000000,-9030.512492,459.657299
571.785821,-222.061783,-8660.409521,536.266849
571.786149,0.000000,-9252.574275,383.047749
571.786476,-296.082377,-9326.594869,383.047749
571.786804,-518.144159,-9030.512492,612.876398
571.787131,0.000000,-8956.491898,1149.143247
571.787459,-296.082377,-9030.512492,536.266849
571.787787,-148.041188,-9104.533087,766.095498
571.788114,-444.123565,-9252.574275,612.876398
571.788442,-296.082377,-9326.594869,-153.219100
571.788770,-370.102971,-9030.512492,995.924147
571.789097,-296.082377,-9104.533087,459.657299
571.789425,-370.102971,-9326.594869,689.485948
571.789753,-296.082377,-9030.512492,689.485948
571.790080,-296.082377,-8956.491898,842.705048
571.790408,222.061783,-9474.636058,383.047749
571.790735,-444.123565,-9030.512492,842.705048
571.791063,-296.082377,-9104.533087,766.095498
571.791391,-296.082377,-9178.553681,689.485948
571.791718,-296.082377,-9178.553681,536.266849
571.792046,-222.061783,-9400.615463,536.266849
571.792374,-1110.308913,-9104.533087,76.609550
571.792701,-1110.308913,-9548.656652,0.000000
571.793029,-1332.370696,-9400.615463,-229.828649
571.793357,-962.267725,-9104.533087,-459.657299
571.793684,-592.164754,-9030.512492,0.000000
571.794012,-444.123565,-9104.533087,-306.438199
571.794339,-962.267725,-9252.574275,-689.485948
571.794667,-1258.350101,-9474.636058,-995.924147
571.794995,-1554.432478,-9326.594869,-1072.533697
571.795322,-962.267725,-9030.512492,-995.924147
571.795650,-592.164754,-9030.512492,-1685.410096
571.795978,-518.144159,-9326.594869,-1378.971896
571.796305,-370.102971,-9252.574275,-1378.971896
571.796633,0.000000,-9030.512492,-1149.143247
571.796961,0.000000,-8956.491898,-1225.752797
571.797288,0.000000,-8956.491898,-1685.410096
571.797616,0.000000,-9252.574275,-1302.362347
571.797943,222.061783,-9474.636058,-1685.410096
571.798271,222.061783,-9252.574275,-1685.410096
571.798599,370.102971,-9178.553681,-1838.629195
571.798926,740.205942,-9400.615463,-1149.143247
571.799254,0.000000,-9178.553681,-1608.800546
571.799582,370.102971,-9252.574275,-1915.238745
571.799909,370.102971,-9400.615463,-2068.457845
571.800237,74.020594,-9474.636058,-1915.238745
571.800565,222.061783,-9400.615463,-1762.019645
571.800892,592.164754,-9326.594869,-2145.067394
571.801220,148.041188,-8956.491898,-1838.629195
571.801548,0.000000,-9252.574275,-1608.800546
571.801875,-518.144159,-9326.594869,-1685.410096
571.802203,-592.164754,-8956.491898,-1608.800546
571.802530,-296.082377,-9474.636058,-2221.676944
571.802858,-1184.329507,-9030.512492,-2221.676944
571.803186,-1258.350101,-9104.533087,-2298.286494
571.803513,-1480.411884,-9252.574275,-2374.896044
571.803841,-1480.411884,-9104.533087,-2604.724693
571.804169,-1406.391290,-9252.574275,-2604.724693
571.804496,-2368.659014,-9030.512492,-3140.991542
571.804824,-2294.638420,-9030.512492,-3524.039291
571.805152,-2220.617826,-8882.471304,-3830.477490
571.805479,-1776.494261,-9030.512492,-3983.696590
571.805807,-1850.514855,-8364.327145,-3294.210641
571.806134,-1184.329507,-8364.327145,-3753.867940
571.806462,-888.247130,-8808.450710,-3983.696590
571.806790,-592.164754,-8882.471304,-3600.648841
571.807117,148.041188,-9030.512492,-3370.820191
571.807445,444.123565,-8438.347739,-2681.334243
571.807773,1776.494261,-8808.450710,-2911.162892
571.808100,1924.535449,-9030.512492,-2374.896044
571.808428,2146.597232,-9326.594869,-1838.629195
571.808756,1850.514855,-9548.656652,-1915.238745
571.809083,1480.411884,-10140.821405,-1838.629195
571.809411,148.041188,-9548.656652,-2911.162892
571.809738,-592.164754,-10214.842000,-3294.210641
571.810066,-1554.432478,-10510.924376,-3983.696590
571.810394,-2072.576638,-10436.903782,-4673.182538
571.810721,-1850.514855,-9474.636058,-4979.620737
571.811049,-592.164754,-8808.450710,-4596.572988
571.811377,518.144159,-7624.121203,-4060.306139
571.811704,1998.556043,-7254.018232,-3753.867940
571.812032,2738.761985,-7031.956449,-2757.943793
571.812360,3108.864956,-7550.100608,-2298.286494
571.812687,1850.514855,-8660.409521,-1685.410096
571.813015,0.000000,-9400.615463,-2068.457845
571.813342,-2146.597232,-10436.903782,-1991.848295
571.813670,-3330.926739,-11251.130318,-2374.896044
571.813998,-3627.009116,-11029.068536,-2834.553343
571.814325,-2516.700203,-10066.800811,-2528.115143
571.814653,-666.185348,-8586.388927,-2145.067394
571.814981,1998.556043,-7698.141797,-1455.581446
571.815308,6069.688724,-6069.688724,0.000000
571.815636,9844.739029,-4811.338623,2221.676944
571.815964,11251.130318,-5329.482782,4213.525239
571.816291,8586.388927,-7476.080014,4903.011187
571.816619,2368.659014,-11621.233289,3830.477490
571.816946,-4737.318029,-13841.851115,2145.067394
571.817274,-9474.636058,-14804.118840,229.828649
571.817602,-11769.274478,-14508.036463,-1302.362347
571.817929,-10807.006753,-13027.624579,-1915.238745
571.818257,-8438.347739,-10807.006753,-1991.848295
571.818585,-1924.535449,-7254.018232,-919.314598
571.818912,-2368.659014,-5033.400406,-1302.362347
571.819240,-888.247130,-4441.235652,-3447.429741
571.819568,-4589.276840,-5699.585753,-5439.278036
571.819895,-9400.615463,-7550.100608,-8120.612279
571.820223,-13323.706956,-8660.409521,-9882.631924
571.820551,-14359.995275,-8290.306550,-10648.727422
571.820878,-11177.109724,-7698.141797,-9729.412825
571.821206,-5699.585753,-7550.100608,-7431.126331
571.821533,1554.432478,-6143.709319,-5745.716235
571.821861,3552.988522,-6883.915261,-5056.230287
571.822189,6143.709319,-8512.368333,-4060.306139
571.822516,2812.782580,-9844.739029,-6205.373534
571.822844,2442.679609,-11399.171507,-6281.983084
571.823172,4515.256246,-10658.965565,-6511.811733
571.823499,8290.306550,-10658.965565,-5132.839837
571.823827,11621.233289,-10362.883188,-2911.162892
571.824155,12731.542202,-9622.677246,-1762.019645
571.824482,13101.645173,-10214.842000,-1072.533697
571.824810,13101.645173,-10436.903782,-1378.971896
571.825137,12879.583391,-8882.471304,-1455.581446
571.825465,13545.768739,-10658.965565,-766.095498
571.825793,10510.924376,-11473.192101,-2298.286494
571.826120,3997.112087,-13027.624579,-2681.334243
571.826448,-3849.070898,-13915.871710,-5822.325785
571.826776,-10584.944971,-14285.974681,-6818.249932
571.827103,-9918.759623,-9992.780217,-7660.954980
571.827431,-4441.235652,-5551.544565,-6741.640382
571.827759,814.226536,-2664.741391,-4290.134789
571.828086,4293.194464,-2294.638420,-2221.676944
571.828414,2590.720797,-2886.803174,-919.314598
571.828741,-1850.514855,-3404.947333,-919.314598
571.829069,-3552.988522,-4515.256246,-1378.971896
571.829397,-6217.729913,-6883.915261,-995.924147
571.829724,-5773.606348,-7476.080014,-842.705048
571.830052,-6069.688724,-9770.718434,919.314598
571.830380,-4885.359217,-10214.842000,2987.772442
571.830707,-4145.153275,-9178.553681,4519.963438
571.831035,-2072.576638,-7920.203579,4903.011187
571.831363,-1258.350101,-8586.388927,2757.943793
571.831690,-2960.823768,-11251.130318,1378.971896
571.832018,-5181.441594,-12139.377449,-612.876398
571.832345,-7179.997637,-11177.109724,-1991.848295
571.832673,-4293.194464,-9252.574275,-995.924147
571.833001,-1036.288319,-8142.265362,-383.047749
571.833328,518.144159,-8734.430116,229.828649
571.833656,592.164754,-8808.450710,536.266849
571.833984,-2146.597232,-9104.533087,153.219100
571.834311,-3404.947333,-8808.450710,536.266849
571.834639,-3701.029710,-9326.594869,-153.219100
571.834967,-2368.659014,-11177.109724,-842.705048
571.835294,-1924.535449,-11547.212695,-1455.581446
571.835622,-3552.988522,-10881.027347,-2374.896044
571.835949,-1406.391290,-9030.512492,-1302.362347
571.836277,-518.144159,-6883.915261,-1762.019645
571.836605,-148.041188,-6735.874072,-2451.505594
571.836932,1702.473667,-7476.080014,-3447.429741
571.837260,2738.761985,-7402.059420,-4903.011187
571.837588,4071.132681,-7846.182985,-4749.792088
571.837915,6217.729913,-8142.265362,-3830.477490
571.838243,4293.194464,-9770.718434,-4290.134789
571.838571,4663.297435,-12879.583391,-3983.696590
571.838898,4071.132681,-13767.830521,-2911.162892
571.839226,2442.679609,-13619.789333,-3524.039291
571.839553,1554.432478,-12509.480420,-4213.525239
571.839881,888.247130,-12435.459826,-3600.648841
571.840209,740.205942,-11621.233289,-3753.867940
571.840536,1998.556043,-10658.965565,-2834.553343
571.840864,2368.659014,-9918.759623,-2987.772442
571.841191,1110.308913,-8956.491898,-3524.039291
571.841518,-888.247130,-8438.347739,-4519.963438
571.841846,-1554.432478,-8216.285956,-4749.792088
571.842173,-2590.720797,-6957.935855,-5286.058936
571.842500,-2294.638420,-6883.915261,-6128.763984
571.842828,-1406.391290,-5625.565159,-5362.668486
571.843155,740.205942,-4367.215058,-3677.258390
571.843483,1850.514855,-4885.359217,-1991.848295
571.843810,1998.556043,-6809.894666,-1149.143247
571.844137,0.000000,-8364.327145,-1991.848295
571.844465,-814.226536,-9474.636058,-1685.410096
571.844792,-2220.617826,-10362.883188,-1762.019645
571.845119,-3775.050304,-10510.924376,-2068.457845
571.845447,-2664.741391,-9844.739029,-1149.143247
571.845774,0.000000,-8586.388927,-383.047749
571.846102,222.061783,-8586.388927,0.000000
571.846429,0.000000,-9030.512492,-689.485948
571.846756,-814.226536,-8956.491898,-1532.190996
571.847084,-1184.329507,-8438.347739,-2374.896044
571.847411,-740.205942,-8808.450710,-2451.505594
571.847739,-814.226536,-8882.471304,-2604.724693
571.848066,1554.432478,-8068.244768,-1378.971896
571.848393,3627.009116,-6291.750507,536.266849
571.848721,4145.153275,-5921.647536,1991.848295
571.849048,1850.514855,-7476.080014,2298.286494
571.849375,0.000000,-8290.306550,1302.362347
571.849703,-1554.432478,-8956.491898,842.705048
571.850030,-2664.741391,-9622.677246,612.876398
571.850358,-3701.029710,-9696.697840,612.876398
571.850685,-1332.370696,-9178.553681,842.705048
571.851012,148.041188,-8142.265362,1149.143247
571.851340,222.061783,-8882.471304,1455.581446
571.851667,-1110.308913,-8216.285956,153.219100
571.851995,-2442.679609,-7698.141797,-1532.190996
571.852322,-3256.906145,-8438.347739,-1608.800546
571.852649,-3552.988522,-9474.636058,-1915.238745
571.852977,-2664.741391,-10140.821405,-1685.410096
571.853304,-888.247130,-9992.780217,-842.705048
571.853631,740.205942,-11325.150913,689.485948
571.853959,-740.205942,-11399.171507,383.047749
571.854286,-1850.514855,-11251.130318,1225.752797
571.854614,-1628.453072,-10584.944971,153.219100
571.854941,-888.247130,-10140.821405,766.095498
571.855268,0.000000,-9696.697840,1072.533697
571.855596,1406.391290,-8068.244768,1991.848295
571.855923,2368.659014,-7920.203579,2911.162892
571.856250,2072.576638,-9252.574275,2757.943793
571.856578,592.164754,-9622.677246,1915.238745
571.856905,0.000000,-9474.636058,766.095498
571.857233,0.000000,-10066.800811,689.485948
571.857560,222.061783,-10066.800811,459.657299
571.857887,888.247130,-9104.533087,1225.752797
571.858215,1998.556043,-8956.491898,1455.581446
571.858542,2294.638420,-10584.944971,1838.629195
571.858870,0.000000,-11547.212695,1225.752797
571.859197,-2516.700203,-10955.047942,-306.438199
571.859524,-3330.926739,-11029.068536,-536.266849
571.859852,-3182.885551,-10807.006753,-689.485948
571.860179,-2368.659014,-10066.800811,-612.876398
571.860506,-1998.556043,-9178.553681,-306.438199
571.860834,-1036.288319,-9474.636058,153.219100
571.861161,-2738.761985,-9326.594869,0.000000
571.861489,-3330.926739,-8142.265362,-995.924147
571.861816,-3478.967927,-7698.141797,-2145.067394
571.862143,-1924.535449,-8364.327145,-1991.848295
571.862471,-592.164754,-8068.244768,-1762.019645
571.862798,74.020594,-6513.812290,-1378.971896
571.863125,1554.432478,-7476.080014,-383.047749
571.863453,1628.453072,-7772.162391,0.000000
571.863780,592.164754,-7624.121203,-383.047749
571.864108,888.247130,-8142.265362,-383.047749
571.864435,1998.556043,-8956.491898,-153.219100
571.864762,2886.803174,-7846.182985,766.095498
571.865090,3627.009116,-8364.327145,1225.752797
571.865417,4441.235652,-9178.553681,2374.896044
571.865745,3552.988522,-9844.739029,2528.115143
571.866072,3330.926739,-10214.842000,2298.286494
571.866399,1036.288319,-9400.615463,766.095498
571.866727,1110.308913,-10362.883188,1762.019645
571.867054,1998.556043,-9548.656652,1685.410096
571.867381,1554.432478,-8956.491898,1685.410096
571.867709,1184.329507,-8364.327145,1915.238745
571.868036,370.102971,-8956.491898,2221.676944
571.868364,-1480.411884,-8808.450710,1762.019645
571.868691,-3404.947333,-7476.080014,459.657299
571.869018,-3775.050304,-7772.162391,612.876398
571.869346,-3182.885551,-8142.265362,766.095498
571.869673,-2886.803174,-6957.935855,1149.143247
571.870001,-3034.844362,-6661.853478,1149.143247
571.870328,-3923.091493,-6883.915261,919.314598
571.870655,-4663.297435,-6957.935855,536.266849
571.870983,-5181.441594,-7254.018232,0.000000
571.871310,-4219.173869,-7772.162391,-1072.533697
571.871637,-2442.679609,-8216.285956,-153.219100
571.871965,-444.123565,-8808.450710,536.266849
571.872292,296.082377,-8216.285956,1149.143247
571.872620,740.205942,-9548.656652,1455.581446
571.872947,0.000000,-10881.027347,919.314598
571.873274,-1332.370696,-10510.924376,842.705048
571.873602,-1258.350101,-11473.192101,-229.828649
571.873929,222.061783,-11103.089130,153.219100
571.874256,2220.617826,-10807.006753,842.705048
571.874584,3404.947333,-10807.006753,1072.533697
571.874911,3923.091493,-10955.047942,2451.505594
571.875239,2960.823768,-10807.006753,1685.410096
571.875566,1332.370696,-10658.965565,995.924147
571.875893,0.000000,-10658.965565,-459.657299
571.876221,-518.144159,-11251.130318,0.000000
571.876548,1850.514855,-9992.780217,153.219100
571.876876,2812.782580,-9326.594869,536.266849
571.877203,2516.700203,-9400.615463,1302.362347
571.877530,1850.514855,-10658.965565,1225.752797
571.877858,74.020594,-10214.842000,689.485948
571.878185,-1702.473667,-9474.636058,-459.657299
571.878512,-814.226536,-10436.903782,-919.314598
571.878840,-1184.329507,-10955.047942,-536.266849
571.879167,-740.205942,-10510.924376,-229.828649
571.879495,-1036.288319,-9918.759623,0.000000
571.879822,-1258.350101,-9992.780217,612.876398
571.880149,-1554.432478,-9252.574275,0.000000
571.880477,-2886.803174,-8734.430116,-1149.143247
571.880804,-1776.494261,-9474.636058,-995.924147
571.881131,-740.205942,-9178.553681,-689.485948
571.881459,74.020594,-8142.265362,459.657299
571.881786,444.123565,-8512.368333,612.876398
571.882114,-814.226536,-9474.636058,1532.190996
571.882441,-1850.514855,-9696.697840,1072.533697
571.882768,-3552.988522,-9178.553681,306.438199
571.883096,-3034.844362,-8882.471304,0.000000
571.883423,-1628.453072,-8364.327145,612.876398
571.883751,592.164754,-7328.038826,842.705048
571.884078,2294.638420,-6439.791695,1225.752797
571.884405,3478.967927,-7402.059420,2374.896044
571.884733,2220.617826,-7846.182985,2221.676944
571.885060,-296.082377,-8290.306550,1762.019645
571.885387,0.000000,-8808.450710,1149.143247
571.885715,592.164754,-8290.306550,1455.581446
571.886042,1850.514855,-8660.409521,2221.676944
571.886370,2812.782580,-8660.409521,2604.724693
571.886697,2146.597232,-9326.594869,2987.772442
571.887024,444.123565,-9474.636058,3294.210641
571.887352,-1924.535449,-8512.368333,1455.581446
571.887679,-2516.700203,-8660.409521,76.609550
571.888007,-2886.803174,-8882.471304,-306.438199
571.888334,-740.205942,-7846.182985,-689.485948
571.888661,-1184.329507,-6661.853478,-459.657299
571.888989,0.000000,-6513.812290,459.657299
571.889316,-1110.308913,-6809.894666,459.657299
571.889643,-1998.556043,-6809.894666,-383.047749
571.889971,-3330.926739,-7031.956449,-1455.581446
571.890298,-2368.659014,-8438.347739,-459.657299
571.890626,-1628.453072,-8290.306550,-229.828649
571.890953,-592.164754,-7328.038826,459.657299
571.891280,296.082377,-8512.368333,1149.143247
571.891608,222.061783,-9992.780217,1685.410096
571.891935,-1036.288319,-9844.739029,842.705048
571.892262,-2516.700203,-9918.759623,153.219100
571.892590,-2590.720797,-10288.862594,-536.266849
571.892917,-1332.370696,-9622.677246,-1225.752797
571.893245,1702.473667,-9474.636058,-153.219100
571.893572,3256.906145,-8808.450710,0.000000
571.893899,4441.235652,-9696.697840,766.095498
571.894227,3330.926739,-10066.800811,1225.752797
571.894554,1554.432478,-10288.862594,689.485948
571.894882,962.267725,-11325.150913,459.657299
571.895209,1184.329507,-11177.109724,536.266849
571.895536,2516.700203,-11473.192101,1991.848295
571.895864,2146.597232,-11177.109724,1838.629195
571.896191,1036.288319,-12287.418637,2911.162892
571.896518,-962.267725,-12065.356855,2451.505594
571.896846,-2960.823768,-11399.171507,1225.752797
571.897173,-3997.112087,-11695.253884,0.000000
571.897501,-3182.885551,-10584.944971,-1149.143247
571.897828,-2072.576638,-9030.512492,-1532.190996
571.898155,-888.247130,-7105.977043,-1608.800546
571.898483,370.102971,-7254.018232,-842.705048
571.898810,592.164754,-6883.915261,-383.047749
571.899137,74.020594,-7031.956449,-919.314598
571.899465,-666.185348,-8142.265362,-766.095498
571.899792,-370.102971,-8808.450710,-306.438199
571.900120,0.000000,-9474.636058,536.266849
571.900447,296.082377,-9252.574275,1302.362347
571.900774,1480.411884,-11177.109724,2987.772442
571.901102,-740.205942,-11621.233289,3447.429741
571.901429,-2368.659014,-11621.233289,2604.724693
571.901757,-4145.153275,-11029.068536,1532.190996
571.902084,-3404.947333,-10436.903782,1072.533697
571.902411,-2368.659014,-9252.574275,306.438199
571.902739,0.000000,-6957.935855,-766.095498
571.903066,1702.473667,-6661.853478,-229.828649
571.903393,1332.370696,-6217.729913,229.828649
571.903721,1036.288319,-5773.606348,459.657299
571.904048,148.041188,-4737.318029,153.219100
571.904376,1036.288319,-6217.729913,689.485948
571.904703,2368.659014,-6513.812290,1302.362347
571.905030,1776.494261,-6883.915261,2068.457845
571.905358,1036.288319,-8660.409521,2757.943793
571.905685,-1332.370696,-9696.697840,3140.991542
571.906013,-2368.659014,-10066.800811,2451.505594
571.906340,-4441.235652,-9992.780217,1532.190996
571.906667,-3775.050304,-10510.924376,919.314598
571.906995,-2738.761985,-8808.450710,0.000000
571.907322,-1110.308913,-7846.182985,0.000000
571.907649,148.041188,-6587.832884,-919.314598
571.907977,148.041188,-7179.997637,-919.314598
571.908304,-148.041188,-7328.038826,-1302.362347
571.908632,-1184.329507,-6957.935855,-1915.238745
571.908959,-370.102971,-7846.182985,-1838.629195
571.909286,1258.350101,-8142.265362,-766.095498
571.909614,2738.761985,-8882.471304,689.485948
571.909941,3108.864956,-9548.656652,1608.800546
571.910268,2368.659014,-11843.295072,2911.162892
571.910596,0.000000,-12731.542202,2681.334243
571.910923,-2738.761985,-12731.542202,1685.410096
571.911251,-3923.091493,-12805.562797,689.485948
571.911578,-2960.823768,-12435.459826,306.438199
571.911905,-1258.350101,-11029.068536,-229.828649
571.912233,1110.308913,-9474.636058,-459.657299
571.912560,2960.823768,-8734.430116,-153.219100
571.912888,2886.803174,-7920.203579,-229.828649
571.913215,1776.494261,-8068.244768,-842.705048
571.913542,592.164754,-8512.368333,-1302.362347
571.913870,1258.350101,-9252.574275,-1225.752797
571.914197,2368.659014,-9252.574275,0.000000
571.914524,2738.761985,-9030.512492,153.219100
571.914852,2442.679609,-10510.924376,1762.019645
571.915179,444.123565,-11843.295072,2528.115143
571.915507,-2220.617826,-11473.192101,2298.286494
571.915834,-3849.070898,-11251.130318,995.924147
571.916161,-3775.050304,-11695.253884,612.876398
571.916489,-2368.659014,-9992.780217,229.828649
571.916816,-1480.411884,-8660.409521,-306.438199
571.917143,-740.205942,-8068.244768,-153.219100
571.917471,-518.144159,-8216.285956,0.000000
571.917798,-1110.308913,-7328.038826,-306.438199
571.918126,-1850.514855,-6661.853478,-1762.019645
571.918453,-518.144159,-7402.059420,-612.876398
571.918780,888.247130,-7624.121203,76.609550
571.919108,1406.391290,-7402.059420,689.485948
571.919435,1850.514855,-8586.388927,2374.896044
571.919763,888.247130,-10584.944971,2834.553343
571.920090,-666.185348,-10807.006753,3447.429741
571.920417,-3182.885551,-10732.986159,2604.724693
571.920745,-3182.885551,-10955.047942,1991.848295
571.921072,-2738.761985,-10140.821405,1608.800546
571.921399,-592.164754,-8068.244768,1608.800546
571.921727,74.020594,-6587.832884,536.266849
571.922054,1258.350101,-6883.915261,612.876398
571.922382,666.185348,-6809.894666,229.828649
571.922709,222.061783,-6291.750507,76.609550
571.923036,444.123565,-6809.894666,-383.047749
571.923364,2072.576638,-7476.080014,459.657299
571.923691,3034.844362,-7476.080014,995.924147
571.924019,2886.803174,-7994.224174,1915.238745
571.924346,2590.720797,-9918.759623,2911.162892
571.924673,0.000000,-10584.944971,3830.477490
571.925001,-2368.659014,-11029.068536,3294.210641
571.925328,-4811.338623,-11695.253884,1685.410096
571.925655,-4959.379811,-12065.356855,1072.533697
571.925983,-3701.029710,-10362.883188,383.047749
571.926310,-1850.514855,-8660.409521,-612.876398
571.926638,-1184.329507,-7846.182985,-383.047749
571.926965,-962.267725,-7105.977043,-1149.143247
571.927292,-1406.391290,-6661.853478,-1762.019645
571.927620,-1036.288319,-5995.668130,-2604.724693
571.927947,592.164754,-6735.874072,-1991.848295
571.928274,2294.638420,-7550.100608,-689.485948
571.928602,2812.782580,-8364.327145,0.000000
571.928929,2072.576638,-10140.821405,995.924147
571.929257,740.205942,-11917.315666,1915.238745
571.929584,-1110.308913,-12435.459826,1685.410096
571.929911,-2812.782580,-11547.212695,919.314598
571.930239,-2368.659014,-11991.336260,383.047749
571.930566,-1776.494261,-10881.027347,0.000000
571.930894,0.000000,-9030.512492,-612.876398
571.931221,888.247130,-7920.203579,-842.705048
571.931548,1110.308913,-7550.100608,-1225.752797
571.931876,740.205942,-7402.059420,-1991.848295
571.932203,0.000000,-7698.141797,-2451.505594
571.932530,740.205942,-7920.203579,-2221.676944
571.932858,2738.761985,-8660.409521,-1532.190996
571.933185,3404.947333,-8290.306550,-612.876398
571.933513,4145.153275,-9474.636058,919.314598
571.933840,2960.823768,-11473.192101,2298.286494
571.934167,814.226536,-11843.295072,2451.505594
571.934495,-1924.535449,-11769.274478,1915.238745
571.934822,-2960.823768,-12435.459826,1532.190996
571.935149,-3108.864956,-11103.089130,1838.629195
571.935477,-1110.308913,-9918.759623,1225.752797
571.935804,-592.164754,-8142.265362,995.924147
571.936132,0.000000,-8068.244768,1072.533697
571.936459,-814.226536,-7254.018232,383.047749
571.936786,-888.247130,-6439.791695,0.000000
571.937114,-1332.370696,-5847.626942,-1149.143247
571.937441,444.123565,-6735.874072,-459.657299
571.937769,2072.576638,-7476.080014,919.314598
571.938096,2442.679609,-7476.080014,1838.629195
571.938423,1850.514855,-9622.677246,3447.429741
571.938751,592.164754,-10362.883188,4060.306139
571.939078,-2886.803174,-11325.150913,3600.648841
571.939405,-5403.503377,-11991.336260,2451.505594
571.939733,-5773.606348,-11991.336260,1762.019645
571.940060,-4737.318029,-10288.862594,1455.581446
571.940387,-2812.782580,-7772.162391,842.705048
571.940715,-1702.473667,-7994.224174,766.095498
571.941042,-1184.329507,-7846.182985,612.876398
571.941369,-2146.597232,-6883.915261,-689.485948
571.941697,-2516.700203,-5847.626942,-1608.800546
571.942024,-1258.350101,-5921.647536,-1532.190996
571.942351,1258.350101,-6661.853478,-919.314598
571.942679,2812.782580,-7105.977043,306.438199
571.943006,3552.988522,-8438.347739,1532.190996
571.943333,3404.947333,-9992.780217,2757.943793
571.943661,1554.432478,-10584.944971,3370.820191
571.943988,-888.247130,-11177.109724,2298.286494
571.944316,-2146.597232,-13027.624579,1685.410096
571.944643,-2146.597232,-12509.480420,306.438199
571.944970,-296.082377,-10436.903782,459.657299
571.945298,962.267725,-8882.471304,153.219100
571.945625,2294.638420,-9104.533087,612.876398
571.945952,1258.350101,-8586.388927,-459.657299
571.946280,888.247130,-7476.080014,-1225.752797
571.946607,370.102971,-7698.141797,-2451.505594
571.946934,1850.514855,-7920.203579,-1991.848295
571.947262,2516.700203,-7254.018232,-2068.457845
571.947589,3330.926739,-7698.141797,-536.266849
571.947916,3404.947333,-10066.800811,1072.533697
571.948244,1406.391290,-11325.150913,2068.457845
571.948571,-1036.288319,-11695.253884,1762.019645
571.948898,-2812.782580,-12583.501014,919.314598
571.949226,-3849.070898,-12953.603985,1072.533697
571.949553,-3330.926739,-11621.233289,766.095498
571.949880,-2294.638420,-9696.697840,153.219100
571.950208,-1332.370696,-9252.574275,536.266849
571.950535,-1184.329507,-8290.306550,689.485948
571.950862,-2146.597232,-7105.977043,-919.314598
571.951190,-2146.597232,-5995.668130,-1991.848295
571.951517,-1258.350101,-6143.709319,-2145.067394
571.951844,1184.329507,-6217.729913,-1532.190996
571.952172,1850.514855,-5773.606348,-1149.143247
571.952499,2368.659014,-7328.038826,1608.800546
571.952826,1184.329507,-9400.615463,1532.190996
571.953154,-740.205942,-10436.903782,1915.238745
571.953481,-2886.803174,-11251.130318,1302.362347
571.953809,-3552.988522,-12361.439231,1532.190996
571.954136,-2294.638420,-11399.171507,1532.190996
571.954463,-1480.411884,-9474.636058,1225.752797
571.954791,370.102971,-8808.450710,1608.800546
571.955118,0.000000,-8734.430116,1072.533697
571.955445,148.041188,-7624.121203,459.657299
571.955773,-1776.494261,-6069.688724,-1685.410096
571.956100,148.041188,-6291.750507,-995.924147
571.956427,2368.659014,-6365.771101,-459.657299
571.956755,4515.256246,-6069.688724,229.828649
571.957082,5625.565159,-7105.977043,1685.410096
571.957409,4589.276840,-9252.574275,3140.991542
571.957737,1998.556043,-10140.821405,3600.648841
571.958064,-1332.370696,-11473.192101,2681.334243
571.958391,-2812.782580,-12435.459826,2528.115143
571.958719,-3108.864956,-12731.542202,1915.238745
571.959046,-2294.638420,-11251.130318,1302.362347
571.959373,-1998.556043,-9696.697840,1072.533697
571.959701,-1406.391290,-9252.574275,995.924147
571.960028,-1406.391290,-7772.162391,306.438199
571.960355,-3108.864956,-6291.750507,-1072.533697
571.960683,-1702.473667,-6365.771101,-1532.190996
571.961010,-1110.308913,-6143.709319,-1608.800546
571.961337,1036.288319,-6587.832884,-689.485948
571.961665,1480.411884,-7254.018232,0.000000
571.961992,814.226536,-9770.718434,1838.629195
571.962319,-1184.329507,-11325.150913,2221.676944
571.962647,-2738.761985,-11695.253884,2451.505594
571.962974,-3627.009116,-12583.501014,1302.362347
571.963302,-3182.885551,-12657.521608,1991.848295
571.963629,-1406.391290,-11325.150913,1685.410096
571.963956,-370.102971,-9770.718434,1302.362347
571.964284,444.123565,-9770.718434,1225.752797
571.964611,-296.082377,-9104.533087,0.000000
571.964938,-888.247130,-8142.265362,-689.485948
571.965266,-1406.391290,-7476.080014,-1762.019645
571.965593,592.164754,-7846.182985,-1608.800546
571.965920,2368.659014,-7476.080014,-842.705048
571.966248,3627.009116,-7105.977043,-383.047749
571.966575,4071.132681,-8956.491898,689.485948
571.966902,2294.638420,-10881.027347,1532.190996
571.967230,-370.102971,-11547.212695,1302.362347
571.967557,-2590.720797,-11917.315666,766.095498
571.967884,-1998.556043,-11843.295072,1532.190996
571.968212,-962.267725,-11325.150913,919.314598
571.968539,-370.102971,-9770.718434,995.924147
571.968866,222.061783,-9474.636058,689.485948
571.969194,-592.164754,-9622.677246,766.095498
571.969521,-814.226536,-7624.121203,-153.219100
571.969848,-1332.370696,-6883.915261,-1302.362347
571.970176,296.082377,-7254.018232,-1455.581446
571.970503,1702.473667,-7550.100608,-995.924147
571.970830,2738.761985,-7328.038826,0.000000
571.971158,3108.864956,-7031.956449,995.924147
571.971485,2220.617826,-9178.553681,1378.971896
571.971812,0.000000,-10288.862594,1685.410096
571.972140,-2516.700203,-10732.986159,1149.143247
571.972467,-2812.782580,-11251.130318,995.924147
571.972795,-1776.494261,-9770.718434,1455.581446
571.973122,74.020594,-8586.388927,1762.019645
571.973449,-296.082377,-7846.182985,1685.410096
571.973777,-370.102971,-8586.388927,1685.410096
571.974104,-1554.432478,-8364.327145,919.314598
571.974431,-3108.864956,-6809.894666,-153.219100
571.974759,-1924.535449,-6661.853478,-229.828649
571.975086,-740.205942,-6809.894666,-153.219100
571.975413,1702.473667,-6587.832884,536.266849
571.975741,2072.576638,-6365.771101,842.705048
571.976068,2072.576638,-7254.018232,1838.629195
571.976395,0.000000,-9252.574275,1608.800546
571.976723,-3478.967927,-9252.574275,1225.752797
571.977050,-3775.050304,-10436.903782,459.657299
571.977377,-2664.741391,-10362.883188,842.705048
571.977705,-370.102971,-9326.594869,1149.143247
571.978032,518.144159,-8142.265362,842.705048
571.978359,518.144159,-8512.368333,1532.190996
571.978687,0.000000,-9252.574275,919.314598
571.979014,-962.267725,-8660.409521,153.219100
571.979341,-2220.617826,-8882.471304,-1149.143247
571.979669,-1406.391290,-10436.903782,-459.657299
571.979996,0.000000,-9326.594869,-459.657299
571.980323,2220.617826,-8734.430116,0.000000
571.980651,2812.782580,-9326.594869,459.657299
571.980978,1924.535449,-11325.150913,1225.752797
571.981305,0.000000,-11251.130318,689.485948
571.981633,-1776.494261,-11029.068536,0.000000
571.981960,-1998.556043,-11695.253884,-612.876398
571.982288,-1406.391290,-11325.150913,-536.266849
571.982615,-296.082377,-10214.842000,-383.047749
571.982942,962.267725,-9770.718434,153.219100
571.983270,2146.597232,-9918.759623,842.705048
571.983597,1036.288319,-8956.491898,0.000000
571.983924,-296.082377,-8586.388927,76.609550
571.984252,-518.144159,-9696.697840,-536.266849
571.984579,148.041188,-9770.718434,-306.438199
571.984906,1554.432478,-8956.491898,76.609550
571.985234,1628.453072,-9178.553681,1072.533697
571.985561,1628.453072,-11177.109724,2145.067394
571.985888,-296.082377,-11621.233289,2145.067394
571.986216,-2146.597232,-11103.089130,1608.800546
571.986543,-2664.741391,-11251.130318,1225.752797
571.986870,-2146.597232,-10807.006753,1762.019645
571.987198,-1480.411884,-10066.800811,1072.533697
571.987525,-1036.288319,-9252.574275,1225.752797
571.987852,-740.205942,-9030.512492,1378.971896
571.988180,-888.247130,-8142.265362,1608.800546
571.988507,-1776.494261,-7031.956449,919.314598
571.988834,-2590.720797,-7402.059420,0.000000
571.989162,-1776.494261,-7772.162391,-229.828649
571.989489,-518.144159,-6957.935855,0.000000
571.989816,-148.041188,-6439.791695,229.828649
571.990144,518.144159,-8216.285956,1532.190996
571.990471,-814.226536,-8290.306550,1302.362347
571.990798,-2146.597232,-8660.409521,1072.533697
571.991126,-2886.803174,-8956.491898,536.266849
571.991453,-2368.659014,-9770.718434,536.266849
571.991781,-666.185348,-8660.409521,919.314598
571.992108,518.144159,-7105.977043,919.314598
571.992435,1998.556043,-7624.121203,1149.143247
571.992763,1776.494261,-7920.203579,1532.190996
571.993090,666.185348,-7254.018232,919.314598
571.993417,-370.102971,-7031.956449,306.438199
571.993745,444.123565,-7476.080014,229.828649
571.994072,1776.494261,-7846.182985,612.876398
571.994399,2516.700203,-7254.018232,536.266849
571.994727,2960.823768,-8438.347739,1532.190996
571.995054,2220.617826,-9474.636058,2068.457845
571.995381,370.102971,-9326.594869,995.924147
571.995709,-1406.391290,-9104.533087,459.657299
571.996036,-2368.659014,-9918.759623,-153.219100
571.996363,-1554.432478,-9622.677246,0.000000
571.996691,-888.247130,-7476.080014,-612.876398
571.997018,518.144159,-7031.956449,-229.828649
571.997345,444.123565,-7254.018232,306.438199
571.997673,222.061783,-7105.977043,153.219100
571.998000,-1480.411884,-6809.894666,-766.095498
571.998327,-1258.350101,-7846.182985,-919.314598
571.998655,-1184.329507,-8142.265362,-766.095498
571.998982,0.000000,-7772.162391,-383.047749
571.999309,666.185348,-9326.594869,0.000000
571.999637,740.205942,-11103.089130,1455.581446
571.999964,-888.247130,-11621.233289,1532.190996
572.000291,-2220.617826,-11621.233289,842.705048
572.000619,-2886.803174,-11843.295072,536.266849
572.000946,-2072.576638,-11991.336260,0.000000
572.001274,-1554.432478,-10881.027347,-766.095498
572.001601,-666.185348,-9474.636058,-1378.971896
572.001928,0.000000,-10066.800811,-919.314598
572.002256,814.226536,-9252.574275,-383.047749
572.002583,-222.061783,-8290.306550,-1455.581446
572.002910,148.041188,-8808.450710,-919.314598
572.003238,1110.308913,-9844.739029,-229.828649
572.003565,1998.556043,-9474.636058,536.266849
572.003892,2368.659014,-9474.636058,1378.971896
572.004220,2220.617826,-11251.130318,2374.896044
572.004547,296.082377,-12435.459826,2451.505594
572.004874,-1554.432478,-11769.274478,1685.410096
572.005202,-2368.659014,-11843.295072,1072.533697
572.005529,-1702.473667,-11325.150913,1378.971896
572.005856,74.020594,-10140.821405,1608.800546
572.006184,1258.350101,-8290.306550,1225.752797
572.006511,2368.659014,-8586.388927,1455.581446
572.006838,1998.556043,-8586.388927,1532.190996
572.007166,1332.370696,-8216.285956,1378.971896
572.007493,-296.082377,-8660.409521,1532.190996
572.007820,-148.041188,-9770.718434,1378.971896
572.008148,370.102971,-9992.780217,1991.848295
572.008475,1110.308913,-9474.636058,2681.334243
572.008802,444.123565,-9770.718434,3294.210641
572.009130,-814.226536,-11177.109724,3830.477490
572.009457,-3330.926739,-10732.986159,2528.115143
572.009784,-5551.544565,-10140.821405,1608.800546
572.010112,-5699.585753,-9844.739029,383.047749
572.010439,-4441.235652,-9178.553681,229.828649
572.010767,-2664.741391,-6661.853478,536.266849
572.011094,-1332.370696,-6439.791695,-153.219100
572.011421,-740.205942,-6957.935855,536.266849
572.011749,-1480.411884,-6291.750507,0.000000
572.012076,-1850.514855,-5255.462188,-612.876398
572.012403,-1258.350101,-5995.668130,-842.705048
572.012731,444.123565,-6587.832884,0.000000
572.013058,1924.535449,-6513.812290,536.266849
572.013385,1702.473667,-7402.059420,1302.362347
572.013713,1480.411884,-9918.759623,2528.115143
572.014040,-444.123565,-10807.006753,1991.848295
572.014367,-2294.638420,-10288.862594,383.047749
572.014695,-2516.700203,-10362.883188,0.000000
572.015022,-1332.370696,-9918.759623,-842.705048
572.015349,888.247130,-7624.121203,-1302.362347
572.015677,2294.638420,-5773.606348,-1532.190996
572.016004,4293.194464,-6883.915261,0.000000
572.016331,3923.091493,-6439.791695,-536.266849
572.016659,2516.700203,-6365.771101,-919.314598
572.016986,592.164754,-7698.141797,-1532.190996
572.017313,296.082377,-9474.636058,-842.705048
572.017641,1258.350101,-9548.656652,76.609550
572.017968,2146.597232,-9030.512492,1072.533697
572.018295,2368.659014,-10510.924376,2145.067394
572.018623,1036.288319,-11399.171507,2298.286494
572.018950,-1110.308913,-11251.130318,1838.629195
572.019277,-3701.029710,-10807.006753,0.000000
572.019605,-3627.009116,-10881.027347,-612.876398
572.019932,-2738.761985,-9474.636058,-1532.190996
572.020260,-1406.391290,-7698.141797,-1608.800546
572.020587,444.123565,-7994.224174,-1608.800546
572.020914,888.247130,-8068.244768,-536.266849
572.021242,740.205942,-7328.038826,-229.828649
572.021569,-1110.308913,-7846.182985,-612.876398
572.021896,-1554.432478,-10658.965565,-459.657299
572.022224,-1258.350101,-11177.109724,0.000000
572.022551,0.000000,-10658.965565,919.314598
572.022878,962.267725,-10881.027347,1685.410096
572.023206,888.247130,-11621.233289,3294.210641
572.023533,-740.205942,-12065.356855,3064.381992
572.023860,-2738.761985,-11029.068536,1991.848295
572.024188,-3256.906145,-11399.171507,1072.533697
572.024515,-2294.638420,-10214.842000,229.828649
572.024842,-1332.370696,-8734.430116,0.000000
572.025170,0.000000,-7550.100608,-689.485948
572.025497,2072.576638,-8142.265362,536.266849
572.025824,1480.411884,-7476.080014,383.047749
572.026152,1258.350101,-6735.874072,306.438199
572.026479,1258.350101,-7476.080014,689.485948
572.026806,2294.638420,-8956.491898,1302.362347
572.027134,2072.576638,-9474.636058,2145.067394
572.027461,1480.411884,-10066.800811,2681.334243
572.027788,74.020594,-12065.356855,3294.210641
572.028116,-1184.329507,-11991.336260,3294.210641
572.028443,-3256.906145,-10881.027347,2681.334243
572.028770,-4219.173869,-10955.047942,1991.848295
572.029098,-2886.803174,-9918.759623,1149.143247
572.029425,-1702.473667,-7772.162391,919.314598
572.029753,-1258.350101,-5551.544565,-229.828649
572.030080,0.000000,-6439.791695,0.000000
572.030407,-592.164754,-5995.668130,-459.657299
572.030735,-1332.370696,-5181.441594,-842.705048
572.031062,-1554.432478,-6439.791695,-1302.362347
572.031389,-740.205942,-7772.162391,0.000000
572.031717,444.123565,-7402.059420,1378.971896
572.032044,1628.453072,-8290.306550,1608.800546
572.032371,1628.453072,-9918.759623,2834.553343
572.032699,-370.102971,-11399.171507,3140.991542
572.033026,-2516.700203,-11473.192101,2221.676944
572.033353,-3997.112087,-10584.944971,1532.190996
572.033681,-2368.659014,-10658.965565,842.705048
572.034008,-814.226536,-8882.471304,0.000000
572.034335,814.226536,-7328.038826,-229.828649
572.034663,1184.329507,-7550.100608,-1072.533697
572.034990,1184.329507,-7846.182985,-1455.581446
572.035317,592.164754,-7105.977043,-2145.067394
572.035645,-370.102971,-6439.791695,-2681.334243
572.035972,1776.494261,-7920.203579,-1838.629195
572.036299,2960.823768,-8808.450710,-612.876398
572.036627,3997.112087,-8956.491898,612.876398
572.036954,3330.926739,-9770.718434,1762.019645
572.037281,1998.556043,-11621.233289,2451.505594
572.037609,-592.164754,-11843.295072,2145.067394
572.037936,-3034.844362,-11991.336260,612.876398
572.038263,-3997.112087,-12657.521608,229.828649
572.038591,-3256.906145,-10881.027347,0.000000
572.038918,-1036.288319,-8142.265362,-612.876398
572.039246,592.164754,-7031.956449,-689.485948
572.039573,1776.494261,-7550.100608,0.000000
572.039900,592.164754,-7328.038826,-842.705048
572.040228,-444.123565,-6513.812290,-1455.581446
572.040555,-962.267725,-7476.080014,-1991.848295
572.040883,0.000000,-9030.512492,-766.095498
572.041210,888.247130,-8882.471304,229.828649
572.041538,1554.432478,-9696.697840,1608.800546
572.041865,2294.638420,-11473.192101,3140.991542
572.042193,666.185348,-11843.295072,3830.477490
572.042520,-2072.576638,-11843.295072,2911.162892
572.042848,-3552.988522,-12065.356855,1991.848295
572.043175,-4071.132681,-11843.295072,1149.143247
572.043503,-2960.823768,-10066.800811,536.266849
572.043830,-1480.411884,-7846.182985,306.438199
572.044158,740.205942,-6957.935855,229.828649
572.044485,1110.308913,-6587.832884,229.828649
572.044813,1036.288319,-6291.750507,153.219100
572.045140,-296.082377,-6809.894666,-536.266849
572.045468,1332.370696,-7476.080014,612.876398
572.045795,1554.432478,-7994.224174,919.314598
572.046123,2146.597232,-8364.327145,1762.019645
572.046451,1776.494261,-9918.759623,2681.334243
572.046778,1110.308913,-11399.171507,4213.525239
572.047106,-666.185348,-11177.109724,3907.087040
572.047433,-3034.844362,-10584.944971,2834.553343
572.047761,-3552.988522,-11473.192101,1685.410096
572.048088,-3701.029710,-10510.924376,995.924147
572.048416,-3034.844362,-8660.409521,-306.438199
572.048743,-1998.556043,-7254.018232,-766.095498
572.049071,-444.123565,-7254.018232,-919.314598
572.049398,-370.102971,-6217.729913,-1225.752797
572.049726,-1184.329507,-6217.729913,-1838.629195
572.050053,-222.061783,-7105.977043,-1532.190996
572.050381,370.102971,-7550.100608,-1838.629195
572.050708,1480.411884,-7402.059420,76.609550
572.051036,1998.556043,-8512.368333,995.924147
572.051363,1480.411884,-10658.965565,2068.457845
572.051691,-518.144159,-11029.068536,2451.505594
572.052018,-2368.659014,-11325.150913,1838.629195
572.052346,-3108.864956,-11177.109724,1149.143247
572.052673,-2442.679609,-11029.068536,689.485948
572.053001,-1110.308913,-9326.594869,153.219100
572.053328,518.144159,-7550.100608,-383.047749
572.053656,1480.411884,-7698.141797,-612.876398
572.053983,2072.576638,-7254.018232,-995.924147
572.054311,1480.411884,-6809.894666,-1762.019645
572.054638,518.144159,-7476.080014,-2528.115143
572.054966,1406.391290,-9178.553681,-1378.971896
572.055293,2886.803174,-8586.388927,-842.705048
572.055621,2664.741391,-9474.636058,229.828649
572.055948,3478.967927,-10881.027347,1915.238745
572.056276,1776.494261,-12287.418637,2528.115143
572.056604,-962.267725,-12139.377449,2451.505594
572.056931,-3034.844362,-12213.398043,1378.971896
572.057259,-3182.885551,-12213.398043,1685.410096
572.057586,-2220.617826,-10881.027347,1225.752797
572.057914,-1258.350101,-9548.656652,153.219100
572.058241,-666.185348,-9252.574275,0.000000
572.058569,-518.144159,-9178.553681,0.000000
572.058896,-1258.350101,-8068.244768,-919.314598
572.059224,-1998.556043,-7031.956449,-1608.800546
572.059551,0.000000,-7476.080014,-1455.581446
572.059879,1628.453072,-7698.141797,-919.314598
572.060206,2220.617826,-8142.265362,0.000000
572.060534,2960.823768,-9252.574275,1302.362347
572.060861,1998.556043,-11251.130318,2757.943793
572.061189,-222.061783,-11473.192101,3524.039291
572.061516,-3256.906145,-12065.356855,2221.676944
572.061844,-3627.009116,-12805.562797,2068.457845
572.062171,-3552.988522,-11769.274478,1608.800546
572.062499,-1480.411884,-9622.677246,1149.143247
572.062826,-444.123565,-8290.306550,766.095498
572.063154,888.247130,-7698.141797,919.314598
572.063481,74.020594,-6809.894666,-229.828649
572.063809,-296.082377,-5921.647536,-1072.533697
572.064136,0.000000,-5921.647536,-1685.410096
572.064464,592.164754,-6439.791695,-383.047749
572.064791,2368.659014,-6735.874072,0.000000
572.065119,2516.700203,-6809.894666,919.314598
572.065446,2368.659014,-9104.533087,2451.505594
572.065774,296.082377,-10584.944971,2834.553343
572.066101,-2146.597232,-9622.677246,3140.991542
572.066429,-3849.070898,-10955.047942,2221.676944
572.066757,-2812.782580,-10807.006753,2145.067394
572.067084,-1850.514855,-9252.574275,1532.190996
572.067412,-962.267725,-7550.100608,1225.752797
572.067739,-296.082377,-7550.100608,306.438199
572.068067,-962.267725,-6809.894666,536.266849
572.068394,-1702.473667,-5403.503377,-1072.533697
572.068722,-1332.370696,-5107.421000,-1838.629195
572.069049,0.000000,-6513.812290,-1532.190996
572.069377,888.247130,-7105.977043,-1302.362347
572.069704,1036.288319,-7328.038826,153.219100
572.070032,1554.432478,-9326.594869,1608.800546
572.070359,296.082377,-10436.903782,2145.067394
572.070687,-1850.514855,-11547.212695,1838.629195
572.071014,-3627.009116,-11399.171507,1455.581446
572.071342,-3034.844362,-10955.047942,1302.362347
572.071669,-1776.494261,-9770.718434,919.314598
572.071997,-370.102971,-8142.265362,842.705048
572.072324,148.041188,-7698.141797,383.047749
572.072652,296.082377,-7920.203579,229.828649
572.072979,-666.185348,-7031.956449,-612.876398
572.073307,-1924.535449,-6957.935855,-2451.505594
572.073634,-1258.350101,-8290.306550,-2298.286494
572.073962,888.247130,-8512.368333,-1378.971896
572.074289,2590.720797,-8068.244768,-229.828649
572.074617,4145.153275,-8586.388927,612.876398
572.074944,3552.988522,-10955.047942,2145.067394
572.075272,1036.288319,-12435.459826,2451.505594
572.075599,-1924.535449,-12139.377449,1762.019645
572.075927,-2220.617826,-13545.768739,1455.581446
572.076254,-2072.576638,-12953.603985,1072.533697
572.076582,-740.205942,-11399.171507,1302.362347
572.076910,0.000000,-10510.924376,1225.752797
572.077237,666.185348,-9770.718434,1378.971896
572.077565,296.082377,-8660.409521,842.705048
572.077892,-962.267725,-7624.121203,-919.314598
572.078220,-1924.535449,-7698.141797,-2145.067394
572.078547,-370.102971,-8216.285956,-1838.629195
572.078875,888.247130,-7624.121203,-1455.581446
572.079202,2368.659014,-7254.018232,-153.219100
572.079530,3256.906145,-9178.553681,1378.971896
572.079857,2146.597232,-10510.924376,2374.896044
572.080185,-518.144159,-10436.903782,2451.505594
572.080512,-2664.741391,-11251.130318,1762.019645
572.080840,-3256.906145,-12139.377449,1455.581446
572.081167,-2886.803174,-11325.150913,1455.581446
572.081495,-2220.617826,-9844.739029,1455.581446
572.081822,-666.185348,-9474.636058,1302.362347
572.082150,-666.185348,-8734.430116,919.314598
572.082477,-962.267725,-7920.203579,306.438199
572.082805,-1998.556043,-7105.977043,-1455.581446
572.083132,-1480.411884,-7846.182985,-1378.971896
572.083460,962.267725,-7698.141797,-689.485948
572.083787,2146.597232,-7254.018232,-536.266849
572.084115,3034.844362,-8660.409521,689.485948
572.084442,1998.556043,-9992.780217,1532.190996
572.084770,518.144159,-10362.883188,1838.629195
572.085097,-1850.514855,-9844.739029,995.924147
572.085425,-1850.514855,-11103.089130,1302.362347
572.085752,-1554.432478,-10807.006753,1149.143247
572.086080,-1258.350101,-9252.574275,766.095498
572.086407,-666.185348,-8512.368333,842.705048
572.086735,0.000000,-7994.224174,1225.752797
572.087063,222.061783,-6809.894666,153.219100
572.087390,-814.226536,-5773.606348,-536.266849
572.087718,-148.041188,-6587.832884,-995.924147
572.088045,888.247130,-6513.812290,-995.924147
572.088373,1702.473667,-5699.585753,-459.657299
572.088700,3330.926739,-6217.729913,383.047749
572.089028,2886.803174,-8660.409521,1378.971896
572.089355,1702.473667,-9992.780217,1991.848295
572.089683,-962.267725,-9918.759623,1378.971896
572.090010,-2368.659014,-11547.212695,612.876398
572.090338,-2368.659014,-11843.295072,1532.190996
572.090665,-962.267725,-10955.047942,1532.190996
572.090993,-444.123565,-9696.697840,1302.362347
572.091320,0.000000,-9844.739029,1455.581446
572.091648,-1258.350101,-9252.574275,689.485948
572.091975,-2368.659014,-7105.977043,-229.828649
572.092303,-2220.617826,-7179.997637,-842.705048
572.092630,-1480.411884,-7105.977043,-1225.752797
572.092958,296.082377,-6587.832884,-766.095498
572.093285,444.123565,-6809.894666,-612.876398
572.093613,740.205942,-8142.265362,306.438199
572.093940,-296.082377,-9770.718434,612.876398
572.094268,-1924.535449,-9918.759623,919.314598
572.094595,-2812.782580,-10584.944971,766.095498
572.094923,-1628.453072,-11695.253884,995.924147
572.095250,0.000000,-10214.842000,1532.190996
572.095578,370.102971,-9252.574275,1455.581446
572.095905,814.226536,-9252.574275,1455.581446
572.096233,148.041188,-9622.677246,1455.581446
572.096560,-814.226536,-8808.450710,229.828649
572.096888,-1184.329507,-8068.244768,-459.657299
572.097215,148.041188,-8438.347739,-229.828649
572.097543,1850.514855,-7920.203579,153.219100
572.097871,2294.638420,-7920.203579,459.657299
572.098198,2368.659014,-8956.491898,995.924147
572.098526,1406.391290,-10732.986159,1378.971896
572.098853,-1036.288319,-10584.944971,842.705048
572.099181,-2368.659014,-10807.006753,689.485948
572.099508,-1998.556043,-11769.274478,766.095498
572.099836,-1036.288319,-11103.089130,995.924147
572.100163,296.082377,-9548.656652,1532.190996
572.100491,444.123565,-8290.306550,1762.019645
572.100818,222.061783,-8956.491898,995.924147
572.101146,-518.144159,-8068.244768,766.095498
572.101473,-2442.679609,-6883.915261,-459.657299
572.101801,-1850.514855,-7772.162391,-459.657299
572.102128,-296.082377,-7920.203579,0.000000
572.102456,1110.308913,-7031.956449,306.438199
572.102783,1036.288319,-7476.080014,1149.143247
572.103111,1036.288319,-9622.677246,1685.410096
572.103438,-148.041188,-10658.965565,1455.581446
572.103766,-2516.700203,-9992.780217,0.000000
572.104093,-2812.782580,-10436.903782,-153.219100
572.104421,-1332.370696,-10955.047942,153.219100
572.104748,-444.123565,-9326.594869,229.828649
572.105076,0.000000,-8882.471304,383.047749
572.105403,888.247130,-9400.615463,1149.143247
572.105731,518.144159,-9030.512492,1378.971896
572.106058,-814.226536,-8438.347739,229.828649
572.106386,-1702.473667,-8438.347739,-459.657299
572.106713,-444.123565,-9326.594869,76.609550
572.107041,592.164754,-8956.491898,229.828649
572.107368,1332.370696,-7994.224174,0.000000
572.107696,1776.494261,-8956.491898,1532.190996
572.108024,370.102971,-9696.697840,1532.190996
572.108351,-740.205942,-9696.697840,842.705048
572.108679,-2368.659014,-9400.615463,0.000000
572.109006,-1702.473667,-9770.718434,76.609550
572.109334,-666.185348,-9400.615463,0.000000
572.109661,296.082377,-8438.347739,229.828649
572.109989,1036.288319,-8364.327145,612.876398
572.110316,1332.370696,-9030.512492,1302.362347
572.110644,0.000000,-8586.388927,1072.533697
572.110971,-1406.391290,-8512.368333,0.000000
572.111299,-2146.597232,-10140.821405,0.000000
572.111626,-1184.329507,-9696.697840,0.000000
572.111954,222.061783,-8364.327145,76.609550
572.112281,962.267725,-8438.347739,536.266849
572.112609,1332.370696,-9474.636058,1302.362347
572.112936,444.123565,-9474.636058,1685.410096
572.113264,-1258.350101,-8808.450710,919.314598
572.113591,-1702.473667,-9548.656652,612.876398
572.113919,-1554.432478,-9474.636058,0.000000
572.114246,518.144159,-8586.388927,766.095498
572.114574,444.123565,-7994.224174,153.219100
572.114901,1406.391290,-8660.409521,1532.190996
572.115229,296.082377,-8808.450710,1455.581446
572.115556,-1110.308913,-8808.450710,1455.581446
572.115884,-1628.453072,-9400.615463,612.876398
572.116211,-888.247130,-9696.697840,459.657299
572.116539,0.000000,-9030.512492,612.876398
572.116866,222.061783,-9030.512492,689.485948
572.117194,592.164754,-9770.718434,1455.581446
572.117521,148.041188,-9548.656652,1532.190996
572.117849,-814.226536,-9030.512492,995.924147
572.118177,-1850.514855,-9548.656652,76.609550
572.118504,-1258.350101,-10362.883188,229.828649
572.118832,-296.082377,-9400.615463,0.000000
572.119159,-370.102971,-8586.388927,153.219100
572.119487,666.185348,-9474.636058,229.828649
572.119814,-222.061783,-9474.636058,612.876398
572.120142,-518.144159,-8882.471304,766.095498
572.120469,-1850.514855,-8512.368333,-383.047749
572.120797,-592.164754,-9474.636058,229.828649
572.121124,-148.041188,-8734.430116,383.047749
572.121452,1184.329507,-7994.224174,612.876398
572.121779,1036.288319,-8660.409521,842.705048
572.122107,814.226536,-9400.615463,1072.533697
572.122434,-740.205942,-9326.594869,76.609550
572.122762,-2072.576638,-9252.574275,-612.876398
572.123089,-1628.453072,-9622.677246,-459.657299
572.123417,-740.205942,-9326.594869,-76.609550
572.123744,740.205942,-8364.327145,0.000000
572.124072,1258.350101,-8734.430116,153.219100
572.124399,1110.308913,-10066.800811,995.924147
572.124727,-592.164754,-9178.553681,1378.971896
572.125054,-1036.288319,-8956.491898,-229.828649
572.125382,-740.205942,-9474.636058,0.000000
572.125709,1036.288319,-8956.491898,306.438199
572.126037,2220.617826,-8216.285956,919.314598
572.126364,2812.782580,-7994.224174,1762.019645
572.126692,2072.576638,-9326.594869,2221.676944
572.127019,370.102971,-9622.677246,2145.067394
572.127347,-2664.741391,-9252.574275,383.047749
572.127674,-3627.009116,-10807.006753,0.000000
572.128002,-2886.803174,-10066.800811,-459.657299
572.128330,-1850.514855,-8660.409521,0.000000
572.128657,-592.164754,-7772.162391,0.000000
572.128985,518.144159,-8512.368333,689.485948
572.129312,222.061783,-8290.306550,766.095498
572.129640,-888.247130,-7624.121203,459.657299
572.129967,-1924.535449,-7846.182985,-306.438199
572.130295,-1332.370696,-8808.450710,0.000000
572.130622,-592.164754,-8438.347739,383.047749
572.130950,666.185348,-7920.203579,766.095498
572.131277,1332.370696,-9030.512492,1762.019645
572.131605,666.185348,-9844.739029,2757.943793
572.131932,-1480.411884,-9770.718434,1685.410096
572.132260,-3330.926739,-10362.883188,689.485948
572.132587,-3256.906145,-10955.047942,0.000000
572.132915,-1702.473667,-9474.636058,-459.657299
572.133242,-222.061783,-7994.224174,0.000000
572.133570,2146.597232,-8808.450710,459.657299
572.133897,1998.556043,-8660.409521,842.705048
572.134225,1554.432478,-7920.203579,1225.752797
572.134552,444.123565,-7624.121203,153.219100
572.134880,814.226536,-8808.450710,995.924147
572.135207,1702.473667,-9030.512492,919.314598
572.135535,1480.411884,-8956.491898,1455.581446
572.135862,962.267725,-10140.821405,2068.457845
572.136190,666.185348,-11029.068536,3064.381992
572.136517,-1554.432478,-10066.800811,2757.943793
572.136845,-2294.638420,-9918.759623,689.485948
572.137172,-3108.864956,-10584.944971,306.438199
572.137500,-2516.700203,-9770.718434,0.000000
572.137827,-1554.432478,-7920.203579,-459.657299
572.138155,-1036.288319,-7772.162391,-612.876398
572.138482,370.102971,-8290.306550,-612.876398
572.138810,0.000000,-8142.265362,-536.266849
572.139137,-740.205942,-7105.977043,-612.876398
572.139465,-296.082377,-8142.265362,-383.047749
572.139792,962.267725,-8290.306550,229.828649
572.140120,1258.350101,-8512.368333,995.924147
572.140447,1554.432478,-9622.677246,1762.019645
572.140775,1036.288319,-10510.924376,2451.505594
572.141102,-370.102971,-10732.986159,2451.505594
572.141429,-2146.597232,-10436.903782,1991.848295
572.141757,-2294.638420,-11399.171507,1762.019645
572.142084,-740.205942,-10955.047942,1838.629195
572.142412,740.205942,-9474.636058,1685.410096
572.142739,1628.453072,-8068.244768,1532.190996
572.143067,2590.720797,-9178.553681,1302.362347
572.143394,962.267725,-9178.553681,842.705048
572.143722,148.041188,-8364.327145,459.657299
572.144049,-370.102971,-8882.471304,76.609550
572.144377,888.247130,-8956.491898,1225.752797
572.144704,1924.535449,-8660.409521,2298.286494
572.145031,3256.906145,-8438.347739,3217.601092
572.145359,2812.782580,-10288.862594,4749.792088
572.145686,444.123565,-10955.047942,4903.011187
572.146014,-2738.761985,-10584.944971,3830.477490
572.146341,-5329.482782,-10881.027347,2528.115143
572.146669,-6291.750507,-11843.295072,1532.190996
572.146996,-5625.565159,-10362.883188,1149.143247
572.147324,-3627.009116,-7402.059420,229.828649
572.147651,-1258.350101,-6365.771101,766.095498
572.147978,0.000000,-6957.935855,1225.752797
572.148306,-666.185348,-5995.668130,919.314598
572.148633,-592.164754,-5773.606348,459.657299
572.148961,0.000000,-6513.812290,229.828649
572.149288,0.000000,-8216.285956,1225.752797
572.149616,962.267725,-8660.409521,2374.896044
572.149943,2812.782580,-9252.574275,3907.087040
572.150271,3849.070898,-10436.903782,6435.202183
572.150598,2220.617826,-10807.006753,6894.859482
572.150925,814.226536,-11325.150913,6511.811733
572.151253,148.041188,-11177.109724,5822.325785
572.151580,-370.102971,-10881.027347,5056.230287
572.151908,-962.267725,-9918.759623,4060.306139
572.152235,666.185348,-8512.368333,3370.820191
572.152563,3701.029710,-7254.018232,4136.915689
572.152890,3404.947333,-7179.997637,4673.182538
572.153218,1776.494261,-6957.935855,3907.087040
572.153545,0.000000,-7402.059420,3217.601092
572.153872,-666.185348,-7698.141797,2757.943793
572.154200,-2886.803174,-8660.409521,1991.848295
572.154527,-3552.988522,-9326.594869,1991.848295
572.154855,-3330.926739,-9178.553681,2528.115143
572.155182,-1702.473667,-8808.450710,4366.744339
572.155510,-1628.453072,-8586.388927,5132.839837
572.155837,-3182.885551,-9474.636058,4979.620737
572.156165,-4071.132681,-9696.697840,4060.306139
572.156492,-4737.318029,-9326.594869,2911.162892
572.156820,-5403.503377,-8290.306550,1532.190996
572.157147,-4515.256246,-8438.347739,919.314598
572.157474,-2516.700203,-7994.224174,1532.190996
572.157802,0.000000,-7179.997637,1915.238745
572.158129,2294.638420,-6439.791695,2757.943793
572.158457,3478.967927,-7254.018232,3064.381992
572.158784,3108.864956,-9252.574275,2834.553343
572.159112,1480.411884,-10881.027347,1838.629195
572.159439,0.000000,-12213.398043,1455.581446
572.159767,0.000000,-12583.501014,2451.505594
572.160094,1184.329507,-12583.501014,3140.991542
572.160421,2294.638420,-12435.459826,4290.134789
572.160749,3997.112087,-11621.233289,5209.449386
572.161076,5477.523971,-10658.965565,6205.373534
572.161404,5255.462188,-9400.615463,5592.497135
572.161731,3923.091493,-9622.677246,5362.668486
572.162059,2146.597232,-9918.759623,4136.915689
572.162386,0.000000,-10288.862594,3294.210641
572.162714,-740.205942,-9252.574275,3753.867940
572.163041,148.041188,-9104.533087,3983.696590
572.163368,518.144159,-8438.347739,3907.087040
572.163696,74.020594,-9326.594869,3370.820191
572.164023,-1628.453072,-10140.821405,3294.210641
572.164351,-2960.823768,-9548.656652,2834.553343
572.164678,-3404.947333,-9326.594869,2145.067394
572.165006,-3701.029710,-9548.656652,2145.067394
572.165333,-4367.215058,-9770.718434,1685.410096
572.165661,-5181.441594,-10288.862594,1455.581446
572.165988,-4959.379811,-9326.594869,995.924147
572.166316,-3701.029710,-7179.997637,1608.800546
572.166643,-1480.411884,-6439.791695,2298.286494
572.166970,-148.041188,-7031.956449,2757.943793
572.167298,-518.144159,-7772.162391,2681.334243
572.167625,-1184.329507,-8068.244768,2528.115143
572.167953,0.000000,-7402.059420,3447.429741
572.168280,2294.638420,-7846.182985,4366.744339
572.168608,4811.338623,-8660.409521,5209.449386
572.168935,5255.462188,-10066.800811,5975.544884
572.169263,3627.009116,-10807.006753,6205.373534
572.169590,2072.576638,-11769.274478,6358.592633
572.169917,666.185348,-10584.944971,5439.278036
572.170245,740.205942,-9770.718434,4903.011187
572.170572,2886.803174,-9622.677246,5209.449386
572.170900,2738.761985,-9326.594869,3907.087040
572.171227,-444.123565,-9326.594869,4443.353888
572.171555,-888.247130,-8956.491898,3140.991542
572.171882,-1998.556043,-7772.162391,2834.553343
572.172210,-1924.535449,-7328.038826,2604.724693
572.172537,-740.205942,-6957.935855,2681.334243
572.172864,-1258.350101,-7846.182985,3140.991542
572.173192,-2442.679609,-7994.224174,2298.286494
572.173519,-5403.503377,-8290.306550,1915.238745
572.173847,-6291.750507,-8364.327145,1455.581446
572.174174,-5329.482782,-8290.306550,689.485948
572.174502,-2516.700203,-7772.162391,1225.752797
572.174829,-370.102971,-7402.059420,2221.676944
572.175157,592.164754,-7105.977043,3370.820191
572.175484,222.061783,-7254.018232,3064.381992
572.175812,-518.144159,-7994.224174,2451.505594
572.176139,-888.247130,-8734.430116,2068.457845
572.176466,0.000000,-9030.512492,1532.190996
572.176794,1776.494261,-9326.594869,2451.505594
572.177121,3627.009116,-8882.471304,3907.087040
572.177449,5181.441594,-9770.718434,5669.106685
572.177776,5329.482782,-11103.089130,5975.544884
572.178104,3849.070898,-11325.150913,5209.449386
572.178431,1480.411884,-12435.459826,4060.306139
572.178759,-370.102971,-12435.459826,3064.381992
572.179086,-1036.288319,-11547.212695,2757.943793
572.179413,-1258.350101,-10732.986159,3064.381992
572.179741,2442.679609,-9400.615463,4826.401637
572.180068,4219.173869,-8512.368333,5669.106685
572.180396,2220.617826,-8586.388927,5592.497135
572.180723,-296.082377,-8956.491898,4290.134789
572.181051,-3997.112087,-9030.512492,2911.162892
572.181378,-6439.791695,-9474.636058,1608.800546
572.181706,-5551.544565,-8882.471304,1378.971896
572.182033,-4145.153275,-8438.347739,1991.848295
572.182360,-666.185348,-7402.059420,3294.210641
572.182688,666.185348,-6957.935855,4979.620737
572.183015,444.123565,-6957.935855,5056.230287
572.183343,-518.144159,-7920.203579,4826.401637
572.183670,-2812.782580,-9326.594869,3064.381992
572.183998,-4663.297435,-10436.903782,1685.410096
572.184325,-4737.318029,-10807.006753,1072.533697
572.184653,-4145.153275,-10510.924376,1685.410096
572.184980,-1110.308913,-9622.677246,2911.162892
572.185307,1628.453072,-8734.430116,3983.696590
572.185635,3330.926739,-8216.285956,4366.744339
572.185962,3552.988522,-8586.388927,4366.744339
572.186290,2368.659014,-9474.636058,3753.867940
572.186617,1406.391290,-10288.862594,3217.601092
572.186945,370.102971,-10732.986159,3217.601092
572.187272,518.144159,-10658.965565,3370.820191
572.187600,888.247130,-10288.862594,4060.306139
572.187927,1258.350101,-9474.636058,4519.963438
572.188255,1332.370696,-8586.388927,4596.572988
572.188582,148.041188,-8808.450710,3907.087040
572.188909,740.205942,-8216.285956,2834.553343
572.189237,518.144159,-7772.162391,2681.334243
572.189564,0.000000,-7698.141797,2374.896044
572.189892,1036.288319,-7550.100608,2068.457845
572.190219,2294.638420,-7179.997637,2987.772442
572.190547,1480.411884,-7624.121203,3294.210641
572.190874,1924.535449,-7698.141797,3907.087040
572.191202,444.123565,-9178.553681,4290.134789
572.191529,-740.205942,-9474.636058,3600.648841
572.191856,-1776.494261,-9770.718434,2834.553343
572.192184,-2886.803174,-9770.718434,3064.381992
572.192511,-2368.659014,-9992.780217,3140.991542
572.192839,-2294.638420,-9474.636058,2987.772442
572.193166,-1702.473667,-9030.512492,2987.772442
572.193494,-962.267725,-8512.368333,2681.334243
572.193821,-962.267725,-8438.347739,2757.943793
572.194149,-962.267725,-7920.203579,2451.505594
572.194476,-1258.350101,-7846.182985,2451.505594
572.194803,-1480.411884,-7846.182985,2451.505594
572.195131,-1184.329507,-7772.162391,3370.820191
572.195458,-666.185348,-8438.347739,2987.772442
572.195786,0.000000,-9326.594869,3447.429741
572.196113,148.041188,-9622.677246,3830.477490
572.196441,444.123565,-10066.800811,3907.087040
572.196768,444.123565,-10584.944971,3983.696590
572.197096,-296.082377,-10436.903782,4136.915689
572.197423,-296.082377,-9844.739029,3217.601092
572.197751,74.020594,-9474.636058,3294.210641
572.198078,0.000000,-9178.553681,2681.334243
572.198405,962.267725,-9030.512492,2757.943793
572.198733,1998.556043,-8438.347739,2757.943793
572.199060,1184.329507,-9030.512492,2451.505594
572.199388,740.205942,-9622.677246,2451.505594
572.199715,0.000000,-10362.883188,2221.676944
572.200043,-740.205942,-10436.903782,2145.067394
572.200370,-296.082377,-10140.821405,1915.238745
572.200698,-740.205942,-9992.780217,2298.286494
572.201025,-1110.308913,-9992.780217,1915.238745
572.201352,-1184.329507,-9696.697840,1762.019645
572.201680,-1406.391290,-9770.718434,1991.848295
572.202007,-1554.432478,-9030.512492,1455.581446
572.202335,-1480.411884,-8438.347739,1532.190996
572.202662,-962.267725,-8364.327145,1072.533697
572.202990,-592.164754,-8068.244768,1149.143247
572.203317,148.041188,-7994.224174,1225.752797
572.203645,444.123565,-8142.265362,1072.533697
572.203972,74.020594,-8364.327145,1225.752797
572.204299,0.000000,-9326.594869,1378.971896
572.204627,148.041188,-10140.821405,1838.629195
572.204954,0.000000,-10510.924376,1532.190996
572.205282,592.164754,-10881.027347,1915.238745
572.205609,1258.350101,-10732.986159,2528.115143
572.205937,1776.494261,-10214.842000,1991.848295
572.206264,1628.453072,-9770.718434,2451.505594
572.206592,1258.350101,-9474.636058,1915.238745
572.206919,74.020594,-9178.553681,1532.190996
572.207247,0.000000,-8734.430116,1302.362347
572.207574,-296.082377,-8586.388927,1532.190996
572.207901,-888.247130,-8364.327145,1072.533697
572.208229,-592.164754,-8512.368333,995.924147
572.208556,-370.102971,-8364.327145,1072.533697
572.208884,-1110.308913,-8290.306550,1225.752797
572.209211,-296.082377,-7846.182985,842.705048
572.209539,-1110.308913,-8142.265362,689.485948
572.209866,-1480.411884,-8142.265362,306.438199
572.210194,-1184.329507,-8216.285956,229.828649
572.210521,-1258.350101,-8290.306550,459.657299
572.210848,-370.102971,-8586.388927,1072.533697
572.211176,-740.205942,-8808.450710,919.314598
572.211503,-518.144159,-9030.512492,1072.533697
572.211831,-518.144159,-8882.471304,612.876398
572.212158,-296.082377,-9030.512492,612.876398
572.212486,-148.041188,-8512.368333,612.876398
572.212813,0.000000,-9030.512492,383.047749
572.213141,148.041188,-9104.533087,842.705048
572.213468,148.041188,-9474.636058,766.095498
572.213795,222.061783,-9622.677246,1072.533697
572.214123,148.041188,-10066.800811,919.314598
572.214450,0.000000,-9400.615463,1455.581446
572.214778,0.000000,-9696.697840,919.314598
572.215105,148.041188,-9252.574275,689.485948
572.215433,222.061783,-9030.512492,842.705048
572.215760,0.000000,-8586.388927,383.047749
572.216088,-518.144159,-8512.368333,689.485948
572.216415,-148.041188,-8364.327145,459.657299
572.216742,-740.205942,-8956.491898,919.314598
572.217070,-1110.308913,-8734.430116,766.095498
572.217397,-962.267725,-9030.512492,536.266849
572.217725,-1332.370696,-9030.512492,459.657299
572.218052,-1110.308913,-9252.574275,229.828649
572.218380,-1036.288319,-9400.615463,383.047749
572.218707,-888.247130,-9252.574275,842.705048
572.219035,-370.102971,-9252.574275,383.047749
572.219362,0.000000,-9770.718434,0.000000
572.219690,-296.082377,-9104.533087,612.876398
572.220017,0.000000,-9474.636058,306.438199
572.220344,-518.144159,-9548.656652,383.047749
572.220672,-370.102971,-9844.739029,459.657299
572.220999,-296.082377,-9844.739029,842.705048
572.221327,0.000000,-9622.677246,612.876398
572.221654,148.041188,-9548.656652,689.485948
572.221982,370.102971,-9474.636058,766.095498
572.222309,222.061783,-9474.636058,689.485948
572.222637,444.123565,-9104.533087,689.485948
572.222964,222.061783,-8882.471304,919.314598
572.223291,148.041188,-8956.491898,383.047749
572.223619,148.041188,-9326.594869,306.438199
572.223946,148.041188,-9400.615463,459.657299
572.224274,0.000000,-9252.574275,689.485948
572.224601,518.144159,-8734.430116,689.485948
572.224929,444.123565,-9104.533087,536.266849
572.225256,222.061783,-9104.533087,306.438199
572.225584,0.000000,-8808.450710,0.000000
572.225911,-222.061783,-8734.430116,306.438199
572.226238,0.000000,-8216.285956,153.219100
572.226566,-666.185348,-9030.512492,536.266849
572.226893,-814.226536,-9030.512492,153.219100
572.227221,-666.185348,-9252.574275,383.047749
572.227548,-814.226536,-9030.512492,306.438199
572.227876,-666.185348,-8660.409521,1072.533697
572.228203,-592.164754,-8438.347739,919.314598
572.228531,-370.102971,-8660.409521,229.828649
572.228858,-592.164754,-8438.347739,306.438199
572.229186,-370.102971,-8586.388927,536.266849
572.229513,-518.144159,-8882.471304,536.266849
572.229840,-296.082377,-9104.533087,919.314598
572.230168,-1036.288319,-9030.512492,1225.752797
572.230495,-888.247130,-9252.574275,919.314598
572.230823,-740.205942,-9326.594869,842.705048
572.231150,-740.205942,-8882.471304,766.095498
572.231478,-592.164754,-8734.430116,306.438199
572.231805,-296.082377,-8660.409521,1149.143247
572.232133,-222.061783,-8734.430116,612.876398
572.232460,-370.102971,-8808.450710,536.266849
572.232787,-518.144159,-8956.491898,689.485948
572.233115,-888.247130,-9326.594869,842.705048
572.233442,-1036.288319,-8660.409521,919.314598
572.233770,-518.144159,-9474.636058,842.705048
572.234097,-370.102971,-9252.574275,612.876398
572.234425,-148.041188,-9252.574275,689.485948
572.234752,-518.144159,-8956.491898,536.266849
572.235080,-296.082377,-8808.450710,1225.752797
572.235407,-296.082377,-9326.594869,536.266849
572.235734,-444.123565,-9474.636058,612.876398
572.236062,-592.164754,-9326.594869,459.657299
572.236389,-592.164754,-9548.656652,536.266849
572.236717,-518.144159,-9326.594869,919.314598
572.237044,0.000000,-9104.533087,153.219100
572.237372,148.041188,-8882.471304,76.609550
572.237699,74.020594,-8882.471304,459.657299
572.238027,0.000000,-9104.533087,229.828649
572.238354,222.061783,-9252.574275,612.876398
572.238681,148.041188,-9548.656652,229.828649
572.239009,-296.082377,-9400.615463,306.438199
572.239336,-148.041188,-9770.718434,612.876398
572.239664,0.000000,-9844.739029,766.095498
572.239991,0.000000,-9030.512492,229.828649
572.240319,148.041188,-8734.430116,383.047749
572.240647,-444.123565,-8586.388927,229.828649
572.240974,-740.205942,-8734.430116,153.219100
572.241302,-1036.288319,-8882.471304,383.047749
572.241629,-962.267725,-8660.409521,0.000000
572.241957,-740.205942,-8808.450710,842.705048
572.242284,-666.185348,-9030.512492,919.314598
572.242612,-444.123565,-8882.471304,536.266849
572.242940,0.000000,-8660.409521,689.485948
572.243267,296.082377,-8364.327145,306.438199
572.243595,222.061783,-8216.285956,229.828649
572.243922,296.082377,-9104.533087,536.266849
572.244250,-222.061783,-9474.636058,842.705048
572.244577,-370.102971,-9844.739029,1225.752797
572.244905,-296.082377,-10214.842000,1302.362347
572.245233,0.000000,-9696.697840,995.924147
572.245560,222.061783,-9474.636058,842.705048
572.245888,370.102971,-9030.512492,766.095498
572.246215,518.144159,-8512.368333,536.266849
572.246543,666.185348,-7994.224174,306.438199
572.246870,222.061783,-7772.162391,229.828649
572.247198,-296.082377,-8216.285956,306.438199
572.247526,-444.123565,-8808.450710,536.266849
572.247853,-888.247130,-9030.512492,842.705048
572.248181,-888.247130,-9474.636058,612.876398
572.248508,-444.123565,-9474.636058,766.095498
572.248836,-370.102971,-8956.491898,995.924147
572.249163,222.061783,-8808.450710,0.000000
572.249491,222.061783,-8512.368333,0.000000
572.249819,296.082377,-8512.368333,0.000000
572.250146,-148.041188,-8660.409521,153.219100
572.250474,-444.123565,-9104.533087,-459.657299
572.250801,-370.102971,-9252.574275,76.609550
572.251129,-962.267725,-9770.718434,612.876398
572.251456,-814.226536,-9770.718434,689.485948
572.251784,-666.185348,-9696.697840,229.828649
572.252112,-370.102971,-9474.636058,0.000000
572.252439,0.000000,-8438.347739,76.609550
572.252767,222.061783,-9030.512492,76.609550
572.253094,444.123565,-9252.574275,306.438199
572.253422,222.061783,-9474.636058,612.876398
572.253750,0.000000,-9474.636058,842.705048
572.254077,0.000000,-9696.697840,842.705048
572.254405,-370.102971,-9918.759623,842.705048
572.254732,-518.144159,-9844.739029,842.705048
572.255060,-592.164754,-9400.615463,536.266849
572.255387,-444.123565,-9178.553681,689.485948
572.255715,0.000000,-8586.388927,383.047749
572.256043,-666.185348,-8734.430116,459.657299
572.256370,-518.144159,-8882.471304,459.657299
572.256698,-888.247130,-9178.553681,766.095498
572.257025,-888.247130,-9474.636058,842.705048
572.257353,-1036.288319,-9252.574275,689.485948
572.257680,-518.144159,-9400.615463,766.095498
572.258008,-592.164754,-9326.594869,766.095498
572.258336,-444.123565,-9252.574275,689.485948
572.258663,-296.082377,-9178.553681,612.876398
572.258991,-444.123565,-8882.471304,689.485948
572.259318,-370.102971,-9178.553681,459.657299
572.259646,-370.102971,-9474.636058,766.095498
572.259973,-666.185348,-9474.636058,842.705048
572.260301,-444.123565,-9474.636058,995.924147
572.260629,-592.164754,-9400.615463,612.876398
572.260956,-592.164754,-8660.409521,919.314598
572.261284,-888.247130,-8438.347739,536.266849
572.261611,-444.123565,-8512.368333,612.876398
572.261939,-296.082377,-8586.388927,383.047749
572.262266,-222.061783,-8438.347739,383.047749
572.262594,-666.185348,-8438.347739,842.705048
572.262922,0.000000,-8512.368333,459.657299
572.263249,-148.041188,-8734.430116,459.657299
572.263577,-370.102971,-8956.491898,459.657299
572.263904,-740.205942,-9030.512492,306.438199
572.264232,-222.061783,-9104.533087,306.438199
572.264559,-296.082377,-9326.594869,0.000000
572.264887,-370.102971,-9178.553681,383.047749
572.265215,-222.061783,-9326.594869,689.485948
572.265542,-74.020594,-9104.533087,612.876398
572.265870,-592.164754,-9104.533087,689.485948
572.266197,222.061783,-8808.450710,536.266849
572.266525,0.000000,-8882.471304,689.485948
572.266852,-296.082377,-8882.471304,536.266849
572.267180,0.000000,-8956.491898,536.266849
572.267508,-148.041188,-9030.512492,612.876398
572.267835,0.000000,-9178.553681,842.705048
572.268163,0.000000,-9326.594869,919.314598
572.268490,0.000000,-9252.574275,842.705048
572.268818,296.082377,-9178.553681,766.095498
572.269145,148.041188,-9104.533087,689.485948
572.269473,148.041188,-8882.471304,766.095498
572.269801,0.000000,-9030.512492,689.485948
572.270128,-518.144159,-9030.512492,306.438199
572.270456,-518.144159,-9178.553681,536.266849
572.270783,-518.144159,-9326.594869,612.876398
572.271111,-518.144159,-8956.491898,459.657299
572.271438,-222.061783,-8882.471304,306.438199
572.271766,0.000000,-8956.491898,383.047749
572.272094,0.000000,-8882.471304,306.438199
572.272421,0.000000,-8808.450710,229.828649
572.272749,-148.041188,-8586.388927,842.705048
572.273076,0.000000,-9548.656652,229.828649
572.273404,-222.061783,-9474.636058,612.876398
572.273731,-222.061783,-9844.739029,612.876398
572.274059,0.000000,-9548.656652,919.314598
572.274387,-222.061783,-9622.677246,842.705048
572.274714,74.020594,-9474.636058,536.266849
572.275042,0.000000,-9178.553681,306.438199
572.275369,0.000000,-8956.491898,459.657299
572.275697,0.000000,-9030.512492,459.657299
572.276024,0.000000,-8956.491898,306.438199
572.276352,148.041188,-9178.553681,229.828649
572.276680,-518.144159,-9400.615463,536.266849
572.277007,-370.102971,-9400.615463,536.266849
572.277335,-222.061783,-9326.594869,842.705048
572.277662,-148.041188,-9548.656652,536.266849
572.277990,74.020594,-9178.553681,842.705048
572.278318,592.164754,-9178.553681,766.095498
572.278645,222.061783,-9178.553681,536.266849
572.278973,74.020594,-9252.574275,612.876398
572.279300,-296.082377,-9474.636058,612.876398
572.279628,-444.123565,-9252.574275,383.047749
572.279955,-740.205942,-9400.615463,1149.143247
572.280283,-592.164754,-9474.636058,689.485948
572.280611,-444.123565,-9030.512492,383.047749
572.280938,-444.123565,-8808.450710,536.266849
572.281266,-370.102971,-8586.388927,306.438199
572.281593,0.000000,-8956.491898,153.219100
572.281921,-222.061783,-8512.368333,536.266849
572.282248,-370.102971,-9030.512492,689.485948
572.282576,-222.061783,-9400.615463,459.657299
572.282904,-222.061783,-9548.656652,689.485948
572.283231,0.000000,-9400.615463,995.924147
572.283559,0.000000,-9400.615463,995.924147
572.283886,74.020594,-9326.594869,612.876398
572.284214,0.000000,-9474.636058,383.047749
572.284541,0.000000,-9178.553681,229.828649
572.284869,74.020594,-9104.533087,536.266849
572.285197,-444.123565,-8808.450710,842.705048
572.285524,-444.123565,-9030.512492,689.485948
572.285852,-666.185348,-9178.553681,459.657299
572.286179,-592.164754,-9104.533087,459.657299
572.286507,-370.102971,-8734.430116,229.828649
572.286834,-148.041188,-8808.450710,536.266849
572.287162,0.000000,-8734.430116,306.438199
572.287490,0.000000,-8808.450710,306.438199
572.287817,74.020594,-9178.553681,689.485948
572.288145,0.000000,-9104.533087,612.876398
572.288472,74.020594,-9548.656652,689.485948
572.288800,0.000000,-9474.636058,919.314598
572.289127,-592.164754,-9400.615463,689.485948
572.289455,-666.185348,-9400.615463,689.485948
572.289783,-740.205942,-9104.533087,919.314598
572.290110,-148.041188,-8734.430116,383.047749
572.290438,-222.061783,-8956.491898,536.266849
572.290765,-740.205942,-8808.450710,153.219100
572.291093,-370.102971,-9104.533087,536.266849
572.291420,-592.164754,-8882.471304,459.657299
572.291748,-296.082377,-9030.512492,919.314598
572.292076,-370.102971,-8882.471304,689.485948
572.292403,-222.061783,-9548.656652,689.485948
572.292731,-222.061783,-9474.636058,689.485948
572.293058,-370.102971,-9252.574275,459.657299
572.293386,-444.123565,-9252.574275,766.095498
572.293713,-296.082377,-9252.574275,1149.143247
572.294041,-592.164754,-9326.594869,536.266849
572.294369,-814.226536,-8956.491898,766.095498
572.294696,-666.185348,-8882.471304,306.438199
572.295024,-962.267725,-8660.409521,383.047749
572.295351,-666.185348,-8660.409521,689.485948
572.295679,-1036.288319,-8512.368333,306.438199
572.296006,-592.164754,-8586.388927,383.047749
572.296334,-592.164754,-8512.368333,612.876398
572.296662,-444.123565,-8808.450710,536.266849
572.296989,0.000000,-9326.594869,459.657299
572.297317,0.000000,-8808.450710,842.705048
572.297644,-222.061783,-9178.553681,919.314598
572.297972,-370.102971,-9252.574275,995.924147
572.298299,-444.123565,-9326.594869,919.314598
572.298627,-518.144159,-9178.553681,842.705048
572.298955,-222.061783,-9326.594869,1532.190996
572.299282,-222.061783,-9252.574275,536.266849
572.299610,-370.102971,-9030.512492,459.657299
572.299937,-222.061783,-8808.450710,383.047749
572.300265,-296.082377,-8586.388927,306.438199
572.300593,0.000000,-8660.409521,229.828649
572.300920,-370.102971,-8586.388927,229.828649
572.301248,-148.041188,-8956.491898,383.047749
572.301575,-370.102971,-9104.533087,383.047749
572.301903,-222.061783,-9178.553681,459.657299
572.302230,0.000000,-9178.553681,1149.143247
572.302558,222.061783,-9252.574275,383.047749
572.302886,74.020594,-9252.574275,536.266849
572.303213,0.000000,-9326.594869,612.876398
572.303541,0.000000,-9474.636058,536.266849
572.303868,-370.102971,-9252.574275,459.657299
572.304196,296.082377,-8734.430116,612.876398
572.304523,-370.102971,-9030.512492,229.828649
572.304851,-444.123565,-9104.533087,153.219100
572.305179,0.000000,-9252.574275,383.047749
572.305506,148.041188,-9252.574275,536.266849
572.305834,222.061783,-8882.471304,612.876398
572.306161,74.020594,-9104.533087,766.095498
572.306489,0.000000,-9474.636058,612.876398
572.306816,0.000000,-9400.615463,689.485948
572.307144,74.020594,-9326.594869,612.876398
572.307472,0.000000,-9326.594869,1225.752797
572.307799,0.000000,-9548.656652,1072.533697
572.308127,0.000000,-9622.677246,842.705048
572.308454,-222.061783,-9326.594869,612.876398
572.308782,-222.061783,-9104.533087,536.266849
572.309109,-222.061783,-9178.553681,995.924147
572.309437,-148.041188,-9030.512492,383.047749
572.309765,-296.082377,-9030.512492,612.876398
572.310092,-222.061783,-9104.533087,459.657299
572.310420,-222.061783,-9178.553681,536.266849
572.310747,74.020594,-9696.697840,229.828649
572.311075,0.000000,-9548.656652,76.609550
572.311402,0.000000,-9696.697840,459.657299
572.311730,0.000000,-9474.636058,383.047749
572.312058,0.000000,-9474.636058,383.047749
572.312385,74.020594,-9622.677246,689.485948
572.312713,-222.061783,-9474.636058,1149.143247
572.313040,-148.041188,-9252.574275,536.266849
572.313368,-370.102971,-9178.553681,536.266849
572.313695,-518.144159,-9104.533087,459.657299
572.314023,-592.164754,-9030.512492,306.438199
572.314351,-666.185348,-8364.327145,536.266849
572.314678,-444.123565,-8808.450710,306.438199
572.315006,-148.041188,-8808.450710,383.047749
572.315333,-444.123565,-8882.471304,459.657299
572.315661,-296.082377,-8882.471304,383.047749
572.315988,0.000000,-8586.388927,459.657299
572.316316,-222.061783,-8882.471304,612.876398
572.316644,-370.102971,-9326.594869,612.876398
572.316971,-444.123565,-9326.594869,612.876398
572.317299,-296.082377,-9400.615463,689.485948
572.317626,-370.102971,-8956.491898,995.924147
572.317954,-518.144159,-8882.471304,689.485948
572.318281,-666.185348,-9030.512492,689.485948
572.318609,-592.164754,-8734.430116,536.266849
572.318937,-518.144159,-8660.409521,612.876398
572.319264,-592.164754,-8882.471304,842.705048
572.319592,-370.102971,-8808.450710,995.924147
572.319919,-666.185348,-8438.347739,459.657299
572.320247,-518.144159,-8734.430116,689.485948
572.320574,-296.082377,-8586.388927,766.095498
572.320902,-370.102971,-8808.450710,689.485948
572.321230,-148.041188,-8882.471304,1072.533697
572.321557,-518.144159,-9104.533087,612.876398
572.321885,-518.144159,-9178.553681,689.485948
572.322212,-518.144159,-8882.471304,612.876398
572.322540,-592.164754,-9326.594869,612.876398
572.322868,-370.102971,-9104.533087,306.438199
572.323195,-666.185348,-8660.409521,383.047749
572.323523,-666.185348,-8734.430116,306.438199
572.323850,-444.123565,-8660.409521,306.438199
572.324178,-370.102971,-8734.430116,229.828649
572.324505,-222.061783,-8660.409521,76.609550
572.324833,-592.164754,-9178.553681,919.314598
572.325161,-370.102971,-8956.491898,229.828649
572.325488,-148.041188,-9178.553681,612.876398
572.325816,-148.041188,-9178.553681,459.657299
572.326143,0.000000,-9918.759623,995.924147
572.326471,0.000000,-9178.553681,766.095498
572.326798,0.000000,-9400.615463,459.657299
572.327126,-444.123565,-9252.574275,612.876398
572.327454,-370.102971,-9400.615463,459.657299
572.327781,-296.082377,-9252.574275,383.047749
572.328109,0.000000,-8808.450710,689.485948
572.328436,0.000000,-8956.491898,306.438199
572.328764,-222.061783,-8956.491898,459.657299
572.329091,-148.041188,-9474.636058,459.657299
572.329419,0.000000,-9400.615463,383.047749
572.329747,0.000000,-8956.491898,995.924147
572.330074,740.205942,-8956.491898,612.876398
572.330402,296.082377,-9474.636058,306.438199
572.330729,296.082377,-9474.636058,383.047749
572.331057,148.041188,-9622.677246,459.657299
572.331384,370.102971,-9400.615463,612.876398
572.331712,296.082377,-9548.656652,766.095498
572.332040,0.000000,-9548.656652,766.095498
572.332367,-296.082377,-9400.615463,612.876398
572.332695,0.000000,-9252.574275,612.876398
572.333022,0.000000,-9030.512492,383.047749
572.333350,0.000000,-8586.388927,383.047749
572.333677,0.000000,-9252.574275,689.485948
572.334005,-222.061783,-9030.512492,459.657299
572.334333,0.000000,-9400.615463,612.876398
572.334660,-296.082377,-9178.553681,612.876398
572.334988,0.000000,-9400.615463,1838.629195
572.335315,0.000000,-9474.636058,689.485948
572.335643,74.020594,-9548.656652,689.485948
572.335970,0.000000,-9400.615463,689.485948
572.336298,-148.041188,-9474.636058,612.876398
572.336626,-296.082377,-9326.594869,689.485948
572.336953,-222.061783,-8956.491898,383.047749
572.337281,-592.164754,-9178.553681,459.657299
572.337608,-592.164754,-9326.594869,612.876398
572.337936,-592.164754,-9252.574275,536.266849
572.338263,-592.164754,-8734.430116,689.485948
572.338591,-592.164754,-8882.471304,612.876398
572.338919,-444.123565,-9030.512492,536.266849
572.339246,-148.041188,-9030.512492,612.876398
572.339574,-222.061783,-8956.491898,689.485948
572.339901,-222.061783,-8808.450710,536.266849
572.340229,0.000000,-8734.430116,919.314598
572.340556,0.000000,-9326.594869,536.266849
572.340884,-296.082377,-9400.615463,766.095498
572.341212,-222.061783,-9474.636058,689.485948
572.341539,-296.082377,-9474.636058,612.876398
572.341867,-296.082377,-9030.512492,689.485948
572.342194,-296.082377,-9030.512492,689.485948
572.342522,-222.061783,-9104.533087,459.657299
572.342849,-222.061783,-8956.491898,536.266849
572.343177,-370.102971,-8882.471304,536.266849
572.343504,-222.061783,-9252.574275,766.095498
572.343832,0.000000,-8956.491898,306.438199
572.344160,-518.144159,-9400.615463,383.047749
572.344487,-148.041188,-9326.594869,612.876398
572.344815,0.000000,-9326.594869,536.266849
572.345142,0.000000,-8808.450710,612.876398
572.345470,-74.020594,-8956.491898,536.266849
572.345797,0.000000,-9178.553681,383.047749
572.346125,-444.123565,-9030.512492,536.266849
572.346452,0.000000,-9252.574275,383.047749
572.346780,-444.123565,-9030.512492,612.876398
572.347107,-370.102971,-9030.512492,459.657299
572.347435,-518.144159,-9030.512492,459.657299
572.347762,-592.164754,-8956.491898,306.438199
572.348090,-814.226536,-8512.368333,383.047749
572.348418,-370.102971,-8956.491898,459.657299
572.348745,0.000000,-9252.574275,0.000000
572.349073,-592.164754,-8882.471304,766.095498
572.349400,-296.082377,-9178.553681,536.266849
572.349728,-370.102971,-9104.533087,689.485948
572.350055,-370.102971,-9252.574275,612.876398
572.350383,0.000000,-9326.594869,459.657299
572.350710,-444.123565,-9178.553681,1532.190996
572.351038,-444.123565,-9030.512492,766.095498
572.351365,-592.164754,-9030.512492,536.266849
572.351693,-592.164754,-8882.471304,459.657299
572.352021,-370.102971,-9252.574275,766.095498
572.352348,-222.061783,-8586.388927,612.876398
572.352676,-444.123565,-8882.471304,383.047749
572.353003,-296.082377,-8956.491898,689.485948
572.353331,-666.185348,-8808.450710,383.047749
572.353658,-296.082377,-8882.471304,612.876398
572.353986,-222.061783,-8512.368333,995.924147
572.354313,-148.041188,-8882.471304,766.095498
572.354641,0.000000,-9104.533087,612.876398
572.354968,0.000000,-9104.533087,536.266849
572.355296,0.000000,-9104.533087,612.876398
572.355624,-148.041188,-8882.471304,766.095498
572.355951,0.000000,-9326.594869,383.047749
572.356279,-444.123565,-8734.430116,459.657299
572.356606,-296.082377,-8882.471304,459.657299
572.356934,-518.144159,-8882.471304,306.438199
572.357261,-222.061783,-8882.471304,536.266849
572.357589,-222.061783,-8882.471304,766.095498
572.357916,0.000000,-9030.512492,229.828649
572.358244,0.000000,-9400.615463,306.438199
572.358571,0.000000,-9474.636058,306.438199
572.358899,0.000000,-9400.615463,612.876398
572.359227,74.020594,-9030.512492,612.876398
572.359554,0.000000,-9548.656652,536.266849
572.359882,0.000000,-9474.636058,153.219100
572.360209,-296.082377,-9252.574275,383.047749
572.360537,0.000000,-9326.594869,383.047749
572.360864,0.000000,-9030.512492,1072.533697
572.361192,-222.061783,-9252.574275,229.828649
572.361519,0.000000,-9104.533087,383.047749
572.361847,0.000000,-9104.533087,536.266849
572.362174,0.000000,-9030.512492,306.438199
572.362502,0.000000,-9104.533087,153.219100
572.362829,0.000000,-9252.574275,0.000000
572.363157,0.000000,-9252.574275,459.657299
572.363485,0.000000,-9474.636058,612.876398
572.363812,0.000000,-9696.697840,766.095498
572.364140,74.020594,-9696.697840,612.876398
572.364467,-444.123565,-9770.718434,689.485948
572.364795,-296.082377,-9696.697840,842.705048
572.365122,-148.041188,-9474.636058,842.705048
572.365450,0.000000,-9326.594869,842.705048
572.365777,0.000000,-9474.636058,766.095498
572.366105,0.000000,-8882.471304,306.438199
572.366432,-296.082377,-8808.450710,536.266849
572.366760,-296.082377,-8734.430116,459.657299
572.367088,-370.102971,-9030.512492,612.876398
572.367415,-518.144159,-9104.533087,766.095498
572.367743,-444.123565,-9178.553681,995.924147
572.368070,-222.061783,-9326.594869,766.095498
572.368398,-444.123565,-9400.615463,842.705048
572.368725,-222.061783,-9326.594869,689.485948
572.369053,-370.102971,-9252.574275,995.924147
572.369380,-444.123565,-9178.553681,1225.752797
572.369708,74.020594,-8956.491898,612.876398
572.370035,-518.144159,-9030.512492,612.876398
572.370363,-592.164754,-9178.553681,383.047749
572.370691,-444.123565,-8956.491898,383.047749
572.371018,-148.041188,-8660.409521,383.047749
572.371346,74.020594,-9030.512492,689.485948
572.371673,-370.102971,-8882.471304,383.047749
572.372001,-296.082377,-9104.533087,536.266849
572.372328,0.000000,-9030.512492,459.657299
572.372656,-222.061783,-9104.533087,536.266849
572.372983,-444.123565,-9178.553681,766.095498
572.373311,-222.061783,-9178.553681,612.876398
572.373638,-370.102971,-9326.594869,766.095498
572.373966,-444.123565,-9326.594869,612.876398
572.374293,-444.123565,-9178.553681,612.876398
572.374621,-444.123565,-8586.388927,689.485948
572.374949,-148.041188,-8734.430116,306.438199
572.375276,-370.102971,-8660.409521,612.876398
572.375604,-444.123565,-8660.409521,459.657299
572.375931,-444.123565,-8512.368333,383.047749
572.376259,0.000000,-8660.409521,153.219100
572.376586,-148.041188,-8808.450710,459.657299
572.376914,-370.102971,-9326.594869,612.876398
572.377241,-518.144159,-9400.615463,612.876398
572.377569,-370.102971,-9252.574275,459.657299
572.377896,-148.041188,-8956.491898,766.095498
572.378224,0.000000,-9400.615463,383.047749
572.378552,-222.061783,-9400.615463,383.047749
572.378879,-370.102971,-9178.553681,383.047749
572.379207,-518.144159,-8882.471304,459.657299
572.379534,-592.164754,-8882.471304,459.657299
572.379862,-444.123565,-8882.471304,459.657299
572.380189,-592.164754,-8808.450710,459.657299
572.380517,-444.123565,-8808.450710,612.876398
572.380844,-370.102971,-8734.430116,306.438199
572.381172,-296.082377,-8956.491898,383.047749
572.381499,-740.205942,-8364.327145,536.266849
572.381827,-370.102971,-9030.512492,766.095498
572.382155,-296.082377,-8956.491898,689.485948
572.382482,-148.041188,-9030.512492,612.876398
572.382810,-444.123565,-9400.615463,689.485948
572.383137,-592.164754,-9326.594869,766.095498
572.383465,-740.205942,-9252.574275,995.924147
572.383792,-518.144159,-9178.553681,689.485948
572.384120,-370.102971,-9030.512492,459.657299
572.384447,-518.144159,-8956.491898,459.657299
572.384775,-1110.308913,-8956.491898,919.314598
572.385102,-518.144159,-8882.471304,842.705048
572.385430,-444.123565,-8956.491898,689.485948
572.385758,-518.144159,-9104.533087,689.485948
572.386085,-222.061783,-9252.574275,689.485948
572.386413,-296.082377,-9400.615463,689.485948
572.386740,0.000000,-9030.512492,842.705048
572.387068,0.000000,-9252.574275,612.876398
572.387395,0.000000,-9474.636058,766.095498
572.387723,0.000000,-9326.594869,689.485948
572.388050,0.000000,-9178.553681,536.266849
572.388378,0.000000,-9400.615463,612.876398
572.388705,-296.082377,-8882.471304,689.485948
572.389033,-148.041188,-9178.553681,459.657299
572.389360,0.000000,-9178.553681,536.266849
572.389688,-148.041188,-9104.533087,229.828649
572.390016,0.000000,-9326.594869,306.438199
572.390343,0.000000,-9252.574275,153.219100
572.390671,0.000000,-9400.615463,689.485948
572.390998,0.000000,-9474.636058,536.266849
572.391326,148.041188,-9474.636058,459.657299
572.391653,296.082377,-9474.636058,689.485948
572.391981,592.164754,-9178.553681,306.438199
572.392308,370.102971,-9474.636058,383.047749
572.392636,222.061783,-9474.636058,612.876398
572.392963,74.020594,-9252.574275,612.876398
572.393291,0.000000,-9252.574275,383.047749
572.393619,0.000000,-9030.512492,306.438199
572.393946,-222.061783,-8956.491898,689.485948
572.394274,-296.082377,-9030.512492,536.266849
572.394601,-444.123565,-9252.574275,612.876398
572.394929,-592.164754,-9104.533087,536.266849
572.395256,-444.123565,-9030.512492,919.314598
572.395584,-296.082377,-9178.553681,1149.143247
572.395911,-444.123565,-9178.553681,766.095498
572.396239,-296.082377,-9252.574275,689.485948
572.396566,-518.144159,-9474.636058,612.876398
572.396894,-222.061783,-9622.677246,766.095498
572.397222,-592.164754,-8956.491898,76.609550
572.397549,-518.144159,-9030.512492,1149.143247
572.397877,-444.123565,-9252.574275,689.485948
572.398204,-518.144159,-9104.533087,459.657299
572.398532,-1036.288319,-8956.491898,536.266849
572.398859,-592.164754,-8438.347739,536.266849
572.399187,-444.123565,-8734.430116,459.657299
572.399514,-370.102971,-8882.471304,536.266849
572.399842,-296.082377,-8956.491898,383.047749
572.400169,-148.041188,-9030.512492,689.485948
572.400497,0.000000,-9104.533087,1072.533697
572.400825,-148.041188,-8956.491898,536.266849
572.401152,-222.061783,-9400.615463,612.876398
572.401480,0.000000,-9178.553681,536.266849
572.401807,-148.041188,-9104.533087,536.266849
572.402135,-222.061783,-9030.512492,459.657299
572.402462,148.041188,-9326.594869,383.047749
572.402790,-296.082377,-9178.553681,612.876398
572.403117,-148.041188,-9030.512492,306.438199
572.403445,-444.123565,-8734.430116,229.828649
572.403772,-222.061783,-8956.491898,459.657299
572.404100,-296.082377,-8734.430116,0.000000
572.404427,-370.102971,-8808.450710,76.609550
572.404755,-370.102971,-8660.409521,306.438199
572.405083,-370.102971,-8882.471304,383.047749
572.405410,-444.123565,-9030.512492,612.876398
572.405738,-370.102971,-8734.430116,766.095498
572.406065,-296.082377,-8956.491898,919.314598
572.406393,-444.123565,-9030.512492,459.657299
572.406720,-222.061783,-9104.533087,689.485948
572.407048,-740.205942,-8882.471304,536.266849
572.407375,-666.185348,-8734.430116,1378.971896
572.407703,-740.205942,-8882.471304,612.876398
572.408030,-666.185348,-8734.430116,919.314598
572.408358,-740.205942,-8586.388927,689.485948
572.408686,-740.205942,-8734.430116,842.705048
572.409013,-296.082377,-8808.450710,612.876398
572.409341,-296.082377,-8586.388927,842.705048
572.409668,-222.061783,-9030.512492,612.876398
572.409996,-444.123565,-9104.533087,689.485948
572.410323,-222.061783,-9104.533087,766.095498
572.410651,-296.082377,-9104.533087,995.924147
572.410978,0.000000,-9104.533087,612.876398
572.411306,-148.041188,-9474.636058,766.095498
572.411633,-444.123565,-9400.615463,689.485948
572.411961,-222.061783,-9400.615463,919.314598
572.412289,-444.123565,-9326.594869,689.485948
572.412616,-444.123565,-8956.491898,459.657299
572.412944,-222.061783,-8956.491898,383.047749
572.413271,0.000000,-8956.491898,153.219100
572.413599,0.000000,-9178.553681,229.828649
572.413926,0.000000,-8882.471304,76.609550
572.414254,888.247130,-9178.553681,612.876398
572.414581,0.000000,-8956.491898,536.266849
572.414909,148.041188,-9474.636058,536.266849
572.415236,0.000000,-9400.615463,383.047749
572.415564,148.041188,-9474.636058,459.657299
572.415892,0.000000,-9622.677246,995.924147
572.416219,296.082377,-9474.636058,536.266849
572.416547,0.000000,-9622.677246,536.266849
572.416874,0.000000,-9548.656652,459.657299
572.417202,-444.123565,-9104.533087,229.828649
572.417529,-296.082377,-8882.471304,459.657299
572.417857,-222.061783,-8956.491898,306.438199
572.418184,0.000000,-9252.574275,229.828649
572.418512,-148.041188,-9104.533087,459.657299
572.418839,-296.082377,-9178.553681,459.657299
572.419167,-296.082377,-9326.594869,383.047749
572.419494,0.000000,-9400.615463,229.828649
572.419822,-222.061783,-9178.553681,612.876398
572.420150,0.000000,-9400.615463,919.314598
572.420477,-222.061783,-9326.594869,919.314598
572.420805,-370.102971,-9400.615463,612.876398
572.421132,-518.144159,-8882.471304,306.438199
572.421460,-592.164754,-9252.574275,766.095498
572.421787,-740.205942,-8882.471304,536.266849
572.422115,-740.205942,-9104.533087,459.657299
572.422442,-666.185348,-9030.512492,383.047749
572.422770,-148.041188,-9400.615463,612.876398
572.423097,0.000000,-9104.533087,383.047749
572.423425,-296.082377,-8956.491898,383.047749
572.423753,-296.082377,-9104.533087,689.485948
572.424080,0.000000,-9474.636058,306.438199
572.424408,74.020594,-9104.533087,1149.143247
572.424735,-148.041188,-9252.574275,842.705048
572.425063,222.061783,-9400.615463,459.657299
572.425390,222.061783,-9400.615463,383.047749
572.425718,0.000000,-9326.594869,536.266849
572.426045,-148.041188,-9326.594869,459.657299
572.426373,-518.144159,-8734.430116,689.485948
572.426700,0.000000,-8734.430116,76.609550
572.427028,-222.061783,-8660.409521,306.438199
572.427356,0.000000,-8586.388927,229.828649
572.427683,0.000000,-8734.430116,229.828649
572.428011,148.041188,-9104.533087,229.828649
572.428338,0.000000,-8882.471304,383.047749
572.428666,-148.041188,-8882.471304,536.266849
572.428993,0.000000,-9326.594869,612.876398
572.429321,0.000000,-9326.594869,689.485948
572.429648,0.000000,-9770.718434,919.314598
572.429976,148.041188,-9030.512492,612.876398
572.430303,-296.082377,-9400.615463,612.876398
572.430631,-370.102971,-9400.615463,995.924147
572.430958,-296.082377,-9252.574275,766.095498
572.431286,-518.144159,-8734.430116,689.485948
572.431614,-444.123565,-8882.471304,919.314598
572.431941,-592.164754,-8956.491898,536.266849
572.432269,-814.226536,-8808.450710,612.876398
572.432596,-518.144159,-9030.512492,689.485948
572.432924,-592.164754,-8734.430116,766.095498
572.433251,-592.164754,-8660.409521,766.095498
572.433579,-740.205942,-9030.512492,842.705048
572.433906,-370.102971,-9104.533087,842.705048
572.434234,-518.144159,-9030.512492,919.314598
572.434561,-370.102971,-9030.512492,842.705048
572.434889,-444.123565,-9030.512492,766.095498
572.435217,-518.144159,-9030.512492,766.095498
572.435544,-592.164754,-9178.553681,689.485948
572.435872,-666.185348,-9252.574275,612.876398
572.436199,-592.164754,-9252.574275,612.876398
572.436527,-370.102971,-9178.553681,229.828649
572.436854,-370.102971,-8882.471304,995.924147
572.437182,-592.164754,-9104.533087,536.266849
572.437509,-518.144159,-9178.553681,306.438199
572.437837,-296.082377,-9104.533087,229.828649
572.438164,296.082377,-9400.615463,306.438199
572.438492,148.041188,-8956.491898,229.828649
572.438820,0.000000,-9030.512492,76.609550
572.439147,0.000000,-9474.636058,536.266849
572.439475,0.000000,-9326.594869,536.266849
572.439802,-222.061783,-9030.512492,383.047749
572.440130,0.000000,-8734.430116,459.657299
572.440457,-296.082377,-8808.450710,306.438199
572.440785,-444.123565,-9030.512492,229.828649
572.441112,-296.082377,-8808.450710,76.609550
572.441440,-740.205942,-8660.409521,306.438199
572.441767,-518.144159,-8660.409521,0.000000
572.442095,-518.144159,-9252.574275,536.266849
572.442423,-370.102971,-8956.491898,383.047749
572.442750,0.000000,-9252.574275,306.438199
572.443078,-148.041188,-9104.533087,459.657299
572.443405,0.000000,-8882.471304,995.924147
572.443733,0.000000,-9104.533087,306.438199
572.444060,-148.041188,-9326.594869,306.438199
572.444387,-148.041188,-9474.636058,612.876398
572.444715,-444.123565,-9178.553681,612.876398
572.445042,-370.102971,-9326.594869,842.705048
572.445370,0.000000,-9326.594869,689.485948
572.445697,-370.102971,-8882.471304,766.095498
572.446025,-444.123565,-8586.388927,459.657299
572.446352,-296.082377,-8956.491898,536.266849
572.446680,-370.102971,-8734.430116,459.657299
572.447007,-222.061783,-9252.574275,459.657299
572.447335,-592.164754,-8956.491898,689.485948
572.447662,-370.102971,-9252.574275,766.095498
572.447990,-222.061783,-9474.636058,766.095498
572.448317,0.000000,-9474.636058,995.924147
572.448645,-296.082377,-9474.636058,536.266849
572.448972,0.000000,-9474.636058,1149.143247
572.449300,-296.082377,-9474.636058,842.705048
572.449627,-148.041188,-9474.636058,612.876398
572.449955,0.000000,-9326.594869,536.266849
572.450282,0.000000,-9474.636058,1149.143247
572.450610,0.000000,-9104.533087,612.876398
572.450937,-296.082377,-9252.574275,459.657299
572.451265,-148.041188,-8956.491898,459.657299
572.451592,0.000000,-9104.533087,536.266849
572.451920,-222.061783,-9400.615463,536.266849
572.452247,148.041188,-8956.491898,612.876398
572.452575,-148.041188,-9326.594869,536.266849
572.452902,74.020594,-9326.594869,536.266849
572.453230,74.020594,-9474.636058,459.657299
572.453557,0.000000,-9400.615463,689.485948
572.453884,296.082377,-9474.636058,689.485948
572.454212,0.000000,-9178.553681,766.095498
572.454539,-370.102971,-9030.512492,612.876398
572.454867,-296.082377,-8882.471304,383.047749
572.455194,-444.123565,-9104.533087,536.266849
572.455522,-370.102971,-8882.471304,153.219100
572.455849,-222.061783,-8882.471304,306.438199
572.456177,-296.082377,-8956.491898,459.657299
572.456504,-444.123565,-9030.512492,536.266849
572.456832,-518.144159,-9252.574275,536.266849
572.457159,0.000000,-8956.491898,612.876398
572.457487,0.000000,-9104.533087,919.314598
572.457814,-148.041188,-9252.574275,842.705048
572.458142,-370.102971,-9474.636058,689.485948
572.458469,-444.123565,-9252.574275,1072.533697
572.458797,-444.123565,-9104.533087,766.095498
572.459124,74.020594,-9104.533087,612.876398
572.459452,-814.226536,-8438.347739,766.095498
572.459779,-740.205942,-8956.491898,689.485948
572.460107,-740.205942,-8734.430116,459.657299
572.460434,-814.226536,-8438.347739,383.047749
572.460762,-592.164754,-8512.368333,383.047749
572.461089,-592.164754,-8512.368333,612.876398
572.461417,-518.144159,-8660.409521,689.485948
572.461744,-444.123565,-8956.491898,536.266849
572.462072,-296.082377,-9104.533087,766.095498
572.462399,-370.102971,-8808.450710,229.828649
572.462727,-148.041188,-9178.553681,459.657299
572.463054,-444.123565,-9252.574275,612.876398
572.463382,-296.082377,-9252.574275,383.047749
572.463709,-222.061783,-9178.553681,612.876398
572.464036,-444.123565,-8882.471304,612.876398
572.464364,-370.102971,-8364.327145,842.705048
572.464691,-222.061783,-8512.368333,153.219100
572.465019,-148.041188,-8660.409521,153.219100
572.465346,0.000000,-8882.471304,306.438199
572.465674,-222.061783,-8956.491898,383.047749
572.466001,-222.061783,-8734.430116,459.657299
572.466329,0.000000,-8956.491898,536.266849
572.466656,222.061783,-9326.594869,229.828649
572.466984,148.041188,-9326.594869,459.657299
572.467311,222.061783,-9326.594869,306.438199
572.467639,0.000000,-9030.512492,383.047749
572.467966,0.000000,-9178.553681,459.657299
572.468294,-296.082377,-9400.615463,536.266849
572.468621,-370.102971,-9030.512492,689.485948
572.468949,-296.082377,-9030.512492,383.047749
572.469276,0.000000,-8734.430116,229.828649
572.469604,-444.123565,-9030.512492,536.266849
572.469931,-518.144159,-9252.574275,612.876398
572.470259,-666.185348,-9252.574275,536.266849
572.470586,-592.164754,-9178.553681,459.657299
572.470914,-222.061783,-9178.553681,689.485948
572.471241,-296.082377,-9474.636058,459.657299
572.471569,-592.164754,-9548.656652,842.705048
572.471896,0.000000,-9474.636058,842.705048
572.472224,-148.041188,-9474.636058,766.095498
572.472551,-370.102971,-9400.615463,766.095498
572.472879,-740.205942,-8808.450710,1072.533697
572.473206,-296.082377,-9474.636058,919.314598
572.473533,-370.102971,-9252.574275,612.876398
572.473861,-444.123565,-9030.512492,919.314598
572.474188,-148.041188,-9104.533087,459.657299
572.474516,-592.164754,-8660.409521,842.705048
572.474843,0.000000,-9326.594869,612.876398
572.475171,-444.123565,-9252.574275,612.876398
572.475498,0.000000,-9326.594869,536.266849
572.475826,0.000000,-9400.615463,306.438199
572.476153,222.061783,-9030.512492,306.438199
572.476481,74.020594,-9474.636058,766.095498
572.476808,148.041188,-9548.656652,383.047749
572.477136,296.082377,-9252.574275,459.657299
572.477463,0.000000,-9178.553681,306.438199
572.477791,74.020594,-9252.574275,536.266849
572.478118,0.000000,-9178.553681,459.657299
572.478446,0.000000,-9030.512492,306.438199
572.478773,0.000000,-8956.491898,306.438199
572.479101,-148.041188,-8956.491898,153.219100
572.479428,-222.061783,-8956.491898,153.219100
572.479756,222.061783,-8882.471304,383.047749
572.480083,222.061783,-8586.388927,459.657299
572.480411,74.020594,-8956.491898,612.876398
572.480738,-148.041188,-9030.512492,536.266849
572.481066,0.000000,-9178.553681,536.266849
572.481393,148.041188,-8956.491898,536.266849
572.481721,-222.061783,-9030.512492,612.876398
572.482048,-222.061783,-9178.553681,766.095498
572.482376,-444.123565,-9326.594869,842.705048
572.482703,-666.185348,-9104.533087,842.705048
572.483031,-518.144159,-8808.450710,612.876398
572.483358,-592.164754,-8438.347739,995.924147
572.483685,-592.164754,-8882.471304,612.876398
572.484013,-592.164754,-8882.471304,842.705048
572.484340,-740.205942,-8734.430116,995.924147
572.484668,-740.205942,-8660.409521,842.705048
572.484995,-444.123565,-9030.512492,919.314598
572.485323,-296.082377,-9252.574275,689.485948
572.485650,-296.082377,-9178.553681,842.705048
572.485978,-296.082377,-9252.574275,995.924147
572.486305,-296.082377,-9400.615463,919.314598
572.486633,-296.082377,-9696.697840,766.095498
572.486960,-148.041188,-9400.615463,766.095498
572.487288,-444.123565,-9252.574275,612.876398
572.487615,-296.082377,-9104.533087,459.657299
572.487943,-444.123565,-9252.574275,689.485948
572.488270,-222.061783,-9252.574275,153.219100
572.488598,-592.164754,-8586.388927,383.047749
572.488925,-222.061783,-8956.491898,76.609550
572.489253,0.000000,-9030.512492,383.047749
572.489580,74.020594,-9030.512492,229.828649
572.489908,0.000000,-8660.409521,0.000000
572.490235,444.123565,-8956.491898,153.219100
572.490563,0.000000,-9252.574275,229.828649
572.490890,74.020594,-9474.636058,306.438199
572.491218,0.000000,-9474.636058,229.828649
572.491545,-370.102971,-9474.636058,229.828649
572.491873,-222.061783,-9104.533087,612.876398
572.492200,-296.082377,-9030.512492,383.047749
572.492528,-148.041188,-9252.574275,536.266849
572.492855,-222.061783,-8882.471304,383.047749
572.493183,-148.041188,-8956.491898,536.266849
572.493510,0.000000,-8734.430116,153.219100
572.493837,-296.082377,-8808.450710,306.438199
572.494165,-222.061783,-9252.574275,689.485948
572.494492,-592.164754,-9252.574275,766.095498
572.494820,-444.123565,-9178.553681,842.705048
572.495147,-222.061783,-9030.512492,919.314598
572.495475,-148.041188,-9178.553681,612.876398
572.495802,-518.144159,-9178.553681,842.705048
572.496130,-666.185348,-8956.491898,536.266849
572.496457,-740.205942,-9178.553681,919.314598
572.496785,-1036.288319,-8586.388927,459.657299
572.497112,-666.185348,-8882.471304,842.705048
572.497440,-814.226536,-8660.409521,459.657299
572.497767,-740.205942,-8808.450710,689.485948
572.498095,-592.164754,-8586.388927,459.657299
572.498422,-518.144159,-8808.450710,536.266849
572.498750,0.000000,-8216.285956,612.876398
572.499077,0.000000,-9030.512492,536.266849
572.499405,0.000000,-9104.533087,612.876398
572.499732,74.020594,-9326.594869,689.485948
572.500060,74.020594,-9326.594869,919.314598
572.500387,0.000000,-9474.636058,1072.533697
572.500715,74.020594,-9474.636058,229.828649
572.501042,0.000000,-9400.615463,612.876398
572.501370,0.000000,-9474.636058,383.047749
572.501697,0.000000,-9104.533087,306.438199
572.502025,-444.123565,-9030.512492,306.438199
572.502352,0.000000,-8956.491898,766.095498
572.502680,0.000000,-8956.491898,153.219100
572.503007,0.000000,-9030.512492,383.047749
572.503334,-296.082377,-9178.553681,229.828649
572.503662,-222.061783,-9474.636058,536.266849
572.503989,148.041188,-9474.636058,229.828649
572.504317,0.000000,-9474.636058,383.047749
572.504644,222.061783,-9400.615463,536.266849
572.504972,0.000000,-9400.615463,536.266849
572.505299,-518.144159,-9400.615463,536.266849
572.505627,74.020594,-9400.615463,842.705048
572.505954,-444.123565,-9474.636058,612.876398
572.506282,-518.144159,-9326.594869,306.438199
572.506609,-518.144159,-9030.512492,1072.533697
572.506937,-740.205942,-9030.512492,689.485948
572.507264,-814.226536,-8586.388927,919.314598
572.507592,-518.144159,-8956.491898,306.438199
572.507919,-370.102971,-8956.491898,536.266849
572.508247,-296.082377,-9252.574275,842.705048
572.508574,-370.102971,-9400.615463,919.314598
572.508902,-222.061783,-9696.697840,919.314598
572.509229,0.000000,-8882.471304,1072.533697
572.509557,0.000000,-9400.615463,766.095498
572.509884,-444.123565,-9326.594869,919.314598
572.510212,-370.102971,-9548.656652,842.705048
572.510539,-444.123565,-9178.553681,1378.971896
572.510867,-296.082377,-8882.471304,842.705048
572.511194,-444.123565,-8586.388927,383.047749
572.511522,-444.123565,-8734.430116,612.876398
572.511849,-370.102971,-8808.450710,383.047749
572.512177,-444.123565,-8734.430116,459.657299
572.512504,0.000000,-8956.491898,536.266849
572.512832,-444.123565,-8808.450710,76.609550
572.513159,-222.061783,-9030.512492,306.438199
572.513486,0.000000,-8956.491898,612.876398
572.513814,0.000000,-9252.574275,536.266849
572.514141,-296.082377,-9252.574275,383.047749
572.514469,0.000000,-9030.512492,612.876398
572.514796,-148.041188,-9104.533087,459.657299
572.515124,-222.061783,-9030.512492,306.438199
572.515451,0.000000,-9178.553681,459.657299
572.515779,0.000000,-8882.471304,0.000000
572.516106,-370.102971,-8512.368333,689.485948
572.516434,-222.061783,-8586.388927,153.219100
572.516761,-296.082377,-8734.430116,153.219100
572.517089,-444.123565,-8586.388927,306.438199
572.517416,-444.123565,-8734.430116,229.828649
572.517744,0.000000,-8586.388927,536.266849
572.518071,-296.082377,-9178.553681,459.657299
572.518399,-370.102971,-9030.512492,459.657299
572.518726,-296.082377,-9178.553681,612.876398
572.519054,0.000000,-9400.615463,536.266849
572.519381,-370.102971,-9030.512492,842.705048
572.519709,0.000000,-9252.574275,306.438199
572.520036,-370.102971,-9252.574275,689.485948
572.520364,-592.164754,-9104.533087,612.876398
572.520691,-666.185348,-9178.553681,612.876398
572.521019,-666.185348,-8956.491898,612.876398
572.521346,-222.061783,-8808.450710,536.266849
572.521674,-592.164754,-9030.512492,306.438199
572.522001,-592.164754,-8734.430116,306.438199
572.522329,-444.123565,-9104.533087,459.657299
572.522656,0.000000,-8956.491898,383.047749
572.522983,74.020594,-9178.553681,689.485948
572.523311,-296.082377,-9030.512492,842.705048
572.523638,-444.123565,-9400.615463,536.266849
572.523966,-222.061783,-9548.656652,995.924147
572.524293,-518.144159,-9400.615463,612.876398
572.524621,-370.102971,-8956.491898,766.095498
572.524948,-296.082377,-9178.553681,612.876398
572.525276,-296.082377,-9178.553681,612.876398
572.525603,-592.164754,-9030.512492,229.828649
572.525931,-592.164754,-8882.471304,306.438199
572.526258,-222.061783,-8956.491898,689.485948
572.526586,-296.082377,-8882.471304,229.828649
572.526913,-296.082377,-9178.553681,536.266849
572.527241,-444.123565,-9104.533087,536.266849
572.527568,0.000000,-9474.636058,459.657299
572.527896,-370.102971,-9326.594869,612.876398
572.528223,222.061783,-9474.636058,459.657299
572.528551,0.000000,-9474.636058,536.266849
572.528878,0.000000,-9252.574275,612.876398
572.529206,-148.041188,-9400.615463,766.095498
572.529533,-296.082377,-9252.574275,-76.609550
572.529861,0.000000,-9104.533087,383.047749
572.530188,-222.061783,-8808.450710,536.266849
572.530516,-518.144159,-8808.450710,459.657299
572.530843,-222.061783,-8956.491898,459.657299
572.531171,-296.082377,-8956.491898,689.485948
572.531498,148.041188,-9030.512492,689.485948
572.531826,-222.061783,-8956.491898,306.438199
572.532153,0.000000,-9400.615463,536.266849
572.532481,0.000000,-9400.615463,766.095498
572.532808,0.000000,-9326.594869,689.485948
572.533135,148.041188,-9178.553681,1378.971896
572.533463,148.041188,-9474.636058,842.705048
572.533790,-296.082377,-9548.656652,1072.533697
572.534118,-222.061783,-9400.615463,689.485948
572.534445,-444.123565,-9252.574275,766.095498
572.534773,-592.164754,-8512.368333,612.876398
572.535100,-296.082377,-8882.471304,536.266849
572.535428,-518.144159,-8660.409521,536.266849
572.535755,-296.082377,-8364.327145,689.485948
572.536083,-296.082377,-8512.368333,612.876398
572.536410,-222.061783,-8808.450710,459.657299
572.536738,0.000000,-8956.491898,306.438199
572.537065,-296.082377,-9178.553681,612.876398
572.537393,0.000000,-9178.553681,842.705048
572.537720,-148.041188,-9252.574275,689.485948
572.538048,0.000000,-9474.636058,842.705048
572.538375,-222.061783,-9030.512492,229.828649
572.538703,0.000000,-9252.574275,766.095498
572.539030,-222.061783,-9548.656652,689.485948
572.539358,-444.123565,-9326.594869,383.047749
572.539685,-370.102971,-9104.533087,536.266849
572.540013,0.000000,-8586.388927,459.657299
572.540340,74.020594,-8660.409521,229.828649
572.540668,-370.102971,-9104.533087,153.219100
572.540995,-444.123565,-8956.491898,229.828649
572.541323,-370.102971,-9030.512492,76.609550
572.541650,-370.102971,-8512.368333,459.657299
572.541978,0.000000,-9326.594869,383.047749
572.542305,0.000000,-9252.574275,383.047749
572.542633,0.000000,-9400.615463,689.485948
572.542960,-148.041188,-9474.636058,536.266849
572.543288,-370.102971,-9104.533087,229.828649
572.543615,0.000000,-9030.512492,919.314598
572.543943,-296.082377,-9104.533087,536.266849
572.544270,-370.102971,-8660.409521,536.266849
572.544597,-370.102971,-8882.471304,459.657299
572.544925,-444.123565,-8734.430116,229.828649
572.545252,-666.185348,-8438.347739,612.876398
572.545580,-592.164754,-8660.409521,459.657299
572.545907,-444.123565,-8956.491898,306.438199
572.546235,-222.061783,-9178.553681,689.485948
572.546562,0.000000,-9104.533087,612.876398
572.546890,0.000000,-9400.615463,459.657299
572.547217,0.000000,-9326.594869,1455.581446
572.547545,-296.082377,-9474.636058,536.266849
572.547872,-370.102971,-9548.656652,766.095498
572.548200,-592.164754,-9252.574275,842.705048
572.548527,-518.144159,-9252.574275,995.924147
572.548855,-740.205942,-9326.594869,766.095498
572.549182,-518.144159,-8734.430116,612.876398
572.549510,-814.226536,-8734.430116,459.657299
572.549837,-666.185348,-8586.388927,383.047749
572.550165,-740.205942,-8660.409521,459.657299
572.550492,-888.247130,-8142.265362,459.657299
572.550820,-444.123565,-8882.471304,459.657299
572.551147,-444.123565,-8956.491898,536.266849
572.551475,-370.102971,-9326.594869,689.485948
572.551802,0.000000,-9474.636058,766.095498
572.552130,0.000000,-9326.594869,919.314598
572.552457,0.000000,-9622.677246,689.485948
572.552785,-148.041188,-9548.656652,612.876398
572.553112,0.000000,-9474.636058,536.266849
572.553440,-296.082377,-9474.636058,766.095498
572.553767,0.000000,-9030.512492,919.314598
572.554095,0.000000,-8882.471304,383.047749
572.554422,-296.082377,-9030.512492,383.047749
572.554750,-518.144159,-8956.491898,383.047749
572.555077,-444.123565,-8956.491898,306.438199
572.555405,-296.082377,-9178.553681,919.314598
572.555732,74.020594,-8808.450710,766.095498
572.556060,296.082377,-9178.553681,536.266849
572.556387,222.061783,-9252.574275,689.485948
572.556715,148.041188,-9252.574275,689.485948
572.557042,74.020594,-9252.574275,536.266849
572.557370,-296.082377,-9326.594869,1149.143247
572.557697,-148.041188,-9474.636058,689.485948
572.558025,-444.123565,-9696.697840,689.485948
572.558352,-296.082377,-9548.656652,612.876398
572.558680,-444.123565,-9178.553681,689.485948
572.559007,0.000000,-9030.512492,0.000000
572.559335,-296.082377,-8660.409521,229.828649
572.559662,-370.102971,-8660.409521,306.438199
572.559990,-296.082377,-8660.409521,306.438199
572.560317,-296.082377,-8734.430116,383.047749
572.560645,-148.041188,-9104.533087,383.047749
572.560972,-296.082377,-9252.574275,1378.971896
572.561300,0.000000,-9474.636058,536.266849
572.561627,-148.041188,-9474.636058,612.876398
572.561955,0.000000,-9474.636058,842.705048
572.562282,0.000000,-9696.697840,919.314598
572.562610,0.000000,-9104.533087,689.485948
572.562937,0.000000,-9326.594869,689.485948
572.563265,-370.102971,-9400.615463,842.705048
572.563592,-370.102971,-8808.450710,612.876398
572.563920,-444.123565,-9178.553681,536.266849
572.564247,-296.082377,-8586.388927,383.047749
572.564575,-148.041188,-8808.450710,536.266849
572.564902,-222.061783,-8734.430116,229.828649
572.565230,-296.082377,-8734.430116,76.609550
572.565557,-148.041188,-8734.430116,0.000000
572.565884,-148.041188,-9030.512492,612.876398
572.566212,148.041188,-9104.533087,383.047749
572.566539,-222.061783,-9326.594869,383.047749
572.566867,0.000000,-9326.594869,536.266849
572.567194,-222.061783,-9326.594869,689.485948
572.567522,74.020594,-9400.615463,1149.143247
572.567849,0.000000,-8882.471304,766.095498
572.568177,0.000000,-9030.512492,306.438199
572.568504,-222.061783,-8956.491898,383.047749
572.568832,-370.102971,-8956.491898,306.438199
572.569159,-592.164754,-8956.491898,536.266849
572.569487,-666.185348,-8438.347739,536.266849
572.569814,-222.061783,-8808.450710,536.266849
572.570142,-444.123565,-8956.491898,383.047749
572.570469,-444.123565,-8808.450710,689.485948
572.570797,-296.082377,-9030.512492,306.438199
572.571124,-296.082377,-9252.574275,306.438199
572.571452,-296.082377,-8882.471304,306.438199
572.571779,-444.123565,-9104.533087,229.828649
572.572107,-222.061783,-9104.533087,689.485948
572.572434,-444.123565,-9474.636058,842.705048
572.572762,-370.102971,-9252.574275,995.924147
572.573089,-518.144159,-9252.574275,612.876398
572.573417,-296.082377,-8956.491898,689.485948
572.573744,-296.082377,-8882.471304,612.876398
572.574072,0.000000,-9104.533087,383.047749
572.574399,-592.164754,-9030.512492,459.657299
572.574727,148.041188,-9104.533087,612.876398
572.575054,-296.082377,-9104.533087,766.095498
572.575382,0.000000,-9252.574275,612.876398
572.575709,-148.041188,-9252.574275,689.485948
572.576037,-148.041188,-9400.615463,612.876398
572.576364,0.000000,-8956.491898,306.438199
572.576692,0.000000,-9178.553681,459.657299
572.577019,-148.041188,-9326.594869,306.438199
572.577347,-148.041188,-9030.512492,536.266849
572.577674,-370.102971,-9326.594869,306.438199
572.578002,-370.102971,-9030.512492,1302.362347
572.578329,-666.185348,-9400.615463,536.266849
572.578657,-518.144159,-9252.574275,459.657299
572.578984,-592.164754,-9178.553681,459.657299
572.579312,-370.102971,-9178.553681,536.266849
572.579639,0.000000,-8956.491898,536.266849
572.579967,0.000000,-8808.450710,459.657299
572.580294,-222.061783,-9178.553681,612.876398
572.580622,-222.061783,-9252.574275,689.485948
572.580949,-148.041188,-9252.574275,689.485948
572.581277,0.000000,-8956.491898,766.095498
572.581604,0.000000,-9326.594869,1072.533697
572.581932,-222.061783,-9030.512492,459.657299
572.582259,-222.061783,-9030.512492,766.095498
572.582587,-222.061783,-9104.533087,842.705048
572.582914,-222.061783,-9326.594869,459.657299
572.583242,-666.185348,-8808.450710,689.485948
572.583569,-370.102971,-9104.533087,919.314598
572.583897,-370.102971,-9104.533087,842.705048
572.584224,-444.123565,-9326.594869,536.266849
572.584552,-444.123565,-9178.553681,536.266849
572.584879,-296.082377,-9326.594869,306.438199
572.585207,-518.144159,-9030.512492,383.047749
572.585534,-370.102971,-9030.512492,459.657299
572.585862,-296.082377,-9400.615463,383.047749
572.586189,-296.082377,-9326.594869,536.266849
572.586516,-148.041188,-9400.615463,0.000000
572.586844,-296.082377,-9178.553681,1149.143247
572.587171,-148.041188,-9252.574275,459.657299
572.587499,-296.082377,-9178.553681,459.657299
572.587826,-148.041188,-9178.553681,383.047749
572.588154,0.000000,-9030.512492,306.438199
572.588481,-370.102971,-8660.409521,689.485948
572.588809,0.000000,-8956.491898,459.657299
572.589136,-296.082377,-9104.533087,383.047749
572.589464,0.000000,-8956.491898,459.657299
572.589791,0.000000,-8882.471304,306.438199
572.590119,0.000000,-8216.285956,383.047749
572.590446,0.000000,-8882.471304,306.438199
572.590774,0.000000,-9030.512492,536.266849
572.591101,-296.082377,-8808.450710,459.657299
572.591429,-296.082377,-9104.533087,459.657299
572.591756,-444.123565,-8660.409521,612.876398
572.592084,-148.041188,-9548.656652,459.657299
572.592411,-370.102971,-9252.574275,536.266849
572.592739,0.000000,-9178.553681,919.314598
572.593066,74.020594,-8882.471304,459.657299
572.593394,296.082377,-8956.491898,1072.533697
572.593721,-148.041188,-8734.430116,536.266849
572.594049,-444.123565,-9178.553681,842.705048
572.594376,-518.144159,-9030.512492,383.047749
572.594704,-592.164754,-9252.574275,536.266849
572.595031,-222.061783,-9326.594869,766.095498
572.595359,0.000000,-9252.574275,919.314598
572.595686,74.020594,-9178.553681,689.485948
572.596014,0.000000,-8882.471304,766.095498
572.596341,0.000000,-8882.471304,306.438199
572.596669,0.000000,-9030.512492,383.047749
572.596996,-444.123565,-8660.409521,842.705048
572.597324,-296.082377,-8882.471304,306.438199
572.597651,-296.082377,-9030.512492,536.266849
572.597979,-518.144159,-9326.594869,919.314598
572.598306,-222.061783,-9252.574275,689.485948
572.598634,-296.082377,-8956.491898,995.924147
572.598961,0.000000,-8808.450710,229.828649
572.599289,0.000000,-8882.471304,306.438199
572.599616,0.000000,-9030.512492,306.438199
572.599944,0.000000,-9252.574275,612.876398
572.600271,74.020594,-9400.615463,612.876398
572.600599,-370.102971,-9474.636058,1072.533697
572.600926,-518.144159,-9548.656652,612.876398
572.601254,-370.102971,-9696.697840,919.314598
572.601581,-222.061783,-9548.656652,766.095498
572.601909,-296.082377,-9844.739029,842.705048
572.602236,0.000000,-9030.512492,459.657299
572.602564,-518.144159,-8734.430116,459.657299
572.602891,0.000000,-9030.512492,459.657299
572.603219,0.000000,-9030.512492,612.876398
572.603546,-370.102971,-9104.533087,766.095498
572.603874,-296.082377,-9178.553681,766.095498
572.604201,-148.041188,-9178.553681,459.657299
572.604529,-370.102971,-9252.574275,689.485948
572.604856,0.000000,-8808.450710,842.705048
572.605184,666.185348,-8660.409521,1072.533697
572.605511,1258.350101,-8438.347739,1762.019645
572.605839,1036.288319,-8586.388927,1532.190996
572.606166,518.144159,-9104.533087,1838.629195
572.606494,74.020594,-9252.574275,1991.848295
572.606821,-222.061783,-9030.512492,1838.629195
572.607149,0.000000,-9252.574275,1838.629195
572.607476,0.000000,-9104.533087,2451.505594
572.607803,0.000000,-9030.512492,2145.067394
572.608131,0.000000,-8956.491898,2068.457845
572.608458,-148.041188,-8882.471304,2298.286494
572.608786,-222.061783,-8808.450710,2451.505594
572.609113,-444.123565,-8660.409521,2528.115143
572.609441,-518.144159,-8734.430116,2298.286494
572.609768,-518.144159,-8882.471304,2374.896044
572.610096,-814.226536,-8956.491898,2604.724693
572.610423,-666.185348,-8882.471304,2757.943793
572.610751,-740.205942,-8882.471304,2681.334243
572.611078,-666.185348,-8956.491898,3217.601092
572.611406,-666.185348,-9030.512492,2834.553343
572.611733,-1036.288319,-8808.450710,2757.943793
572.612061,-962.267725,-9030.512492,2987.772442
572.612388,-814.226536,-9104.533087,2757.943793
572.612716,-666.185348,-8734.430116,3677.258390
572.613043,-518.144159,-9030.512492,3140.991542
572.613371,-518.144159,-8882.471304,3217.601092
572.613698,-370.102971,-8956.491898,2987.772442
572.614026,0.000000,-8882.471304,3524.039291
572.614353,-296.082377,-9030.512492,3217.601092
