#time,accel_x,accel_y,accel_z
482.824433,-296.082377,-9030.512492,536.266849
482.824761,-444.123565,-9030.512492,459.657299
482.825088,0.000000,-9030.512492,612.876398
482.825416,0.000000,-9030.512492,919.314598
482.825744,-148.041188,-8882.471304,383.047749
482.826072,0.000000,-9178.553681,612.876398
482.826400,-148.041188,-9030.512492,536.266849
482.826728,-370.102971,-9178.553681,689.485948
482.827056,-370.102971,-9252.574275,536.266849
482.827384,-148.041188,-9178.553681,459.657299
482.827712,-296.082377,-9104.533087,383.047749
482.828040,-222.061783,-9252.574275,536.266849
482.828368,-296.082377,-9178.553681,383.047749
482.828695,-74.020594,-9326.594869,689.485948
482.829023,-370.102971,-9030.512492,612.876398
482.829351,0.000000,-9030.512492,1225.752797
482.829679,-296.082377,-9400.615463,383.047749
482.830007,-222.061783,-9178.553681,459.657299
482.830335,-296.082377,-9252.574275,612.876398
482.830663,-296.082377,-9178.553681,536.266849
482.830991,-518.144159,-8734.430116,766.095498
482.831319,0.000000,-8956.491898,995.924147
482.831647,0.000000,-9178.553681,536.266849
482.831975,-370.102971,-8882.471304,383.047749
482.832302,0.000000,-8956.491898,689.485948
482.832630,-148.041188,-8882.471304,689.485948
482.832958,-370.102971,-8882.471304,766.095498
482.833286,-444.123565,-9326.594869,689.485948
482.833614,-370.102971,-9030.512492,536.266849
482.833942,-222.061783,-9030.512492,766.095498
482.834270,-740.205942,-9104.533087,383.047749
482.834598,-962.267725,-9474.636058,-306.438199
482.834926,-1480.411884,-9548.656652,-229.828649
482.835254,-1480.411884,-9252.574275,-383.047749
482.835582,-1036.288319,-8808.450710,-459.657299
482.835909,-592.164754,-8882.471304,-306.438199
482.836237,-296.082377,-9474.636058,-689.485948
482.836565,-962.267725,-9104.533087,-689.485948
482.836893,-1110.308913,-9030.512492,-1072.533697
482.837221,-1036.288319,-9104.533087,-1225.752797
482.837549,-962.267725,-8882.471304,-1378.971896
482.837877,-814.226536,-8882.471304,-1149.143247
482.838205,-370.102971,-9104.533087,-689.485948
482.838533,-370.102971,-9104.533087,-1225.752797
482.838861,0.000000,-9104.533087,-1302.362347
482.839189,0.000000,-9178.553681,-1378.971896
482.839516,222.061783,-9104.533087,-1149.143247
482.839844,0.000000,-9178.553681,-1378.971896
482.840172,222.061783,-9326.594869,-1685.410096
482.840500,0.000000,-9474.636058,-1762.019645
482.840828,74.020594,-9474.636058,-1838.629195
482.841156,148.041188,-9252.574275,-1685.410096
482.841484,444.123565,-8660.409521,-1991.848295
482.841812,518.144159,-9326.594869,-1991.848295
482.842140,148.041188,-9400.615463,-1838.629195
482.842468,0.000000,-9474.636058,-1991.848295
482.842796,74.020594,-9400.615463,-1915.238745
482.843123,592.164754,-8956.491898,-1991.848295
482.843451,0.000000,-9326.594869,-1838.629195
482.843779,-296.082377,-9474.636058,-1915.238745
482.844107,-444.123565,-9326.594869,-1991.848295
482.844435,-740.205942,-9104.533087,-2068.457845
482.844763,-666.185348,-8956.491898,-1685.410096
482.845091,-1332.370696,-8808.450710,-2298.286494
482.845419,-1406.391290,-9104.533087,-2451.505594
482.845747,-1702.473667,-9104.533087,-2681.334243
482.846075,-1998.556043,-9030.512492,-3064.381992
482.846403,-1924.535449,-8956.491898,-3064.381992
482.846730,-1702.473667,-9178.553681,-3217.601092
482.847058,-1850.514855,-8882.471304,-3677.258390
482.847386,-1702.473667,-8882.471304,-3983.696590
482.847714,-1628.453072,-9030.512492,-3524.039291
482.848042,-1406.391290,-9030.512492,-3677.258390
482.848370,-962.267725,-9030.512492,-4213.525239
482.848698,-518.144159,-8734.430116,-3753.867940
482.849026,-148.041188,-9104.533087,-3217.601092
482.849354,444.123565,-9178.553681,-3294.210641
482.849682,1036.288319,-9252.574275,-2757.943793
482.850010,1998.556043,-9104.533087,-2374.896044
482.850337,2368.659014,-8734.430116,-2068.457845
482.850665,2146.597232,-9104.533087,-2145.067394
482.850993,1850.514855,-9770.718434,-1915.238745
482.851321,740.205942,-9992.780217,-2451.505594
482.851649,-518.144159,-9918.759623,-2298.286494
482.851977,-1184.329507,-10288.862594,-2834.553343
482.852305,-1850.514855,-10288.862594,-4213.525239
482.852633,-2368.659014,-10066.800811,-4903.011187
482.852961,-1406.391290,-9474.636058,-4903.011187
482.853289,-296.082377,-8364.327145,-4903.011187
482.853617,1258.350101,-7476.080014,-4136.915689
482.853944,2294.638420,-7105.977043,-3217.601092
482.854272,2812.782580,-7402.059420,-2451.505594
482.854600,2294.638420,-7772.162391,-1991.848295
482.854928,962.267725,-8734.430116,-1762.019645
482.855256,-740.205942,-10288.862594,-1838.629195
482.855584,-2738.761985,-10584.944971,-2451.505594
482.855912,-3775.050304,-11325.150913,-2757.943793
482.856240,-3256.906145,-10881.027347,-2451.505594
482.856568,0.000000,-9030.512492,-1532.190996
482.856896,5329.482782,-6587.832884,612.876398
482.857224,9252.574275,-5329.482782,2528.115143
482.857551,10288.862594,-5699.585753,4213.525239
482.857879,7846.182985,-7920.203579,3907.087040
482.858207,2664.741391,-10362.883188,2834.553343
482.858535,-3108.864956,-12065.356855,1072.533697
482.858863,-8290.306550,-13397.727550,-383.047749
482.859191,-11695.253884,-14211.954086,-2604.724693
482.859519,-11843.295072,-13619.789333,-3983.696590
482.859847,-11547.212695,-11695.253884,-4213.525239
482.860175,-4885.359217,-8364.327145,-4519.963438
482.860503,-3108.864956,-5107.421000,-2834.553343
482.860830,740.205942,-4071.132681,-4060.306139
482.861158,444.123565,-4885.359217,-4443.353888
482.861486,-4515.256246,-6513.812290,-5745.716235
482.861814,-6587.832884,-7920.203579,-6971.469032
482.862142,-11843.295072,-9474.636058,-8350.440928
482.862470,-10362.883188,-9992.780217,-8503.660028
482.862798,-8142.265362,-9622.677246,-7584.345430
482.863126,-3034.844362,-8290.306550,-5975.544884
482.863454,4589.276840,-7179.997637,-4213.525239
482.863782,7772.162391,-7031.956449,-3370.820191
482.864110,8290.306550,-7920.203579,-3600.648841
482.864437,7105.977043,-10288.862594,-4443.353888
482.864765,4145.153275,-11325.150913,-6052.154434
482.865093,4219.173869,-11473.192101,-6281.983084
482.865421,7328.038826,-10362.883188,-4749.792088
482.865749,10510.924376,-8438.347739,-3140.991542
482.866077,12731.542202,-9474.636058,0.000000
482.866405,12213.398043,-9844.739029,306.438199
482.866733,8882.471304,-9696.697840,-1455.581446
482.867061,6513.812290,-10881.027347,-1302.362347
482.867389,7105.977043,-10658.965565,-1685.410096
482.867717,5625.565159,-11547.212695,-459.657299
482.868044,2294.638420,-10658.965565,-689.485948
482.868372,-2442.679609,-12731.542202,-2145.067394
482.868700,-8216.285956,-12879.583391,-3447.429741
482.869028,-12509.480420,-9696.697840,-5209.449386
482.869356,-9992.780217,-5699.585753,-5898.935335
482.869684,-6439.791695,-2516.700203,-5132.839837
482.870012,1332.370696,-1554.432478,-3064.381992
482.870340,1628.453072,-2146.597232,-1072.533697
482.870668,1628.453072,-2220.617826,-842.705048
482.870996,-296.082377,-4737.318029,-306.438199
482.871324,-3552.988522,-6365.771101,306.438199
482.871651,-4737.318029,-8586.388927,1302.362347
482.871979,-4441.235652,-10214.842000,2298.286494
482.872307,-4589.276840,-11473.192101,3830.477490
482.872635,-3923.091493,-11547.212695,5439.278036
482.872963,-2368.659014,-11325.150913,6205.373534
482.873291,0.000000,-9770.718434,5898.935335
482.873619,2368.659014,-9770.718434,4903.011187
482.873947,2072.576638,-10807.006753,3677.258390
482.874275,-148.041188,-10510.924376,2221.676944
482.874603,-1998.556043,-9992.780217,1149.143247
482.874931,-888.247130,-9178.553681,1608.800546
482.875258,814.226536,-7328.038826,2145.067394
482.875586,1184.329507,-8216.285956,2911.162892
482.875914,-814.226536,-9548.656652,2068.457845
482.876242,-4737.318029,-10214.842000,1991.848295
482.876570,-5773.606348,-10584.944971,1455.581446
482.876898,-6587.832884,-10955.047942,1302.362347
482.877226,-2738.761985,-9918.759623,919.314598
482.877554,296.082377,-9548.656652,1762.019645
482.877882,-962.267725,-9400.615463,1072.533697
482.878210,-3330.926739,-8438.347739,383.047749
482.878538,-4293.194464,-7920.203579,-306.438199
482.878865,-3330.926739,-6883.915261,-1225.752797
482.879193,-148.041188,-6957.935855,-1991.848295
482.879521,1850.514855,-7846.182985,-1608.800546
482.879849,2738.761985,-9844.739029,-2451.505594
482.880177,1924.535449,-11029.068536,-1685.410096
482.880505,888.247130,-11029.068536,-1378.971896
482.880832,2886.803174,-10288.862594,-536.266849
482.881160,5329.482782,-10658.965565,383.047749
482.881488,5847.626942,-11917.315666,-306.438199
482.881816,3256.906145,-12879.583391,-153.219100
482.882143,-444.123565,-12287.418637,-383.047749
482.882471,-1332.370696,-11843.295072,0.000000
482.882799,592.164754,-10288.862594,536.266849
482.883127,2590.720797,-9474.636058,0.000000
482.883454,3552.988522,-9474.636058,0.000000
482.883782,2516.700203,-8956.491898,-306.438199
482.884110,888.247130,-7328.038826,-459.657299
482.884437,1332.370696,-5329.482782,-153.219100
482.884765,2368.659014,-5033.400406,153.219100
482.885093,3256.906145,-6365.771101,383.047749
482.885421,222.061783,-7179.997637,0.000000
482.885748,-3923.091493,-8956.491898,-383.047749
482.886076,-5551.544565,-9178.553681,-689.485948
482.886404,-4515.256246,-8882.471304,-229.828649
482.886732,-2516.700203,-8586.388927,-306.438199
482.887059,-962.267725,-9326.594869,-459.657299
482.887387,-2220.617826,-9770.718434,-306.438199
482.887715,-4145.153275,-8660.409521,-229.828649
482.888043,-3478.967927,-6661.853478,0.000000
482.888370,-1036.288319,-5847.626942,229.828649
482.888698,2368.659014,-6957.935855,1149.143247
482.889026,2442.679609,-8290.306550,1302.362347
482.889354,222.061783,-9252.574275,1378.971896
482.889681,-1554.432478,-8956.491898,1149.143247
482.890009,-1554.432478,-7550.100608,2068.457845
482.890337,740.205942,-8142.265362,2451.505594
482.890665,2368.659014,-8512.368333,2451.505594
482.890992,2368.659014,-9844.739029,2681.334243
482.891320,222.061783,-9178.553681,2834.553343
482.891648,-518.144159,-8364.327145,3294.210641
482.891976,370.102971,-7698.141797,2834.553343
482.892303,1850.514855,-8142.265362,2757.943793
482.892631,1776.494261,-9178.553681,2221.676944
482.892959,-814.226536,-9770.718434,1072.533697
482.893287,-3478.967927,-9252.574275,76.609550
482.893614,-3923.091493,-8956.491898,919.314598
482.893942,-1628.453072,-8068.244768,76.609550
482.894270,-1406.391290,-9400.615463,306.438199
482.894598,0.000000,-10362.883188,0.000000
482.894925,-3256.906145,-11177.109724,0.000000
482.895253,-4885.359217,-9696.697840,0.000000
482.895581,-2960.823768,-8956.491898,0.000000
482.895909,370.102971,-8512.368333,612.876398
482.896236,2220.617826,-9030.512492,459.657299
482.896564,1184.329507,-10140.821405,383.047749
482.896892,-1702.473667,-10214.842000,229.828649
482.897220,-3330.926739,-9326.594869,459.657299
482.897547,-1258.350101,-8216.285956,689.485948
482.897875,1480.411884,-8364.327145,536.266849
482.898203,3404.947333,-9474.636058,766.095498
482.898531,2664.741391,-10066.800811,229.828649
482.898858,518.144159,-9918.759623,0.000000
482.899186,518.144159,-9030.512492,766.095498
482.899514,2368.659014,-8956.491898,1225.752797
482.899842,3552.988522,-10066.800811,995.924147
482.900169,2442.679609,-11177.109724,536.266849
482.900497,-666.185348,-12139.377449,229.828649
482.900825,-3701.029710,-11621.233289,0.000000
482.901153,-3701.029710,-10436.903782,-229.828649
482.901480,-1036.288319,-9770.718434,306.438199
482.901808,1406.391290,-9622.677246,383.047749
482.902136,-370.102971,-10362.883188,-536.266849
482.902464,-1850.514855,-9770.718434,-689.485948
482.902791,-3701.029710,-8068.244768,-536.266849
482.903119,-1850.514855,-7179.997637,0.000000
482.903447,1554.432478,-7254.018232,689.485948
482.903775,2072.576638,-8512.368333,1225.752797
482.904102,0.000000,-9622.677246,919.314598
482.904430,-2960.823768,-9400.615463,689.485948
482.904758,-3701.029710,-8586.388927,842.705048
482.905086,-1258.350101,-8364.327145,842.705048
482.905413,1998.556043,-8512.368333,1072.533697
482.905741,2146.597232,-9104.533087,536.266849
482.906069,740.205942,-9030.512492,612.876398
482.906396,-1036.288319,-7846.182985,1149.143247
482.906724,74.020594,-6957.935855,1378.971896
482.907052,2738.761985,-7105.977043,2374.896044
482.907380,3627.009116,-8364.327145,1608.800546
482.907707,1480.411884,-9474.636058,1378.971896
482.908035,-1628.453072,-10362.883188,842.705048
482.908363,-3701.029710,-9474.636058,842.705048
482.908691,-2146.597232,-8882.471304,1149.143247
482.909018,370.102971,-9178.553681,1455.581446
482.909346,1036.288319,-9548.656652,1072.533697
482.909674,-666.185348,-9548.656652,229.828649
482.910002,-2664.741391,-8586.388927,383.047749
482.910329,-2516.700203,-6735.874072,536.266849
482.910657,0.000000,-6143.709319,1378.971896
482.910985,1776.494261,-7105.977043,1149.143247
482.911313,1258.350101,-8586.388927,842.705048
482.911640,-2294.638420,-8956.491898,0.000000
482.911968,-4219.173869,-8808.450710,0.000000
482.912296,-3627.009116,-8068.244768,306.438199
482.912624,0.000000,-7994.224174,229.828649
482.912951,1998.556043,-9178.553681,306.438199
482.913279,1554.432478,-9548.656652,306.438199
482.913607,-370.102971,-9474.636058,229.828649
482.913935,-888.247130,-9104.533087,76.609550
482.914262,518.144159,-8586.388927,383.047749
482.914590,2664.741391,-9104.533087,766.095498
482.914918,3034.844362,-10362.883188,383.047749
482.915246,666.185348,-11251.130318,229.828649
482.915573,-2516.700203,-11103.089130,-306.438199
482.915901,-2738.761985,-9844.739029,459.657299
482.916229,-740.205942,-9104.533087,76.609550
482.916557,1776.494261,-9400.615463,229.828649
482.916884,1628.453072,-10066.800811,-153.219100
482.917212,-666.185348,-10362.883188,-459.657299
482.917540,-2220.617826,-9104.533087,-306.438199
482.917868,-1184.329507,-7994.224174,-229.828649
482.918195,1480.411884,-8068.244768,76.609550
482.918523,2442.679609,-9400.615463,383.047749
482.918851,444.123565,-10436.903782,229.828649
482.919179,-2368.659014,-10807.006753,0.000000
482.919506,-4145.153275,-9770.718434,0.000000
482.919834,-1776.494261,-9474.636058,0.000000
482.920162,1332.370696,-9474.636058,-153.219100
482.920490,2368.659014,-10288.862594,76.609550
482.920817,1258.350101,-10658.965565,536.266849
482.921145,-666.185348,-9770.718434,842.705048
482.921473,-814.226536,-8808.450710,1378.971896
482.921801,1776.494261,-8808.450710,1608.800546
482.922128,3478.967927,-9178.553681,1685.410096
482.922456,2220.617826,-9548.656652,1685.410096
482.922784,-888.247130,-10362.883188,1532.190996
482.923112,-3701.029710,-10066.800811,1225.752797
482.923439,-2738.761985,-8956.491898,1532.190996
482.923767,0.000000,-8586.388927,1532.190996
482.924095,1628.453072,-9104.533087,1225.752797
482.924423,296.082377,-9696.697840,766.095498
482.924750,-2442.679609,-9104.533087,459.657299
482.925078,-3182.885551,-7550.100608,536.266849
482.925406,-962.267725,-6291.750507,995.924147
482.925734,1480.411884,-6809.894666,1608.800546
482.926061,2072.576638,-8216.285956,1378.971896
482.926389,-1406.391290,-9400.615463,995.924147
482.926717,-4663.297435,-9326.594869,536.266849
482.927044,-4811.338623,-8290.306550,383.047749
482.927372,-2146.597232,-8068.244768,612.876398
482.927700,1184.329507,-9252.574275,383.047749
482.928028,666.185348,-9474.636058,995.924147
482.928355,-1184.329507,-9400.615463,919.314598
482.928683,-2368.659014,-8364.327145,919.314598
482.929011,-666.185348,-7402.059420,1072.533697
482.929339,2442.679609,-7476.080014,1225.752797
482.929666,3627.009116,-8512.368333,1072.533697
482.929994,1184.329507,-9548.656652,536.266849
482.930322,-2072.576638,-9474.636058,229.828649
482.930650,-2738.761985,-8438.347739,383.047749
482.930977,-518.144159,-7920.203579,995.924147
482.931305,2442.679609,-8068.244768,153.219100
482.931633,3108.864956,-9178.553681,612.876398
482.931961,592.164754,-9548.656652,306.438199
482.932288,-1406.391290,-9104.533087,153.219100
482.932616,-1480.411884,-8068.244768,612.876398
482.932944,1110.308913,-7698.141797,612.876398
482.933272,2664.741391,-9474.636058,919.314598
482.933599,1332.370696,-10732.986159,459.657299
482.933927,-2442.679609,-10584.944971,-306.438199
482.934255,-4293.194464,-9844.739029,-459.657299
482.934583,-2886.803174,-8882.471304,-536.266849
482.934910,740.205942,-8882.471304,-919.314598
482.935238,2294.638420,-9474.636058,-689.485948
482.935566,1258.350101,-9992.780217,-689.485948
482.935894,-1406.391290,-9474.636058,-536.266849
482.936221,-1924.535449,-8956.491898,-306.438199
482.936549,0.000000,-8364.327145,-229.828649
482.936877,2368.659014,-9474.636058,383.047749
482.937205,2368.659014,-10584.944971,459.657299
482.937532,0.000000,-10881.027347,536.266849
482.937860,-3034.844362,-10732.986159,229.828649
482.938188,-2368.659014,-9844.739029,919.314598
482.938516,222.061783,-9696.697840,612.876398
482.938843,2368.659014,-9770.718434,689.485948
482.939171,2220.617826,-10436.903782,306.438199
482.939499,-296.082377,-10140.821405,153.219100
482.939827,-1332.370696,-9104.533087,536.266849
482.940154,370.102971,-8068.244768,689.485948
482.940482,3034.844362,-8216.285956,1149.143247
482.940810,3034.844362,-9474.636058,1378.971896
482.941138,740.205942,-10436.903782,919.314598
482.941465,-2886.803174,-10510.924376,1149.143247
482.941793,-3997.112087,-9844.739029,229.828649
482.942121,-2072.576638,-9474.636058,919.314598
482.942449,444.123565,-9474.636058,995.924147
482.942776,814.226536,-9844.739029,919.314598
482.943104,-962.267725,-9770.718434,919.314598
482.943432,-2812.782580,-8808.450710,842.705048
482.943760,-2368.659014,-7550.100608,1072.533697
482.944087,296.082377,-7402.059420,1455.581446
482.944415,1998.556043,-8142.265362,1378.971896
482.944743,592.164754,-8882.471304,1225.752797
482.945071,-3034.844362,-9178.553681,842.705048
482.945398,-3997.112087,-8660.409521,766.095498
482.945726,-2516.700203,-7772.162391,919.314598
482.946054,592.164754,-7550.100608,766.095498
482.946382,2146.597232,-8068.244768,1072.533697
482.946709,740.205942,-8512.368333,1072.533697
482.947037,-1258.350101,-8956.491898,842.705048
482.947365,-1850.514855,-7624.121203,1149.143247
482.947693,148.041188,-7550.100608,1455.581446
482.948020,2368.659014,-8290.306550,1532.190996
482.948348,1702.473667,-9770.718434,1762.019645
482.948676,-1406.391290,-10140.821405,1072.533697
482.949003,-4293.194464,-9548.656652,306.438199
482.949331,-3775.050304,-8882.471304,76.609550
482.949659,-814.226536,-8364.327145,153.219100
482.949987,1480.411884,-8586.388927,229.828649
482.950314,370.102971,-8956.491898,-383.047749
482.950642,-1258.350101,-9178.553681,-306.438199
482.950970,-2368.659014,-8068.244768,-459.657299
482.951298,-222.061783,-7402.059420,-153.219100
482.951625,2220.617826,-7624.121203,0.000000
482.951953,2590.720797,-9178.553681,536.266849
482.952281,148.041188,-10510.924376,-229.828649
482.952609,-2812.782580,-10510.924376,0.000000
482.952936,-3256.906145,-9844.739029,0.000000
482.953264,-370.102971,-9400.615463,229.828649
482.953592,2442.679609,-9252.574275,536.266849
482.953920,3108.864956,-10436.903782,0.000000
482.954247,1628.453072,-10214.842000,383.047749
482.954575,0.000000,-8882.471304,383.047749
482.954903,1110.308913,-8142.265362,1072.533697
482.955231,3997.112087,-7920.203579,1685.410096
482.955558,4367.215058,-9252.574275,1225.752797
482.955886,2368.659014,-10214.842000,612.876398
482.956214,-1702.473667,-10732.986159,229.828649
482.956542,-3701.029710,-9844.739029,0.000000
482.956869,-2072.576638,-9696.697840,153.219100
482.957197,370.102971,-9548.656652,383.047749
482.957525,666.185348,-9696.697840,229.828649
482.957853,-1406.391290,-9918.759623,0.000000
482.958180,-3552.988522,-9252.574275,-306.438199
482.958508,-3701.029710,-7920.203579,-229.828649
482.958836,-666.185348,-7105.977043,76.609550
482.959164,1184.329507,-7920.203579,383.047749
482.959491,888.247130,-8586.388927,153.219100
482.959819,-1998.556043,-9474.636058,459.657299
482.960147,-4293.194464,-8956.491898,229.828649
482.960475,-3849.070898,-8216.285956,612.876398
482.960802,-370.102971,-8438.347739,766.095498
482.961130,1480.411884,-9252.574275,919.314598
482.961458,1258.350101,-9770.718434,919.314598
482.961786,-370.102971,-9474.636058,1149.143247
482.962113,-592.164754,-8216.285956,2221.676944
482.962441,1998.556043,-7698.141797,2145.067394
482.962769,4219.173869,-8512.368333,2451.505594
482.963097,4071.132681,-9622.677246,2068.457845
482.963424,740.205942,-10288.862594,1915.238745
482.963752,-2368.659014,-10436.903782,1455.581446
482.964080,-3478.967927,-9622.677246,1685.410096
482.964408,-1480.411884,-9030.512492,1225.752797
482.964735,1702.473667,-9400.615463,1072.533697
482.965063,1406.391290,-9770.718434,842.705048
482.965391,-1702.473667,-9622.677246,689.485948
482.965719,-3330.926739,-8216.285956,536.266849
482.966046,-2442.679609,-7476.080014,229.828649
482.966374,0.000000,-7772.162391,459.657299
482.966702,1628.453072,-8586.388927,919.314598
482.967030,-592.164754,-9548.656652,306.438199
482.967357,-3775.050304,-9770.718434,306.438199
482.967685,-4515.256246,-9030.512492,76.609550
482.968013,-3034.844362,-8956.491898,229.828649
482.968341,518.144159,-8808.450710,229.828649
482.968668,1998.556043,-9770.718434,229.828649
482.968996,444.123565,-10066.800811,383.047749
482.969324,-1184.329507,-9400.615463,766.095498
482.969651,-370.102971,-8586.388927,766.095498
482.969979,2294.638420,-8216.285956,1072.533697
482.970307,4071.132681,-9400.615463,1532.190996
482.970635,2590.720797,-10881.027347,1302.362347
482.970962,-1184.329507,-11547.212695,459.657299
482.971290,-3775.050304,-11103.089130,153.219100
482.971618,-3182.885551,-10288.862594,76.609550
482.971946,-222.061783,-9548.656652,153.219100
482.972273,2294.638420,-9918.759623,153.219100
482.972601,222.061783,-9474.636058,-995.924147
482.972929,-1480.411884,-9104.533087,-1225.752797
482.973257,-2368.659014,-7698.141797,-689.485948
482.973584,0.000000,-7179.997637,-459.657299
482.973912,2146.597232,-6957.935855,-459.657299
482.974240,2516.700203,-7624.121203,306.438199
482.974568,-222.061783,-8808.450710,-153.219100
482.974895,-3182.885551,-8586.388927,-229.828649
482.975223,-3330.926739,-7772.162391,0.000000
482.975551,-592.164754,-7698.141797,229.828649
482.975879,2812.782580,-8660.409521,459.657299
482.976206,2664.741391,-9178.553681,995.924147
482.976534,888.247130,-9474.636058,995.924147
482.976862,-444.123565,-7994.224174,1302.362347
482.977190,1110.308913,-7402.059420,2068.457845
482.977517,4145.153275,-7772.162391,2374.896044
482.977845,4441.235652,-8586.388927,2298.286494
482.978173,2072.576638,-9992.780217,1915.238745
482.978501,-1628.453072,-10140.821405,1762.019645
482.978828,-3701.029710,-9400.615463,1455.581446
482.979156,-2294.638420,-8882.471304,1302.362347
482.979484,-370.102971,-9474.636058,1302.362347
482.979812,740.205942,-9178.553681,1225.752797
482.980139,-2368.659014,-9844.739029,459.657299
482.980467,-4515.256246,-8660.409521,229.828649
482.980795,-4219.173869,-7402.059420,153.219100
482.981123,-1554.432478,-7179.997637,536.266849
482.981450,370.102971,-6957.935855,76.609550
482.981778,-1184.329507,-8290.306550,0.000000
482.982106,-4441.235652,-8956.491898,-306.438199
482.982433,-6587.832884,-8438.347739,-766.095498
482.982761,-4589.276840,-7328.038826,-383.047749
482.983089,-740.205942,-7328.038826,0.000000
482.983416,2516.700203,-8216.285956,306.438199
482.983744,1924.535449,-9252.574275,536.266849
482.984072,0.000000,-9548.656652,1072.533697
482.984399,-148.041188,-8882.471304,1302.362347
482.984727,2220.617826,-9178.553681,1838.629195
482.985055,4663.297435,-10066.800811,1455.581446
482.985382,4293.194464,-11399.171507,1225.752797
482.985710,1184.329507,-12435.459826,1302.362347
482.986038,-1850.514855,-12213.398043,919.314598
482.986365,-2220.617826,-10732.986159,383.047749
482.986693,1184.329507,-10510.924376,995.924147
482.987021,4071.132681,-9918.759623,919.314598
482.987348,2368.659014,-10881.027347,0.000000
482.987676,-222.061783,-11177.109724,-383.047749
482.988004,-2220.617826,-8882.471304,-306.438199
482.988331,-1702.473667,-8586.388927,-383.047749
482.988659,740.205942,-8364.327145,0.000000
482.988987,888.247130,-9622.677246,-306.438199
482.989314,-1628.453072,-10658.965565,-459.657299
482.989642,-5107.421000,-9918.759623,-1378.971896
482.989970,-5773.606348,-8660.409521,-1149.143247
482.990297,-2960.823768,-8142.265362,-689.485948
482.990625,666.185348,-8512.368333,-612.876398
482.990953,1554.432478,-9326.594869,-536.266849
482.991280,666.185348,-9548.656652,0.000000
482.991608,-1036.288319,-8882.471304,-229.828649
482.991936,0.000000,-8586.388927,1072.533697
482.992263,2442.679609,-8882.471304,1302.362347
482.992591,3775.050304,-9918.759623,1532.190996
482.992919,2146.597232,-11325.150913,1762.019645
482.993246,-814.226536,-11177.109724,1608.800546
482.993574,-2442.679609,-10881.027347,1685.410096
482.993902,-1184.329507,-10066.800811,2068.457845
482.994229,1702.473667,-9696.697840,1991.848295
482.994557,2294.638420,-9918.759623,1838.629195
482.994885,740.205942,-9696.697840,1378.971896
482.995212,-2072.576638,-8364.327145,919.314598
482.995540,-2886.803174,-7179.997637,766.095498
482.995868,-518.144159,-7031.956449,919.314598
482.996195,1110.308913,-7105.977043,1072.533697
482.996523,592.164754,-8068.244768,842.705048
482.996850,-2516.700203,-8364.327145,383.047749
482.997178,-5181.441594,-8290.306550,76.609550
482.997506,-4367.215058,-7772.162391,306.438199
482.997833,-1184.329507,-7179.997637,383.047749
482.998161,962.267725,-7624.121203,229.828649
482.998489,1258.350101,-8586.388927,536.266849
482.998816,-888.247130,-8142.265362,459.657299
482.999144,-1406.391290,-7476.080014,766.095498
482.999472,518.144159,-6957.935855,1072.533697
482.999799,3182.885551,-7402.059420,1838.629195
483.000127,3849.070898,-9252.574275,1532.190996
483.000455,1332.370696,-10288.862594,1072.533697
483.000782,-1776.494261,-9992.780217,612.876398
483.001110,-2146.597232,-9400.615463,689.485948
483.001438,148.041188,-8660.409521,1149.143247
483.001765,2812.782580,-8882.471304,1608.800546
483.002093,2812.782580,-9474.636058,612.876398
483.002421,74.020594,-9844.739029,229.828649
483.002748,-1998.556043,-8734.430116,0.000000
483.003076,-2072.576638,-7772.162391,0.000000
483.003404,962.267725,-7624.121203,229.828649
483.003731,1998.556043,-9030.512492,-459.657299
483.004059,-814.226536,-9474.636058,-306.438199
483.004387,-4145.153275,-9844.739029,-1072.533697
483.004714,-5551.544565,-8808.450710,-1302.362347
483.005042,-3627.009116,-8438.347739,-1378.971896
483.005370,-370.102971,-8142.265362,-1072.533697
483.005697,1480.411884,-9030.512492,-536.266849
483.006025,296.082377,-9178.553681,-612.876398
483.006353,-1036.288319,-9030.512492,-383.047749
483.006680,-1036.288319,-8660.409521,0.000000
483.007008,1850.514855,-8660.409521,306.438199
483.007336,4219.173869,-9696.697840,689.485948
483.007663,3108.864956,-11399.171507,1072.533697
483.007991,0.000000,-12065.356855,842.705048
483.008319,-2516.700203,-11843.295072,1072.533697
483.008646,-1332.370696,-11029.068536,689.485948
483.008974,2146.597232,-10584.944971,1302.362347
483.009302,3701.029710,-10436.903782,1378.971896
483.009629,2294.638420,-10732.986159,995.924147
483.009957,-296.082377,-10362.883188,766.095498
483.010285,-1850.514855,-9030.512492,459.657299
483.010612,-296.082377,-7994.224174,536.266849
483.010940,1184.329507,-8290.306550,766.095498
483.011268,1036.288319,-9474.636058,536.266849
483.011595,-2072.576638,-10436.903782,0.000000
483.011923,-5625.565159,-9770.718434,-306.438199
483.012251,-5329.482782,-8956.491898,-383.047749
483.012578,-2664.741391,-8290.306550,0.000000
483.012906,370.102971,-8734.430116,229.828649
483.013234,666.185348,-9326.594869,229.828649
483.013561,-666.185348,-9474.636058,459.657299
483.013889,-2220.617826,-7846.182985,689.485948
483.014217,-370.102971,-7624.121203,1225.752797
483.014544,1998.556043,-7698.141797,1685.410096
483.014872,3330.926739,-9030.512492,1762.019645
483.015200,1480.411884,-10436.903782,1685.410096
483.015527,-1184.329507,-10584.944971,1532.190996
483.015855,-2146.597232,-9548.656652,1838.629195
483.016183,-296.082377,-9104.533087,2374.896044
483.016510,2516.700203,-9326.594869,2068.457845
483.016838,3256.906145,-9844.739029,1915.238745
483.017166,1332.370696,-10066.800811,1455.581446
483.017493,-1554.432478,-8660.409521,1302.362347
483.017821,-1850.514855,-7846.182985,1685.410096
483.018149,222.061783,-7624.121203,1378.971896
483.018476,1406.391290,-8216.285956,1149.143247
483.018804,-444.123565,-8660.409521,383.047749
483.019132,-3627.009116,-8734.430116,0.000000
483.019459,-5921.647536,-7698.141797,-766.095498
483.019787,-5181.441594,-7031.956449,-919.314598
483.020115,-1258.350101,-6735.874072,-689.485948
483.020442,1036.288319,-6661.853478,-536.266849
483.020770,148.041188,-7624.121203,0.000000
483.021098,-1628.453072,-7846.182985,-536.266849
483.021425,-2442.679609,-7476.080014,0.000000
483.021753,-222.061783,-7402.059420,383.047749
483.022081,2368.659014,-8290.306550,1072.533697
483.022408,2812.782580,-9474.636058,842.705048
483.022736,888.247130,-10362.883188,229.828649
483.023064,-1480.411884,-10214.842000,919.314598
483.023391,-888.247130,-9474.636058,995.924147
483.023719,1924.535449,-9030.512492,919.314598
483.024047,3701.029710,-9474.636058,612.876398
483.024374,3775.050304,-10140.821405,842.705048
483.024702,814.226536,-10066.800811,0.000000
483.025030,-1258.350101,-9178.553681,-383.047749
483.025357,-444.123565,-8512.368333,229.828649
483.025685,2294.638420,-8364.327145,229.828649
483.026013,2368.659014,-9400.615463,383.047749
483.026340,-814.226536,-10066.800811,-306.438199
483.026668,-4663.297435,-10658.965565,-1225.752797
483.026996,-5847.626942,-9622.677246,-1685.410096
483.027323,-3478.967927,-8660.409521,-1378.971896
483.027651,518.144159,-8290.306550,-1302.362347
483.027979,1110.308913,-8660.409521,-612.876398
483.028306,-444.123565,-9104.533087,-919.314598
483.028634,-2294.638420,-8586.388927,-842.705048
483.028962,-1628.453072,-7994.224174,-459.657299
483.029289,1110.308913,-7994.224174,0.000000
483.029617,3182.885551,-9178.553681,-153.219100
483.029945,2738.761985,-10584.944971,842.705048
483.030272,0.000000,-11769.274478,842.705048
483.030600,-1850.514855,-11029.068536,1302.362347
483.030928,-370.102971,-10436.903782,1838.629195
483.031255,3034.844362,-10362.883188,2298.286494
483.031583,3923.091493,-10362.883188,1915.238745
483.031911,2664.741391,-11251.130318,1991.848295
483.032238,148.041188,-10732.986159,2145.067394
483.032566,-962.267725,-9918.759623,2068.457845
483.032894,666.185348,-9178.553681,2451.505594
483.033221,1776.494261,-8956.491898,2298.286494
483.033549,592.164754,-9918.759623,1685.410096
483.033877,-3330.926739,-10362.883188,919.314598
483.034204,-6069.688724,-9178.553681,76.609550
483.034532,-5551.544565,-7550.100608,76.609550
483.034860,-2368.659014,-6883.915261,153.219100
483.035187,148.041188,-6957.935855,153.219100
483.035515,0.000000,-7624.121203,229.828649
483.035843,-2368.659014,-7698.141797,153.219100
483.036170,-3256.906145,-7031.956449,612.876398
483.036498,-1924.535449,-6735.874072,1225.752797
483.036826,814.226536,-7476.080014,1838.629195
483.037153,1702.473667,-8882.471304,1991.848295
483.037481,74.020594,-9918.759623,1991.848295
483.037809,-2442.679609,-9844.739029,1762.019645
483.038136,-2812.782580,-9474.636058,1838.629195
483.038464,-962.267725,-8586.388927,1532.190996
483.038792,1924.535449,-9252.574275,1302.362347
483.039119,2442.679609,-9622.677246,842.705048
483.039447,148.041188,-9548.656652,612.876398
483.039774,-1406.391290,-8734.430116,229.828649
483.040102,-518.144159,-7698.141797,766.095498
483.040430,1332.370696,-7920.203579,612.876398
483.040757,2220.617826,-8438.347739,153.219100
483.041085,592.164754,-9770.718434,-229.828649
483.041413,-3108.864956,-9918.759623,-689.485948
483.041740,-5995.668130,-9178.553681,-1302.362347
483.042068,-3330.926739,-8290.306550,-1149.143247
483.042396,-222.061783,-7920.203579,-919.314598
483.042723,1628.453072,-8364.327145,-1072.533697
483.043051,518.144159,-8734.430116,-995.924147
483.043379,-1702.473667,-7846.182985,-995.924147
483.043706,-1036.288319,-7179.997637,-995.924147
483.044034,1406.391290,-6809.894666,0.000000
483.044362,4293.194464,-7624.121203,229.828649
483.044689,4441.235652,-9104.533087,536.266849
483.045017,2590.720797,-10881.027347,689.485948
483.045345,222.061783,-10510.924376,766.095498
483.045672,-148.041188,-10214.842000,1072.533697
483.046000,1628.453072,-10214.842000,1149.143247
483.046328,3404.947333,-11399.171507,919.314598
483.046655,2590.720797,-12361.439231,1072.533697
483.046983,-148.041188,-11769.274478,459.657299
483.047311,-1184.329507,-10807.006753,612.876398
483.047638,-296.082377,-9548.656652,1225.752797
483.047966,2072.576638,-9622.677246,1225.752797
483.048294,1850.514855,-9844.739029,919.314598
483.048621,-1332.370696,-10362.883188,76.609550
483.048949,-5033.400406,-10362.883188,-229.828649
483.049277,-5921.647536,-9622.677246,-536.266849
483.049604,-3849.070898,-8808.450710,-306.438199
483.049932,-888.247130,-8364.327145,-306.438199
483.050260,370.102971,-8660.409521,76.609550
483.050587,-2146.597232,-9030.512492,-306.438199
483.050915,-3108.864956,-8142.265362,0.000000
483.051243,-1702.473667,-7476.080014,306.438199
483.051570,1480.411884,-7328.038826,842.705048
483.051898,3330.926739,-8512.368333,1762.019645
483.052226,2368.659014,-9770.718434,1685.410096
483.052553,-666.185348,-10510.924376,1762.019645
483.052881,-2294.638420,-10140.821405,1991.848295
483.053209,-740.205942,-9622.677246,2221.676944
483.053536,2146.597232,-9696.697840,2451.505594
483.053864,3108.864956,-10584.944971,2681.334243
483.054192,1480.411884,-11103.089130,2068.457845
483.054519,-814.226536,-10066.800811,1991.848295
483.054847,-666.185348,-8734.430116,2604.724693
483.055175,1776.494261,-8290.306550,2681.334243
483.055502,2368.659014,-8142.265362,1915.238745
483.055830,814.226536,-8956.491898,1455.581446
483.056158,-3182.885551,-9474.636058,842.705048
483.056485,-6365.771101,-8512.368333,0.000000
483.056813,-5255.462188,-7328.038826,76.609550
483.057141,-2664.741391,-7031.956449,459.657299
483.057468,-666.185348,-6957.935855,76.609550
483.057796,-1480.411884,-7698.141797,-536.266849
483.058124,-3849.070898,-7328.038826,-1072.533697
483.058451,-4367.215058,-5921.647536,-1072.533697
483.058779,-1480.411884,-5403.503377,-459.657299
483.059107,1184.329507,-6439.791695,0.000000
483.059434,2220.617826,-7550.100608,-153.219100
483.059762,222.061783,-8956.491898,0.000000
483.060090,-2442.679609,-9252.574275,-229.828649
483.060417,-2146.597232,-9030.512492,153.219100
483.060745,814.226536,-8882.471304,842.705048
483.061073,3552.988522,-9622.677246,153.219100
483.061400,4367.215058,-10510.924376,383.047749
483.061728,2738.761985,-10881.027347,766.095498
483.062056,1184.329507,-10140.821405,766.095498
483.062383,2368.659014,-8808.450710,1225.752797
483.062711,4071.132681,-9474.636058,1149.143247
483.063039,4367.215058,-10584.944971,919.314598
483.063366,1480.411884,-11325.150913,0.000000
483.063694,-2886.803174,-11177.109724,-842.705048
483.064022,-3701.029710,-9548.656652,-919.314598
483.064349,-2442.679609,-8956.491898,-842.705048
483.064677,666.185348,-8512.368333,-612.876398
483.065005,2294.638420,-8808.450710,-766.095498
483.065332,0.000000,-9252.574275,-612.876398
483.065660,-2220.617826,-8142.265362,-842.705048
483.065988,-2220.617826,-7476.080014,0.000000
483.066315,370.102971,-7994.224174,0.000000
483.066643,2516.700203,-8808.450710,689.485948
483.066971,1554.432478,-10214.842000,1378.971896
483.067298,-962.267725,-11251.130318,1762.019645
483.067626,-3849.070898,-10362.883188,1838.629195
483.067954,-2960.823768,-9992.780217,1302.362347
483.068281,-370.102971,-9918.759623,1302.362347
483.068609,1924.535449,-10584.944971,1302.362347
483.068937,1554.432478,-10881.027347,1455.581446
483.069264,-592.164754,-9770.718434,1762.019645
483.069592,-814.226536,-9104.533087,2298.286494
483.069920,592.164754,-8364.327145,1991.848295
483.070247,2294.638420,-8956.491898,2451.505594
483.070575,1480.411884,-9992.780217,1762.019645
483.070903,-1924.535449,-10807.006753,1302.362347
483.071230,-5107.421000,-10362.883188,459.657299
483.071558,-5699.585753,-9252.574275,766.095498
483.071886,-2664.741391,-8216.285956,766.095498
483.072213,-666.185348,-8586.388927,919.314598
483.072541,-444.123565,-8882.471304,383.047749
483.072869,-2664.741391,-8512.368333,383.047749
483.073196,-4293.194464,-7254.018232,0.000000
483.073524,-2146.597232,-6439.791695,229.828649
483.073852,1554.432478,-6365.771101,766.095498
483.074179,2738.761985,-7402.059420,1149.143247
483.074507,1110.308913,-8290.306550,1455.581446
483.074835,-1332.370696,-9992.780217,1072.533697
483.075162,-2738.761985,-9622.677246,1149.143247
483.075490,-518.144159,-9326.594869,1378.971896
483.075818,2072.576638,-9770.718434,842.705048
483.076145,3552.988522,-10140.821405,1302.362347
483.076473,1702.473667,-10732.986159,995.924147
483.076801,0.000000,-9844.739029,1302.362347
483.077128,0.000000,-8586.388927,1455.581446
483.077456,2442.679609,-8290.306550,1608.800546
483.077784,3701.029710,-8734.430116,1225.752797
483.078111,1110.308913,-9918.759623,0.000000
483.078439,-2294.638420,-10140.821405,-383.047749
483.078767,-4737.318029,-8956.491898,-919.314598
483.079094,-3330.926739,-7846.182985,-536.266849
483.079422,-518.144159,-7624.121203,0.000000
483.079750,1036.288319,-8216.285956,0.000000
483.080077,-444.123565,-8734.430116,-995.924147
483.080405,-2738.761985,-8142.265362,-1072.533697
483.080733,-3256.906145,-6957.935855,-1225.752797
483.081060,-296.082377,-7031.956449,-306.438199
483.081388,2146.597232,-7550.100608,-306.438199
483.081715,2072.576638,-8808.450710,-229.828649
483.082043,-370.102971,-9844.739029,-459.657299
483.082371,-3034.844362,-9918.759623,-306.438199
483.082698,-2886.803174,-9400.615463,-536.266849
483.083026,370.102971,-9178.553681,306.438199
483.083353,3404.947333,-9696.697840,153.219100
483.083681,3997.112087,-10510.924376,383.047749
483.084008,1998.556043,-10807.006753,842.705048
483.084336,592.164754,-9696.697840,1149.143247
483.084663,1258.350101,-9030.512492,1302.362347
483.084991,3775.050304,-9326.594869,1378.971896
483.085318,3923.091493,-10140.821405,842.705048
483.085646,1406.391290,-11103.089130,842.705048
483.085973,-1924.535449,-10807.006753,536.266849
483.086301,-3404.947333,-9696.697840,1225.752797
483.086628,-1110.308913,-8438.347739,842.705048
483.086956,1110.308913,-8956.491898,766.095498
483.087283,1628.453072,-9622.677246,612.876398
483.087611,-1184.329507,-9474.636058,306.438199
483.087938,-3034.844362,-8364.327145,459.657299
483.088265,-2738.761985,-7031.956449,536.266849
483.088593,148.041188,-7402.059420,1149.143247
483.088920,1776.494261,-8586.388927,1302.362347
483.089248,296.082377,-9326.594869,1302.362347
483.089575,-3108.864956,-10066.800811,919.314598
483.089903,-5033.400406,-8882.471304,1225.752797
483.090230,-4145.153275,-8956.491898,766.095498
483.090558,-1110.308913,-9474.636058,766.095498
483.090885,1110.308913,-9696.697840,1072.533697
483.091213,296.082377,-10214.842000,1302.362347
483.091540,-888.247130,-9326.594869,1685.410096
483.091868,-1332.370696,-8068.244768,1532.190996
483.092195,1036.288319,-7772.162391,1762.019645
483.092523,2886.803174,-8512.368333,1838.629195
483.092850,1998.556043,-9622.677246,1455.581446
483.093177,-962.267725,-10288.862594,1838.629195
483.093505,-3330.926739,-9252.574275,1225.752797
483.093832,-3404.947333,-8586.388927,1302.362347
483.094160,0.000000,-8142.265362,1838.629195
483.094487,1998.556043,-8512.368333,1302.362347
483.094815,740.205942,-9474.636058,1378.971896
483.095142,-1110.308913,-9030.512492,766.095498
483.095470,-3330.926739,-7772.162391,306.438199
483.095797,-1110.308913,-7105.977043,536.266849
483.096125,1480.411884,-7105.977043,536.266849
483.096452,2368.659014,-8512.368333,612.876398
483.096780,-74.020594,-9474.636058,-306.438199
483.097107,-3404.947333,-9400.615463,-536.266849
483.097435,-4515.256246,-8660.409521,-612.876398
483.097762,-1850.514855,-8438.347739,-612.876398
483.098090,1184.329507,-8882.471304,-612.876398
483.098417,2072.576638,-9474.636058,0.000000
483.098744,592.164754,-9918.759623,306.438199
483.099072,-1258.350101,-8882.471304,153.219100
483.099399,-592.164754,-8586.388927,689.485948
483.099727,1924.535449,-8660.409521,459.657299
483.100054,3034.844362,-9104.533087,153.219100
483.100382,1332.370696,-10066.800811,0.000000
483.100709,-1406.391290,-10362.883188,0.000000
483.101037,-3034.844362,-9548.656652,0.000000
483.101364,-1184.329507,-8956.491898,153.219100
483.101692,2146.597232,-8808.450710,76.609550
483.102019,3034.844362,-9326.594869,0.000000
483.102347,666.185348,-10362.883188,-459.657299
483.102674,-1702.473667,-9844.739029,-1072.533697
483.103002,-2072.576638,-9030.512492,-766.095498
483.103329,666.185348,-8586.388927,-383.047749
483.103656,2738.761985,-8808.450710,766.095498
483.103984,2516.700203,-10436.903782,229.828649
483.104311,-1184.329507,-11251.130318,0.000000
483.104639,-3627.009116,-10658.965565,-153.219100
483.104966,-3552.988522,-9992.780217,-306.438199
483.105294,-962.267725,-9474.636058,153.219100
483.105621,1998.556043,-9770.718434,153.219100
483.105949,1554.432478,-10510.924376,306.438199
483.106276,-518.144159,-10140.821405,766.095498
483.106604,-962.267725,-9030.512492,1225.752797
483.106931,740.205942,-8364.327145,1455.581446
483.107259,2738.761985,-8438.347739,1915.238745
483.107586,2368.659014,-10066.800811,1149.143247
483.107914,0.000000,-11547.212695,842.705048
483.108241,-2738.761985,-10955.047942,919.314598
483.108569,-2590.720797,-9844.739029,1378.971896
483.108896,296.082377,-8882.471304,2221.676944
483.109223,2812.782580,-8808.450710,1838.629195
483.109551,2368.659014,-9548.656652,1838.629195
483.109878,-222.061783,-9474.636058,1225.752797
483.110206,-2664.741391,-8438.347739,1378.971896
483.110533,-1554.432478,-7550.100608,1762.019645
483.110861,666.185348,-7179.997637,1532.190996
483.111188,1258.350101,-8734.430116,1915.238745
483.111516,-1184.329507,-9622.677246,1149.143247
483.111843,-4737.318029,-9770.718434,842.705048
483.112171,-5773.606348,-8364.327145,612.876398
483.112498,-3627.009116,-7698.141797,459.657299
483.112826,-444.123565,-7772.162391,842.705048
483.113153,740.205942,-8290.306550,766.095498
483.113481,-666.185348,-8734.430116,842.705048
483.113808,-1998.556043,-7994.224174,766.095498
483.114135,-2294.638420,-6735.874072,1302.362347
483.114463,74.020594,-7179.997637,919.314598
483.114790,1332.370696,-8438.347739,919.314598
483.115118,592.164754,-9622.677246,689.485948
483.115445,-2294.638420,-10066.800811,76.609550
483.115773,-3478.967927,-8956.491898,306.438199
483.116100,-1998.556043,-7772.162391,459.657299
483.116428,1702.473667,-7920.203579,536.266849
483.116755,3478.967927,-8512.368333,229.828649
483.117083,2516.700203,-9178.553681,0.000000
483.117410,666.185348,-8734.430116,0.000000
483.117738,0.000000,-7624.121203,153.219100
483.118065,1776.494261,-7476.080014,306.438199
483.118393,3701.029710,-8216.285956,689.485948
483.118720,3330.926739,-9844.739029,536.266849
483.119048,148.041188,-10436.903782,0.000000
483.119375,-3182.885551,-9918.759623,0.000000
483.119702,-3256.906145,-9548.656652,0.000000
483.120030,-592.164754,-9030.512492,-306.438199
483.120357,1776.494261,-9474.636058,0.000000
483.120685,1702.473667,-9918.759623,0.000000
483.121012,-592.164754,-9474.636058,-306.438199
483.121340,-2220.617826,-8586.388927,-536.266849
483.121667,-888.247130,-7698.141797,-229.828649
483.121995,1480.411884,-8290.306550,153.219100
483.122322,2294.638420,-9252.574275,0.000000
483.122650,444.123565,-10288.862594,-153.219100
483.122977,-2886.803174,-10066.800811,153.219100
483.123305,-3478.967927,-10214.842000,306.438199
483.123632,-1628.453072,-9474.636058,995.924147
483.123960,1110.308913,-9474.636058,689.485948
483.124287,1554.432478,-10140.821405,689.485948
483.124614,-740.205942,-10584.944971,306.438199
483.124942,-2516.700203,-9622.677246,229.828649
483.125269,-1776.494261,-8216.285956,766.095498
483.125597,1776.494261,-7624.121203,1532.190996
483.125924,3775.050304,-8512.368333,1838.629195
483.126252,2294.638420,-9474.636058,1225.752797
483.126579,-1480.411884,-9770.718434,995.924147
483.126907,-3330.926739,-9474.636058,1072.533697
483.127234,-2368.659014,-8660.409521,919.314598
483.127562,-296.082377,-8808.450710,1532.190996
483.127889,1406.391290,-9622.677246,1225.752797
483.128217,74.020594,-9918.759623,1149.143247
483.128544,-2294.638420,-9474.636058,1149.143247
483.128872,-2368.659014,-8216.285956,995.924147
483.129199,0.000000,-7846.182985,1532.190996
483.129527,1332.370696,-7994.224174,1072.533697
483.129854,1406.391290,-9104.533087,842.705048
483.130181,-1332.370696,-9622.677246,612.876398
483.130509,-3701.029710,-8956.491898,229.828649
483.130836,-3108.864956,-8216.285956,459.657299
483.131164,-370.102971,-7698.141797,842.705048
483.131491,2368.659014,-8660.409521,459.657299
483.131819,1702.473667,-9474.636058,536.266849
483.132146,-962.267725,-9474.636058,76.609550
483.132474,-1998.556043,-8586.388927,459.657299
483.132801,74.020594,-7698.141797,842.705048
483.133129,2442.679609,-8142.265362,1838.629195
483.133456,2812.782580,-9400.615463,1378.971896
483.133784,148.041188,-10881.027347,842.705048
483.134111,-3108.864956,-10955.047942,229.828649
483.134439,-4293.194464,-9622.677246,0.000000
483.134766,-1924.535449,-8882.471304,153.219100
483.135093,962.267725,-9030.512492,229.828649
483.135421,2146.597232,-9474.636058,153.219100
483.135748,-222.061783,-9400.615463,0.000000
483.136076,-1702.473667,-8660.409521,-306.438199
483.136403,-1332.370696,-8216.285956,0.000000
483.136731,370.102971,-8068.244768,-612.876398
483.137058,1776.494261,-8956.491898,0.000000
483.137386,444.123565,-10140.821405,-153.219100
483.137713,-2516.700203,-10140.821405,-306.438199
483.138041,-3775.050304,-9474.636058,0.000000
483.138368,-2146.597232,-8882.471304,306.438199
483.138696,962.267725,-8808.450710,0.000000
483.139023,2368.659014,-9770.718434,0.000000
483.139351,740.205942,-9844.739029,-459.657299
483.139678,-888.247130,-9326.594869,-612.876398
483.140006,-296.082377,-8142.265362,76.609550
483.140333,2146.597232,-7550.100608,919.314598
483.140660,4293.194464,-8290.306550,1302.362347
483.140988,3775.050304,-9474.636058,1455.581446
483.141315,370.102971,-10807.006753,842.705048
483.141643,-2664.741391,-10658.965565,1072.533697
483.141970,-2516.700203,-9770.718434,995.924147
483.142298,0.000000,-9770.718434,1225.752797
483.142625,1702.473667,-9992.780217,1378.971896
483.142953,1258.350101,-10288.862594,1225.752797
483.143280,-1184.329507,-9918.759623,919.314598
483.143608,-2368.659014,-8512.368333,919.314598
483.143935,-1036.288319,-7846.182985,919.314598
483.144263,814.226536,-7920.203579,842.705048
483.144590,1332.370696,-8808.450710,689.485948
483.144918,-888.247130,-9178.553681,689.485948
483.145245,-3849.070898,-8734.430116,689.485948
483.145572,-3849.070898,-8290.306550,689.485948
483.145900,-1554.432478,-7846.182985,1072.533697
483.146227,814.226536,-8512.368333,995.924147
483.146555,1184.329507,-9548.656652,919.314598
483.146882,-814.226536,-10066.800811,1225.752797
483.147210,-2294.638420,-9030.512492,1225.752797
483.147537,-814.226536,-8364.327145,1991.848295
483.147865,2146.597232,-8290.306550,2298.286494
483.148192,3330.926739,-9252.574275,2221.676944
483.148520,1628.453072,-9844.739029,1072.533697
483.148847,-1702.473667,-10658.965565,919.314598
483.149175,-3330.926739,-9548.656652,612.876398
483.149502,-2294.638420,-9178.553681,306.438199
483.149830,370.102971,-9104.533087,306.438199
483.150157,1776.494261,-9400.615463,766.095498
483.150485,-222.061783,-9696.697840,-229.828649
483.150812,-2516.700203,-9178.553681,-306.438199
483.151139,-2516.700203,-8142.265362,0.000000
483.151467,-518.144159,-7920.203579,76.609550
483.151794,444.123565,-8660.409521,76.609550
483.152122,814.226536,-9474.636058,153.219100
483.152449,-2146.597232,-9548.656652,-306.438199
483.152777,-4071.132681,-8808.450710,-229.828649
483.153104,-2960.823768,-7994.224174,-306.438199
483.153432,-222.061783,-7772.162391,0.000000
483.153759,2590.720797,-7698.141797,-689.485948
483.154087,2146.597232,-8956.491898,-306.438199
483.154414,0.000000,-8586.388927,-612.876398
483.154742,0.000000,-7772.162391,0.000000
483.155069,2368.659014,-7105.977043,842.705048
483.155397,4589.276840,-7402.059420,2145.067394
483.155724,4293.194464,-9622.677246,1225.752797
483.156051,740.205942,-11251.130318,1072.533697
483.156379,-2664.741391,-11473.192101,1072.533697
483.156706,-3478.967927,-10362.883188,612.876398
483.157034,-1406.391290,-9844.739029,1302.362347
483.157361,1628.453072,-9770.718434,919.314598
483.157689,740.205942,-10362.883188,229.828649
483.158016,-1332.370696,-9622.677246,0.000000
483.158344,-2812.782580,-7772.162391,-459.657299
483.158671,-1850.514855,-6143.709319,-76.609550
483.158999,370.102971,-6143.709319,0.000000
483.159326,1480.411884,-7476.080014,0.000000
483.159654,-592.164754,-8808.450710,0.000000
483.159981,-3701.029710,-9178.553681,0.000000
483.160309,-4811.338623,-8734.430116,0.000000
483.160636,-2960.823768,-8586.388927,229.828649
483.160964,0.000000,-8882.471304,536.266849
483.161291,1036.288319,-10288.862594,766.095498
483.161618,0.000000,-10807.006753,536.266849
483.161946,-1554.432478,-9992.780217,995.924147
483.162273,0.000000,-8808.450710,1608.800546
483.162601,3182.885551,-8290.306550,2451.505594
483.162928,5033.400406,-9178.553681,2374.896044
483.163256,4145.153275,-10881.027347,2298.286494
483.163583,370.102971,-11695.253884,1532.190996
483.163911,-2220.617826,-10807.006753,1838.629195
483.164238,-1258.350101,-9844.739029,1302.362347
483.164566,592.164754,-10362.883188,1532.190996
483.164893,1998.556043,-10584.944971,1225.752797
483.165221,296.082377,-10955.047942,1149.143247
483.165548,-2442.679609,-10362.883188,995.924147
483.165876,-3256.906145,-8808.450710,459.657299
483.166203,-1702.473667,-7994.224174,612.876398
483.166530,0.000000,-8142.265362,459.657299
483.166858,74.020594,-8808.450710,229.828649
483.167185,-2738.761985,-9400.615463,0.000000
483.167513,-4885.359217,-8216.285956,-459.657299
483.167840,-4515.256246,-7254.018232,-229.828649
483.168168,-1702.473667,-7179.997637,0.000000
483.168495,1036.288319,-7698.141797,-153.219100
483.168823,888.247130,-8882.471304,0.000000
483.169150,-740.205942,-8586.388927,76.609550
483.169478,-1332.370696,-8438.347739,612.876398
483.169805,296.082377,-8142.265362,1072.533697
483.170133,3182.885551,-8586.388927,1685.410096
483.170460,4145.153275,-9844.739029,1685.410096
483.170788,2220.617826,-11251.130318,1378.971896
483.171115,-1036.288319,-11325.150913,689.485948
483.171443,-2368.659014,-10140.821405,612.876398
483.171770,-518.144159,-9622.677246,612.876398
483.172097,2294.638420,-9400.615463,459.657299
483.172425,2368.659014,-9474.636058,383.047749
483.172752,888.247130,-9622.677246,-383.047749
483.173080,-1924.535449,-8512.368333,-459.657299
483.173407,-1628.453072,-7105.977043,-306.438199
483.173735,148.041188,-7105.977043,0.000000
483.174062,1554.432478,-7698.141797,0.000000
483.174390,444.123565,-8882.471304,0.000000
483.174717,-2812.782580,-9252.574275,-459.657299
483.175045,-4737.318029,-8808.450710,-229.828649
483.175372,-3034.844362,-7772.162391,-306.438199
483.175700,296.082377,-7402.059420,0.000000
483.176027,2590.720797,-8512.368333,-229.828649
483.176355,1184.329507,-8882.471304,0.000000
483.176682,-518.144159,-8734.430116,0.000000
483.177009,0.000000,-7920.203579,536.266849
483.177337,2220.617826,-7846.182985,1302.362347
483.177664,3997.112087,-8956.491898,2145.067394
483.177992,3849.070898,-10214.842000,1455.581446
483.178319,370.102971,-11991.336260,1302.362347
483.178647,-2812.782580,-11621.233289,1149.143247
483.178974,-3034.844362,-10807.006753,1378.971896
483.179302,-592.164754,-10066.800811,1302.362347
483.179629,1406.391290,-10288.862594,1532.190996
483.179957,888.247130,-10584.944971,1302.362347
483.180284,-1850.514855,-9844.739029,536.266849
483.180612,-3256.906145,-8068.244768,612.876398
483.180939,-1628.453072,-6883.915261,383.047749
483.181267,148.041188,-6513.812290,383.047749
483.181594,518.144159,-7698.141797,306.438199
483.181922,-1628.453072,-8882.471304,0.000000
483.182249,-4811.338623,-9104.533087,0.000000
483.182576,-5107.421000,-8142.265362,229.828649
483.182904,-2664.741391,-7994.224174,612.876398
483.183231,74.020594,-8364.327145,842.705048
483.183559,1184.329507,-9548.656652,766.095498
483.183886,148.041188,-9696.697840,766.095498
483.184214,-1036.288319,-9030.512492,1072.533697
483.184541,0.000000,-8142.265362,1149.143247
483.184869,2368.659014,-8142.265362,2374.896044
483.185196,3997.112087,-9326.594869,1762.019645
483.185524,2294.638420,-10881.027347,1225.752797
483.185851,-1036.288319,-11029.068536,766.095498
483.186179,-2368.659014,-9992.780217,1072.533697
483.186506,-962.267725,-9326.594869,1455.581446
483.186834,1998.556043,-9326.594869,842.705048
483.187161,2516.700203,-9992.780217,766.095498
483.187488,1110.308913,-10214.842000,689.485948
483.187816,-2294.638420,-9474.636058,229.828649
483.188143,-2664.741391,-8142.265362,229.828649
483.188471,-888.247130,-7994.224174,229.828649
483.188798,296.082377,-8512.368333,76.609550
483.189126,0.000000,-9104.533087,-612.876398
483.189453,-3182.885551,-9548.656652,-919.314598
483.189781,-4811.338623,-9030.512492,-1608.800546
483.190108,-4145.153275,-7846.182985,-842.705048
483.190436,-888.247130,-7550.100608,-1225.752797
483.190763,1702.473667,-8068.244768,-1378.971896
483.191091,2072.576638,-8882.471304,-536.266849
483.191418,592.164754,-9252.574275,306.438199
483.191746,148.041188,-8364.327145,383.047749
483.192073,1776.494261,-8512.368333,1225.752797
483.192400,3997.112087,-9400.615463,1532.190996
483.192728,4219.173869,-10807.006753,1608.800546
483.193055,1702.473667,-11843.295072,1608.800546
483.193383,-1332.370696,-10955.047942,1685.410096
483.193710,-962.267725,-10140.821405,1685.410096
483.194038,1332.370696,-9844.739029,1915.238745
483.194365,2960.823768,-9548.656652,1225.752797
483.194693,2294.638420,-10436.903782,1225.752797
483.195020,-222.061783,-9326.594869,689.485948
483.195348,-3108.864956,-8882.471304,0.000000
483.195675,-2146.597232,-7698.141797,0.000000
483.196003,0.000000,-7105.977043,306.438199
483.196330,888.247130,-8068.244768,612.876398
483.196658,-962.267725,-8882.471304,689.485948
483.196985,-4293.194464,-8956.491898,0.000000
483.197312,-6143.709319,-8438.347739,0.000000
483.197640,-4663.297435,-8068.244768,-153.219100
483.197967,-1628.453072,-8142.265362,229.828649
483.198295,0.000000,-8438.347739,76.609550
483.198622,-666.185348,-9178.553681,0.000000
483.198950,-2146.597232,-7920.203579,76.609550
483.199277,-814.226536,-6809.894666,919.314598
483.199605,2072.576638,-7031.956449,1532.190996
483.199932,3923.091493,-7920.203579,1838.629195
483.200260,3552.988522,-9770.718434,2221.676944
483.200587,592.164754,-10658.965565,1455.581446
483.200915,-1480.411884,-10214.842000,1378.971896
483.201242,-518.144159,-9696.697840,2068.457845
483.201570,2072.576638,-9696.697840,2068.457845
483.201897,3256.906145,-9696.697840,1762.019645
483.202224,2146.597232,-10436.903782,1302.362347
483.202552,-814.226536,-10140.821405,1149.143247
483.202879,-2072.576638,-8734.430116,459.657299
483.203207,-1184.329507,-7994.224174,689.485948
483.203534,1110.308913,-8068.244768,612.876398
483.203862,666.185348,-9030.512492,766.095498
483.204189,-1776.494261,-9252.574275,-153.219100
483.204517,-4811.338623,-8956.491898,-1072.533697
483.204844,-5255.462188,-8290.306550,-995.924147
483.205172,-2516.700203,-8882.471304,-689.485948
483.205499,-148.041188,-8364.327145,0.000000
483.205827,296.082377,-9252.574275,-766.095498
483.206154,-888.247130,-9474.636058,-689.485948
483.206482,-2146.597232,-9104.533087,-383.047749
483.206809,-444.123565,-8216.285956,0.000000
483.207136,2886.803174,-7994.224174,1302.362347
483.207464,3775.050304,-9474.636058,1378.971896
483.207791,2220.617826,-10807.006753,1149.143247
483.208119,-740.205942,-11103.089130,919.314598
483.208446,-1776.494261,-10436.903782,842.705048
483.208774,296.082377,-9474.636058,1838.629195
483.209101,2960.823768,-9326.594869,1378.971896
483.209429,3256.906145,-10140.821405,995.924147
483.209756,1332.370696,-10881.027347,919.314598
483.210084,-1628.453072,-9844.739029,383.047749
483.210411,-1406.391290,-8512.368333,919.314598
483.210739,814.226536,-7994.224174,766.095498
483.211066,1036.288319,-9030.512492,766.095498
483.211394,-148.041188,-9844.739029,0.000000
483.211721,-3849.070898,-9844.739029,-383.047749
483.212048,-5551.544565,-8734.430116,-842.705048
483.212376,-5033.400406,-7254.018232,-689.485948
483.212703,-1480.411884,-7254.018232,-459.657299
483.213031,148.041188,-7550.100608,-383.047749
483.213358,0.000000,-8290.306550,-306.438199
483.213686,-1850.514855,-7846.182985,-459.657299
483.214013,-1554.432478,-6957.935855,76.609550
483.214341,592.164754,-6809.894666,689.485948
483.214668,3182.885551,-7846.182985,1149.143247
483.214996,2812.782580,-9400.615463,1225.752797
483.215323,518.144159,-10658.965565,1225.752797
483.215651,-2146.597232,-10732.986159,1149.143247
483.215978,-1702.473667,-9548.656652,1302.362347
483.216306,962.267725,-9622.677246,1532.190996
483.216633,3256.906145,-9696.697840,1455.581446
483.216960,3034.844362,-10288.862594,1149.143247
483.217288,518.144159,-10362.883188,1225.752797
483.217615,-1258.350101,-8808.450710,1149.143247
483.217943,-296.082377,-8438.347739,919.314598
483.218270,518.144159,-8438.347739,766.095498
483.218598,1036.288319,-9400.615463,689.485948
483.218925,-1554.432478,-10140.821405,0.000000
483.219253,-4737.318029,-9622.677246,-153.219100
483.219580,-5329.482782,-9178.553681,-612.876398
483.219908,-2590.720797,-8142.265362,-153.219100
483.220235,-296.082377,-8142.265362,0.000000
483.220563,1628.453072,-9030.512492,229.828649
483.220890,0.000000,-9252.574275,-306.438199
483.221218,-1480.411884,-9030.512492,229.828649
483.221545,-444.123565,-8068.244768,459.657299
483.221872,1776.494261,-8364.327145,1378.971896
483.222200,3552.988522,-9474.636058,1685.410096
483.222527,2442.679609,-10732.986159,2221.676944
483.222855,0.000000,-11399.171507,1302.362347
483.223182,-1850.514855,-10955.047942,1685.410096
483.223510,-518.144159,-10436.903782,1915.238745
483.223837,1332.370696,-10436.903782,1532.190996
483.224165,2664.741391,-10732.986159,1608.800546
483.224492,592.164754,-11399.171507,919.314598
483.224820,-1628.453072,-10288.862594,229.828649
483.225147,-2442.679609,-9400.615463,306.438199
483.225475,-296.082377,-8882.471304,536.266849
483.225802,1332.370696,-8808.450710,612.876398
483.226130,888.247130,-9622.677246,229.828649
483.226457,-2368.659014,-9770.718434,0.000000
483.226784,-4959.379811,-9770.718434,-766.095498
483.227112,-5033.400406,-8808.450710,-842.705048
483.227439,-2146.597232,-8364.327145,-536.266849
483.227767,0.000000,-8142.265362,229.828649
483.228094,592.164754,-8586.388927,-766.095498
483.228422,-962.267725,-8142.265362,-612.876398
483.228749,-1258.350101,-7254.018232,-383.047749
483.229077,962.267725,-6735.874072,306.438199
483.229404,3552.988522,-6883.915261,1072.533697
483.229732,4737.318029,-8438.347739,689.485948
483.230059,2886.803174,-10214.842000,1149.143247
483.230387,0.000000,-9992.780217,1378.971896
483.230714,-592.164754,-9992.780217,1532.190996
483.231042,814.226536,-9474.636058,1838.629195
483.231369,2664.741391,-10140.821405,1455.581446
483.231696,2590.720797,-10510.924376,1302.362347
483.232024,666.185348,-10066.800811,536.266849
483.232351,-1480.411884,-8882.471304,612.876398
483.232679,-814.226536,-7550.100608,766.095498
483.233006,1258.350101,-7476.080014,383.047749
483.233334,1628.453072,-7402.059420,919.314598
483.233661,-444.123565,-8290.306550,306.438199
483.233989,-3997.112087,-8586.388927,-153.219100
483.234316,-6143.709319,-7920.203579,-459.657299
483.234644,-4737.318029,-6809.894666,0.000000
483.234971,-1850.514855,-6661.853478,-383.047749
483.235299,-888.247130,-7476.080014,-383.047749
483.235626,-1776.494261,-8290.306550,-229.828649
483.235954,-3256.906145,-7772.162391,-383.047749
483.236281,-2368.659014,-6883.915261,536.266849
483.236608,444.123565,-6809.894666,459.657299
483.236936,2812.782580,-7920.203579,1072.533697
483.237263,2516.700203,-9400.615463,995.924147
483.237591,370.102971,-10436.903782,1072.533697
483.237918,-1480.411884,-10140.821405,995.924147
483.238246,-666.185348,-9696.697840,1225.752797
483.238573,1776.494261,-9622.677246,1225.752797
483.238901,3923.091493,-10436.903782,1302.362347
483.239228,3330.926739,-11103.089130,1302.362347
483.239556,1036.288319,-11029.068536,1225.752797
483.239883,148.041188,-9622.677246,995.924147
483.240211,962.267725,-8660.409521,1608.800546
483.240538,2960.823768,-9326.594869,1302.362347
483.240866,2368.659014,-10140.821405,1302.362347
483.241193,-1406.391290,-10732.986159,459.657299
483.241520,-4515.256246,-10140.821405,76.609550
483.241848,-5329.482782,-8882.471304,-229.828649
483.242175,-3478.967927,-8734.430116,-383.047749
483.242503,-962.267725,-8216.285956,-536.266849
483.242830,-666.185348,-8882.471304,-459.657299
483.243158,-2294.638420,-9030.512492,-306.438199
483.243485,-3478.967927,-7624.121203,-689.485948
483.243813,-2368.659014,-7624.121203,0.000000
483.244140,0.000000,-7920.203579,306.438199
483.244468,1332.370696,-9178.553681,612.876398
483.244795,370.102971,-10584.944971,842.705048
483.245123,-1776.494261,-11103.089130,842.705048
483.245450,-3404.947333,-10584.944971,842.705048
483.245778,-1184.329507,-9918.759623,1072.533697
483.246105,1480.411884,-9992.780217,1532.190996
483.246432,2886.803174,-10214.842000,1149.143247
483.246760,1924.535449,-10881.027347,689.485948
483.247087,296.082377,-9474.636058,1149.143247
483.247415,74.020594,-8512.368333,1225.752797
483.247742,2072.576638,-8216.285956,1915.238745
483.248070,3034.844362,-8882.471304,1455.581446
483.248397,1628.453072,-9400.615463,1149.143247
483.248725,-1702.473667,-9844.739029,842.705048
483.249052,-4071.132681,-9548.656652,76.609550
483.249380,-3701.029710,-8882.471304,459.657299
483.249707,-1110.308913,-8216.285956,0.000000
483.250035,518.144159,-8660.409521,459.657299
483.250362,0.000000,-8808.450710,153.219100
483.250690,-1628.453072,-8142.265362,-612.876398
483.251017,-2072.576638,-7179.997637,-153.219100
483.251344,370.102971,-6883.915261,76.609550
483.251672,2442.679609,-7476.080014,459.657299
483.251999,2072.576638,-9178.553681,1072.533697
483.252327,74.020594,-10066.800811,153.219100
483.252654,-2442.679609,-9992.780217,153.219100
483.252982,-2664.741391,-9104.533087,459.657299
483.253309,-148.041188,-9326.594869,842.705048
483.253637,2368.659014,-8956.491898,1225.752797
483.253964,3034.844362,-10140.821405,1302.362347
483.254292,1036.288319,-9770.718434,919.314598
483.254619,-370.102971,-9030.512492,1532.190996
483.254947,296.082377,-8438.347739,1608.800546
483.255274,1776.494261,-8438.347739,1455.581446
483.255601,1924.535449,-9326.594869,1225.752797
483.255929,-370.102971,-10140.821405,689.485948
483.256256,-3330.926739,-10140.821405,383.047749
483.256584,-4293.194464,-9252.574275,229.828649
483.256911,-2886.803174,-8068.244768,459.657299
483.257239,-222.061783,-8216.285956,153.219100
483.257566,666.185348,-8290.306550,0.000000
483.257894,-1332.370696,-8586.388927,-842.705048
483.258221,-2516.700203,-7846.182985,-766.095498
483.258549,-1850.514855,-7179.997637,0.000000
483.258876,296.082377,-7476.080014,306.438199
483.259204,2146.597232,-8364.327145,919.314598
483.259531,1184.329507,-9770.718434,612.876398
483.259859,-1110.308913,-10436.903782,306.438199
483.260186,-2738.761985,-9992.780217,383.047749
483.260513,-1850.514855,-9252.574275,766.095498
483.260841,1702.473667,-9548.656652,919.314598
483.261168,3552.988522,-9770.718434,1149.143247
483.261496,3034.844362,-10066.800811,1455.581446
483.261823,1258.350101,-9770.718434,1225.752797
483.262151,296.082377,-8660.409521,1225.752797
483.262478,1702.473667,-9326.594869,1302.362347
483.262806,2368.659014,-9622.677246,1455.581446
483.263133,1332.370696,-10732.986159,766.095498
483.263461,-1998.556043,-11177.109724,229.828649
483.263788,-4811.338623,-10362.883188,-383.047749
483.264116,-4589.276840,-9178.553681,-383.047749
483.264443,-1850.514855,-8882.471304,0.000000
483.264771,74.020594,-9030.512492,-306.438199
483.265098,-148.041188,-9252.574275,0.000000
483.265425,-1998.556043,-9178.553681,-689.485948
483.265753,-2294.638420,-7920.203579,0.000000
483.266080,-1480.411884,-7476.080014,0.000000
483.266408,1036.288319,-7772.162391,536.266849
483.266735,1998.556043,-8808.450710,766.095498
483.267063,666.185348,-9918.759623,919.314598
483.267390,-1628.453072,-9548.656652,689.485948
483.267718,-2294.638420,-9178.553681,842.705048
483.268045,0.000000,-9104.533087,842.705048
483.268373,2368.659014,-8808.450710,842.705048
483.268700,2960.823768,-9548.656652,766.095498
483.269028,1850.514855,-9548.656652,383.047749
483.269355,222.061783,-8956.491898,766.095498
483.269683,740.205942,-8660.409521,1302.362347
483.270010,1924.535449,-8660.409521,1532.190996
483.270337,2368.659014,-9400.615463,1378.971896
483.270665,888.247130,-10066.800811,1455.581446
483.270992,-2368.659014,-10362.883188,536.266849
483.271320,-4071.132681,-9548.656652,76.609550
483.271647,-2886.803174,-8660.409521,306.438199
483.271975,-888.247130,-8216.285956,459.657299
483.272302,370.102971,-8216.285956,306.438199
483.272630,-666.185348,-8512.368333,-153.219100
483.272957,-2664.741391,-7698.141797,0.000000
483.273285,-2812.782580,-6661.853478,0.000000
483.273612,-666.185348,-6291.750507,689.485948
483.273940,1036.288319,-7179.997637,766.095498
483.274267,1184.329507,-8290.306550,1532.190996
483.274595,-814.226536,-9252.574275,1302.362347
483.274922,-3330.926739,-9326.594869,612.876398
483.275249,-2516.700203,-8808.450710,919.314598
483.275577,-370.102971,-9030.512492,842.705048
483.275904,1850.514855,-9474.636058,1225.752797
483.276232,1406.391290,-9992.780217,689.485948
483.276559,0.000000,-9770.718434,995.924147
483.276887,-370.102971,-8808.450710,1072.533697
483.277214,666.185348,-8586.388927,1225.752797
483.277542,2072.576638,-9104.533087,1532.190996
483.277869,2220.617826,-9844.739029,383.047749
483.278197,148.041188,-10732.986159,689.485948
483.278524,-2442.679609,-10436.903782,153.219100
483.278852,-3182.885551,-9622.677246,76.609550
483.279179,-962.267725,-9104.533087,306.438199
483.279507,1480.411884,-8956.491898,1149.143247
483.279834,1110.308913,-9030.512492,229.828649
483.280161,-444.123565,-9252.574275,153.219100
483.280489,-1998.556043,-8660.409521,0.000000
483.280816,-1480.411884,-7994.224174,153.219100
483.281144,962.267725,-7550.100608,689.485948
483.281471,2368.659014,-8364.327145,536.266849
483.281799,888.247130,-9474.636058,383.047749
483.282126,-2146.597232,-9992.780217,306.438199
483.282454,-3701.029710,-9474.636058,0.000000
483.282781,-2294.638420,-8808.450710,306.438199
483.283109,592.164754,-9474.636058,306.438199
483.283436,1110.308913,-9844.739029,229.828649
483.283764,74.020594,-10584.944971,0.000000
483.284091,-1480.411884,-9770.718434,0.000000
483.284418,-814.226536,-8808.450710,766.095498
483.284746,1406.391290,-8290.306550,919.314598
483.285073,2886.803174,-8882.471304,766.095498
483.285401,2220.617826,-9622.677246,612.876398
483.285728,-740.205942,-10288.862594,459.657299
483.286056,-3330.926739,-9474.636058,229.828649
483.286383,-2442.679609,-8660.409521,383.047749
483.286711,148.041188,-8808.450710,229.828649
483.287038,1924.535449,-8956.491898,919.314598
483.287365,1110.308913,-9252.574275,1149.143247
483.287693,-666.185348,-8882.471304,919.314598
483.288020,-1480.411884,-7476.080014,766.095498
483.288348,-222.061783,-6735.874072,1072.533697
483.288675,1776.494261,-7994.224174,1225.752797
483.289003,1554.432478,-8956.491898,842.705048
483.289330,-518.144159,-9770.718434,612.876398
483.289658,-3182.885551,-9326.594869,153.219100
483.289985,-3701.029710,-8512.368333,0.000000
483.290313,-1184.329507,-8808.450710,536.266849
483.290640,1184.329507,-8882.471304,919.314598
483.290967,1628.453072,-9400.615463,459.657299
483.291295,-222.061783,-9622.677246,536.266849
483.291622,-1258.350101,-8734.430116,842.705048
483.291950,-962.267725,-8438.347739,919.314598
483.292277,962.267725,-8512.368333,1302.362347
483.292605,1628.453072,-9252.574275,1378.971896
483.292932,0.000000,-10214.842000,766.095498
483.293260,-2368.659014,-9992.780217,459.657299
483.293587,-3182.885551,-8882.471304,536.266849
483.293914,-1332.370696,-8512.368333,995.924147
483.294242,1036.288319,-7846.182985,612.876398
483.294569,1480.411884,-8586.388927,459.657299
483.294897,518.144159,-8882.471304,153.219100
483.295224,-1554.432478,-8068.244768,459.657299
483.295552,-1406.391290,-7846.182985,383.047749
483.295879,888.247130,-7994.224174,919.314598
483.296207,1776.494261,-9030.512492,919.314598
483.296534,888.247130,-10584.944971,536.266849
483.296862,-2220.617826,-11177.109724,306.438199
483.297189,-3923.091493,-10658.965565,153.219100
483.297516,-2590.720797,-9844.739029,76.609550
483.297844,0.000000,-9770.718434,153.219100
483.298171,1998.556043,-9548.656652,459.657299
483.298499,1628.453072,-9770.718434,766.095498
483.298826,-148.041188,-9252.574275,306.438199
483.299154,-962.267725,-8142.265362,229.828649
483.299481,222.061783,-7994.224174,612.876398
483.299809,1850.514855,-8438.347739,536.266849
483.300136,1480.411884,-9548.656652,689.485948
483.300463,-814.226536,-10436.903782,-153.219100
483.300791,-3108.864956,-10066.800811,153.219100
483.301118,-2886.803174,-9178.553681,229.828649
483.301446,-222.061783,-8808.450710,689.485948
483.301773,1628.453072,-9178.553681,766.095498
483.302101,1480.411884,-9400.615463,459.657299
483.302428,0.000000,-9474.636058,306.438199
483.302756,-1554.432478,-8660.409521,229.828649
483.303083,-222.061783,-8364.327145,536.266849
483.303410,1702.473667,-8216.285956,1149.143247
483.303738,2368.659014,-9474.636058,1685.410096
483.304065,666.185348,-10214.842000,766.095498
483.304393,-2368.659014,-10066.800811,536.266849
483.304720,-3330.926739,-9474.636058,229.828649
483.305048,-2146.597232,-9252.574275,612.876398
483.305375,148.041188,-9030.512492,612.876398
483.305703,740.205942,-9474.636058,0.000000
483.306030,-666.185348,-9548.656652,0.000000
483.306358,-2294.638420,-8586.388927,76.609550
483.306685,-1628.453072,-7698.141797,229.828649
483.307012,740.205942,-7476.080014,229.828649
483.307340,2368.659014,-7772.162391,689.485948
483.307667,1332.370696,-9178.553681,766.095498
483.307995,-1406.391290,-9622.677246,459.657299
483.308322,-3404.947333,-9326.594869,383.047749
483.308650,-2220.617826,-8808.450710,1072.533697
483.308977,370.102971,-8956.491898,1302.362347
483.309305,1480.411884,-9104.533087,612.876398
483.309632,666.185348,-10214.842000,1072.533697
483.309959,-666.185348,-9474.636058,766.095498
483.310287,-1036.288319,-8512.368333,1302.362347
483.310614,740.205942,-8068.244768,1608.800546
483.310942,2738.761985,-8660.409521,1608.800546
483.311269,1924.535449,-9548.656652,919.314598
483.311597,-666.185348,-10288.862594,689.485948
483.311924,-3108.864956,-9696.697840,153.219100
483.312252,-2738.761985,-9030.512492,0.000000
483.312579,-740.205942,-8586.388927,919.314598
483.312906,1258.350101,-8808.450710,306.438199
483.313234,888.247130,-9252.574275,306.438199
483.313561,-1480.411884,-9400.615463,306.438199
483.313889,-2368.659014,-8290.306550,919.314598
483.314216,-1480.411884,-7550.100608,766.095498
483.314544,1036.288319,-7920.203579,689.485948
483.314871,1702.473667,-8660.409521,536.266849
483.315199,74.020594,-9474.636058,766.095498
483.315526,-2368.659014,-9622.677246,612.876398
483.315854,-3108.864956,-9030.512492,536.266849
483.316181,-888.247130,-8882.471304,689.485948
483.316508,1184.329507,-8808.450710,689.485948
483.316836,1332.370696,-9770.718434,459.657299
483.317163,148.041188,-10584.944971,383.047749
483.317491,-1480.411884,-9474.636058,383.047749
483.317818,-518.144159,-9104.533087,766.095498
483.318146,1924.535449,-8660.409521,1302.362347
483.318473,3108.864956,-9178.553681,1378.971896
483.318801,1406.391290,-9844.739029,766.095498
483.319128,-1554.432478,-9918.759623,919.314598
483.319455,-3182.885551,-9474.636058,153.219100
483.319783,-2220.617826,-8808.450710,536.266849
483.320110,0.000000,-8808.450710,153.219100
483.320438,1184.329507,-8956.491898,229.828649
483.320765,296.082377,-9252.574275,153.219100
483.321093,-1702.473667,-8512.368333,-153.219100
483.321420,-1998.556043,-7698.141797,0.000000
483.321748,74.020594,-7550.100608,0.000000
483.322075,1776.494261,-8142.265362,306.438199
483.322402,1258.350101,-9474.636058,0.000000
483.322730,-1702.473667,-10288.862594,-536.266849
483.323057,-3552.988522,-10066.800811,-383.047749
483.323385,-2812.782580,-9474.636058,0.000000
483.323712,0.000000,-9104.533087,0.000000
483.324040,2146.597232,-9326.594869,459.657299
483.324367,1924.535449,-9696.697840,842.705048
483.324695,148.041188,-9400.615463,306.438199
483.325022,-370.102971,-8586.388927,536.266849
483.325350,740.205942,-8216.285956,1072.533697
483.325677,2442.679609,-8586.388927,1378.971896
483.326004,2738.761985,-9474.636058,919.314598
483.326332,370.102971,-10362.883188,1225.752797
483.326659,-2590.720797,-10288.862594,612.876398
483.326987,-3330.926739,-9622.677246,459.657299
483.327314,-1332.370696,-8956.491898,995.924147
483.327642,740.205942,-8734.430116,306.438199
483.327969,814.226536,-9252.574275,842.705048
483.328297,-962.267725,-9400.615463,0.000000
483.328624,-2590.720797,-8586.388927,153.219100
483.328951,-1702.473667,-7772.162391,306.438199
483.329279,518.144159,-7698.141797,1149.143247
483.329606,1776.494261,-8216.285956,536.266849
483.329934,444.123565,-9770.718434,612.876398
483.330261,-2368.659014,-10066.800811,536.266849
483.330589,-3849.070898,-9622.677246,766.095498
483.330916,-2072.576638,-9326.594869,919.314598
483.331244,370.102971,-8734.430116,995.924147
483.331571,1776.494261,-9548.656652,1302.362347
483.331899,444.123565,-9844.739029,536.266849
483.332226,-740.205942,-9252.574275,919.314598
483.332553,-296.082377,-7624.121203,1378.971896
483.332881,1776.494261,-7179.997637,1685.410096
483.333208,3701.029710,-7624.121203,2145.067394
483.333536,2368.659014,-9400.615463,1608.800546
483.333863,-814.226536,-10066.800811,1302.362347
483.334191,-3552.988522,-9696.697840,459.657299
483.334518,-3330.926739,-9030.512492,995.924147
483.334846,-814.226536,-8956.491898,1378.971896
483.335173,444.123565,-9400.615463,919.314598
483.335500,0.000000,-9548.656652,153.219100
483.335828,-2442.679609,-9622.677246,229.828649
483.336155,-3108.864956,-8586.388927,0.000000
483.336483,-1258.350101,-7179.997637,153.219100
483.336810,962.267725,-7920.203579,153.219100
483.337138,1702.473667,-8808.450710,153.219100
483.337465,-444.123565,-9770.718434,-153.219100
483.337793,-2960.823768,-9770.718434,-383.047749
483.338120,-2886.803174,-9030.512492,229.828649
483.338447,-962.267725,-8660.409521,306.438199
483.338775,1406.391290,-8956.491898,153.219100
483.339102,1702.473667,-9770.718434,306.438199
483.339430,296.082377,-9918.759623,306.438199
483.339757,-296.082377,-9030.512492,689.485948
483.340085,1036.288319,-8438.347739,1685.410096
483.340412,3034.844362,-8512.368333,1915.238745
483.340740,4071.132681,-9400.615463,1762.019645
483.341067,2368.659014,-10288.862594,1072.533697
483.341395,-1036.288319,-9992.780217,689.485948
483.341722,-2960.823768,-8956.491898,459.657299
483.342049,-1480.411884,-9252.574275,536.266849
483.342377,666.185348,-9030.512492,459.657299
483.342704,1184.329507,-9844.739029,229.828649
483.343032,-888.247130,-10214.842000,0.000000
483.343359,-3256.906145,-9474.636058,-459.657299
483.343687,-2886.803174,-8290.306550,-536.266849
483.344014,-592.164754,-7846.182985,0.000000
483.344342,888.247130,-8216.285956,229.828649
483.344669,296.082377,-9400.615463,-383.047749
483.344996,-2146.597232,-9474.636058,-306.438199
483.345324,-4441.235652,-8734.430116,-766.095498
483.345651,-3034.844362,-8142.265362,-383.047749
483.345979,296.082377,-7772.162391,0.000000
483.346306,2294.638420,-7994.224174,229.828649
483.346634,2442.679609,-8808.450710,919.314598
483.346961,962.267725,-8512.368333,995.924147
483.347289,222.061783,-8068.244768,1378.971896
483.347616,1998.556043,-8068.244768,2221.676944
483.347943,3627.009116,-8956.491898,2145.067394
483.348271,3182.885551,-10066.800811,2221.676944
483.348598,444.123565,-11029.068536,2145.067394
483.348926,-2220.617826,-10807.006753,1302.362347
483.349253,-2442.679609,-9770.718434,919.314598
483.349581,-444.123565,-9474.636058,1532.190996
483.349908,1776.494261,-9474.636058,995.924147
483.350236,1332.370696,-9844.739029,689.485948
483.350563,-2220.617826,-9548.656652,0.000000
483.350891,-3552.988522,-8512.368333,-306.438199
483.351218,-2368.659014,-7402.059420,0.000000
483.351545,-444.123565,-7698.141797,383.047749
483.351873,592.164754,-8438.347739,536.266849
483.352200,-1628.453072,-9400.615463,306.438199
483.352528,-4441.235652,-8956.491898,0.000000
483.352855,-5107.421000,-8438.347739,0.000000
483.353183,-3256.906145,-8290.306550,0.000000
483.353510,-222.061783,-8142.265362,612.876398
483.353838,1332.370696,-8660.409521,306.438199
483.354165,370.102971,-9326.594869,459.657299
483.354492,-444.123565,-8660.409521,766.095498
483.354820,222.061783,-7846.182985,1302.362347
483.355147,3108.864956,-8512.368333,2451.505594
483.355475,4293.194464,-9400.615463,1915.238745
483.355802,3034.844362,-11029.068536,1302.362347
483.356130,-148.041188,-11695.253884,919.314598
483.356457,-2220.617826,-11103.089130,766.095498
483.356785,-1036.288319,-10362.883188,689.485948
483.357112,1258.350101,-10362.883188,1532.190996
483.357440,1702.473667,-10955.047942,612.876398
483.357767,444.123565,-11325.150913,229.828649
483.358094,-1628.453072,-9992.780217,76.609550
483.358422,-2664.741391,-8660.409521,0.000000
483.358749,-370.102971,-8142.265362,689.485948
483.359077,1184.329507,-7920.203579,153.219100
483.359404,888.247130,-8882.471304,0.000000
483.359732,-1628.453072,-9104.533087,0.000000
483.360059,-4219.173869,-8660.409521,-383.047749
483.360387,-3627.009116,-7624.121203,-306.438199
483.360714,-666.185348,-7698.141797,-306.438199
483.361041,1110.308913,-8364.327145,0.000000
483.361369,1332.370696,-9030.512492,229.828649
483.361696,0.000000,-8882.471304,612.876398
483.362024,-888.247130,-8068.244768,919.314598
483.362351,962.267725,-7846.182985,1762.019645
483.362679,2812.782580,-8882.471304,1455.581446
483.363006,3404.947333,-10066.800811,1685.410096
483.363334,1480.411884,-11103.089130,1532.190996
483.363661,-1406.391290,-11251.130318,1455.581446
483.363988,-2368.659014,-10362.883188,1532.190996
483.364316,-592.164754,-9918.759623,1685.410096
483.364643,888.247130,-9696.697840,919.314598
483.364971,888.247130,-9844.739029,612.876398
483.365298,-888.247130,-9622.677246,306.438199
483.365626,-3034.844362,-8734.430116,306.438199
483.365953,-2220.617826,-7402.059420,0.000000
483.366281,-370.102971,-6883.915261,306.438199
483.366608,592.164754,-7550.100608,229.828649
483.366936,-888.247130,-8438.347739,0.000000
483.367263,-3775.050304,-8808.450710,-306.438199
483.367590,-4959.379811,-7698.141797,-612.876398
483.367918,-3330.926739,-7179.997637,-612.876398
483.368245,148.041188,-7328.038826,76.609550
483.368573,1998.556043,-7846.182985,536.266849
483.368900,1776.494261,-9104.533087,1072.533697
483.369228,222.061783,-8438.347739,766.095498
483.369555,222.061783,-7920.203579,1455.581446
483.369883,2294.638420,-7920.203579,1991.848295
483.370210,3775.050304,-9326.594869,2145.067394
483.370537,3256.906145,-10732.986159,1991.848295
483.370865,888.247130,-11325.150913,2145.067394
483.371192,-1480.411884,-10436.903782,1455.581446
483.371520,-1258.350101,-9474.636058,1685.410096
483.371847,1184.329507,-9474.636058,1608.800546
483.372175,2516.700203,-9770.718434,1302.362347
483.372502,1036.288319,-9992.780217,919.314598
483.372830,-1776.494261,-9622.677246,383.047749
483.373157,-3404.947333,-8290.306550,229.828649
483.373484,-1850.514855,-7772.162391,383.047749
483.373812,0.000000,-7846.182985,536.266849
483.374139,666.185348,-8068.244768,536.266849
483.374467,-1702.473667,-9252.574275,612.876398
483.374794,-5033.400406,-9030.512492,-306.438199
483.375122,-5477.523971,-7994.224174,-306.438199
483.375449,-2960.823768,-7994.224174,-383.047749
483.375777,0.000000,-7994.224174,0.000000
483.376104,888.247130,-8956.491898,229.828649
483.376432,-518.144159,-9178.553681,76.609550
483.376759,-1258.350101,-8142.265362,0.000000
483.377086,148.041188,-7772.162391,536.266849
483.377414,2516.700203,-8586.388927,1072.533697
483.377741,3552.988522,-9992.780217,1225.752797
483.378069,2220.617826,-11547.212695,842.705048
483.378396,-1036.288319,-11991.336260,919.314598
483.378724,-2072.576638,-11325.150913,612.876398
483.379051,-222.061783,-10658.965565,1072.533697
483.379379,2368.659014,-10214.842000,1378.971896
483.379706,3627.009116,-10510.924376,1225.752797
483.380033,1406.391290,-10584.944971,459.657299
483.380361,-1554.432478,-9622.677246,306.438199
483.380688,-2146.597232,-8586.388927,0.000000
483.381016,-592.164754,-7772.162391,0.000000
483.381343,1110.308913,-7846.182985,-383.047749
483.381671,74.020594,-8660.409521,0.000000
483.381998,-2886.803174,-9252.574275,-995.924147
483.382326,-4663.297435,-8808.450710,-919.314598
483.382653,-4071.132681,-8364.327145,-766.095498
483.382981,-1184.329507,-7920.203579,0.000000
483.383308,1702.473667,-8660.409521,-153.219100
483.383635,1554.432478,-9400.615463,76.609550
483.383963,148.041188,-9474.636058,76.609550
483.384290,-444.123565,-8734.430116,842.705048
483.384618,1702.473667,-8512.368333,1685.410096
483.384946,3775.050304,-8956.491898,1685.410096
483.385273,3997.112087,-10066.800811,1915.238745
483.385601,1480.411884,-11251.130318,1991.848295
483.385928,-888.247130,-10955.047942,1915.238745
483.386256,-1184.329507,-9992.780217,2451.505594
483.386583,814.226536,-9326.594869,1838.629195
483.386911,2664.741391,-9400.615463,2298.286494
483.387239,2590.720797,-9548.656652,2374.896044
483.387566,0.000000,-9992.780217,1762.019645
483.387894,-1924.535449,-8956.491898,1608.800546
483.388221,-1628.453072,-7772.162391,2528.115143
483.388549,222.061783,-7698.141797,2145.067394
483.388877,814.226536,-8512.368333,2145.067394
483.389204,-296.082377,-9696.697840,2374.896044
483.389532,-4219.173869,-9622.677246,1991.848295
483.389859,-6217.729913,-8734.430116,1149.143247
483.390187,-4737.318029,-8216.285956,1608.800546
483.390514,-1628.453072,-7698.141797,1225.752797
483.390842,370.102971,-7920.203579,1762.019645
483.391170,-296.082377,-8068.244768,1915.238745
483.391497,-1924.535449,-7624.121203,2451.505594
483.391825,-2516.700203,-7772.162391,1532.190996
483.392152,-592.164754,-7994.224174,1762.019645
483.392480,2294.638420,-8512.368333,2451.505594
483.392808,3330.926739,-9326.594869,2911.162892
483.393135,1776.494261,-10362.883188,3600.648841
483.393463,-148.041188,-10881.027347,4060.306139
483.393790,-1036.288319,-10955.047942,3677.258390
483.394118,518.144159,-10510.924376,3447.429741
483.394445,2738.761985,-9992.780217,3294.210641
483.394773,3404.947333,-10140.821405,3294.210641
483.395101,1924.535449,-9696.697840,3753.867940
483.395428,-444.123565,-9548.656652,3524.039291
483.395756,-1258.350101,-9474.636058,2604.724693
483.396083,-888.247130,-9030.512492,2451.505594
483.396411,1110.308913,-8142.265362,2374.896044
483.396739,1850.514855,-7624.121203,3064.381992
483.397066,814.226536,-8068.244768,3370.820191
483.397394,-962.267725,-9030.512492,3753.867940
483.397721,-2886.803174,-9770.718434,3140.991542
483.398049,-3849.070898,-10066.800811,1991.848295
483.398376,-3256.906145,-9696.697840,1302.362347
483.398704,-2146.597232,-9178.553681,1762.019645
483.399032,-1184.329507,-8438.347739,2451.505594
483.399359,0.000000,-8438.347739,3600.648841
483.399687,-222.061783,-8956.491898,3677.258390
483.400014,-666.185348,-9104.533087,3064.381992
483.400342,-2146.597232,-9474.636058,1762.019645
483.400669,-3256.906145,-9474.636058,1225.752797
483.400997,-1998.556043,-8956.491898,1149.143247
483.401325,814.226536,-8512.368333,3217.601092
483.401652,3923.091493,-7994.224174,4443.353888
483.401980,4959.379811,-8512.368333,6052.154434
483.402307,3552.988522,-9400.615463,5515.887586
483.402635,888.247130,-10732.986159,4903.011187
483.402963,-1850.514855,-11029.068536,3677.258390
483.403290,-2220.617826,-11251.130318,3294.210641
483.403618,-666.185348,-9770.718434,3600.648841
483.403945,2294.638420,-8882.471304,4903.011187
483.404273,3923.091493,-8364.327145,5898.935335
483.404600,3552.988522,-8364.327145,6128.763984
483.404928,740.205942,-8734.430116,4979.620737
483.405256,-2146.597232,-9548.656652,3294.210641
483.405583,-4367.215058,-9622.677246,1838.629195
483.405911,-5329.482782,-9474.636058,1378.971896
483.406238,-3627.009116,-8734.430116,1685.410096
483.406566,-962.267725,-7846.182985,2987.772442
483.406894,1554.432478,-7105.977043,4519.963438
483.407221,1332.370696,-7179.997637,5056.230287
483.407549,0.000000,-7698.141797,5056.230287
483.407876,-2368.659014,-9030.512492,3600.648841
483.408204,-5033.400406,-9474.636058,2221.676944
483.408531,-5995.668130,-10658.965565,1302.362347
483.408859,-4071.132681,-9474.636058,1532.190996
483.409187,-1332.370696,-9030.512492,2681.334243
483.409514,1258.350101,-7772.162391,3983.696590
483.409842,2812.782580,-7105.977043,4673.182538
483.410169,2960.823768,-7476.080014,4136.915689
483.410497,2442.679609,-8364.327145,3907.087040
483.410825,888.247130,-9474.636058,2451.505594
483.411152,0.000000,-9918.759623,2068.457845
483.411480,0.000000,-10362.883188,2298.286494
483.411807,370.102971,-10510.924376,3064.381992
483.412135,814.226536,-10140.821405,3524.039291
483.412462,740.205942,-10066.800811,3140.991542
483.412790,444.123565,-9696.697840,3524.039291
483.413118,814.226536,-9104.533087,2757.943793
483.413445,296.082377,-9326.594869,2068.457845
483.413773,370.102971,-8586.388927,1991.848295
483.414100,814.226536,-8882.471304,1915.238745
483.414428,1036.288319,-8586.388927,2681.334243
483.414755,1480.411884,-8364.327145,3294.210641
483.415083,1776.494261,-8364.327145,4136.915689
483.415411,518.144159,-8882.471304,4290.134789
483.415738,-222.061783,-9474.636058,3524.039291
483.416066,-1258.350101,-9918.759623,3064.381992
483.416393,-1924.535449,-9474.636058,2987.772442
483.416721,-1998.556043,-9548.656652,2911.162892
483.417049,-1332.370696,-9252.574275,2911.162892
483.417376,-592.164754,-9030.512492,2681.334243
483.417704,0.000000,-8660.409521,3370.820191
483.418031,222.061783,-8586.388927,2987.772442
483.418359,-222.061783,-8438.347739,3294.210641
483.418686,-1036.288319,-8438.347739,2911.162892
483.419014,-1332.370696,-8586.388927,3140.991542
483.419342,-1702.473667,-9030.512492,2681.334243
483.419669,-1036.288319,-9326.594869,3140.991542
483.419997,-222.061783,-9474.636058,3677.258390
483.420324,296.082377,-9178.553681,4290.134789
483.420652,814.226536,-9326.594869,4673.182538
483.420980,222.061783,-9622.677246,4290.134789
483.421307,-888.247130,-9918.759623,4060.306139
483.421635,-1406.391290,-9992.780217,3524.039291
483.421962,-1184.329507,-9252.574275,3294.210641
483.422290,-666.185348,-8660.409521,3677.258390
483.422617,0.000000,-7994.224174,3677.258390
483.422945,1036.288319,-8438.347739,3294.210641
483.423273,444.123565,-9030.512492,2911.162892
483.423600,-370.102971,-9326.594869,2604.724693
483.423928,-814.226536,-9548.656652,2681.334243
483.424255,-740.205942,-9030.512492,2604.724693
483.424583,-814.226536,-9030.512492,2145.067394
483.424910,-592.164754,-9474.636058,2145.067394
483.425238,-148.041188,-9474.636058,1991.848295
483.425566,-296.082377,-9252.574275,2145.067394
483.425893,-518.144159,-9252.574275,2221.676944
483.426221,-1110.308913,-9252.574275,1608.800546
483.426548,-1184.329507,-9326.594869,1532.190996
483.426876,-592.164754,-9252.574275,1378.971896
483.427204,-148.041188,-8734.430116,842.705048
483.427531,518.144159,-7994.224174,842.705048
483.427859,962.267725,-8216.285956,1685.410096
483.428186,814.226536,-8438.347739,995.924147
483.428514,518.144159,-9030.512492,1149.143247
483.428841,444.123565,-9622.677246,1149.143247
483.429169,0.000000,-9844.739029,919.314598
483.429497,148.041188,-9770.718434,1302.362347
483.429824,814.226536,-9918.759623,1532.190996
483.430152,1184.329507,-9696.697840,1225.752797
483.430479,1480.411884,-9918.759623,1762.019645
483.430807,1110.308913,-9474.636058,1378.971896
483.431135,0.000000,-9622.677246,995.924147
483.431462,-74.020594,-9548.656652,689.485948
483.431790,-666.185348,-9326.594869,766.095498
483.432117,-962.267725,-9178.553681,612.876398
483.432445,-518.144159,-9178.553681,383.047749
483.432772,-444.123565,-9104.533087,536.266849
483.433100,-444.123565,-8068.244768,842.705048
483.433428,-518.144159,-8512.368333,766.095498
483.433755,-740.205942,-8512.368333,536.266849
483.434083,-666.185348,-8586.388927,306.438199
483.434410,-888.247130,-8512.368333,153.219100
483.434738,-740.205942,-8290.306550,1149.143247
483.435066,-740.205942,-8660.409521,919.314598
483.435393,-592.164754,-8956.491898,1225.752797
483.435721,-518.144159,-9104.533087,1225.752797
483.436048,-444.123565,-9030.512492,1302.362347
483.436376,0.000000,-8956.491898,1455.581446
483.436703,0.000000,-8882.471304,919.314598
483.437031,0.000000,-8586.388927,995.924147
483.437359,0.000000,-8956.491898,919.314598
483.437686,0.000000,-9178.553681,1149.143247
483.438014,74.020594,-9326.594869,1378.971896
483.438341,-370.102971,-9252.574275,1608.800546
483.438669,-370.102971,-9474.636058,1455.581446
483.438996,-444.123565,-9400.615463,1455.581446
483.439324,0.000000,-9252.574275,842.705048
483.439652,-296.082377,-9104.533087,689.485948
483.439979,-296.082377,-8956.491898,612.876398
483.440307,-666.185348,-8956.491898,995.924147
483.440634,-666.185348,-8882.471304,919.314598
483.440962,-814.226536,-9104.533087,1149.143247
483.441290,-962.267725,-8956.491898,1072.533697
483.441617,-888.247130,-8882.471304,1149.143247
483.441945,-962.267725,-8956.491898,536.266849
483.442272,-1184.329507,-8882.471304,459.657299
483.442600,-666.185348,-8956.491898,459.657299
483.442927,-518.144159,-8734.430116,383.047749
483.443255,518.144159,-9178.553681,0.000000
483.443583,0.000000,-8882.471304,536.266849
483.443910,74.020594,-9030.512492,536.266849
483.444238,0.000000,-9252.574275,536.266849
483.444565,-148.041188,-9548.656652,536.266849
483.444893,-444.123565,-9770.718434,383.047749
483.445221,-444.123565,-9992.780217,766.095498
483.445548,-222.061783,-9918.759623,306.438199
483.445876,0.000000,-9992.780217,459.657299
483.446203,444.123565,-9918.759623,306.438199
483.446531,814.226536,-9548.656652,229.828649
483.446858,592.164754,-9252.574275,229.828649
483.447186,370.102971,-9252.574275,153.219100
483.447514,370.102971,-9400.615463,459.657299
483.447841,0.000000,-9252.574275,612.876398
483.448169,-296.082377,-9030.512492,612.876398
483.448496,0.000000,-9326.594869,919.314598
483.448824,148.041188,-9400.615463,76.609550
483.449151,148.041188,-9326.594869,306.438199
483.449479,148.041188,-8956.491898,153.219100
483.449807,0.000000,-8586.388927,229.828649
483.450134,-296.082377,-8438.347739,153.219100
483.450462,-518.144159,-8734.430116,0.000000
483.450789,-518.144159,-9104.533087,306.438199
483.451117,-592.164754,-8660.409521,383.047749
483.451445,-740.205942,-9030.512492,0.000000
483.451772,-592.164754,-9178.553681,0.000000
483.452100,-962.267725,-8660.409521,689.485948
483.452427,-740.205942,-8808.450710,536.266849
483.452755,-592.164754,-8882.471304,383.047749
483.453082,-518.144159,-8734.430116,536.266849
483.453410,-666.185348,-8438.347739,995.924147
483.453738,-222.061783,-8808.450710,766.095498
483.454065,-740.205942,-9178.553681,459.657299
483.454393,-962.267725,-9400.615463,842.705048
483.454720,-962.267725,-9474.636058,842.705048
483.455048,-888.247130,-9178.553681,995.924147
483.455376,-518.144159,-9252.574275,919.314598
483.455703,-444.123565,-8734.430116,766.095498
483.456031,-296.082377,-8734.430116,689.485948
483.456358,-370.102971,-8586.388927,919.314598
483.456686,-518.144159,-8660.409521,689.485948
483.457013,-814.226536,-8586.388927,995.924147
483.457341,-592.164754,-9252.574275,919.314598
483.457669,-888.247130,-9326.594869,842.705048
483.457996,-740.205942,-9400.615463,689.485948
483.458324,-370.102971,-9326.594869,459.657299
483.458651,-740.205942,-8956.491898,919.314598
483.458979,148.041188,-9252.574275,842.705048
483.459307,-444.123565,-9104.533087,612.876398
483.459634,-370.102971,-9252.574275,536.266849
483.459962,-592.164754,-9104.533087,459.657299
483.460289,-222.061783,-9178.553681,536.266849
483.460617,-370.102971,-9178.553681,459.657299
483.460944,-444.123565,-9252.574275,612.876398
483.461272,-296.082377,-9326.594869,689.485948
483.461600,-148.041188,-8956.491898,306.438199
483.461927,-444.123565,-9104.533087,383.047749
483.462255,-222.061783,-8808.450710,459.657299
483.462582,-592.164754,-9030.512492,536.266849
483.462910,-296.082377,-9104.533087,536.266849
483.463237,-148.041188,-9474.636058,459.657299
483.463565,0.000000,-9252.574275,612.876398
483.463893,-222.061783,-8882.471304,919.314598
483.464220,-296.082377,-8808.450710,612.876398
483.464548,-592.164754,-8660.409521,383.047749
483.464875,-740.205942,-8734.430116,459.657299
483.465203,-888.247130,-8734.430116,153.219100
483.465531,-740.205942,-8586.388927,612.876398
483.465858,-814.226536,-8956.491898,306.438199
483.466186,-518.144159,-9178.553681,842.705048
483.466513,0.000000,-8956.491898,766.095498
483.466841,222.061783,-8512.368333,459.657299
483.467168,888.247130,-8512.368333,842.705048
483.467496,592.164754,-8956.491898,229.828649
483.467824,0.000000,-8882.471304,536.266849
483.468151,0.000000,-9326.594869,612.876398
483.468479,-518.144159,-9918.759623,842.705048
483.468806,-296.082377,-9770.718434,842.705048
483.469134,222.061783,-9696.697840,689.485948
483.469462,444.123565,-9178.553681,919.314598
483.469789,518.144159,-8882.471304,536.266849
483.470117,814.226536,-8364.327145,306.438199
483.470444,518.144159,-8068.244768,0.000000
483.470772,148.041188,-8068.244768,306.438199
483.471099,0.000000,-8512.368333,383.047749
483.471427,-518.144159,-9104.533087,612.876398
483.471755,-740.205942,-9400.615463,612.876398
483.472082,-222.061783,-9474.636058,689.485948
483.472410,0.000000,-9104.533087,919.314598
483.472737,888.247130,-9326.594869,689.485948
483.473065,518.144159,-8882.471304,153.219100
483.473392,592.164754,-8512.368333,0.000000
483.473720,592.164754,-8660.409521,76.609550
483.474048,444.123565,-8882.471304,229.828649
483.474375,0.000000,-9992.780217,612.876398
483.474703,0.000000,-9844.739029,383.047749
483.475030,0.000000,-9844.739029,612.876398
483.475358,-370.102971,-9622.677246,536.266849
483.475686,0.000000,-9474.636058,459.657299
483.476013,148.041188,-8586.388927,306.438199
483.476341,74.020594,-8438.347739,153.219100
483.476668,0.000000,-8660.409521,229.828649
483.476996,74.020594,-9252.574275,459.657299
483.477323,-296.082377,-9474.636058,689.485948
483.477651,-518.144159,-9104.533087,1149.143247
483.477979,-518.144159,-9696.697840,842.705048
483.478306,-814.226536,-9696.697840,766.095498
483.478634,-740.205942,-9696.697840,689.485948
483.478961,-444.123565,-9178.553681,306.438199
483.479289,-296.082377,-8808.450710,995.924147
483.479617,-370.102971,-9104.533087,383.047749
483.479944,-518.144159,-9696.697840,689.485948
483.480272,-666.185348,-9770.718434,689.485948
483.480599,-518.144159,-9992.780217,1072.533697
483.480927,-296.082377,-9696.697840,689.485948
483.481254,-592.164754,-9548.656652,766.095498
483.481582,-370.102971,-9622.677246,689.485948
483.481910,-370.102971,-9178.553681,229.828649
483.482237,-222.061783,-9252.574275,383.047749
483.482565,-444.123565,-9326.594869,612.876398
483.482892,-518.144159,-9622.677246,919.314598
483.483220,-740.205942,-9474.636058,842.705048
483.483548,-814.226536,-9622.677246,842.705048
483.483875,-666.185348,-9326.594869,689.485948
483.484203,-740.205942,-9178.553681,919.314598
483.484530,-592.164754,-9252.574275,766.095498
483.484858,-370.102971,-8586.388927,306.438199
483.485185,-814.226536,-8586.388927,383.047749
483.485513,-814.226536,-8438.347739,153.219100
483.485841,-740.205942,-8808.450710,459.657299
483.486168,-814.226536,-9178.553681,0.000000
483.486496,-740.205942,-8956.491898,919.314598
483.486823,-444.123565,-9104.533087,689.485948
483.487151,-666.185348,-8956.491898,612.876398
483.487478,-296.082377,-8956.491898,612.876398
483.487806,-370.102971,-8586.388927,536.266849
483.488133,-444.123565,-8586.388927,459.657299
483.488461,-370.102971,-8586.388927,536.266849
483.488788,-370.102971,-8956.491898,766.095498
483.489116,-370.102971,-9030.512492,919.314598
483.489443,-296.082377,-8956.491898,766.095498
483.489771,-592.164754,-8364.327145,919.314598
483.490098,0.000000,-8364.327145,842.705048
483.490426,0.000000,-8512.368333,536.266849
483.490753,0.000000,-8290.306550,383.047749
483.491081,0.000000,-8512.368333,536.266849
483.491409,-222.061783,-8142.265362,842.705048
483.491736,74.020594,-8290.306550,536.266849
483.492064,0.000000,-9104.533087,536.266849
483.492391,0.000000,-9178.553681,612.876398
483.492719,74.020594,-8956.491898,383.047749
483.493046,0.000000,-8882.471304,536.266849
483.493374,370.102971,-8882.471304,306.438199
483.493701,0.000000,-8882.471304,306.438199
483.494029,74.020594,-9104.533087,306.438199
483.494356,0.000000,-9326.594869,229.828649
483.494684,148.041188,-9326.594869,306.438199
483.495011,296.082377,-9474.636058,459.657299
483.495339,296.082377,-9474.636058,536.266849
483.495666,74.020594,-9474.636058,612.876398
483.495994,74.020594,-9252.574275,459.657299
483.496321,148.041188,-9178.553681,383.047749
483.496649,222.061783,-9104.533087,842.705048
483.496977,222.061783,-9400.615463,383.047749
483.497304,296.082377,-9474.636058,612.876398
483.497632,0.000000,-9474.636058,536.266849
483.497959,0.000000,-9474.636058,459.657299
483.498287,0.000000,-9400.615463,766.095498
483.498614,0.000000,-9178.553681,229.828649
483.498942,0.000000,-9400.615463,536.266849
483.499269,-518.144159,-8882.471304,612.876398
483.499597,-444.123565,-9030.512492,536.266849
483.499924,-370.102971,-9252.574275,536.266849
483.500252,148.041188,-9622.677246,459.657299
483.500579,-592.164754,-9400.615463,766.095498
483.500907,-592.164754,-9548.656652,842.705048
483.501234,-592.164754,-9326.594869,536.266849
483.501562,-518.144159,-9474.636058,536.266849
483.501889,-148.041188,-9548.656652,1378.971896
483.502217,-148.041188,-9252.574275,612.876398
483.502545,-370.102971,-9400.615463,612.876398
483.502872,-222.061783,-9400.615463,842.705048
483.503200,-296.082377,-9252.574275,459.657299
483.503527,-444.123565,-8956.491898,1149.143247
483.503855,0.000000,-8956.491898,459.657299
483.504182,-296.082377,-9178.553681,766.095498
483.504510,-296.082377,-9030.512492,919.314598
483.504837,-370.102971,-8956.491898,689.485948
483.505165,74.020594,-8956.491898,459.657299
483.505492,0.000000,-9104.533087,612.876398
483.505820,-444.123565,-9030.512492,689.485948
483.506147,-222.061783,-9030.512492,612.876398
483.506475,-444.123565,-9252.574275,536.266849
483.506802,-222.061783,-8956.491898,536.266849
483.507130,74.020594,-8882.471304,306.438199
483.507458,-222.061783,-9104.533087,306.438199
483.507785,-148.041188,-9178.553681,306.438199
483.508113,-222.061783,-9252.574275,459.657299
483.508440,-444.123565,-9178.553681,612.876398
483.508768,74.020594,-8660.409521,306.438199
483.509095,-296.082377,-9104.533087,536.266849
483.509423,-296.082377,-9104.533087,459.657299
483.509750,-222.061783,-9104.533087,306.438199
483.510078,0.000000,-9252.574275,383.047749
483.510405,-148.041188,-9104.533087,612.876398
483.510733,0.000000,-8956.491898,612.876398
483.511060,0.000000,-9104.533087,612.876398
483.511388,0.000000,-9030.512492,919.314598
483.511715,0.000000,-8956.491898,306.438199
483.512043,0.000000,-8660.409521,306.438199
483.512370,-296.082377,-8808.450710,1149.143247
483.512698,-370.102971,-9104.533087,842.705048
483.513026,-518.144159,-9030.512492,612.876398
483.513353,-222.061783,-8882.471304,612.876398
483.513681,-666.185348,-9030.512492,766.095498
483.514008,-222.061783,-8956.491898,766.095498
483.514336,-666.185348,-8956.491898,459.657299
483.514663,-518.144159,-8956.491898,536.266849
483.514991,-666.185348,-8882.471304,612.876398
483.515318,-592.164754,-8882.471304,536.266849
483.515646,-444.123565,-9030.512492,612.876398
483.515973,-592.164754,-9030.512492,842.705048
483.516301,-740.205942,-8956.491898,612.876398
483.516628,-740.205942,-9030.512492,612.876398
483.516956,-518.144159,-8956.491898,612.876398
483.517283,-666.185348,-8734.430116,1378.971896
483.517611,-370.102971,-8956.491898,229.828649
483.517938,-666.185348,-8882.471304,842.705048
483.518266,-666.185348,-8956.491898,766.095498
483.518594,-518.144159,-9104.533087,536.266849
483.518921,-370.102971,-9252.574275,919.314598
483.519249,-370.102971,-8882.471304,842.705048
483.519576,-444.123565,-9104.533087,612.876398
483.519904,-518.144159,-8808.450710,612.876398
483.520231,-518.144159,-8808.450710,459.657299
483.520559,-518.144159,-9104.533087,459.657299
483.520886,0.000000,-9252.574275,689.485948
483.521214,-296.082377,-8956.491898,306.438199
483.521541,-518.144159,-8882.471304,229.828649
483.521869,-592.164754,-9030.512492,306.438199
483.522196,-592.164754,-9104.533087,383.047749
483.522524,-518.144159,-8586.388927,995.924147
483.522851,-370.102971,-9030.512492,306.438199
483.523179,-296.082377,-9030.512492,229.828649
483.523506,-444.123565,-9178.553681,536.266849
483.523834,-296.082377,-9030.512492,536.266849
483.524162,-148.041188,-8734.430116,1149.143247
483.524489,74.020594,-8512.368333,383.047749
483.524817,0.000000,-9030.512492,536.266849
483.525144,-296.082377,-9252.574275,689.485948
483.525472,-222.061783,-9326.594869,536.266849
483.525799,0.000000,-8808.450710,842.705048
483.526127,148.041188,-9252.574275,229.828649
483.526454,0.000000,-9104.533087,459.657299
483.526782,74.020594,-9178.553681,689.485948
483.527109,0.000000,-8956.491898,766.095498
483.527437,0.000000,-9104.533087,612.876398
483.527764,0.000000,-9548.656652,306.438199
483.528092,-518.144159,-9030.512492,536.266849
483.528419,-296.082377,-9252.574275,459.657299
483.528747,-370.102971,-9030.512492,459.657299
483.529074,-296.082377,-9178.553681,536.266849
483.529402,-222.061783,-8956.491898,1072.533697
483.529730,0.000000,-8956.491898,689.485948
483.530057,-148.041188,-9104.533087,536.266849
483.530385,-444.123565,-9104.533087,459.657299
483.530712,-296.082377,-9326.594869,383.047749
483.531040,-444.123565,-9104.533087,536.266849
483.531367,296.082377,-9178.553681,689.485948
483.531695,0.000000,-9326.594869,612.876398
483.532022,148.041188,-9622.677246,766.095498
483.532350,0.000000,-9548.656652,536.266849
483.532677,148.041188,-9474.636058,536.266849
483.533005,0.000000,-9622.677246,612.876398
483.533332,296.082377,-9622.677246,383.047749
483.533660,296.082377,-9622.677246,306.438199
483.533987,370.102971,-9548.656652,459.657299
483.534315,296.082377,-9474.636058,536.266849
483.534642,370.102971,-9400.615463,459.657299
483.534970,74.020594,-9474.636058,383.047749
483.535298,0.000000,-9622.677246,459.657299
483.535625,0.000000,-9696.697840,229.828649
483.535953,0.000000,-9474.636058,229.828649
483.536280,-296.082377,-8882.471304,689.485948
483.536608,-296.082377,-9178.553681,842.705048
483.536935,-222.061783,-9326.594869,459.657299
483.537263,-148.041188,-9030.512492,459.657299
483.537590,-444.123565,-9252.574275,383.047749
483.537918,-370.102971,-9030.512492,459.657299
483.538245,-370.102971,-9400.615463,229.828649
483.538573,-444.123565,-9178.553681,536.266849
483.538900,-518.144159,-9326.594869,689.485948
483.539228,-222.061783,-9178.553681,536.266849
483.539555,-148.041188,-9400.615463,689.485948
483.539883,0.000000,-8956.491898,919.314598
483.540211,-592.164754,-8956.491898,689.485948
483.540538,-444.123565,-9030.512492,689.485948
483.540866,-370.102971,-8956.491898,919.314598
483.541193,-444.123565,-9104.533087,919.314598
483.541521,-370.102971,-9104.533087,689.485948
483.541848,-518.144159,-8808.450710,995.924147
483.542176,-666.185348,-8882.471304,689.485948
483.542503,-814.226536,-8956.491898,536.266849
483.542831,-888.247130,-8734.430116,536.266849
483.543158,-888.247130,-8512.368333,612.876398
483.543486,-518.144159,-8068.244768,766.095498
483.543813,-814.226536,-8512.368333,689.485948
483.544141,-962.267725,-8660.409521,689.485948
483.544468,-518.144159,-8586.388927,383.047749
483.544796,-814.226536,-8216.285956,689.485948
483.545123,-666.185348,-8512.368333,306.438199
483.545451,-666.185348,-8808.450710,383.047749
483.545779,-740.205942,-8660.409521,306.438199
483.546106,-592.164754,-8956.491898,383.047749
483.546434,-814.226536,-8734.430116,383.047749
483.546761,-518.144159,-9030.512492,229.828649
483.547089,-444.123565,-8882.471304,459.657299
483.547416,-222.061783,-8882.471304,536.266849
483.547744,0.000000,-8882.471304,383.047749
483.548071,-222.061783,-8808.450710,536.266849
483.548399,0.000000,-8512.368333,1149.143247
483.548726,-148.041188,-9030.512492,383.047749
483.549054,-444.123565,-9178.553681,383.047749
483.549381,-370.102971,-8882.471304,536.266849
483.549709,-148.041188,-9104.533087,612.876398
483.550036,74.020594,-8660.409521,689.485948
483.550364,222.061783,-8586.388927,536.266849
483.550691,-148.041188,-8956.491898,459.657299
483.551019,-222.061783,-8808.450710,153.219100
483.551347,-370.102971,-8956.491898,383.047749
483.551674,148.041188,-9400.615463,306.438199
483.552002,-518.144159,-8882.471304,459.657299
483.552329,-222.061783,-9178.553681,536.266849
483.552657,-296.082377,-9326.594869,459.657299
483.552984,-370.102971,-9326.594869,536.266849
483.553312,0.000000,-9326.594869,536.266849
483.553639,0.000000,-9178.553681,229.828649
483.553967,148.041188,-9252.574275,766.095498
483.554294,296.082377,-9326.594869,766.095498
483.554622,74.020594,-9474.636058,612.876398
483.554949,222.061783,-9548.656652,459.657299
483.555277,148.041188,-9474.636058,153.219100
483.555604,222.061783,-9622.677246,612.876398
483.555932,74.020594,-9548.656652,612.876398
483.556259,74.020594,-9696.697840,229.828649
483.556587,74.020594,-9474.636058,766.095498
483.556915,444.123565,-9474.636058,459.657299
483.557242,296.082377,-9252.574275,919.314598
483.557570,148.041188,-9326.594869,689.485948
483.557897,148.041188,-9400.615463,536.266849
483.558225,0.000000,-9474.636058,306.438199
483.558552,-148.041188,-9400.615463,689.485948
483.558880,0.000000,-9622.677246,842.705048
483.559207,-222.061783,-9400.615463,536.266849
483.559535,-222.061783,-9400.615463,536.266849
483.559862,-222.061783,-9326.594869,689.485948
483.560190,0.000000,-9400.615463,689.485948
483.560517,-518.144159,-9252.574275,919.314598
483.560845,-222.061783,-9474.636058,766.095498
483.561172,-222.061783,-9400.615463,689.485948
483.561500,-222.061783,-9474.636058,766.095498
483.561827,0.000000,-9548.656652,689.485948
483.562155,0.000000,-9252.574275,536.266849
483.562483,-222.061783,-9178.553681,536.266849
483.562810,-222.061783,-9178.553681,919.314598
483.563138,-222.061783,-9252.574275,612.876398
483.563465,-148.041188,-9178.553681,459.657299
483.563793,-296.082377,-9104.533087,766.095498
483.564120,-370.102971,-9030.512492,995.924147
483.564448,-518.144159,-9178.553681,536.266849
483.564775,-444.123565,-9252.574275,842.705048
483.565103,-370.102971,-9178.553681,919.314598
483.565430,-444.123565,-9104.533087,842.705048
483.565758,-1184.329507,-9030.512492,612.876398
483.566085,-222.061783,-9030.512492,383.047749
483.566413,-592.164754,-8882.471304,383.047749
483.566740,-370.102971,-8808.450710,612.876398
483.567068,-444.123565,-8660.409521,306.438199
483.567396,-444.123565,-8586.388927,612.876398
483.567723,-444.123565,-9104.533087,459.657299
483.568051,-740.205942,-9030.512492,612.876398
483.568378,-666.185348,-8956.491898,536.266849
483.568706,-518.144159,-8808.450710,383.047749
483.569033,-148.041188,-8734.430116,842.705048
483.569361,-296.082377,-8660.409521,76.609550
483.569688,-444.123565,-8956.491898,612.876398
483.570016,-296.082377,-8882.471304,766.095498
483.570343,-296.082377,-9326.594869,612.876398
483.570671,0.000000,-9178.553681,995.924147
483.570998,0.000000,-8956.491898,689.485948
483.571326,0.000000,-9178.553681,612.876398
483.571653,-222.061783,-9030.512492,459.657299
483.571981,-296.082377,-9178.553681,536.266849
483.572308,-296.082377,-9030.512492,459.657299
483.572636,-148.041188,-8586.388927,766.095498
483.572964,-296.082377,-8734.430116,459.657299
483.573291,-222.061783,-8956.491898,459.657299
483.573619,-370.102971,-8808.450710,459.657299
483.573946,-444.123565,-8882.471304,383.047749
483.574274,-296.082377,-8586.388927,919.314598
483.574601,-222.061783,-9104.533087,76.609550
483.574929,-592.164754,-8956.491898,459.657299
483.575256,-370.102971,-8956.491898,383.047749
483.575584,-296.082377,-9104.533087,459.657299
483.575911,-444.123565,-9178.553681,1072.533697
483.576239,0.000000,-8808.450710,459.657299
483.576566,0.000000,-8882.471304,536.266849
483.576894,-296.082377,-9030.512492,689.485948
483.577221,-148.041188,-9030.512492,459.657299
483.577549,-444.123565,-8808.450710,919.314598
483.577876,0.000000,-9326.594869,995.924147
483.578204,-370.102971,-9326.594869,536.266849
483.578532,-222.061783,-9104.533087,536.266849
483.578859,-222.061783,-9252.574275,612.876398
483.579187,-296.082377,-9104.533087,459.657299
483.579514,-74.020594,-8660.409521,1149.143247
483.579842,-370.102971,-9252.574275,536.266849
483.580169,-444.123565,-9104.533087,536.266849
483.580497,-518.144159,-9178.553681,612.876398
483.580824,-370.102971,-9030.512492,536.266849
483.581152,-222.061783,-9178.553681,153.219100
483.581479,-296.082377,-9474.636058,689.485948
483.581807,-444.123565,-9178.553681,612.876398
483.582134,-444.123565,-9104.533087,689.485948
483.582462,0.000000,-9178.553681,689.485948
483.582789,0.000000,-9474.636058,689.485948
483.583117,0.000000,-8734.430116,153.219100
483.583444,-444.123565,-9252.574275,612.876398
483.583772,-148.041188,-9104.533087,689.485948
483.584099,-148.041188,-9252.574275,689.485948
483.584427,0.000000,-9104.533087,689.485948
483.584755,0.000000,-9104.533087,1072.533697
483.585082,0.000000,-9474.636058,536.266849
483.585410,0.000000,-9326.594869,536.266849
483.585737,0.000000,-9474.636058,689.485948
483.586065,0.000000,-9400.615463,459.657299
483.586393,0.000000,-9252.574275,229.828649
483.586720,0.000000,-9400.615463,689.485948
483.587048,0.000000,-9252.574275,536.266849
483.587375,-296.082377,-9326.594869,383.047749
483.587703,-148.041188,-9178.553681,383.047749
483.588030,0.000000,-9178.553681,153.219100
483.588358,370.102971,-9030.512492,766.095498
483.588686,-222.061783,-9252.574275,383.047749
483.589013,-296.082377,-9104.533087,153.219100
483.589341,-370.102971,-9030.512492,689.485948
483.589668,0.000000,-9178.553681,459.657299
483.589996,-148.041188,-9178.553681,383.047749
483.590324,-296.082377,-9178.553681,612.876398
483.590651,0.000000,-9474.636058,689.485948
483.590979,-148.041188,-9400.615463,612.876398
483.591306,-296.082377,-9326.594869,536.266849
483.591634,0.000000,-8660.409521,229.828649
483.591961,0.000000,-9474.636058,766.095498
483.592289,0.000000,-9400.615463,459.657299
483.592617,0.000000,-9326.594869,612.876398
483.592944,0.000000,-9400.615463,536.266849
483.593272,148.041188,-9400.615463,612.876398
483.593599,148.041188,-9400.615463,306.438199
483.593927,0.000000,-9400.615463,612.876398
483.594255,0.000000,-9400.615463,306.438199
483.594582,-222.061783,-9252.574275,612.876398
483.594910,-444.123565,-8660.409521,306.438199
483.595237,0.000000,-9178.553681,536.266849
483.595565,-296.082377,-8956.491898,383.047749
483.595892,-148.041188,-9104.533087,383.047749
483.596220,-296.082377,-8956.491898,689.485948
483.596548,-444.123565,-8956.491898,383.047749
483.596875,-296.082377,-8808.450710,536.266849
483.597203,-296.082377,-9030.512492,536.266849
483.597530,-296.082377,-8808.450710,229.828649
483.597858,-296.082377,-8734.430116,612.876398
483.598186,-370.102971,-8882.471304,536.266849
483.598513,-222.061783,-9178.553681,842.705048
483.598841,-370.102971,-8882.471304,842.705048
483.599168,-444.123565,-9104.533087,536.266849
483.599496,-370.102971,-9030.512492,689.485948
483.599823,-518.144159,-8956.491898,689.485948
483.600151,-444.123565,-8586.388927,1072.533697
483.600479,0.000000,-8586.388927,612.876398
483.600806,-370.102971,-8882.471304,689.485948
483.601134,-518.144159,-8808.450710,612.876398
483.601461,-666.185348,-8808.450710,766.095498
483.601789,-888.247130,-8364.327145,842.705048
483.602117,-666.185348,-8586.388927,919.314598
483.602444,-740.205942,-9030.512492,689.485948
483.602772,-518.144159,-8956.491898,536.266849
483.603099,-444.123565,-8808.450710,459.657299
483.603427,-666.185348,-8882.471304,459.657299
483.603754,-666.185348,-8586.388927,76.609550
483.604082,-814.226536,-8882.471304,306.438199
483.604410,-814.226536,-8808.450710,536.266849
483.604737,-740.205942,-8808.450710,383.047749
483.605065,-740.205942,-8808.450710,536.266849
483.605392,-148.041188,-8512.368333,76.609550
483.605720,-592.164754,-8956.491898,612.876398
483.606048,-518.144159,-8956.491898,383.047749
483.606375,-370.102971,-9178.553681,689.485948
483.606703,-296.082377,-8956.491898,536.266849
483.607030,-148.041188,-8882.471304,306.438199
483.607358,0.000000,-8956.491898,459.657299
483.607686,-222.061783,-9400.615463,612.876398
483.608013,-222.061783,-9400.615463,459.657299
483.608341,-296.082377,-9252.574275,612.876398
483.608668,74.020594,-9178.553681,536.266849
483.608996,296.082377,-9400.615463,612.876398
483.609323,0.000000,-9178.553681,459.657299
483.609651,-370.102971,-9030.512492,229.828649
483.609979,-296.082377,-8956.491898,306.438199
483.610306,-296.082377,-9252.574275,459.657299
483.610634,-296.082377,-9030.512492,689.485948
483.610961,-296.082377,-9178.553681,612.876398
483.611289,-444.123565,-9252.574275,689.485948
483.611617,-370.102971,-9104.533087,306.438199
483.611944,-296.082377,-9030.512492,306.438199
483.612272,-296.082377,-9178.553681,383.047749
483.612599,-148.041188,-9104.533087,689.485948
483.612927,0.000000,-9474.636058,459.657299
483.613254,-222.061783,-9474.636058,459.657299
483.613582,-444.123565,-9400.615463,536.266849
483.613910,-296.082377,-9474.636058,536.266849
483.614237,148.041188,-9622.677246,842.705048
483.614565,74.020594,-9400.615463,383.047749
483.614892,0.000000,-9400.615463,459.657299
483.615220,0.000000,-9252.574275,459.657299
483.615548,74.020594,-9622.677246,612.876398
483.615875,74.020594,-9400.615463,536.266849
483.616203,74.020594,-9178.553681,612.876398
483.616530,0.000000,-9326.594869,689.485948
483.616858,0.000000,-9400.615463,459.657299
483.617185,0.000000,-9252.574275,383.047749
483.617513,-296.082377,-9326.594869,766.095498
483.617841,-222.061783,-9178.553681,536.266849
483.618168,-222.061783,-9252.574275,383.047749
483.618496,-148.041188,-9178.553681,153.219100
483.618823,-148.041188,-9030.512492,383.047749
483.619151,148.041188,-8956.491898,459.657299
483.619479,-222.061783,-9252.574275,689.485948
483.619806,-222.061783,-9252.574275,612.876398
483.620134,-370.102971,-9326.594869,689.485948
483.620461,-148.041188,-9252.574275,459.657299
483.620789,-296.082377,-8956.491898,995.924147
483.621116,-296.082377,-8956.491898,306.438199
483.621444,0.000000,-9178.553681,536.266849
483.621772,-148.041188,-9104.533087,842.705048
483.622099,-222.061783,-9252.574275,689.485948
483.622427,-222.061783,-9104.533087,1302.362347
483.622754,0.000000,-8956.491898,689.485948
483.623082,-296.082377,-9178.553681,689.485948
483.623410,-370.102971,-9030.512492,919.314598
483.623737,-370.102971,-9104.533087,689.485948
483.624065,-296.082377,-9030.512492,612.876398
483.624392,-222.061783,-8808.450710,842.705048
483.624720,-370.102971,-8808.450710,766.095498
483.625047,-444.123565,-9030.512492,689.485948
483.625375,-444.123565,-9030.512492,766.095498
483.625703,-518.144159,-8734.430116,459.657299
483.626030,0.000000,-8660.409521,383.047749
483.626358,-370.102971,-8956.491898,612.876398
483.626685,-592.164754,-9104.533087,536.266849
483.627013,-444.123565,-9178.553681,229.828649
483.627341,-370.102971,-9030.512492,459.657299
483.627668,0.000000,-8956.491898,1149.143247
483.627996,-222.061783,-9030.512492,612.876398
483.628323,-444.123565,-9178.553681,306.438199
483.628651,-296.082377,-9104.533087,459.657299
483.628978,-148.041188,-9178.553681,766.095498
483.629306,-370.102971,-9030.512492,306.438199
483.629634,0.000000,-9178.553681,229.828649
483.629961,-370.102971,-8808.450710,536.266849
483.630289,0.000000,-9104.533087,306.438199
483.630616,-222.061783,-8882.471304,383.047749
483.630944,-222.061783,-8956.491898,459.657299
483.631272,0.000000,-9326.594869,459.657299
483.631599,-518.144159,-9030.512492,536.266849
483.631927,-592.164754,-9178.553681,459.657299
483.632254,-518.144159,-8956.491898,689.485948
483.632582,-592.164754,-8808.450710,459.657299
483.632909,0.000000,-9030.512492,-229.828649
483.633237,-370.102971,-8660.409521,766.095498
483.633565,-296.082377,-8808.450710,306.438199
483.633892,-666.185348,-8956.491898,306.438199
483.634220,-666.185348,-8956.491898,536.266849
483.634547,-592.164754,-8438.347739,459.657299
483.634875,-444.123565,-8734.430116,842.705048
483.635203,-444.123565,-9030.512492,536.266849
483.635530,-444.123565,-9030.512492,689.485948
483.635858,-296.082377,-9326.594869,842.705048
483.636185,-296.082377,-9030.512492,689.485948
483.636513,-222.061783,-8956.491898,842.705048
483.636840,0.000000,-8882.471304,459.657299
483.637168,-222.061783,-9178.553681,689.485948
483.637496,-370.102971,-9178.553681,536.266849
483.637823,-296.082377,-9104.533087,766.095498
483.638151,0.000000,-8956.491898,842.705048
483.638478,0.000000,-9326.594869,612.876398
483.638806,0.000000,-9178.553681,536.266849
483.639134,0.000000,-9104.533087,689.485948
483.639461,0.000000,-9030.512492,459.657299
483.639789,-222.061783,-9030.512492,536.266849
483.640116,-296.082377,-9252.574275,536.266849
483.640444,0.000000,-9474.636058,306.438199
483.640771,0.000000,-9252.574275,459.657299
483.641099,0.000000,-9326.594869,306.438199
483.641427,0.000000,-9252.574275,153.219100
483.641754,0.000000,-9252.574275,1149.143247
483.642082,0.000000,-9104.533087,689.485948
483.642409,0.000000,-9178.553681,383.047749
483.642737,0.000000,-9252.574275,459.657299
483.643065,0.000000,-9400.615463,536.266849
483.643392,0.000000,-9178.553681,153.219100
483.643720,74.020594,-9622.677246,612.876398
483.644047,0.000000,-9474.636058,459.657299
483.644375,0.000000,-9474.636058,612.876398
483.644702,-148.041188,-9326.594869,612.876398
483.645030,0.000000,-9178.553681,842.705048
483.645358,0.000000,-9252.574275,383.047749
483.645685,-148.041188,-9252.574275,612.876398
483.646013,0.000000,-9252.574275,536.266849
483.646340,0.000000,-9252.574275,766.095498
483.646668,148.041188,-8882.471304,689.485948
483.646996,-222.061783,-9252.574275,689.485948
483.647323,-296.082377,-9252.574275,612.876398
483.647651,-370.102971,-9326.594869,536.266849
483.647978,-296.082377,-9030.512492,536.266849
483.648306,-296.082377,-9104.533087,842.705048
483.648633,0.000000,-9104.533087,919.314598
483.648961,-518.144159,-9030.512492,689.485948
483.649289,-296.082377,-9178.553681,536.266849
483.649616,-222.061783,-9252.574275,536.266849
483.649944,-296.082377,-9104.533087,766.095498
483.650271,-296.082377,-9030.512492,536.266849
483.650599,-148.041188,-9030.512492,689.485948
483.650927,-370.102971,-9104.533087,612.876398
483.651254,-444.123565,-9104.533087,383.047749
483.651582,-296.082377,-9104.533087,536.266849
483.651909,74.020594,-8512.368333,842.705048
483.652237,-148.041188,-9178.553681,612.876398
483.652565,0.000000,-9252.574275,383.047749
483.652892,-296.082377,-9326.594869,689.485948
483.653220,-518.144159,-9104.533087,689.485948
483.653547,0.000000,-8808.450710,842.705048
483.653875,-370.102971,-8808.450710,153.219100
483.654202,-370.102971,-9104.533087,612.876398
483.654530,-370.102971,-8734.430116,383.047749
483.654858,-296.082377,-8808.450710,383.047749
483.655185,-296.082377,-8882.471304,919.314598
