#time,accel_x,accel_y,accel_z
340.924952,-148.041188,-8956.491898,766.095498
340.925280,-148.041188,-8956.491898,536.266849
340.925607,-222.061783,-9104.533087,459.657299
340.925935,-296.082377,-9326.594869,306.438199
340.926263,-222.061783,-9252.574275,612.876398
340.926590,-222.061783,-8734.430116,229.828649
340.926918,-148.041188,-8808.450710,383.047749
340.927246,-370.102971,-9030.512492,536.266849
340.927573,-296.082377,-9252.574275,459.657299
340.927901,-222.061783,-9104.533087,229.828649
340.928229,-592.164754,-8512.368333,612.876398
340.928556,-222.061783,-9104.533087,612.876398
340.928884,-444.123565,-9104.533087,536.266849
340.929211,-296.082377,-9030.512492,612.876398
340.929539,-296.082377,-8882.471304,689.485948
340.929867,-296.082377,-9030.512492,383.047749
340.930194,-222.061783,-9400.615463,1072.533697
340.930522,-222.061783,-9474.636058,766.095498
340.930850,-296.082377,-8882.471304,536.266849
340.931177,-296.082377,-8956.491898,536.266849
340.931505,0.000000,-9178.553681,919.314598
340.931833,-296.082377,-9104.533087,919.314598
340.932160,-296.082377,-9104.533087,536.266849
340.932488,-222.061783,-9030.512492,536.266849
340.932816,0.000000,-9326.594869,842.705048
340.933143,-444.123565,-9252.574275,459.657299
340.933471,148.041188,-8808.450710,689.485948
340.933799,0.000000,-9030.512492,689.485948
340.934126,-296.082377,-9178.553681,612.876398
340.934454,-592.164754,-9252.574275,76.609550
340.934782,-1184.329507,-9474.636058,0.000000
340.935109,-1628.453072,-9178.553681,306.438199
340.935437,-1184.329507,-9252.574275,-995.924147
340.935764,-888.247130,-9030.512492,-766.095498
340.936092,-592.164754,-8882.471304,-229.828649
340.936420,-370.102971,-9104.533087,-612.876398
340.936747,-1036.288319,-9030.512492,-612.876398
340.937075,-888.247130,-9178.553681,-1302.362347
340.937403,-1184.329507,-9104.533087,-1225.752797
340.937730,-1110.308913,-9252.574275,-1378.971896
340.938058,-814.226536,-9104.533087,-1378.971896
340.938386,-666.185348,-9326.594869,-1762.019645
340.938713,-444.123565,-9030.512492,-1072.533697
340.939041,0.000000,-9252.574275,-1149.143247
340.939369,-222.061783,-8956.491898,-1378.971896
340.939696,0.000000,-9104.533087,-1378.971896
340.940024,148.041188,-9400.615463,-1532.190996
340.940352,444.123565,-9326.594869,-1532.190996
340.940679,0.000000,-9326.594869,-1762.019645
340.941007,74.020594,-9400.615463,-1838.629195
340.941335,518.144159,-9474.636058,-1532.190996
340.941662,444.123565,-9104.533087,-1762.019645
340.941990,888.247130,-8956.491898,-1455.581446
340.942318,666.185348,-9400.615463,-1685.410096
340.942645,222.061783,-9400.615463,-1838.629195
340.942973,0.000000,-9104.533087,-1838.629195
340.943300,0.000000,-9178.553681,-1762.019645
340.943628,222.061783,-9030.512492,-1608.800546
340.943956,296.082377,-9400.615463,-1915.238745
340.944283,-222.061783,-9326.594869,-1762.019645
340.944611,-296.082377,-9252.574275,-1915.238745
340.944939,-666.185348,-9104.533087,-1838.629195
340.945266,-740.205942,-8882.471304,-2068.457845
340.945594,-1036.288319,-8808.450710,-2528.115143
340.945922,-1554.432478,-8808.450710,-2145.067394
340.946249,-1406.391290,-9030.512492,-2374.896044
340.946577,-1406.391290,-9252.574275,-2604.724693
340.946905,-1480.411884,-9030.512492,-2834.553343
340.947232,-1850.514855,-8216.285956,-2681.334243
340.947560,-1480.411884,-9178.553681,-2834.553343
340.947888,-1554.432478,-9030.512492,-3064.381992
340.948215,-1480.411884,-8734.430116,-2987.772442
340.948543,-1036.288319,-8882.471304,-3064.381992
340.948871,-740.205942,-8882.471304,-1991.848295
340.949198,0.000000,-8956.491898,-2757.943793
340.949526,444.123565,-8882.471304,-2068.457845
340.949853,1184.329507,-8808.450710,-1762.019645
340.950181,1480.411884,-8882.471304,-1302.362347
340.950509,1776.494261,-8882.471304,-612.876398
340.950836,2220.617826,-9104.533087,-766.095498
340.951164,2072.576638,-9252.574275,-383.047749
340.951492,1702.473667,-9474.636058,-153.219100
340.951819,888.247130,-9770.718434,-612.876398
340.952147,0.000000,-10066.800811,-306.438199
340.952475,0.000000,-10066.800811,-1608.800546
340.952802,-1184.329507,-9770.718434,-1532.190996
340.953130,-1332.370696,-9548.656652,-1838.629195
340.953458,-1332.370696,-9030.512492,-2298.286494
340.953785,-1036.288319,-8660.409521,-1991.848295
340.954113,-444.123565,-8512.368333,-1532.190996
340.954441,0.000000,-8068.244768,-1378.971896
340.954768,370.102971,-7772.162391,-1225.752797
340.955096,740.205942,-7920.203579,-306.438199
340.955424,814.226536,-8216.285956,306.438199
340.955751,740.205942,-8216.285956,612.876398
340.956079,296.082377,-8734.430116,1685.410096
340.956407,0.000000,-9326.594869,2068.457845
340.956734,-666.185348,-9696.697840,1915.238745
340.957062,-1184.329507,-10066.800811,1838.629195
340.957389,-1702.473667,-9770.718434,1455.581446
340.957717,-1480.411884,-9548.656652,995.924147
340.958045,-1258.350101,-9474.636058,766.095498
340.958372,-740.205942,-9252.574275,459.657299
340.958700,-592.164754,-8660.409521,153.219100
340.959028,0.000000,-8660.409521,536.266849
340.959355,444.123565,-8216.285956,612.876398
340.959683,222.061783,-8512.368333,612.876398
340.960011,-148.041188,-8512.368333,995.924147
340.960338,-518.144159,-9178.553681,1302.362347
340.960666,-888.247130,-9622.677246,1455.581446
340.960994,-1332.370696,-9992.780217,1915.238745
340.961321,-2294.638420,-9844.739029,1762.019645
340.961649,-2442.679609,-10140.821405,1378.971896
340.961977,-2812.782580,-9844.739029,1149.143247
340.962304,-2738.761985,-9400.615463,612.876398
340.962632,-1628.453072,-8734.430116,612.876398
340.962960,-740.205942,-7772.162391,-383.047749
340.963287,222.061783,-7624.121203,0.000000
340.963615,814.226536,-7328.038826,0.000000
340.963942,1554.432478,-7476.080014,306.438199
340.964270,2368.659014,-7624.121203,0.000000
340.964598,2368.659014,-8438.347739,76.609550
340.964925,1998.556043,-9474.636058,995.924147
340.965253,1554.432478,-10140.821405,1685.410096
340.965581,666.185348,-10881.027347,1915.238745
340.965908,-222.061783,-11177.109724,1685.410096
340.966236,-1184.329507,-11621.233289,995.924147
340.966564,-2072.576638,-11251.130318,459.657299
340.966891,-2146.597232,-10807.006753,153.219100
340.967219,-1480.411884,-9622.677246,-153.219100
340.967547,-1332.370696,-8586.388927,-612.876398
340.967874,0.000000,-7772.162391,-1302.362347
340.968202,296.082377,-7105.977043,-919.314598
340.968530,814.226536,-6809.894666,-919.314598
340.968857,740.205942,-7105.977043,-766.095498
340.969185,666.185348,-7624.121203,-306.438199
340.969513,888.247130,-7920.203579,0.000000
340.969840,370.102971,-8512.368333,995.924147
340.970168,0.000000,-9474.636058,766.095498
340.970496,-740.205942,-10214.842000,1072.533697
340.970823,-1480.411884,-10436.903782,689.485948
340.971151,-1850.514855,-10584.944971,536.266849
340.971478,-1850.514855,-9844.739029,76.609550
340.971806,-1110.308913,-9252.574275,-459.657299
340.972134,0.000000,-8512.368333,-612.876398
340.972461,962.267725,-8068.244768,-612.876398
340.972789,2072.576638,-7550.100608,-536.266849
340.973117,2442.679609,-7031.956449,0.000000
340.973444,2738.761985,-7772.162391,153.219100
340.973772,2294.638420,-8512.368333,612.876398
340.974100,1998.556043,-9326.594869,1225.752797
340.974427,1184.329507,-9918.759623,1991.848295
340.974755,296.082377,-10881.027347,1991.848295
340.975083,-1184.329507,-10288.862594,2068.457845
340.975410,-1924.535449,-10732.986159,2145.067394
340.975738,-2368.659014,-10066.800811,1608.800546
340.976066,-2294.638420,-9326.594869,1072.533697
340.976393,-1628.453072,-8808.450710,995.924147
340.976721,-740.205942,-7031.956449,536.266849
340.977049,-592.164754,-6957.935855,76.609550
340.977376,-222.061783,-6883.915261,229.828649
340.977704,0.000000,-7105.977043,153.219100
340.978031,-296.082377,-7179.997637,459.657299
340.978359,-148.041188,-7772.162391,689.485948
340.978687,-518.144159,-9030.512492,995.924147
340.979014,-666.185348,-9918.759623,1302.362347
340.979342,-1332.370696,-10807.006753,1608.800546
340.979670,-1924.535449,-11473.192101,1532.190996
340.979997,-2664.741391,-11473.192101,1072.533697
340.980325,-3034.844362,-11177.109724,536.266849
340.980653,-3034.844362,-10436.903782,76.609550
340.980980,-2072.576638,-9474.636058,76.609550
340.981308,-592.164754,-8512.368333,0.000000
340.981636,740.205942,-7994.224174,-842.705048
340.981963,1258.350101,-7476.080014,0.000000
340.982291,1998.556043,-7550.100608,229.828649
340.982619,2072.576638,-7698.141797,536.266849
340.982946,2146.597232,-8586.388927,842.705048
340.983274,1998.556043,-9474.636058,1225.752797
340.983602,1554.432478,-10140.821405,1915.238745
340.983929,740.205942,-11103.089130,1762.019645
340.984257,-222.061783,-11547.212695,2068.457845
340.984584,-1036.288319,-11473.192101,1532.190996
340.984912,-1776.494261,-11399.171507,383.047749
340.985240,-1850.514855,-10140.821405,0.000000
340.985567,-1406.391290,-9474.636058,-306.438199
340.985895,-666.185348,-8512.368333,-919.314598
340.986223,0.000000,-7994.224174,-842.705048
340.986550,444.123565,-7402.059420,-1149.143247
340.986878,370.102971,-7179.997637,-153.219100
340.987205,814.226536,-7920.203579,-689.485948
340.987533,74.020594,-8290.306550,0.000000
340.987861,0.000000,-9030.512492,0.000000
340.988188,0.000000,-9622.677246,689.485948
340.988516,-740.205942,-9918.759623,1149.143247
340.988844,-1628.453072,-10214.842000,689.485948
340.989171,-2220.617826,-10288.862594,919.314598
340.989499,-2664.741391,-10066.800811,306.438199
340.989826,-2294.638420,-9326.594869,-306.438199
340.990154,-1258.350101,-8438.347739,-383.047749
340.990482,370.102971,-7328.038826,0.000000
340.990809,1628.453072,-6883.915261,-459.657299
340.991137,2368.659014,-6513.812290,0.000000
340.991465,2738.761985,-7031.956449,536.266849
340.991792,2664.741391,-7550.100608,842.705048
340.992120,2590.720797,-8216.285956,1532.190996
340.992447,1850.514855,-9474.636058,1762.019645
340.992775,1036.288319,-10510.924376,2145.067394
340.993103,0.000000,-11251.130318,2068.457845
340.993430,-1332.370696,-11473.192101,2145.067394
340.993758,-1480.411884,-11029.068536,1915.238745
340.994086,-1924.535449,-10288.862594,1685.410096
340.994413,-2368.659014,-9252.574275,919.314598
340.994741,-1554.432478,-8364.327145,459.657299
340.995068,-1036.288319,-7402.059420,76.609550
340.995396,-296.082377,-6883.915261,153.219100
340.995724,-74.020594,-6217.729913,76.609550
340.996051,-296.082377,-6957.935855,153.219100
340.996379,-222.061783,-7179.997637,306.438199
340.996707,-370.102971,-8142.265362,1072.533697
340.997034,-962.267725,-8808.450710,1225.752797
340.997362,-814.226536,-9696.697840,2145.067394
340.997689,-1924.535449,-10066.800811,1532.190996
340.998017,-2516.700203,-10807.006753,1378.971896
340.998345,-2886.803174,-10658.965565,689.485948
340.998672,-2886.803174,-10436.903782,306.438199
340.999000,-2294.638420,-9770.718434,536.266849
340.999328,-814.226536,-8808.450710,-306.438199
340.999655,296.082377,-8290.306550,-229.828649
340.999983,1406.391290,-7846.182985,0.000000
341.000310,2072.576638,-7994.224174,153.219100
341.000638,2146.597232,-7846.182985,842.705048
341.000966,2294.638420,-8808.450710,1225.752797
341.001293,1850.514855,-9770.718434,1225.752797
341.001621,1628.453072,-10362.883188,1608.800546
341.001949,1554.432478,-11103.089130,1991.848295
341.002276,666.185348,-11177.109724,2068.457845
341.002604,-444.123565,-11251.130318,1225.752797
341.002931,-1554.432478,-11177.109724,1072.533697
341.003259,-1480.411884,-10214.842000,229.828649
341.003587,-1924.535449,-9622.677246,0.000000
341.003914,-1406.391290,-8438.347739,-612.876398
341.004242,0.000000,-7846.182985,-536.266849
341.004570,-148.041188,-7328.038826,-1149.143247
341.004897,370.102971,-7476.080014,-1149.143247
341.005225,444.123565,-7698.141797,-766.095498
341.005553,296.082377,-8068.244768,-383.047749
341.005880,740.205942,-8660.409521,-153.219100
341.006208,-74.020594,-9326.594869,459.657299
341.006535,-666.185348,-10214.842000,689.485948
341.006863,-1258.350101,-10510.924376,1149.143247
341.007191,-2220.617826,-10881.027347,536.266849
341.007518,-2960.823768,-10436.903782,229.828649
341.007846,-2664.741391,-9770.718434,0.000000
341.008174,-1850.514855,-9104.533087,-383.047749
341.008501,-592.164754,-8142.265362,-306.438199
341.008829,888.247130,-7254.018232,-383.047749
341.009156,2294.638420,-6513.812290,383.047749
341.009484,3330.926739,-6735.874072,612.876398
341.009812,2886.803174,-7105.977043,306.438199
341.010139,2664.741391,-8068.244768,1072.533697
341.010467,2220.617826,-8734.430116,1608.800546
341.010795,1480.411884,-9770.718434,2068.457845
341.011122,666.185348,-10510.924376,2145.067394
341.011450,-148.041188,-10955.047942,2451.505594
341.011777,-1110.308913,-10881.027347,1838.629195
341.012105,-1998.556043,-10288.862594,1838.629195
341.012433,-1628.453072,-9474.636058,1149.143247
341.012760,-1628.453072,-8882.471304,1149.143247
341.013088,-1110.308913,-8068.244768,842.705048
341.013416,-444.123565,-7328.038826,229.828649
341.013743,-222.061783,-6957.935855,459.657299
341.014071,0.000000,-7031.956449,0.000000
341.014398,-222.061783,-7254.018232,0.000000
341.014726,-814.226536,-7550.100608,536.266849
341.015054,-814.226536,-8586.388927,1072.533697
341.015381,-1184.329507,-9178.553681,1225.752797
341.015709,-1628.453072,-9992.780217,1608.800546
341.016037,-2442.679609,-10362.883188,1532.190996
341.016364,-3034.844362,-10732.986159,1685.410096
341.016692,-3256.906145,-10362.883188,383.047749
341.017019,-2886.803174,-9918.759623,153.219100
341.017347,-1998.556043,-9030.512492,0.000000
341.017675,-666.185348,-8290.306550,0.000000
341.018002,740.205942,-7698.141797,459.657299
341.018330,1998.556043,-7624.121203,229.828649
341.018658,2072.576638,-7772.162391,383.047749
341.018985,2072.576638,-8364.327145,383.047749
341.019313,1998.556043,-9400.615463,1302.362347
341.019640,2146.597232,-9770.718434,1915.238745
341.019968,1628.453072,-10584.944971,1991.848295
341.020296,962.267725,-11251.130318,2145.067394
341.020623,74.020594,-11621.233289,2068.457845
341.020951,-1480.411884,-11547.212695,1225.752797
341.021279,-1702.473667,-11177.109724,919.314598
341.021606,-1850.514855,-9696.697840,459.657299
341.021934,-1628.453072,-9252.574275,0.000000
341.022261,-888.247130,-8512.368333,-536.266849
341.022589,0.000000,-7698.141797,-612.876398
341.022917,74.020594,-7328.038826,-842.705048
341.023244,888.247130,-7179.997637,-459.657299
341.023572,222.061783,-7624.121203,-383.047749
341.023900,74.020594,-8364.327145,-306.438199
341.024227,-222.061783,-9104.533087,229.828649
341.024555,-592.164754,-9992.780217,536.266849
341.024882,-740.205942,-10436.903782,612.876398
341.025210,-1554.432478,-10881.027347,612.876398
341.025538,-2516.700203,-10807.006753,612.876398
341.025865,-2590.720797,-10362.883188,-153.219100
341.026193,-2294.638420,-9770.718434,-459.657299
341.026521,-962.267725,-8734.430116,-1072.533697
341.026848,296.082377,-7846.182985,-1302.362347
341.027176,1702.473667,-7476.080014,-612.876398
341.027503,2294.638420,-7105.977043,-229.828649
341.027831,2590.720797,-7328.038826,229.828649
341.028159,2368.659014,-7920.203579,536.266849
341.028486,2590.720797,-8882.471304,1608.800546
341.028814,2072.576638,-9548.656652,1838.629195
341.029142,1184.329507,-10362.883188,2298.286494
341.029469,592.164754,-10732.986159,2451.505594
341.029797,-222.061783,-10732.986159,2374.896044
341.030125,-1480.411884,-10288.862594,1838.629195
341.030452,-1702.473667,-9770.718434,1608.800546
341.030780,-1702.473667,-8734.430116,995.924147
341.031107,-1480.411884,-8068.244768,612.876398
341.031435,-666.185348,-7328.038826,383.047749
341.031763,0.000000,-6883.915261,306.438199
341.032090,-148.041188,-7031.956449,76.609550
341.032418,-148.041188,-7105.977043,153.219100
341.032746,-740.205942,-7550.100608,612.876398
341.033073,-888.247130,-8364.327145,842.705048
341.033401,-1036.288319,-8956.491898,1302.362347
341.033728,-1702.473667,-9474.636058,1149.143247
341.034056,-2294.638420,-10362.883188,1302.362347
341.034384,-2886.803174,-10288.862594,1302.362347
341.034711,-3404.947333,-10214.842000,919.314598
341.035039,-3256.906145,-9844.739029,766.095498
341.035367,-2368.659014,-9474.636058,0.000000
341.035694,-1480.411884,-8364.327145,0.000000
341.036022,74.020594,-7624.121203,-229.828649
341.036349,1036.288319,-7254.018232,0.000000
341.036677,1554.432478,-7550.100608,-229.828649
341.037005,1332.370696,-8216.285956,612.876398
341.037332,1924.535449,-8882.471304,612.876398
341.037660,1998.556043,-9178.553681,1455.581446
341.037988,2072.576638,-9918.759623,1608.800546
341.038315,1554.432478,-11029.068536,1991.848295
341.038643,814.226536,-11029.068536,1991.848295
341.038970,-148.041188,-11325.150913,1378.971896
341.039298,-1480.411884,-11103.089130,766.095498
341.039626,-1258.350101,-10510.924376,153.219100
341.039953,-1554.432478,-9622.677246,0.000000
341.040281,-1332.370696,-8586.388927,-229.828649
341.040609,0.000000,-8142.265362,-612.876398
341.040936,518.144159,-7402.059420,-766.095498
341.041264,444.123565,-7550.100608,-766.095498
341.041591,740.205942,-7772.162391,-306.438199
341.041919,74.020594,-8438.347739,-459.657299
341.042247,0.000000,-9030.512492,0.000000
341.042574,-518.144159,-9474.636058,536.266849
341.042902,-888.247130,-10066.800811,459.657299
341.043230,-1258.350101,-10584.944971,689.485948
341.043557,-2294.638420,-10584.944971,459.657299
341.043885,-2146.597232,-10584.944971,76.609550
341.044212,-2368.659014,-9844.739029,-306.438199
341.044540,-2146.597232,-8882.471304,-689.485948
341.044868,-666.185348,-8068.244768,-995.924147
341.045195,666.185348,-7402.059420,-459.657299
341.045523,1776.494261,-6661.853478,0.000000
341.045851,2516.700203,-7254.018232,153.219100
341.046178,2516.700203,-7550.100608,689.485948
341.046506,2368.659014,-8586.388927,1072.533697
341.046833,2072.576638,-9474.636058,1532.190996
341.047161,1406.391290,-9992.780217,2221.676944
341.047489,740.205942,-10732.986159,2221.676944
341.047816,0.000000,-10881.027347,2451.505594
341.048144,-740.205942,-10955.047942,2374.896044
341.048472,-1332.370696,-10436.903782,1302.362347
341.048799,-2072.576638,-9696.697840,1225.752797
341.049127,-1332.370696,-8364.327145,766.095498
341.049454,-1036.288319,-7624.121203,383.047749
341.049782,-444.123565,-7179.997637,0.000000
341.050110,222.061783,-6957.935855,0.000000
341.050437,0.000000,-7105.977043,76.609550
341.050765,0.000000,-7328.038826,842.705048
341.051093,-370.102971,-8068.244768,612.876398
341.051420,-814.226536,-8734.430116,1072.533697
341.051748,-1258.350101,-9770.718434,1302.362347
341.052075,-1850.514855,-10436.903782,1685.410096
341.052403,-2738.761985,-10140.821405,1685.410096
341.052731,-3034.844362,-10732.986159,1455.581446
341.053058,-3108.864956,-10362.883188,459.657299
341.053386,-2664.741391,-9548.656652,0.000000
341.053714,-2072.576638,-8882.471304,-153.219100
341.054041,-444.123565,-8290.306550,-383.047749
341.054369,370.102971,-7624.121203,0.000000
341.054697,1258.350101,-7402.059420,76.609550
341.055024,1702.473667,-7698.141797,306.438199
341.055352,1628.453072,-8290.306550,612.876398
341.055679,1628.453072,-9030.512492,919.314598
341.056007,1998.556043,-10214.842000,1455.581446
341.056335,1184.329507,-10510.924376,1838.629195
341.056662,592.164754,-11251.130318,2298.286494
341.056990,-444.123565,-11399.171507,1838.629195
341.057318,-888.247130,-11399.171507,1991.848295
341.057645,-1480.411884,-10584.944971,1072.533697
341.057973,-2072.576638,-10066.800811,306.438199
341.058300,-1110.308913,-8882.471304,-229.828649
341.058628,-666.185348,-8512.368333,-153.219100
341.058956,0.000000,-7846.182985,-689.485948
341.059283,666.185348,-7179.997637,-919.314598
341.059611,518.144159,-7550.100608,0.000000
341.059939,518.144159,-8216.285956,-229.828649
341.060266,-148.041188,-8438.347739,0.000000
341.060594,0.000000,-9400.615463,459.657299
341.060921,-814.226536,-9622.677246,689.485948
341.061249,-1110.308913,-10140.821405,1302.362347
341.061577,-1776.494261,-10955.047942,842.705048
341.061904,-2590.720797,-10807.006753,536.266849
341.062232,-2738.761985,-10140.821405,-153.219100
341.062560,-2738.761985,-9326.594869,-536.266849
341.062887,-1554.432478,-8734.430116,-1455.581446
341.063215,-296.082377,-7772.162391,-1225.752797
341.063542,740.205942,-7105.977043,-153.219100
341.063870,1924.535449,-6883.915261,-153.219100
341.064198,2368.659014,-7328.038826,306.438199
341.064525,2442.679609,-8142.265362,0.000000
341.064853,1850.514855,-8882.471304,1072.533697
341.065181,1628.453072,-9770.718434,1915.238745
341.065508,1184.329507,-10140.821405,2068.457845
341.065836,592.164754,-10955.047942,2374.896044
341.066163,148.041188,-10955.047942,1915.238745
341.066491,-518.144159,-10658.965565,2451.505594
341.066819,-1554.432478,-10140.821405,842.705048
341.067146,-1628.453072,-9474.636058,1302.362347
341.067474,-814.226536,-8068.244768,153.219100
341.067802,148.041188,-8142.265362,0.000000
341.068129,0.000000,-6735.874072,-306.438199
341.068457,444.123565,-6957.935855,0.000000
341.068784,222.061783,-7550.100608,229.828649
341.069112,296.082377,-7772.162391,0.000000
341.069440,0.000000,-8290.306550,995.924147
341.069767,-592.164754,-9178.553681,1149.143247
341.070095,-1110.308913,-9696.697840,1302.362347
341.070423,-1554.432478,-9992.780217,1455.581446
341.070750,-2812.782580,-10066.800811,1302.362347
341.071078,-3330.926739,-10362.883188,536.266849
341.071405,-2516.700203,-9770.718434,842.705048
341.071733,-2368.659014,-8882.471304,-229.828649
341.072061,-1332.370696,-8438.347739,-306.438199
341.072388,-370.102971,-7994.224174,-536.266849
341.072716,888.247130,-7179.997637,0.000000
341.073044,1998.556043,-7105.977043,0.000000
341.073371,1776.494261,-7476.080014,383.047749
341.073699,1924.535449,-8882.471304,766.095498
341.074026,1850.514855,-9326.594869,1225.752797
341.074354,1702.473667,-9992.780217,1762.019645
341.074682,1258.350101,-10658.965565,2145.067394
341.075009,74.020594,-11251.130318,2298.286494
341.075337,-740.205942,-11769.274478,1762.019645
341.075665,-814.226536,-11473.192101,1838.629195
341.075992,-1850.514855,-10140.821405,306.438199
341.076320,-1850.514855,-9622.677246,536.266849
341.076648,-740.205942,-8586.388927,383.047749
341.076975,0.000000,-8290.306550,-306.438199
341.077303,0.000000,-7105.977043,-612.876398
341.077630,296.082377,-7402.059420,-306.438199
341.077958,592.164754,-7846.182985,153.219100
341.078286,888.247130,-7920.203579,0.000000
341.078613,148.041188,-8142.265362,153.219100
341.078941,0.000000,-9622.677246,919.314598
341.079269,-370.102971,-9770.718434,1302.362347
341.079596,-1480.411884,-10881.027347,1072.533697
341.079924,-1998.556043,-10955.047942,1072.533697
341.080251,-2664.741391,-10362.883188,0.000000
341.080579,-2886.803174,-10362.883188,-229.828649
341.080907,-2072.576638,-9622.677246,-842.705048
341.081234,-1258.350101,-8438.347739,-689.485948
341.081562,0.000000,-7846.182985,-689.485948
341.081889,1702.473667,-7031.956449,306.438199
341.082217,1998.556043,-7105.977043,0.000000
341.082544,2220.617826,-7402.059420,229.828649
341.082872,2220.617826,-8512.368333,995.924147
341.083199,1480.411884,-8586.388927,1225.752797
341.083526,1702.473667,-10362.883188,1225.752797
341.083854,666.185348,-10288.862594,1991.848295
341.084181,0.000000,-11029.068536,2068.457845
341.084509,-1258.350101,-10881.027347,1225.752797
341.084836,-1702.473667,-10732.986159,1762.019645
341.085164,-1406.391290,-9548.656652,919.314598
341.085491,-1628.453072,-9326.594869,612.876398
341.085818,-666.185348,-7994.224174,0.000000
341.086146,0.000000,-7550.100608,-153.219100
341.086473,74.020594,-7105.977043,0.000000
341.086801,296.082377,-6957.935855,0.000000
341.087128,222.061783,-7105.977043,-383.047749
341.087455,74.020594,-7846.182985,76.609550
341.087783,0.000000,-8808.450710,1072.533697
341.088110,-592.164754,-9474.636058,1149.143247
341.088438,-1258.350101,-10066.800811,1302.362347
341.088765,-2072.576638,-9992.780217,1685.410096
341.089093,-2516.700203,-10288.862594,1072.533697
341.089420,-2590.720797,-10214.842000,842.705048
341.089747,-2590.720797,-9770.718434,229.828649
341.090075,-1850.514855,-8808.450710,0.000000
341.090402,-444.123565,-8068.244768,153.219100
341.090730,370.102971,-7179.997637,0.000000
341.091057,1184.329507,-7179.997637,0.000000
341.091385,1702.473667,-7254.018232,-153.219100
341.091712,1628.453072,-7772.162391,306.438199
341.092039,2220.617826,-8956.491898,1455.581446
341.092367,1480.411884,-9252.574275,1532.190996
341.092694,1036.288319,-10214.842000,1838.629195
341.093022,296.082377,-11177.109724,1915.238745
341.093349,-444.123565,-11547.212695,1991.848295
341.093676,-1258.350101,-11177.109724,1608.800546
341.094004,-2442.679609,-10658.965565,612.876398
341.094331,-1776.494261,-9992.780217,306.438199
341.094659,-1554.432478,-9178.553681,153.219100
341.094986,-1110.308913,-8068.244768,0.000000
341.095314,-222.061783,-7550.100608,-459.657299
341.095641,296.082377,-6809.894666,-229.828649
341.095968,74.020594,-7402.059420,-383.047749
341.096296,666.185348,-7772.162391,0.000000
341.096623,222.061783,-8364.327145,153.219100
341.096951,0.000000,-9104.533087,459.657299
341.097278,74.020594,-10214.842000,1149.143247
341.097605,-666.185348,-10288.862594,689.485948
341.097933,-1554.432478,-11177.109724,1302.362347
341.098260,-2368.659014,-11029.068536,842.705048
341.098588,-2738.761985,-10881.027347,76.609550
341.098915,-2294.638420,-9770.718434,0.000000
341.099243,-1406.391290,-9178.553681,-383.047749
341.099570,-148.041188,-8068.244768,-919.314598
341.099897,1036.288319,-7624.121203,-689.485948
341.100225,1776.494261,-7254.018232,-536.266849
341.100552,2368.659014,-7476.080014,-229.828649
341.100880,2368.659014,-8068.244768,612.876398
341.101207,2072.576638,-8808.450710,536.266849
341.101535,1776.494261,-9474.636058,1072.533697
341.101862,1406.391290,-10584.944971,1608.800546
341.102189,444.123565,-10732.986159,2068.457845
341.102517,0.000000,-11621.233289,1685.410096
341.102844,-1184.329507,-10732.986159,1991.848295
341.103172,-1554.432478,-10214.842000,689.485948
341.103499,-1924.535449,-9770.718434,689.485948
341.103826,-1036.288319,-8734.430116,-153.219100
341.104154,-370.102971,-7846.182985,76.609550
341.104481,518.144159,-7031.956449,-536.266849
341.104809,592.164754,-6957.935855,0.000000
341.105136,518.144159,-7254.018232,0.000000
341.105464,296.082377,-7476.080014,229.828649
341.105791,148.041188,-7920.203579,842.705048
341.106118,0.000000,-8808.450710,1608.800546
341.106446,-888.247130,-9770.718434,1149.143247
341.106773,-1406.391290,-10584.944971,1532.190996
341.107101,-2368.659014,-10807.006753,1302.362347
341.107428,-2738.761985,-10584.944971,1072.533697
341.107756,-2886.803174,-9622.677246,919.314598
341.108083,-2368.659014,-9474.636058,536.266849
341.108410,-1258.350101,-8512.368333,0.000000
341.108738,-296.082377,-7624.121203,0.000000
341.109065,740.205942,-7254.018232,76.609550
341.109393,1554.432478,-7328.038826,0.000000
341.109720,1554.432478,-7402.059420,383.047749
341.110047,1702.473667,-8290.306550,919.314598
341.110375,1554.432478,-9030.512492,1378.971896
341.110702,1258.350101,-9622.677246,2221.676944
341.111030,666.185348,-10658.965565,2145.067394
341.111357,-296.082377,-10807.006753,2451.505594
341.111685,-1480.411884,-11103.089130,1685.410096
341.112012,-1998.556043,-11029.068536,1532.190996
341.112339,-2072.576638,-10214.842000,766.095498
341.112667,-2294.638420,-9548.656652,919.314598
341.112994,-740.205942,-8216.285956,229.828649
341.113322,-518.144159,-7550.100608,229.828649
341.113649,0.000000,-7328.038826,0.000000
341.113977,296.082377,-7254.018232,0.000000
341.114304,74.020594,-7476.080014,0.000000
341.114631,-222.061783,-7624.121203,306.438199
341.114959,0.000000,-8956.491898,536.266849
341.115286,-222.061783,-9622.677246,1072.533697
341.115614,-666.185348,-10288.862594,919.314598
341.115941,-1406.391290,-10658.965565,1225.752797
341.116268,-2072.576638,-10584.944971,995.924147
341.116596,-2146.597232,-10807.006753,459.657299
341.116923,-2442.679609,-10214.842000,0.000000
341.117251,-1998.556043,-9400.615463,-536.266849
341.117578,-888.247130,-8438.347739,-689.485948
341.117906,518.144159,-7772.162391,0.000000
341.118233,1702.473667,-7105.977043,-536.266849
341.118560,2294.638420,-7476.080014,-153.219100
341.118888,2220.617826,-7698.141797,76.609550
341.119215,2146.597232,-8660.409521,459.657299
341.119543,2146.597232,-9474.636058,995.924147
341.119870,1702.473667,-9992.780217,1225.752797
341.120197,1258.350101,-10732.986159,1762.019645
341.120525,370.102971,-11103.089130,1915.238745
341.120852,-370.102971,-11325.150913,1762.019645
341.121180,-1480.411884,-10955.047942,612.876398
341.121507,-1258.350101,-9696.697840,306.438199
341.121835,-1184.329507,-9104.533087,0.000000
341.122162,-962.267725,-8142.265362,-306.438199
341.122489,-148.041188,-7698.141797,-229.828649
341.122817,444.123565,-7105.977043,-383.047749
341.123144,592.164754,-7254.018232,0.000000
341.123472,1110.308913,-7624.121203,0.000000
341.123799,296.082377,-8068.244768,536.266849
341.124127,-148.041188,-8734.430116,766.095498
341.124454,-740.205942,-9474.636058,1149.143247
341.124781,-1110.308913,-9844.739029,2068.457845
341.125109,-1480.411884,-10214.842000,1455.581446
341.125436,-2442.679609,-10658.965565,919.314598
341.125764,-2886.803174,-10584.944971,919.314598
341.126091,-2590.720797,-9548.656652,536.266849
341.126418,-2146.597232,-8808.450710,383.047749
341.126746,-592.164754,-7772.162391,-153.219100
341.127073,74.020594,-7476.080014,-306.438199
341.127401,666.185348,-7105.977043,0.000000
341.127728,1184.329507,-7402.059420,306.438199
341.128056,1480.411884,-7920.203579,689.485948
341.128383,1406.391290,-7994.224174,1302.362347
341.128710,1332.370696,-9326.594869,1915.238745
341.129038,888.247130,-9992.780217,1915.238745
341.129365,148.041188,-10658.965565,2145.067394
341.129693,-592.164754,-10881.027347,2068.457845
341.130020,-1184.329507,-10732.986159,1378.971896
341.130348,-1924.535449,-10584.944971,1378.971896
341.130675,-1332.370696,-9770.718434,766.095498
341.131002,-1332.370696,-8882.471304,306.438199
341.131330,-518.144159,-7624.121203,306.438199
341.131657,444.123565,-7402.059420,306.438199
341.131985,444.123565,-7179.997637,153.219100
341.132312,222.061783,-7402.059420,0.000000
341.132639,370.102971,-7550.100608,0.000000
341.132967,222.061783,-8364.327145,153.219100
341.133294,0.000000,-9104.533087,766.095498
341.133622,-296.082377,-9400.615463,842.705048
341.133949,-740.205942,-10362.883188,1378.971896
341.134277,-1554.432478,-11103.089130,1072.533697
341.134604,-2442.679609,-10955.047942,766.095498
341.134931,-2886.803174,-10732.986159,153.219100
341.135259,-2146.597232,-9548.656652,153.219100
341.135586,-1702.473667,-8956.491898,-612.876398
341.135914,-370.102971,-8142.265362,-459.657299
341.136241,962.267725,-7772.162391,-306.438199
341.136568,1998.556043,-7476.080014,-306.438199
341.136896,2442.679609,-7402.059420,153.219100
341.137223,2294.638420,-7846.182985,383.047749
341.137551,1998.556043,-9104.533087,766.095498
341.137878,1628.453072,-9992.780217,1455.581446
341.138206,1110.308913,-10658.965565,1685.410096
341.138533,222.061783,-11029.068536,1991.848295
341.138860,-444.123565,-11399.171507,1685.410096
341.139188,-1184.329507,-11177.109724,1608.800546
341.139515,-1628.453072,-10436.903782,383.047749
341.139843,-1924.535449,-10214.842000,306.438199
341.140170,-1184.329507,-8956.491898,-383.047749
341.140498,0.000000,-8364.327145,-842.705048
341.140825,0.000000,-7698.141797,-689.485948
341.141152,444.123565,-7328.038826,-689.485948
341.141480,296.082377,-7698.141797,-306.438199
341.141807,222.061783,-7920.203579,0.000000
341.142135,592.164754,-8438.347739,0.000000
341.142462,0.000000,-9326.594869,919.314598
341.142789,-666.185348,-10066.800811,919.314598
341.143117,-1406.391290,-10436.903782,1378.971896
341.143444,-1924.535449,-10807.006753,842.705048
341.143772,-2294.638420,-10584.944971,306.438199
341.144099,-2590.720797,-10214.842000,536.266849
341.144427,-2294.638420,-9474.636058,0.000000
341.144754,-1258.350101,-8882.471304,-536.266849
341.145081,0.000000,-7846.182985,-536.266849
341.145409,740.205942,-7105.977043,229.828649
341.145736,1480.411884,-6809.894666,459.657299
341.146064,2294.638420,-7402.059420,229.828649
341.146391,2146.597232,-8290.306550,842.705048
341.146719,1998.556043,-8882.471304,1378.971896
341.147046,1480.411884,-9844.739029,1838.629195
341.147373,444.123565,-10140.821405,2221.676944
341.147701,0.000000,-10732.986159,2374.896044
341.148028,-962.267725,-11029.068536,2145.067394
341.148356,-2072.576638,-10732.986159,1838.629195
341.148683,-1702.473667,-10066.800811,1302.362347
341.149010,-1628.453072,-8882.471304,1225.752797
341.149338,-1036.288319,-7994.224174,689.485948
341.149665,-370.102971,-7476.080014,306.438199
341.149993,296.082377,-6883.915261,153.219100
341.150320,74.020594,-7031.956449,0.000000
341.150648,444.123565,-7105.977043,153.219100
341.150975,-296.082377,-7550.100608,612.876398
341.151302,0.000000,-8586.388927,842.705048
341.151630,-444.123565,-9104.533087,1455.581446
341.151957,-962.267725,-9918.759623,1455.581446
341.152285,-1776.494261,-10510.924376,1378.971896
341.152612,-2368.659014,-10584.944971,1072.533697
341.152940,-2960.823768,-10584.944971,689.485948
341.153267,-3034.844362,-10066.800811,0.000000
341.153594,-2516.700203,-9400.615463,-306.438199
341.153922,-962.267725,-8364.327145,-536.266849
341.154249,0.000000,-6957.935855,0.000000
341.154577,1480.411884,-7105.977043,0.000000
341.154904,2368.659014,-7328.038826,0.000000
341.155231,2294.638420,-7772.162391,229.828649
341.155559,2294.638420,-8734.430116,306.438199
341.155886,2146.597232,-9474.636058,919.314598
341.156214,1702.473667,-10288.862594,1762.019645
341.156541,1480.411884,-11177.109724,1838.629195
341.156869,518.144159,-11325.150913,1915.238745
341.157196,0.000000,-11325.150913,1685.410096
341.157523,-962.267725,-11029.068536,1072.533697
341.157851,-1184.329507,-10807.006753,995.924147
341.158178,-1406.391290,-9400.615463,0.000000
341.158506,-814.226536,-8364.327145,-459.657299
341.158833,74.020594,-7920.203579,-459.657299
341.159160,814.226536,-7476.080014,-612.876398
341.159488,814.226536,-7476.080014,-766.095498
341.159815,666.185348,-7772.162391,-229.828649
341.160143,0.000000,-8586.388927,76.609550
341.160470,-222.061783,-9178.553681,306.438199
341.160798,-592.164754,-9696.697840,995.924147
341.161125,-1406.391290,-9770.718434,1302.362347
341.161452,-1702.473667,-10807.006753,1455.581446
341.161780,-2442.679609,-10658.965565,766.095498
341.162107,-2738.761985,-10362.883188,306.438199
341.162435,-2664.741391,-9548.656652,0.000000
341.162762,-2294.638420,-8734.430116,0.000000
341.163090,-1258.350101,-8290.306550,-536.266849
341.163417,0.000000,-7179.997637,-383.047749
341.163744,1036.288319,-6957.935855,-306.438199
341.164072,1628.453072,-7105.977043,76.609550
341.164399,1628.453072,-7624.121203,383.047749
341.164727,1850.514855,-8586.388927,1302.362347
341.165054,1850.514855,-9400.615463,1762.019645
341.165381,1332.370696,-10140.821405,2145.067394
341.165709,370.102971,-10807.006753,2068.457845
341.166036,-518.144159,-11177.109724,2068.457845
341.166364,-1258.350101,-10807.006753,1455.581446
341.166691,-2072.576638,-10510.924376,1302.362347
341.167019,-1110.308913,-9326.594869,536.266849
341.167346,-1184.329507,-9030.512492,612.876398
341.167673,-444.123565,-7698.141797,76.609550
341.168001,148.041188,-6957.935855,-153.219100
341.168328,0.000000,-6809.894666,-153.219100
341.168656,222.061783,-7105.977043,0.000000
341.168983,370.102971,-7550.100608,153.219100
341.169311,-222.061783,-8216.285956,383.047749
341.169638,-222.061783,-8660.409521,766.095498
341.169965,-666.185348,-9104.533087,1225.752797
341.170293,-1110.308913,-9918.759623,1072.533697
341.170620,-1776.494261,-10436.903782,1149.143247
341.170948,-2738.761985,-10436.903782,612.876398
341.171275,-3034.844362,-10066.800811,459.657299
341.171602,-2516.700203,-9104.533087,-383.047749
341.171930,-1776.494261,-8734.430116,-536.266849
341.172257,-444.123565,-8068.244768,-383.047749
341.172585,814.226536,-7476.080014,0.000000
341.172912,1480.411884,-7179.997637,0.000000
341.173240,2220.617826,-7179.997637,0.000000
341.173567,1850.514855,-8216.285956,459.657299
341.173894,1702.473667,-9178.553681,919.314598
341.174222,1554.432478,-10066.800811,1225.752797
341.174549,1332.370696,-10732.986159,1838.629195
341.174877,444.123565,-11177.109724,1991.848295
341.175204,0.000000,-11325.150913,1915.238745
341.175532,-962.267725,-11473.192101,1762.019645
341.175859,-1554.432478,-10955.047942,689.485948
341.176186,-2220.617826,-9844.739029,383.047749
341.176514,-1184.329507,-8882.471304,0.000000
341.176841,-518.144159,-8216.285956,-383.047749
341.177169,0.000000,-7624.121203,-459.657299
341.177496,666.185348,-7402.059420,-229.828649
341.177823,148.041188,-7624.121203,0.000000
341.178151,0.000000,-7994.224174,0.000000
341.178478,148.041188,-8438.347739,766.095498
341.178806,0.000000,-9474.636058,383.047749
341.179133,-888.247130,-9918.759623,919.314598
341.179461,-1184.329507,-10658.965565,995.924147
341.179788,-1850.514855,-11029.068536,995.924147
341.180115,-2368.659014,-10732.986159,1149.143247
341.180443,-2442.679609,-10214.842000,76.609550
341.180770,-2220.617826,-9474.636058,0.000000
341.181098,-1406.391290,-8808.450710,-612.876398
341.181425,0.000000,-8216.285956,-612.876398
341.181752,1184.329507,-7624.121203,-995.924147
341.182080,1850.514855,-7031.956449,-306.438199
341.182407,1998.556043,-7550.100608,229.828649
341.182735,2220.617826,-8068.244768,612.876398
341.183062,2072.576638,-8882.471304,1455.581446
341.183390,1776.494261,-9326.594869,1532.190996
341.183717,888.247130,-10214.842000,1915.238745
341.184045,0.000000,-10955.047942,1991.848295
341.184373,-1110.308913,-11103.089130,1378.971896
341.184700,-1480.411884,-10584.944971,1685.410096
341.185028,-1258.350101,-9770.718434,1149.143247
341.185355,-888.247130,-9474.636058,995.924147
341.185683,-592.164754,-8290.306550,612.876398
341.186010,-296.082377,-7624.121203,229.828649
341.186338,222.061783,-7105.977043,76.609550
341.186666,444.123565,-7105.977043,0.000000
341.186993,222.061783,-7179.997637,459.657299
341.187321,0.000000,-7624.121203,459.657299
341.187648,0.000000,-8142.265362,842.705048
341.187976,-148.041188,-8956.491898,1225.752797
341.188304,-1184.329507,-9770.718434,1532.190996
341.188631,-1480.411884,-10362.883188,1685.410096
341.188959,-2664.741391,-10362.883188,689.485948
341.189286,-3256.906145,-10288.862594,536.266849
341.189614,-3256.906145,-9548.656652,0.000000
341.189941,-2664.741391,-8882.471304,-383.047749
341.190269,-962.267725,-8142.265362,-612.876398
341.190597,444.123565,-7476.080014,0.000000
341.190924,1036.288319,-7254.018232,76.609550
341.191252,1628.453072,-7254.018232,153.219100
341.191579,1554.432478,-7772.162391,612.876398
341.191907,1554.432478,-8512.368333,536.266849
341.192235,2072.576638,-9326.594869,1532.190996
341.192562,1554.432478,-10066.800811,1685.410096
341.192890,1110.308913,-10584.944971,1991.848295
341.193217,148.041188,-11103.089130,1991.848295
341.193545,-1036.288319,-11325.150913,1378.971896
341.193872,-1258.350101,-11177.109724,995.924147
341.194200,-1480.411884,-9992.780217,153.219100
341.194528,-1850.514855,-9548.656652,153.219100
341.194855,-814.226536,-8808.450710,-306.438199
341.195183,-148.041188,-7994.224174,-229.828649
341.195510,444.123565,-7402.059420,-306.438199
341.195838,814.226536,-7328.038826,-229.828649
341.196166,296.082377,-8068.244768,-229.828649
341.196493,222.061783,-8438.347739,-229.828649
341.196821,0.000000,-9104.533087,306.438199
341.197148,-222.061783,-9474.636058,459.657299
341.197476,-592.164754,-10140.821405,766.095498
341.197803,-1554.432478,-10807.006753,842.705048
341.198131,-2146.597232,-10807.006753,536.266849
341.198459,-2368.659014,-10732.986159,383.047749
341.198786,-2442.679609,-9992.780217,-229.828649
341.199114,-1850.514855,-9400.615463,-842.705048
341.199441,-740.205942,-8364.327145,-689.485948
341.199769,296.082377,-7994.224174,-995.924147
341.200097,1258.350101,-7476.080014,-459.657299
341.200424,2146.597232,-7328.038826,-383.047749
341.200752,2368.659014,-7105.977043,383.047749
341.201079,2442.679609,-8512.368333,766.095498
341.201407,2368.659014,-9326.594869,1225.752797
341.201735,1628.453072,-9992.780217,1685.410096
341.202062,888.247130,-10732.986159,2145.067394
341.202390,0.000000,-10881.027347,2604.724693
341.202717,-370.102971,-10658.965565,1302.362347
341.203045,-1850.514855,-10510.924376,1302.362347
341.203372,-1036.288319,-9622.677246,995.924147
341.203700,-1036.288319,-8882.471304,536.266849
341.204028,-444.123565,-7994.224174,536.266849
341.204355,296.082377,-7254.018232,153.219100
341.204683,148.041188,-6957.935855,0.000000
341.205010,222.061783,-7105.977043,0.000000
341.205338,74.020594,-7476.080014,459.657299
341.205666,-148.041188,-7994.224174,383.047749
341.205993,-296.082377,-8438.347739,995.924147
341.206321,-666.185348,-9474.636058,1685.410096
341.206648,-1628.453072,-10140.821405,1455.581446
341.206976,-2442.679609,-10436.903782,1455.581446
341.207303,-3182.885551,-10510.924376,995.924147
341.207631,-3330.926739,-10140.821405,536.266849
341.207959,-3182.885551,-9844.739029,229.828649
341.208286,-2368.659014,-8808.450710,0.000000
341.208614,-666.185348,-7994.224174,0.000000
341.208941,518.144159,-7402.059420,153.219100
341.209269,1702.473667,-7031.956449,229.828649
341.209597,2220.617826,-7402.059420,76.609550
341.209924,1850.514855,-8068.244768,766.095498
341.210252,1998.556043,-8882.471304,1302.362347
341.210579,1554.432478,-9622.677246,1532.190996
341.210907,1406.391290,-10288.862594,2298.286494
341.211234,814.226536,-11103.089130,2528.115143
341.211562,74.020594,-11325.150913,2374.896044
341.211890,-888.247130,-11177.109724,1532.190996
341.212217,-2146.597232,-10881.027347,919.314598
341.212545,-1258.350101,-10214.842000,306.438199
341.212872,-1184.329507,-9178.553681,153.219100
341.213200,-740.205942,-8142.265362,-383.047749
341.213528,74.020594,-7994.224174,-612.876398
341.213855,222.061783,-7328.038826,-383.047749
341.214183,74.020594,-7624.121203,-306.438199
341.214510,74.020594,-8364.327145,0.000000
341.214838,0.000000,-8438.347739,76.609550
341.215165,-518.144159,-9030.512492,76.609550
341.215493,-666.185348,-9770.718434,919.314598
341.215821,-1258.350101,-10362.883188,766.095498
341.216148,-1628.453072,-10436.903782,689.485948
341.216476,-1702.473667,-10362.883188,689.485948
341.216803,-2516.700203,-10436.903782,0.000000
341.217131,-2220.617826,-9474.636058,-383.047749
341.217459,-1480.411884,-9030.512492,-842.705048
341.217786,-74.020594,-8142.265362,-766.095498
341.218114,888.247130,-7772.162391,-229.828649
341.218441,1924.535449,-7179.997637,-306.438199
341.218769,2664.741391,-7550.100608,76.609550
341.219097,2442.679609,-7994.224174,536.266849
341.219424,2664.741391,-8882.471304,1149.143247
341.219752,2368.659014,-9696.697840,1532.190996
341.220079,1258.350101,-10658.965565,2145.067394
341.220407,444.123565,-11103.089130,2068.457845
341.220734,-888.247130,-11103.089130,1072.533697
341.221062,-1332.370696,-11029.068536,1608.800546
341.221390,-888.247130,-9474.636058,919.314598
341.221717,-1184.329507,-9474.636058,689.485948
341.222045,-814.226536,-8364.327145,306.438199
341.222372,-222.061783,-7772.162391,0.000000
341.222700,0.000000,-7105.977043,0.000000
341.223028,444.123565,-7031.956449,-306.438199
341.223355,0.000000,-6809.894666,0.000000
341.223683,0.000000,-7254.018232,459.657299
341.224010,-222.061783,-7846.182985,919.314598
341.224338,-444.123565,-8882.471304,1455.581446
341.224665,-1258.350101,-9474.636058,1608.800546
341.224993,-1850.514855,-10288.862594,1455.581446
341.225321,-2812.782580,-10510.924376,1302.362347
341.225648,-3478.967927,-10584.944971,459.657299
341.225976,-3182.885551,-10066.800811,76.609550
341.226303,-2368.659014,-9400.615463,76.609550
341.226631,-1110.308913,-8438.347739,383.047749
341.226959,222.061783,-7254.018232,612.876398
341.227286,1332.370696,-7328.038826,459.657299
341.227614,1776.494261,-7105.977043,536.266849
341.227941,1776.494261,-7698.141797,766.095498
341.228269,1554.432478,-8512.368333,1225.752797
341.228596,1480.411884,-9326.594869,1685.410096
341.228924,1258.350101,-10066.800811,1915.238745
341.229252,740.205942,-10807.006753,2298.286494
341.229579,0.000000,-11177.109724,2374.896044
341.229907,-1554.432478,-11103.089130,1532.190996
341.230234,-1628.453072,-10881.027347,1685.410096
341.230562,-1554.432478,-10066.800811,459.657299
341.230890,-1850.514855,-9770.718434,76.609550
341.231217,-1258.350101,-8512.368333,-459.657299
341.231545,-592.164754,-7994.224174,-919.314598
341.231872,148.041188,-7328.038826,-229.828649
341.232200,148.041188,-7328.038826,-766.095498
341.232528,148.041188,-7698.141797,-383.047749
341.232855,0.000000,-8438.347739,-306.438199
341.233183,-370.102971,-8882.471304,76.609550
341.233510,-666.185348,-9030.512492,306.438199
341.233838,-592.164754,-10066.800811,919.314598
341.234165,-1332.370696,-10807.006753,766.095498
341.234493,-2072.576638,-10807.006753,306.438199
341.234821,-2442.679609,-10658.965565,0.000000
341.235148,-2368.659014,-10066.800811,-383.047749
341.235476,-1702.473667,-8956.491898,-995.924147
341.235803,-518.144159,-8438.347739,-842.705048
341.236131,518.144159,-7772.162391,-919.314598
341.236459,1554.432478,-7328.038826,-842.705048
341.236786,2516.700203,-7254.018232,-689.485948
341.237114,2664.741391,-7772.162391,383.047749
341.237441,2960.823768,-8364.327145,459.657299
341.237769,2442.679609,-9400.615463,1072.533697
341.238096,2146.597232,-10362.883188,1532.190996
341.238424,1110.308913,-10955.047942,1762.019645
341.238752,0.000000,-10955.047942,2145.067394
341.239079,-370.102971,-11103.089130,1915.238745
341.239407,-1110.308913,-10584.944971,1072.533697
341.239734,-1702.473667,-9992.780217,1072.533697
341.240062,-814.226536,-8882.471304,76.609550
341.240390,-148.041188,-7920.203579,0.000000
341.240717,0.000000,-7328.038826,-306.438199
341.241045,296.082377,-7254.018232,-306.438199
341.241372,0.000000,-7031.956449,-153.219100
341.241700,74.020594,-7328.038826,153.219100
341.242027,222.061783,-7698.141797,383.047749
341.242355,-592.164754,-7994.224174,1302.362347
341.242683,-1110.308913,-9474.636058,1378.971896
341.243010,-1480.411884,-9844.739029,1302.362347
341.243338,-2368.659014,-10584.944971,1455.581446
341.243665,-3108.864956,-10732.986159,1685.410096
341.243993,-3256.906145,-10436.903782,689.485948
341.244321,-2960.823768,-9474.636058,229.828649
341.244648,-1850.514855,-8734.430116,76.609550
341.244976,-370.102971,-7846.182985,383.047749
341.245303,666.185348,-7105.977043,612.876398
341.245631,2146.597232,-7328.038826,229.828649
341.245958,2220.617826,-7254.018232,842.705048
341.246286,1628.453072,-7994.224174,1149.143247
341.246614,1480.411884,-8808.450710,1378.971896
341.246941,1480.411884,-9696.697840,1762.019645
341.247269,1110.308913,-10066.800811,2374.896044
341.247596,666.185348,-10807.006753,2681.334243
341.247924,-370.102971,-11103.089130,2451.505594
341.248252,-1036.288319,-11177.109724,2528.115143
341.248579,-1776.494261,-10807.006753,1072.533697
341.248907,-2516.700203,-10288.862594,1225.752797
341.249234,-1554.432478,-8660.409521,229.828649
341.249562,-1184.329507,-8364.327145,153.219100
341.249890,-740.205942,-7772.162391,-459.657299
341.250217,222.061783,-7328.038826,-306.438199
341.250545,0.000000,-7550.100608,-229.828649
341.250872,-370.102971,-7846.182985,-153.219100
341.251200,0.000000,-8512.368333,229.828649
341.251527,-592.164754,-9104.533087,383.047749
341.251855,-962.267725,-9622.677246,689.485948
341.252183,-1110.308913,-10436.903782,995.924147
341.252510,-1776.494261,-10214.842000,995.924147
341.252838,-2220.617826,-10732.986159,766.095498
341.253165,-2590.720797,-10362.883188,0.000000
341.253493,-2368.659014,-9992.780217,-383.047749
341.253821,-1480.411884,-9178.553681,-995.924147
341.254148,-296.082377,-8438.347739,-1072.533697
341.254476,518.144159,-7550.100608,-766.095498
341.254803,1850.514855,-7402.059420,-459.657299
341.255131,2516.700203,-7624.121203,-459.657299
341.255458,2738.761985,-8068.244768,229.828649
341.255786,2738.761985,-9030.512492,1225.752797
341.256114,2220.617826,-9178.553681,1225.752797
341.256441,1702.473667,-10140.821405,1225.752797
341.256769,888.247130,-10955.047942,1302.362347
341.257096,-222.061783,-10955.047942,842.705048
341.257424,-962.267725,-11029.068536,1149.143247
341.257752,-888.247130,-9918.759623,229.828649
341.258079,-1406.391290,-9548.656652,383.047749
341.258407,-962.267725,-8586.388927,-153.219100
341.258734,-444.123565,-8068.244768,-229.828649
341.259062,0.000000,-7328.038826,-612.876398
341.259389,370.102971,-6809.894666,-306.438199
341.259717,518.144159,-7254.018232,0.000000
341.260045,74.020594,-7624.121203,0.000000
341.260372,222.061783,-7920.203579,229.828649
341.260700,0.000000,-8734.430116,689.485948
341.261027,-888.247130,-9252.574275,1762.019645
341.261355,-1184.329507,-10362.883188,1378.971896
341.261683,-2442.679609,-10214.842000,995.924147
341.262010,-3182.885551,-10362.883188,842.705048
341.262338,-3034.844362,-9992.780217,153.219100
341.262665,-2590.720797,-9326.594869,0.000000
341.262993,-1332.370696,-8586.388927,306.438199
341.263320,74.020594,-7994.224174,76.609550
341.263648,888.247130,-7550.100608,76.609550
341.263976,1776.494261,-7550.100608,383.047749
341.264303,1702.473667,-7698.141797,612.876398
341.264631,1998.556043,-8142.265362,1455.581446
341.264958,1776.494261,-9104.533087,1532.190996
341.265286,1480.411884,-9770.718434,2145.067394
341.265614,666.185348,-10362.883188,2145.067394
341.265941,74.020594,-10881.027347,2145.067394
341.266269,-814.226536,-11103.089130,1532.190996
341.266596,-2146.597232,-10955.047942,1915.238745
341.266924,-1850.514855,-10288.862594,689.485948
341.267252,-2368.659014,-9992.780217,536.266849
341.267579,-1924.535449,-8660.409521,76.609550
341.267907,-1184.329507,-8364.327145,0.000000
341.268234,-222.061783,-7402.059420,0.000000
341.268562,0.000000,-7402.059420,0.000000
341.268889,74.020594,-7772.162391,0.000000
341.269217,-296.082377,-8290.306550,76.609550
341.269545,-666.185348,-8882.471304,536.266849
341.269872,-222.061783,-9326.594869,689.485948
341.270200,-1184.329507,-10362.883188,536.266849
341.270527,-1406.391290,-10881.027347,995.924147
341.270855,-2294.638420,-11029.068536,842.705048
341.271183,-2368.659014,-10955.047942,536.266849
341.271510,-2072.576638,-10140.821405,-383.047749
341.271838,-1850.514855,-9622.677246,-383.047749
341.272165,-666.185348,-8956.491898,-612.876398
341.272493,592.164754,-8068.244768,-383.047749
341.272820,1776.494261,-7920.203579,-306.438199
341.273148,2812.782580,-7772.162391,-383.047749
341.273476,2812.782580,-8142.265362,0.000000
341.273803,2738.761985,-8734.430116,536.266849
341.274131,2368.659014,-9548.656652,995.924147
341.274458,1850.514855,-10288.862594,1532.190996
341.274786,1184.329507,-10807.006753,1455.581446
341.275114,-296.082377,-10881.027347,1608.800546
341.275441,-666.185348,-11251.130318,1532.190996
341.275769,-1110.308913,-10584.944971,536.266849
341.276096,-1924.535449,-10140.821405,612.876398
341.276424,-1332.370696,-9178.553681,0.000000
341.276751,-1184.329507,-7846.182985,0.000000
341.277079,-296.082377,-7402.059420,-383.047749
341.277407,148.041188,-6735.874072,-612.876398
341.277734,518.144159,-6957.935855,-229.828649
341.278062,592.164754,-7105.977043,0.000000
341.278389,444.123565,-7402.059420,459.657299
341.278717,222.061783,-8142.265362,919.314598
341.279045,-592.164754,-9252.574275,995.924147
341.279372,-1036.288319,-10066.800811,1685.410096
341.279700,-1998.556043,-10362.883188,1225.752797
341.280027,-2442.679609,-10510.924376,995.924147
341.280355,-2516.700203,-10066.800811,766.095498
341.280682,-2442.679609,-9474.636058,536.266849
341.281010,-1332.370696,-8512.368333,536.266849
341.281338,222.061783,-7920.203579,459.657299
341.281665,888.247130,-7105.977043,1072.533697
341.281993,2146.597232,-6809.894666,612.876398
341.282320,1998.556043,-7624.121203,612.876398
341.282648,1332.370696,-7920.203579,842.705048
341.282976,1332.370696,-8808.450710,1225.752797
341.283303,1332.370696,-9622.677246,1991.848295
341.283631,444.123565,-9992.780217,2451.505594
341.283958,0.000000,-10658.965565,2451.505594
341.284286,-1036.288319,-10732.986159,2145.067394
341.284614,-2294.638420,-10881.027347,1991.848295
341.284941,-1998.556043,-10436.903782,766.095498
341.285268,-2590.720797,-9178.553681,766.095498
341.285596,-1998.556043,-8734.430116,0.000000
341.285923,-1036.288319,-8364.327145,0.000000
341.286251,-518.144159,-7179.997637,-153.219100
341.286578,0.000000,-7328.038826,-459.657299
341.286906,444.123565,-7179.997637,383.047749
341.287233,74.020594,-7772.162391,0.000000
341.287561,-296.082377,-8660.409521,383.047749
341.287888,-370.102971,-9474.636058,766.095498
341.288215,-814.226536,-10214.842000,689.485948
341.288543,-962.267725,-10881.027347,1455.581446
341.288870,-1258.350101,-11103.089130,1302.362347
341.289198,-2072.576638,-10955.047942,766.095498
341.289525,-2220.617826,-10881.027347,0.000000
341.289853,-2072.576638,-10066.800811,-153.219100
341.290180,-1036.288319,-9326.594869,-459.657299
341.290508,666.185348,-8216.285956,-383.047749
341.290835,1332.370696,-7772.162391,-536.266849
341.291162,1924.535449,-7698.141797,-459.657299
341.291490,2368.659014,-7846.182985,0.000000
341.291817,2072.576638,-8364.327145,76.609550
341.292145,2146.597232,-9252.574275,383.047749
341.292472,1554.432478,-9474.636058,995.924147
341.292800,888.247130,-10362.883188,1225.752797
341.293127,0.000000,-10732.986159,919.314598
341.293455,-592.164754,-11103.089130,1225.752797
341.293782,-1184.329507,-10362.883188,536.266849
341.294109,-1998.556043,-9844.739029,383.047749
341.294437,-1406.391290,-9326.594869,-153.219100
341.294764,-1184.329507,-8956.491898,-536.266849
341.295092,-740.205942,-7994.224174,-995.924147
341.295419,148.041188,-7105.977043,-842.705048
341.295747,444.123565,-6883.915261,-1225.752797
341.296074,1110.308913,-7105.977043,-229.828649
341.296402,1258.350101,-7476.080014,76.609550
341.296729,888.247130,-8142.265362,306.438199
341.297056,296.082377,-9104.533087,995.924147
341.297384,0.000000,-9474.636058,1532.190996
341.297711,-1406.391290,-10214.842000,1455.581446
341.298039,-1776.494261,-10510.924376,1225.752797
341.298366,-2368.659014,-10436.903782,842.705048
341.298694,-2294.638420,-9770.718434,536.266849
341.299021,-1258.350101,-9104.533087,306.438199
341.299349,0.000000,-7994.224174,919.314598
341.299676,814.226536,-7328.038826,689.485948
341.300004,1480.411884,-6957.935855,689.485948
341.300331,1480.411884,-7402.059420,766.095498
341.300658,1258.350101,-7920.203579,229.828649
341.300986,962.267725,-8068.244768,1762.019645
341.301313,740.205942,-8956.491898,1762.019645
341.301641,444.123565,-9770.718434,2068.457845
341.301968,0.000000,-10584.944971,2374.896044
341.302296,-740.205942,-10807.006753,2451.505594
341.302623,-1554.432478,-10436.903782,2068.457845
341.302951,-2886.803174,-10140.821405,1532.190996
341.303278,-2664.741391,-9770.718434,842.705048
341.303605,-2590.720797,-9326.594869,229.828649
341.303933,-2072.576638,-8290.306550,-229.828649
341.304260,-740.205942,-7402.059420,76.609550
341.304588,-222.061783,-7476.080014,0.000000
341.304915,74.020594,-7328.038826,76.609550
341.305243,0.000000,-7772.162391,153.219100
341.305570,0.000000,-8438.347739,76.609550
341.305898,-222.061783,-8734.430116,383.047749
341.306225,-148.041188,-9696.697840,919.314598
341.306552,-518.144159,-10436.903782,1378.971896
341.306880,-962.267725,-10881.027347,1149.143247
341.307207,-1554.432478,-11325.150913,995.924147
341.307535,-1924.535449,-10732.986159,306.438199
341.307862,-1924.535449,-10066.800811,153.219100
341.308190,-1406.391290,-9474.636058,-459.657299
341.308517,-222.061783,-8808.450710,-536.266849
341.308845,814.226536,-8068.244768,-612.876398
341.309172,1924.535449,-7772.162391,-536.266849
341.309499,2220.617826,-7402.059420,-383.047749
341.309827,2368.659014,-8142.265362,0.000000
341.310154,1776.494261,-8734.430116,229.828649
341.310482,1628.453072,-9474.636058,612.876398
341.310809,1110.308913,-10140.821405,1225.752797
341.311137,222.061783,-10362.883188,1608.800546
341.311464,0.000000,-10732.986159,1149.143247
341.311792,-1184.329507,-10955.047942,1149.143247
341.312119,-1776.494261,-10362.883188,766.095498
341.312446,-1998.556043,-9844.739029,0.000000
341.312774,-1332.370696,-9178.553681,-536.266849
341.313101,-1406.391290,-8216.285956,-1149.143247
341.313429,-666.185348,-7328.038826,-1225.752797
341.313756,0.000000,-7179.997637,-1072.533697
341.314084,814.226536,-7031.956449,-995.924147
341.314411,888.247130,-7105.977043,-229.828649
341.314739,1184.329507,-7846.182985,306.438199
341.315066,518.144159,-8512.368333,842.705048
341.315393,222.061783,-9400.615463,995.924147
341.315721,-444.123565,-10140.821405,1225.752797
341.316048,-1554.432478,-10732.986159,1532.190996
341.316376,-1924.535449,-10732.986159,1225.752797
341.316703,-2220.617826,-10658.965565,995.924147
341.317031,-1924.535449,-9622.677246,459.657299
341.317358,-666.185348,-8586.388927,689.485948
341.317686,444.123565,-7476.080014,612.876398
341.318013,1184.329507,-7031.956449,1072.533697
341.318341,1998.556043,-7179.997637,689.485948
341.318668,1850.514855,-7328.038826,689.485948
341.318995,1554.432478,-7846.182985,995.924147
341.319323,1110.308913,-8586.388927,1455.581446
341.319650,1184.329507,-9104.533087,1991.848295
341.319978,370.102971,-9770.718434,2298.286494
341.320305,-148.041188,-10436.903782,2298.286494
341.320633,-1554.432478,-10955.047942,2221.676944
341.320960,-2294.638420,-10732.986159,1838.629195
341.321288,-3182.885551,-10214.842000,1302.362347
341.321615,-2812.782580,-9474.636058,536.266849
341.321942,-2516.700203,-8882.471304,76.609550
341.322270,-1480.411884,-8216.285956,76.609550
341.322597,-592.164754,-7550.100608,0.000000
341.322925,-222.061783,-7105.977043,0.000000
341.323252,0.000000,-7179.997637,229.828649
341.323580,0.000000,-7994.224174,76.609550
341.323907,0.000000,-8438.347739,383.047749
341.324235,0.000000,-9252.574275,842.705048
341.324562,-296.082377,-10140.821405,1225.752797
341.324889,-592.164754,-10658.965565,1915.238745
341.325217,-962.267725,-11251.130318,1225.752797
341.325544,-1924.535449,-11251.130318,1072.533697
341.325872,-1998.556043,-10807.006753,612.876398
341.326199,-1776.494261,-10362.883188,0.000000
341.326527,-1184.329507,-9326.594869,-153.219100
341.326854,148.041188,-8142.265362,0.000000
341.327182,1332.370696,-7920.203579,-612.876398
341.327509,2072.576638,-7772.162391,-229.828649
341.327836,2368.659014,-7994.224174,76.609550
341.328164,2146.597232,-8512.368333,153.219100
341.328491,1406.391290,-8882.471304,536.266849
341.328819,1332.370696,-9918.759623,919.314598
341.329146,888.247130,-10510.924376,919.314598
341.329474,-74.020594,-11029.068536,1302.362347
341.329801,-814.226536,-11103.089130,919.314598
341.330129,-1850.514855,-10584.944971,919.314598
341.330456,-2220.617826,-10584.944971,153.219100
341.330783,-2072.576638,-9770.718434,-306.438199
341.331111,-1776.494261,-8808.450710,-842.705048
341.331438,-962.267725,-7846.182985,-1072.533697
341.331766,222.061783,-7105.977043,-1149.143247
341.332093,666.185348,-6957.935855,-995.924147
341.332421,1258.350101,-6957.935855,-459.657299
341.332748,1628.453072,-7179.997637,-306.438199
341.333076,1332.370696,-8364.327145,153.219100
341.333403,1036.288319,-8586.388927,1072.533697
341.333731,148.041188,-9844.739029,1149.143247
341.334058,-666.185348,-10732.986159,1455.581446
341.334385,-1554.432478,-11177.109724,1455.581446
341.334713,-1850.514855,-11029.068536,995.924147
341.335040,-1776.494261,-10362.883188,919.314598
341.335368,-1184.329507,-9326.594869,612.876398
341.335695,0.000000,-8290.306550,766.095498
341.336023,1036.288319,-7328.038826,612.876398
341.336350,1776.494261,-7254.018232,153.219100
341.336678,1998.556043,-7105.977043,383.047749
341.337005,1480.411884,-6809.894666,919.314598
341.337332,1258.350101,-7994.224174,919.314598
341.337660,1036.288319,-8586.388927,1608.800546
341.337987,666.185348,-9474.636058,1838.629195
341.338315,-296.082377,-10288.862594,2451.505594
341.338642,-962.267725,-10584.944971,2757.943793
341.338970,-2368.659014,-10436.903782,2221.676944
341.339297,-3108.864956,-10362.883188,1685.410096
341.339625,-3404.947333,-9918.759623,842.705048
341.339952,-2886.803174,-9104.533087,383.047749
341.340279,-2368.659014,-8364.327145,766.095498
341.340607,-888.247130,-7328.038826,612.876398
341.340934,-518.144159,-7105.977043,459.657299
341.341262,0.000000,-7105.977043,76.609550
341.341589,-148.041188,-7402.059420,306.438199
341.341917,-296.082377,-8142.265362,459.657299
341.342244,-296.082377,-9030.512492,842.705048
341.342572,-296.082377,-9696.697840,919.314598
341.342899,-740.205942,-10288.862594,1225.752797
341.343226,-1036.288319,-11177.109724,1378.971896
341.343554,-1554.432478,-11325.150913,1302.362347
341.343881,-1998.556043,-10584.944971,689.485948
341.344209,-1924.535449,-10362.883188,306.438199
341.344536,-1406.391290,-9622.677246,-306.438199
341.344864,-518.144159,-9104.533087,-306.438199
341.345191,592.164754,-8068.244768,-612.876398
341.345519,1480.411884,-7624.121203,-383.047749
341.345846,2368.659014,-7476.080014,-229.828649
341.346173,1998.556043,-8068.244768,0.000000
341.346501,1702.473667,-8438.347739,153.219100
341.346828,1850.514855,-9400.615463,766.095498
341.347156,1628.453072,-9548.656652,1072.533697
341.347483,740.205942,-10584.944971,1455.581446
341.347811,-222.061783,-10955.047942,1302.362347
341.348138,-1184.329507,-11177.109724,995.924147
341.348466,-1924.535449,-10807.006753,459.657299
341.348793,-2146.597232,-10214.842000,0.000000
341.349121,-1924.535449,-9326.594869,-612.876398
341.349448,-1184.329507,-8660.409521,-995.924147
341.349775,-222.061783,-7772.162391,-1072.533697
341.350103,296.082377,-7254.018232,-1149.143247
341.350430,962.267725,-6883.915261,-995.924147
341.350758,1924.535449,-7179.997637,0.000000
341.351085,1332.370696,-7772.162391,0.000000
341.351413,814.226536,-8364.327145,306.438199
341.351740,222.061783,-9252.574275,842.705048
341.352068,-518.144159,-10140.821405,1072.533697
341.352395,-1480.411884,-10955.047942,1149.143247
341.352722,-2368.659014,-10140.821405,1455.581446
341.353050,-2220.617826,-10658.965565,919.314598
341.353377,-1776.494261,-9770.718434,612.876398
341.353705,-962.267725,-8882.471304,612.876398
341.354032,444.123565,-7624.121203,229.828649
341.354360,1924.535449,-6809.894666,612.876398
341.354687,1924.535449,-7105.977043,229.828649
341.355015,1924.535449,-7254.018232,459.657299
341.355342,1406.391290,-7402.059420,459.657299
341.355669,1406.391290,-8290.306550,1915.238745
341.355997,1110.308913,-8660.409521,1225.752797
341.356324,296.082377,-9474.636058,1915.238745
341.356652,-518.144159,-10436.903782,2528.115143
341.356979,-1332.370696,-10807.006753,2298.286494
341.357307,-2368.659014,-10584.944971,2221.676944
341.357634,-2738.761985,-9844.739029,1608.800546
341.357962,-2442.679609,-9474.636058,919.314598
341.358289,-2368.659014,-8882.471304,536.266849
341.358616,-1406.391290,-7772.162391,229.828649
341.358944,-518.144159,-7254.018232,0.000000
341.359271,0.000000,-6957.935855,306.438199
341.359599,518.144159,-7179.997637,0.000000
341.359926,-148.041188,-7476.080014,0.000000
341.360254,0.000000,-8438.347739,536.266849
341.360581,0.000000,-9178.553681,842.705048
341.360909,-148.041188,-10066.800811,1685.410096
341.361236,-666.185348,-10658.965565,1378.971896
341.361563,-1628.453072,-11251.130318,1455.581446
341.361891,-2368.659014,-11177.109724,919.314598
341.362218,-2442.679609,-11029.068536,229.828649
341.362546,-2146.597232,-10140.821405,0.000000
341.362873,-1258.350101,-8882.471304,-229.828649
341.363201,0.000000,-8364.327145,-153.219100
341.363528,1184.329507,-7994.224174,-153.219100
341.363856,2146.597232,-8068.244768,-153.219100
341.364183,2294.638420,-7920.203579,0.000000
341.364510,2516.700203,-8438.347739,919.314598
341.364838,1776.494261,-8956.491898,612.876398
341.365165,1628.453072,-9992.780217,1225.752797
341.365493,888.247130,-10658.965565,1302.362347
341.365820,0.000000,-10955.047942,1225.752797
341.366148,-444.123565,-10807.006753,1225.752797
341.366475,-1554.432478,-10807.006753,689.485948
341.366803,-2146.597232,-10436.903782,0.000000
341.367130,-2146.597232,-9770.718434,-383.047749
341.367458,-1850.514855,-9104.533087,-995.924147
341.367785,-814.226536,-7846.182985,-1225.752797
341.368112,-296.082377,-7698.141797,-1532.190996
341.368440,518.144159,-7179.997637,-1302.362347
341.368767,1110.308913,-7179.997637,-995.924147
341.369095,1184.329507,-7550.100608,-306.438199
341.369422,814.226536,-8142.265362,229.828649
341.369750,1184.329507,-9252.574275,536.266849
341.370077,-148.041188,-9622.677246,995.924147
341.370405,-888.247130,-10436.903782,1225.752797
341.370732,-1628.453072,-10584.944971,1149.143247
341.371059,-2146.597232,-10955.047942,766.095498
341.371387,-1480.411884,-10214.842000,0.000000
341.371714,-1628.453072,-8734.430116,229.828649
341.372042,0.000000,-8364.327145,76.609550
341.372369,1110.308913,-7698.141797,76.609550
341.372697,1776.494261,-6957.935855,229.828649
341.373024,2220.617826,-7105.977043,153.219100
341.373352,2072.576638,-7328.038826,536.266849
341.373679,1480.411884,-7920.203579,919.314598
341.374006,1480.411884,-8882.471304,1532.190996
341.374334,1110.308913,-9696.697840,2068.457845
341.374661,296.082377,-9770.718434,2221.676944
341.374989,-666.185348,-10807.006753,2528.115143
341.375316,-1480.411884,-10955.047942,1991.848295
341.375644,-2442.679609,-10362.883188,1455.581446
341.375971,-2738.761985,-9622.677246,919.314598
341.376299,-2072.576638,-9326.594869,842.705048
341.376626,-2072.576638,-8364.327145,459.657299
341.376953,-1036.288319,-7328.038826,306.438199
341.377281,-370.102971,-7179.997637,76.609550
341.377608,-222.061783,-7105.977043,229.828649
341.377936,-222.061783,-7402.059420,229.828649
341.378263,-222.061783,-7772.162391,383.047749
341.378591,-444.123565,-8734.430116,842.705048
341.378918,-370.102971,-9326.594869,1455.581446
341.379246,-814.226536,-9992.780217,1685.410096
341.379573,-1332.370696,-10732.986159,1685.410096
341.379900,-1554.432478,-11029.068536,1532.190996
341.380228,-2442.679609,-11103.089130,919.314598
341.380555,-2442.679609,-10658.965565,383.047749
341.380883,-1702.473667,-9696.697840,0.000000
341.381210,-740.205942,-9030.512492,-229.828649
341.381538,666.185348,-7920.203579,0.000000
341.381865,1628.453072,-7698.141797,0.000000
341.382193,2072.576638,-7772.162391,153.219100
341.382520,1850.514855,-8438.347739,459.657299
341.382848,1702.473667,-8882.471304,612.876398
341.383175,1184.329507,-9548.656652,536.266849
341.383503,888.247130,-10288.862594,842.705048
341.383830,222.061783,-10658.965565,1302.362347
341.384158,-592.164754,-11473.192101,1302.362347
341.384485,-1258.350101,-11103.089130,842.705048
341.384813,-1924.535449,-10807.006753,689.485948
341.385140,-2590.720797,-9474.636058,-306.438199
341.385468,-1850.514855,-9400.615463,-612.876398
341.385795,-1554.432478,-8586.388927,-1225.752797
341.386123,-740.205942,-7994.224174,-1302.362347
341.386450,0.000000,-7254.018232,-1072.533697
341.386778,1258.350101,-6883.915261,-766.095498
341.387105,814.226536,-7402.059420,-229.828649
341.387433,1406.391290,-7920.203579,0.000000
341.387760,1110.308913,-8512.368333,76.609550
341.388088,518.144159,-9252.574275,612.876398
341.388415,-148.041188,-10066.800811,919.314598
341.388743,-592.164754,-10955.047942,612.876398
341.389070,-1554.432478,-10807.006753,919.314598
341.389398,-1924.535449,-10510.924376,306.438199
341.389726,-1480.411884,-9770.718434,229.828649
341.390053,-592.164754,-8882.471304,0.000000
341.390381,370.102971,-7846.182985,229.828649
341.390708,1850.514855,-6957.935855,536.266849
341.391036,2294.638420,-7179.997637,459.657299
341.391363,2368.659014,-7328.038826,536.266849
341.391691,2072.576638,-7624.121203,612.876398
341.392018,1702.473667,-8290.306550,1225.752797
341.392346,1110.308913,-9252.574275,1838.629195
341.392673,888.247130,-9622.677246,2068.457845
341.393001,-296.082377,-10658.965565,2451.505594
341.393328,-1406.391290,-10658.965565,2221.676944
341.393656,-2146.597232,-10584.944971,2068.457845
341.393983,-2812.782580,-9844.739029,1455.581446
341.394311,-2368.659014,-9326.594869,842.705048
341.394638,-2294.638420,-8734.430116,459.657299
341.394966,-2072.576638,-7550.100608,459.657299
341.395293,-1110.308913,-7254.018232,153.219100
341.395621,0.000000,-6661.853478,689.485948
341.395948,-222.061783,-6661.853478,459.657299
341.396276,-222.061783,-7402.059420,459.657299
341.396604,-666.185348,-8216.285956,766.095498
341.396931,-666.185348,-8956.491898,1072.533697
341.397259,-592.164754,-9474.636058,1302.362347
341.397586,-1110.308913,-10066.800811,1608.800546
341.397914,-1702.473667,-10881.027347,1302.362347
341.398241,-2368.659014,-11029.068536,1149.143247
341.398569,-2368.659014,-10807.006753,689.485948
341.398896,-2072.576638,-9696.697840,536.266849
341.399224,-1110.308913,-9030.512492,306.438199
341.399551,0.000000,-8512.368333,0.000000
341.399879,962.267725,-8068.244768,-306.438199
341.400206,1776.494261,-7994.224174,0.000000
341.400534,2220.617826,-7994.224174,0.000000
341.400861,2072.576638,-8734.430116,383.047749
341.401189,1776.494261,-9326.594869,459.657299
341.401516,1554.432478,-9992.780217,842.705048
341.401844,814.226536,-10658.965565,1149.143247
341.402171,370.102971,-10955.047942,1378.971896
341.402499,-518.144159,-11103.089130,919.314598
341.402827,-1628.453072,-10955.047942,1072.533697
341.403154,-2072.576638,-10658.965565,153.219100
341.403482,-2368.659014,-9622.677246,-306.438199
341.403809,-1850.514855,-9252.574275,-842.705048
341.404137,-740.205942,-8512.368333,-919.314598
341.404464,-148.041188,-7550.100608,-612.876398
341.404792,444.123565,-7105.977043,-1149.143247
341.405119,1036.288319,-7402.059420,-766.095498
341.405447,1110.308913,-7920.203579,-612.876398
341.405774,888.247130,-9030.512492,306.438199
341.406102,518.144159,-9104.533087,766.095498
341.406429,0.000000,-9918.759623,842.705048
341.406757,-740.205942,-10732.986159,1149.143247
341.407084,-1406.391290,-11177.109724,842.705048
341.407412,-1702.473667,-11177.109724,536.266849
341.407739,-1702.473667,-9918.759623,383.047749
341.408067,-888.247130,-9252.574275,0.000000
341.408394,-370.102971,-8512.368333,-153.219100
341.408722,888.247130,-7698.141797,0.000000
341.409049,1702.473667,-7254.018232,0.000000
341.409377,2294.638420,-7179.997637,1149.143247
341.409705,2368.659014,-7402.059420,612.876398
341.410032,1776.494261,-8068.244768,1149.143247
341.410360,1406.391290,-9030.512492,1532.190996
341.410687,1184.329507,-9548.656652,2298.286494
341.411015,740.205942,-10066.800811,2145.067394
341.411342,-518.144159,-10510.924376,2834.553343
341.411670,-1480.411884,-10658.965565,2068.457845
341.411997,-2368.659014,-10584.944971,1838.629195
341.412325,-2590.720797,-9844.739029,1149.143247
341.412652,-2368.659014,-8956.491898,766.095498
341.412980,-2146.597232,-7920.203579,0.000000
341.413307,-1184.329507,-7476.080014,153.219100
341.413635,-740.205942,-6957.935855,0.000000
341.413962,-444.123565,-7031.956449,0.000000
341.414290,-444.123565,-7476.080014,0.000000
341.414617,-370.102971,-7772.162391,0.000000
341.414945,-814.226536,-8586.388927,919.314598
341.415272,-1036.288319,-9400.615463,1532.190996
341.415600,-1184.329507,-9844.739029,1532.190996
341.415928,-1628.453072,-10732.986159,1838.629195
341.416255,-2368.659014,-10658.965565,1225.752797
341.416583,-2516.700203,-10881.027347,536.266849
341.416910,-2220.617826,-10362.883188,229.828649
341.417238,-1480.411884,-9622.677246,0.000000
341.417565,-592.164754,-8438.347739,0.000000
341.417893,1184.329507,-8216.285956,229.828649
341.418220,2146.597232,-7772.162391,76.609550
341.418548,2072.576638,-7698.141797,76.609550
341.418875,2368.659014,-8512.368333,229.828649
341.419203,2146.597232,-8882.471304,689.485948
341.419530,2146.597232,-9696.697840,1072.533697
341.419858,1924.535449,-10288.862594,1838.629195
341.420185,962.267725,-10807.006753,1532.190996
341.420513,74.020594,-11621.233289,1532.190996
341.420840,-740.205942,-11177.109724,1302.362347
341.421168,-2072.576638,-11103.089130,995.924147
341.421495,-1924.535449,-10066.800811,383.047749
341.421823,-1850.514855,-9622.677246,-766.095498
341.422150,-1924.535449,-8956.491898,-995.924147
341.422478,-518.144159,-7920.203579,-1149.143247
341.422806,-148.041188,-7328.038826,-1225.752797
341.423133,370.102971,-6883.915261,-1072.533697
341.423461,1036.288319,-7624.121203,-766.095498
341.423788,444.123565,-8142.265362,-459.657299
341.424116,592.164754,-8882.471304,0.000000
341.424443,0.000000,-9400.615463,689.485948
341.424771,-666.185348,-9696.697840,536.266849
341.425098,-1184.329507,-10732.986159,919.314598
341.425426,-1998.556043,-10881.027347,536.266849
341.425753,-1776.494261,-10436.903782,459.657299
341.426081,-1480.411884,-10066.800811,229.828649
341.426408,-666.185348,-9030.512492,0.000000
341.426736,444.123565,-7994.224174,0.000000
341.427063,1776.494261,-7476.080014,-153.219100
341.427391,2442.679609,-7328.038826,153.219100
341.427718,2516.700203,-7402.059420,612.876398
341.428046,2516.700203,-7846.182985,919.314598
341.428373,2368.659014,-8512.368333,1991.848295
341.428701,1850.514855,-9030.512492,1915.238745
341.429028,1258.350101,-9918.759623,2528.115143
341.429356,370.102971,-10362.883188,2298.286494
341.429684,-1184.329507,-10658.965565,2451.505594
341.430011,-1776.494261,-9918.759623,2451.505594
341.430339,-2368.659014,-9326.594869,1762.019645
341.430666,-2664.741391,-9104.533087,1149.143247
341.430994,-2072.576638,-8290.306550,689.485948
341.431321,-1702.473667,-7550.100608,459.657299
341.431649,-1184.329507,-6809.894666,689.485948
341.431976,-814.226536,-6587.832884,153.219100
341.432304,-740.205942,-6883.915261,383.047749
341.432631,-888.247130,-6957.935855,0.000000
341.432959,-962.267725,-7920.203579,612.876398
341.433286,-962.267725,-8586.388927,995.924147
341.433614,-1258.350101,-9622.677246,1991.848295
341.433941,-1702.473667,-10214.842000,1455.581446
341.434269,-2294.638420,-10584.944971,1378.971896
341.434596,-2738.761985,-10732.986159,1072.533697
341.434924,-2738.761985,-10510.924376,459.657299
341.435251,-2220.617826,-9770.718434,689.485948
341.435579,-1110.308913,-9178.553681,306.438199
341.435907,74.020594,-8142.265362,0.000000
341.436234,1480.411884,-7846.182985,76.609550
341.436562,2220.617826,-7846.182985,306.438199
341.436889,2368.659014,-7920.203579,766.095498
341.437217,2220.617826,-8216.285956,1302.362347
341.437544,2072.576638,-9326.594869,995.924147
341.437872,1628.453072,-10214.842000,1378.971896
341.438199,1036.288319,-10732.986159,1378.971896
341.438527,74.020594,-11177.109724,1532.190996
341.438854,-370.102971,-10955.047942,1302.362347
341.439182,-1110.308913,-11399.171507,919.314598
341.439509,-2220.617826,-10807.006753,383.047749
341.439837,-2220.617826,-10140.821405,-306.438199
341.440164,-2072.576638,-9252.574275,-689.485948
341.440492,-1480.411884,-8290.306550,-919.314598
341.440819,-666.185348,-7624.121203,-1225.752797
341.441147,-148.041188,-7402.059420,-1149.143247
341.441474,296.082377,-7476.080014,-919.314598
341.441802,518.144159,-7476.080014,-842.705048
341.442129,518.144159,-8586.388927,229.828649
341.442457,296.082377,-9104.533087,0.000000
341.442785,0.000000,-9992.780217,612.876398
341.443112,-740.205942,-10584.944971,1072.533697
341.443440,-1554.432478,-10732.986159,766.095498
341.443767,-1776.494261,-10658.965565,612.876398
341.444095,-2072.576638,-10362.883188,0.000000
341.444422,-1258.350101,-9622.677246,0.000000
341.444750,0.000000,-8660.409521,-383.047749
341.445077,1110.308913,-7994.224174,-229.828649
341.445405,1998.556043,-7624.121203,-306.438199
341.445732,3256.906145,-7550.100608,0.000000
341.446060,2812.782580,-7476.080014,306.438199
341.446387,2516.700203,-8068.244768,383.047749
341.446715,2294.638420,-9178.553681,1302.362347
341.447042,1628.453072,-9696.697840,1685.410096
341.447370,962.267725,-10510.924376,2374.896044
341.447697,0.000000,-10362.883188,1991.848295
341.448025,-1628.453072,-10881.027347,2145.067394
341.448352,-1776.494261,-10510.924376,1455.581446
341.448680,-2442.679609,-9548.656652,1225.752797
341.449007,-2146.597232,-8734.430116,1072.533697
341.449335,-1850.514855,-7994.224174,229.828649
341.449663,-1332.370696,-7402.059420,76.609550
341.449990,-888.247130,-6809.894666,-153.219100
341.450318,-518.144159,-6513.812290,0.000000
341.450645,-666.185348,-6883.915261,153.219100
341.450973,-518.144159,-7254.018232,306.438199
341.451300,-518.144159,-8290.306550,766.095498
341.451628,-592.164754,-8956.491898,1072.533697
341.451955,-1184.329507,-9622.677246,1532.190996
341.452283,-1702.473667,-10510.924376,1532.190996
341.452610,-2146.597232,-10807.006753,1072.533697
341.452938,-2442.679609,-10881.027347,766.095498
341.453265,-2368.659014,-10436.903782,459.657299
341.453593,-1554.432478,-9696.697840,229.828649
341.453920,-518.144159,-8808.450710,306.438199
341.454248,1480.411884,-7846.182985,306.438199
341.454575,1998.556043,-7920.203579,306.438199
341.454903,2072.576638,-7772.162391,612.876398
341.455230,2368.659014,-8364.327145,536.266849
341.455558,2220.617826,-8734.430116,842.705048
341.455886,1776.494261,-9474.636058,766.095498
341.456213,1332.370696,-9844.739029,1685.410096
341.456541,592.164754,-11029.068536,1991.848295
341.456868,0.000000,-11251.130318,1532.190996
341.457196,-1998.556043,-11103.089130,1302.362347
341.457523,-1776.494261,-10584.944971,536.266849
341.457851,-2368.659014,-9844.739029,689.485948
341.458178,-2516.700203,-9326.594869,-612.876398
341.458506,-1998.556043,-8660.409521,-1302.362347
341.458833,-1258.350101,-7846.182985,-1072.533697
341.459161,-444.123565,-7402.059420,-1302.362347
341.459488,0.000000,-7105.977043,-1072.533697
341.459816,444.123565,-7402.059420,-842.705048
341.460143,370.102971,-7920.203579,-612.876398
341.460471,518.144159,-8660.409521,0.000000
341.460798,74.020594,-9474.636058,229.828649
341.461126,0.000000,-10066.800811,1149.143247
341.461453,-592.164754,-11251.130318,919.314598
341.461781,-1480.411884,-11177.109724,612.876398
341.462108,-1702.473667,-11029.068536,229.828649
341.462436,-1332.370696,-10288.862594,0.000000
341.462764,-518.144159,-9252.574275,0.000000
341.463091,962.267725,-8438.347739,0.000000
341.463419,1924.535449,-7550.100608,0.000000
341.463746,2664.741391,-7105.977043,0.000000
341.464074,3034.844362,-7476.080014,76.609550
341.464401,2590.720797,-7698.141797,919.314598
341.464729,2516.700203,-8438.347739,1149.143247
341.465056,1850.514855,-9400.615463,1838.629195
341.465384,1332.370696,-10214.842000,2528.115143
341.465711,148.041188,-10584.944971,2145.067394
341.466039,-1480.411884,-10881.027347,2681.334243
341.466366,-1702.473667,-10214.842000,1838.629195
341.466694,-2812.782580,-9992.780217,1838.629195
341.467021,-2886.803174,-9030.512492,1149.143247
341.467349,-2294.638420,-8512.368333,842.705048
341.467676,-1998.556043,-7402.059420,383.047749
341.468004,-1332.370696,-6587.832884,383.047749
341.468331,-814.226536,-6809.894666,306.438199
341.468659,-814.226536,-6809.894666,153.219100
341.468987,-666.185348,-7179.997637,229.828649
341.469314,-1036.288319,-7846.182985,536.266849
341.469642,-888.247130,-8142.265362,1149.143247
341.469969,-1110.308913,-9474.636058,1608.800546
341.470297,-1628.453072,-10288.862594,1608.800546
341.470624,-1998.556043,-10807.006753,1608.800546
341.470952,-2368.659014,-10881.027347,1072.533697
341.471279,-2442.679609,-10584.944971,766.095498
341.471607,-1628.453072,-10066.800811,842.705048
341.471934,-740.205942,-9252.574275,383.047749
341.472262,592.164754,-8586.388927,153.219100
341.472589,1702.473667,-7994.224174,153.219100
341.472917,2220.617826,-7920.203579,153.219100
341.473244,2590.720797,-8142.265362,1072.533697
341.473572,2368.659014,-8660.409521,612.876398
341.473899,1924.535449,-9400.615463,1149.143247
341.474227,1702.473667,-9918.759623,1302.362347
341.474554,1332.370696,-10510.924376,2221.676944
341.474882,444.123565,-10510.924376,1532.190996
341.475209,-962.267725,-11325.150913,1838.629195
341.475537,-1480.411884,-10658.965565,842.705048
341.475865,-2590.720797,-10658.965565,229.828649
341.476192,-2590.720797,-9992.780217,-383.047749
341.476520,-2220.617826,-9178.553681,-1149.143247
341.476847,-1554.432478,-8660.409521,-1302.362347
341.477175,-518.144159,-7846.182985,-1378.971896
341.477502,74.020594,-7550.100608,-1225.752797
341.477830,222.061783,-7328.038826,-919.314598
341.478157,814.226536,-7624.121203,-612.876398
341.478485,148.041188,-8216.285956,-459.657299
341.478812,296.082377,-9178.553681,153.219100
341.479140,-74.020594,-10140.821405,612.876398
341.479467,-740.205942,-10732.986159,919.314598
341.479795,-1554.432478,-11029.068536,766.095498
341.480122,-1702.473667,-11399.171507,-153.219100
341.480450,-2146.597232,-10658.965565,306.438199
341.480777,-1110.308913,-9770.718434,0.000000
341.481105,0.000000,-8808.450710,0.000000
341.481432,1036.288319,-7920.203579,-153.219100
341.481760,2072.576638,-7402.059420,306.438199
341.482087,2738.761985,-7179.997637,229.828649
341.482415,2664.741391,-7698.141797,536.266849
341.482743,2368.659014,-8142.265362,1072.533697
341.483070,1924.535449,-8808.450710,1608.800546
341.483398,1258.350101,-9252.574275,1915.238745
341.483725,740.205942,-10288.862594,2451.505594
341.484053,0.000000,-10362.883188,2451.505594
341.484380,-1702.473667,-10584.944971,2298.286494
341.484706,-2294.638420,-10140.821405,1838.629195
341.485034,-2812.782580,-9548.656652,1302.362347
341.485361,-2664.741391,-8734.430116,919.314598
341.485689,-2294.638420,-7846.182985,383.047749
341.486016,-1406.391290,-7179.997637,0.000000
341.486344,-814.226536,-6661.853478,0.000000
341.486671,-222.061783,-6735.874072,76.609550
341.486999,-370.102971,-6735.874072,-153.219100
341.487326,0.000000,-7179.997637,459.657299
341.487654,-444.123565,-8290.306550,612.876398
341.487981,-962.267725,-9104.533087,1532.190996
341.488309,-962.267725,-9918.759623,1608.800546
341.488636,-1850.514855,-9770.718434,2068.457845
341.488964,-2072.576638,-10955.047942,1685.410096
341.489291,-2368.659014,-10807.006753,1225.752797
341.489619,-2294.638420,-10214.842000,842.705048
341.489946,-1406.391290,-9252.574275,383.047749
341.490274,0.000000,-8438.347739,995.924147
341.490601,1184.329507,-7550.100608,995.924147
341.490929,1776.494261,-7920.203579,612.876398
341.491256,2220.617826,-7920.203579,383.047749
341.491584,1924.535449,-8290.306550,383.047749
341.491911,1924.535449,-8808.450710,766.095498
341.492239,1628.453072,-9474.636058,995.924147
341.492566,814.226536,-10140.821405,766.095498
341.492894,296.082377,-10881.027347,1838.629195
341.493221,74.020594,-10807.006753,1378.971896
341.493549,-1554.432478,-11251.130318,1225.752797
341.493876,-2220.617826,-10807.006753,536.266849
341.494204,-2442.679609,-10214.842000,0.000000
341.494532,-2368.659014,-9474.636058,-612.876398
341.494859,-1850.514855,-8734.430116,-1225.752797
341.495187,-1110.308913,-7920.203579,-1225.752797
341.495514,-444.123565,-7698.141797,-1072.533697
341.495842,148.041188,-7105.977043,-1072.533697
341.496169,666.185348,-7476.080014,-842.705048
341.496497,444.123565,-8216.285956,-383.047749
341.496824,814.226536,-9104.533087,153.219100
341.497152,74.020594,-9548.656652,459.657299
341.497479,0.000000,-10362.883188,919.314598
341.497807,-814.226536,-10807.006753,766.095498
341.498134,-1554.432478,-11325.150913,689.485948
341.498462,-1628.453072,-11325.150913,0.000000
341.498789,-1554.432478,-10510.924376,0.000000
341.499117,-592.164754,-9548.656652,0.000000
341.499444,592.164754,-8290.306550,-383.047749
341.499772,1850.514855,-7846.182985,-229.828649
341.500099,2442.679609,-7254.018232,0.000000
341.500427,2812.782580,-7254.018232,76.609550
341.500754,2664.741391,-7846.182985,536.266849
341.501082,2220.617826,-8068.244768,1072.533697
341.501409,1332.370696,-9104.533087,1455.581446
341.501737,1110.308913,-10066.800811,2068.457845
341.502064,148.041188,-10214.842000,1991.848295
341.502392,-1110.308913,-10510.924376,2221.676944
341.502719,-1628.453072,-10140.821405,1685.410096
341.503047,-2442.679609,-10362.883188,1378.971896
341.503374,-3034.844362,-9252.574275,536.266849
341.503702,-2072.576638,-8290.306550,76.609550
341.504029,-1628.453072,-7698.141797,0.000000
341.504357,-888.247130,-6735.874072,-153.219100
341.504684,-518.144159,-6883.915261,0.000000
341.505012,-296.082377,-6883.915261,153.219100
341.505340,0.000000,-7105.977043,229.828649
341.505667,-296.082377,-7920.203579,612.876398
341.505995,0.000000,-8512.368333,1072.533697
341.506322,-962.267725,-9622.677246,1838.629195
341.506650,-962.267725,-10436.903782,1455.581446
341.506977,-1702.473667,-10881.027347,1762.019645
341.507305,-2146.597232,-11103.089130,1378.971896
341.507632,-1776.494261,-10584.944971,1072.533697
341.507960,-1702.473667,-9622.677246,383.047749
341.508287,-740.205942,-9030.512492,612.876398
341.508615,444.123565,-8068.244768,306.438199
341.508942,1628.453072,-7772.162391,229.828649
341.509270,2368.659014,-7550.100608,383.047749
341.509597,2368.659014,-8068.244768,306.438199
341.509925,1998.556043,-8734.430116,689.485948
341.510252,1554.432478,-9104.533087,919.314598
341.510580,962.267725,-10066.800811,1072.533697
341.510907,592.164754,-10436.903782,1838.629195
341.511235,222.061783,-10658.965565,1991.848295
341.511562,-1258.350101,-11177.109724,1608.800546
341.511890,-1776.494261,-10807.006753,766.095498
341.512217,-2442.679609,-10436.903782,383.047749
341.512545,-2516.700203,-9770.718434,0.000000
341.512872,-1702.473667,-8586.388927,-306.438199
341.513200,-1332.370696,-7994.224174,-689.485948
341.513527,-592.164754,-7698.141797,-919.314598
341.513855,148.041188,-7550.100608,-612.876398
341.514182,296.082377,-7624.121203,-459.657299
341.514510,592.164754,-7772.162391,153.219100
341.514837,518.144159,-8808.450710,76.609550
341.515165,444.123565,-9474.636058,612.876398
341.515492,74.020594,-10066.800811,919.314598
341.515820,-592.164754,-10732.986159,1072.533697
341.516148,-1406.391290,-11103.089130,1149.143247
341.516475,-1924.535449,-10584.944971,919.314598
341.516803,-2072.576638,-10584.944971,76.609550
341.517130,-1628.453072,-9844.739029,0.000000
341.517458,-740.205942,-9030.512492,-612.876398
341.517785,814.226536,-8216.285956,-383.047749
341.518113,2072.576638,-7179.997637,-229.828649
341.518440,2590.720797,-7476.080014,-229.828649
341.518768,2516.700203,-7698.141797,383.047749
341.519095,2368.659014,-8364.327145,536.266849
341.519423,1850.514855,-9030.512492,1149.143247
341.519750,1184.329507,-9474.636058,1532.190996
341.520078,444.123565,-10214.842000,1991.848295
341.520405,0.000000,-10584.944971,2145.067394
341.520733,-1184.329507,-10584.944971,1991.848295
341.521060,-2072.576638,-10362.883188,1685.410096
341.521388,-2368.659014,-9400.615463,1072.533697
341.521715,-1998.556043,-8586.388927,459.657299
341.522043,-1776.494261,-8142.265362,0.000000
341.522370,-1036.288319,-7179.997637,-229.828649
341.522698,-666.185348,-7105.977043,0.000000
341.523025,-222.061783,-6661.853478,0.000000
341.523353,-222.061783,-7031.956449,0.000000
341.523680,0.000000,-7624.121203,76.609550
341.524008,-296.082377,-8290.306550,766.095498
341.524335,-666.185348,-9252.574275,919.314598
341.524663,-1184.329507,-9696.697840,1302.362347
341.524990,-1998.556043,-10214.842000,1455.581446
341.525318,-2294.638420,-10510.924376,1532.190996
341.525645,-2442.679609,-10510.924376,1302.362347
341.525973,-2220.617826,-9918.759623,536.266849
341.526300,-1184.329507,-9474.636058,536.266849
341.526628,0.000000,-8290.306550,76.609550
341.526956,962.267725,-8142.265362,612.876398
341.527283,1702.473667,-7328.038826,383.047749
341.527611,1924.535449,-7550.100608,229.828649
341.527938,1924.535449,-7846.182985,536.266849
341.528266,1554.432478,-8364.327145,1149.143247
341.528593,1628.453072,-8882.471304,1455.581446
341.528921,1184.329507,-10066.800811,1455.581446
341.529248,666.185348,-10584.944971,1838.629195
341.529576,148.041188,-11325.150913,1685.410096
341.529903,-1480.411884,-11325.150913,1685.410096
341.530231,-1702.473667,-11029.068536,919.314598
341.530558,-2516.700203,-10362.883188,383.047749
341.530886,-2368.659014,-9548.656652,-306.438199
341.531213,-1850.514855,-8808.450710,-689.485948
341.531541,-888.247130,-8068.244768,-842.705048
341.531868,74.020594,-7476.080014,-536.266849
341.532196,518.144159,-7179.997637,-689.485948
341.532523,740.205942,-7624.121203,-306.438199
341.532851,518.144159,-7994.224174,0.000000
341.533178,0.000000,-8660.409521,536.266849
341.533506,222.061783,-9400.615463,842.705048
341.533833,-518.144159,-10362.883188,1455.581446
341.534161,-1332.370696,-10955.047942,1302.362347
341.534488,-1776.494261,-11029.068536,995.924147
341.534816,-2220.617826,-11029.068536,689.485948
341.535143,-1776.494261,-10066.800811,766.095498
341.535471,-962.267725,-9178.553681,229.828649
341.535798,-148.041188,-8586.388927,76.609550
341.536126,1110.308913,-7994.224174,-153.219100
341.536453,1924.535449,-7476.080014,0.000000
341.536781,2220.617826,-7402.059420,153.219100
341.537108,2072.576638,-7698.141797,383.047749
341.537436,1924.535449,-8438.347739,919.314598
341.537764,1184.329507,-8956.491898,1455.581446
341.538091,814.226536,-9622.677246,1532.190996
341.538419,222.061783,-10362.883188,2145.067394
341.538746,-444.123565,-10584.944971,2451.505594
341.539074,-1036.288319,-10362.883188,1532.190996
341.539401,-2072.576638,-9992.780217,1378.971896
341.539729,-2368.659014,-9548.656652,612.876398
341.540056,-2072.576638,-8586.388927,0.000000
341.540384,-1702.473667,-7550.100608,-383.047749
341.540711,-740.205942,-6809.894666,0.000000
341.541039,-444.123565,-6957.935855,-536.266849
341.541366,222.061783,-6883.915261,-612.876398
341.541694,0.000000,-6883.915261,-459.657299
341.542021,0.000000,-7772.162391,-459.657299
341.542349,148.041188,-8956.491898,383.047749
341.542676,0.000000,-9622.677246,1149.143247
341.543004,-888.247130,-9844.739029,1302.362347
341.543331,-1110.308913,-11103.089130,1302.362347
341.543659,-1702.473667,-10807.006753,1225.752797
341.543986,-1776.494261,-10436.903782,766.095498
341.544314,-1628.453072,-10214.842000,306.438199
341.544641,-444.123565,-8956.491898,153.219100
341.544969,444.123565,-8216.285956,0.000000
341.545296,1554.432478,-7772.162391,-153.219100
341.545624,1924.535449,-7994.224174,919.314598
341.545951,2220.617826,-8068.244768,306.438199
341.546279,1702.473667,-7994.224174,306.438199
341.546606,1628.453072,-8956.491898,689.485948
341.546934,1036.288319,-9474.636058,919.314598
341.547261,888.247130,-9918.759623,1685.410096
341.547589,444.123565,-10732.986159,1378.971896
341.547916,-888.247130,-11103.089130,1532.190996
341.548244,-1776.494261,-10807.006753,842.705048
341.548571,-2812.782580,-10510.924376,612.876398
341.548899,-2886.803174,-9474.636058,306.438199
341.549227,-2220.617826,-8956.491898,-229.828649
341.549554,-1554.432478,-8808.450710,-536.266849
341.549882,-370.102971,-7772.162391,-842.705048
341.550209,-222.061783,-7476.080014,-919.314598
341.550537,444.123565,-7402.059420,-383.047749
341.550864,518.144159,-7698.141797,-459.657299
341.551192,666.185348,-8290.306550,229.828649
341.551519,666.185348,-9178.553681,766.095498
341.551847,0.000000,-9992.780217,1072.533697
341.552174,-370.102971,-11029.068536,1532.190996
341.552502,-1258.350101,-11103.089130,1455.581446
341.552829,-2146.597232,-11547.212695,1149.143247
341.553157,-2220.617826,-10732.986159,612.876398
341.553484,-2146.597232,-9992.780217,229.828649
341.553812,-518.144159,-9400.615463,0.000000
341.554139,518.144159,-8364.327145,-1072.533697
341.554467,1850.514855,-7698.141797,0.000000
341.554794,2368.659014,-7994.224174,0.000000
341.555122,2146.597232,-7846.182985,0.000000
341.555449,1850.514855,-8512.368333,383.047749
341.555777,1332.370696,-8438.347739,842.705048
341.556104,888.247130,-9400.615463,1838.629195
341.556432,1036.288319,-10436.903782,1762.019645
341.556759,222.061783,-10584.944971,2298.286494
341.557087,-1110.308913,-10881.027347,1378.971896
341.557414,-2072.576638,-11029.068536,1302.362347
341.557742,-2886.803174,-9474.636058,766.095498
341.558069,-2516.700203,-9696.697840,153.219100
341.558397,-1850.514855,-8882.471304,0.000000
341.558724,-1184.329507,-7772.162391,-766.095498
341.559052,0.000000,-7179.997637,-306.438199
341.559379,74.020594,-6069.688724,0.000000
341.559707,148.041188,-7105.977043,-153.219100
341.560035,740.205942,-7772.162391,383.047749
341.560362,-370.102971,-7402.059420,0.000000
341.560690,0.000000,-9696.697840,995.924147
341.561017,0.000000,-10066.800811,1149.143247
341.561345,-444.123565,-10288.862594,1378.971896
341.561672,-1702.473667,-10732.986159,1302.362347
341.562000,-1998.556043,-11399.171507,1225.752797
341.562327,-1998.556043,-9918.759623,1225.752797
341.562655,-1332.370696,-9696.697840,919.314598
341.562982,0.000000,-8808.450710,689.485948
341.563310,962.267725,-7772.162391,383.047749
341.563637,1480.411884,-7476.080014,459.657299
341.563965,1850.514855,-7550.100608,383.047749
341.564292,1554.432478,-7772.162391,383.047749
341.564620,1776.494261,-8438.347739,995.924147
341.564947,1332.370696,-9104.533087,1225.752797
341.565275,888.247130,-9770.718434,1685.410096
341.565602,444.123565,-10732.986159,1762.019645
341.565930,-1258.350101,-10732.986159,1685.410096
341.566257,-1480.411884,-11029.068536,1838.629195
341.566585,-2072.576638,-10658.965565,1072.533697
341.566912,-2442.679609,-9844.739029,459.657299
341.567240,-1924.535449,-9474.636058,0.000000
341.567567,-1554.432478,-8142.265362,0.000000
341.567895,-370.102971,-7624.121203,229.828649
341.568222,666.185348,-7254.018232,0.000000
341.568550,740.205942,-7179.997637,153.219100
341.568877,444.123565,-7476.080014,153.219100
341.569205,666.185348,-8364.327145,612.876398
341.569532,296.082377,-8882.471304,766.095498
341.569860,444.123565,-9252.574275,995.924147
341.570187,-296.082377,-10362.883188,1302.362347
341.570515,-1184.329507,-11029.068536,1762.019645
341.570843,-1850.514855,-11177.109724,1302.362347
341.571170,-2294.638420,-10510.924376,919.314598
341.571498,-1924.535449,-9844.739029,0.000000
341.571825,-1406.391290,-9030.512492,-229.828649
341.572153,-518.144159,-8512.368333,-383.047749
341.572480,666.185348,-7698.141797,-306.438199
341.572808,1480.411884,-7402.059420,-536.266849
341.573135,1998.556043,-7328.038826,459.657299
341.573463,2220.617826,-8142.265362,536.266849
341.573790,1776.494261,-8586.388927,612.876398
341.574118,1184.329507,-9178.553681,1072.533697
341.574445,888.247130,-9770.718434,1608.800546
341.574773,148.041188,-9992.780217,1838.629195
341.575100,-740.205942,-10658.965565,1915.238745
341.575428,-1480.411884,-10510.924376,1378.971896
341.575755,-1776.494261,-10214.842000,919.314598
341.576083,-2072.576638,-9474.636058,229.828649
341.576410,-1554.432478,-8956.491898,-229.828649
341.576738,-740.205942,-8290.306550,-459.657299
341.577065,74.020594,-7402.059420,-689.485948
341.577393,444.123565,-7105.977043,-536.266849
341.577720,740.205942,-7179.997637,-306.438199
341.578048,370.102971,-7550.100608,0.000000
341.578375,592.164754,-8290.306550,306.438199
341.578703,0.000000,-9030.512492,766.095498
341.579030,-296.082377,-9844.739029,1072.533697
341.579358,-740.205942,-10436.903782,1455.581446
341.579685,-1628.453072,-10584.944971,1455.581446
341.580013,-2146.597232,-10658.965565,1302.362347
341.580340,-2220.617826,-10436.903782,842.705048
341.580668,-2072.576638,-9474.636058,153.219100
341.580995,-1110.308913,-8808.450710,-229.828649
341.581323,-370.102971,-7698.141797,0.000000
341.581651,666.185348,-7179.997637,-306.438199
341.581978,1702.473667,-7624.121203,306.438199
341.582306,1702.473667,-7550.100608,229.828649
341.582633,1480.411884,-7846.182985,459.657299
341.582961,1332.370696,-8734.430116,995.924147
341.583288,888.247130,-9844.739029,1302.362347
341.583616,518.144159,-10436.903782,1532.190996
341.583943,-222.061783,-10881.027347,2068.457845
341.584271,-1110.308913,-11029.068536,1685.410096
341.584598,-1924.535449,-11177.109724,1302.362347
341.584926,-2294.638420,-10510.924376,842.705048
341.585253,-1406.391290,-9326.594869,383.047749
341.585581,-1332.370696,-8660.409521,153.219100
341.585908,-518.144159,-7846.182985,-153.219100
341.586236,0.000000,-7476.080014,-153.219100
341.586563,222.061783,-7402.059420,0.000000
341.586891,518.144159,-7328.038826,229.828649
341.587218,444.123565,-7994.224174,536.266849
341.587546,296.082377,-8438.347739,612.876398
341.587874,74.020594,-9474.636058,1149.143247
341.588201,-222.061783,-10214.842000,1225.752797
341.588529,-740.205942,-10955.047942,1455.581446
341.588856,-1406.391290,-10732.986159,1149.143247
341.589184,-2368.659014,-10732.986159,612.876398
341.589511,-2442.679609,-10436.903782,306.438199
341.589839,-2072.576638,-9770.718434,-229.828649
341.590166,-1184.329507,-8734.430116,-306.438199
341.590494,148.041188,-7476.080014,-459.657299
341.590822,1184.329507,-7105.977043,-383.047749
341.591149,1776.494261,-7328.038826,-153.219100
341.591477,2072.576638,-7624.121203,76.609550
341.591804,1924.535449,-8290.306550,383.047749
341.592132,1776.494261,-8956.491898,919.314598
341.592459,888.247130,-9918.759623,1608.800546
341.592787,222.061783,-10807.006753,1838.629195
341.593114,-296.082377,-11473.192101,1991.848295
341.593442,-888.247130,-11177.109724,1608.800546
341.593769,-1480.411884,-10732.986159,1455.581446
341.594097,-1924.535449,-9696.697840,842.705048
341.594425,-1850.514855,-9326.594869,153.219100
341.594752,-1110.308913,-8364.327145,-153.219100
341.595080,-222.061783,-7624.121203,-536.266849
341.595407,592.164754,-7105.977043,-459.657299
341.595735,592.164754,-7105.977043,0.000000
341.596062,518.144159,-7476.080014,-306.438199
341.596390,592.164754,-7994.224174,306.438199
341.596717,296.082377,-8734.430116,612.876398
341.597045,0.000000,-9474.636058,842.705048
341.597373,-814.226536,-10214.842000,1455.581446
341.597700,-1258.350101,-10510.924376,1378.971896
341.598028,-2072.576638,-10807.006753,1072.533697
341.598355,-2368.659014,-10362.883188,766.095498
341.598683,-2368.659014,-9770.718434,153.219100
341.599010,-2072.576638,-9030.512492,0.000000
341.599338,-962.267725,-7920.203579,-383.047749
341.599665,148.041188,-7328.038826,-229.828649
341.599993,1110.308913,-7105.977043,-383.047749
341.600321,1480.411884,-7105.977043,0.000000
341.600648,1850.514855,-7920.203579,459.657299
341.600976,1702.473667,-8364.327145,842.705048
341.601303,1258.350101,-9030.512492,1149.143247
341.601631,888.247130,-9918.759623,1915.238745
341.601958,74.020594,-10732.986159,1762.019645
341.602286,-444.123565,-11251.130318,2068.457845
341.602613,-1036.288319,-10881.027347,1838.629195
341.602941,-1776.494261,-10436.903782,1302.362347
341.603268,-1776.494261,-9770.718434,766.095498
341.603596,-1406.391290,-8956.491898,229.828649
341.603924,-666.185348,-8364.327145,153.219100
341.604251,0.000000,-7105.977043,-229.828649
341.604579,518.144159,-7105.977043,0.000000
341.604906,592.164754,-7402.059420,0.000000
341.605234,370.102971,-7920.203579,306.438199
341.605561,370.102971,-8512.368333,612.876398
341.605889,518.144159,-8660.409521,1302.362347
341.606216,-370.102971,-9252.574275,1072.533697
341.606544,-1036.288319,-10362.883188,1532.190996
341.606872,-1850.514855,-11029.068536,1685.410096
341.607199,-2590.720797,-10955.047942,842.705048
341.607527,-2738.761985,-10510.924376,459.657299
341.607854,-2590.720797,-9770.718434,0.000000
341.608182,-2146.597232,-9178.553681,-229.828649
341.608509,-666.185348,-8290.306550,-383.047749
341.608837,518.144159,-7179.997637,-383.047749
341.609164,1628.453072,-7031.956449,-153.219100
341.609492,1850.514855,-7550.100608,153.219100
341.609820,1850.514855,-8142.265362,229.828649
341.610147,1406.391290,-8808.450710,842.705048
341.610475,1184.329507,-9696.697840,919.314598
341.610802,962.267725,-10214.842000,1532.190996
341.611130,740.205942,-11251.130318,1685.410096
341.611457,-222.061783,-11251.130318,1762.019645
341.611785,-1036.288319,-11029.068536,1762.019645
341.612112,-1332.370696,-10362.883188,995.924147
341.612440,-1554.432478,-9918.759623,229.828649
341.612768,-1258.350101,-8808.450710,-153.219100
341.613095,0.000000,-8216.285956,-229.828649
341.613423,296.082377,-7550.100608,-612.876398
341.613750,518.144159,-6957.935855,-612.876398
341.614078,962.267725,-7476.080014,-153.219100
341.614405,444.123565,-7920.203579,0.000000
341.614733,296.082377,-8068.244768,153.219100
341.615060,0.000000,-9326.594869,995.924147
341.615388,-666.185348,-9844.739029,1072.533697
341.615715,-1258.350101,-10510.924376,1455.581446
341.616043,-2072.576638,-10732.986159,1225.752797
341.616371,-2368.659014,-10658.965565,1149.143247
341.616698,-2886.803174,-9696.697840,459.657299
341.617026,-2368.659014,-9770.718434,-153.219100
341.617353,-1554.432478,-8882.471304,-229.828649
341.617681,-444.123565,-7920.203579,-689.485948
341.618008,740.205942,-6883.915261,0.000000
341.618336,1702.473667,-7179.997637,0.000000
341.618663,1776.494261,-7402.059420,153.219100
341.618991,1998.556043,-8142.265362,536.266849
341.619319,1924.535449,-8956.491898,919.314598
341.619646,1110.308913,-9178.553681,1838.629195
341.619974,814.226536,-10510.924376,1991.848295
341.620301,0.000000,-11029.068536,1762.019645
341.620629,-666.185348,-11029.068536,1455.581446
341.620956,-1628.453072,-10955.047942,1455.581446
341.621284,-1332.370696,-10362.883188,919.314598
341.621611,-1480.411884,-9548.656652,612.876398
341.621939,-1036.288319,-8438.347739,76.609550
341.622267,-296.082377,-7846.182985,0.000000
341.622594,0.000000,-7476.080014,-229.828649
341.622922,740.205942,-7254.018232,-229.828649
341.623249,666.185348,-7179.997637,459.657299
341.623577,74.020594,-7772.162391,76.609550
341.623904,222.061783,-8660.409521,689.485948
341.624232,74.020594,-9400.615463,1225.752797
341.624559,-666.185348,-10140.821405,1532.190996
341.624887,-592.164754,-10436.903782,1838.629195
341.625215,-2072.576638,-10807.006753,1532.190996
341.625542,-2812.782580,-10510.924376,995.924147
341.625870,-2664.741391,-10436.903782,229.828649
341.626197,-2072.576638,-9474.636058,-153.219100
341.626525,-962.267725,-8216.285956,-153.219100
341.626852,222.061783,-7698.141797,-229.828649
341.627180,962.267725,-7105.977043,0.000000
341.627507,1998.556043,-7179.997637,0.000000
341.627835,1998.556043,-7624.121203,0.000000
341.628162,1776.494261,-8364.327145,536.266849
341.628490,1628.453072,-9252.574275,766.095498
341.628818,1110.308913,-9992.780217,1685.410096
341.629145,444.123565,-10658.965565,2068.457845
341.629473,74.020594,-11325.150913,2221.676944
341.629800,-814.226536,-11325.150913,2298.286494
341.630128,-1628.453072,-10881.027347,766.095498
341.630455,-2220.617826,-10066.800811,1455.581446
341.630783,-1924.535449,-9252.574275,229.828649
341.631110,-1406.391290,-8512.368333,153.219100
341.631438,-814.226536,-7698.141797,-536.266849
341.631766,370.102971,-7402.059420,-306.438199
341.632093,370.102971,-7254.018232,-153.219100
341.632421,296.082377,-7550.100608,-459.657299
341.632748,148.041188,-7994.224174,306.438199
341.633076,-296.082377,-8586.388927,76.609550
341.633403,-370.102971,-9104.533087,1378.971896
341.633731,-666.185348,-9770.718434,1455.581446
341.634058,-1332.370696,-10584.944971,1149.143247
341.634386,-1924.535449,-10732.986159,995.924147
341.634714,-2146.597232,-10436.903782,612.876398
341.635041,-2368.659014,-9918.759623,0.000000
341.635369,-1850.514855,-8956.491898,-229.828649
341.635696,-592.164754,-8512.368333,-842.705048
341.636024,222.061783,-7772.162391,-919.314598
341.636351,1036.288319,-7105.977043,-995.924147
341.636679,1480.411884,-7105.977043,-995.924147
341.637006,1998.556043,-7105.977043,0.000000
341.637334,2368.659014,-8364.327145,0.000000
341.637661,1998.556043,-9178.553681,459.657299
341.637989,1332.370696,-9474.636058,1225.752797
341.638317,888.247130,-10584.944971,1378.971896
341.638644,0.000000,-10436.903782,1455.581446
341.638972,-962.267725,-11029.068536,1455.581446
341.639299,-1480.411884,-10214.842000,459.657299
341.639627,-1480.411884,-10288.862594,459.657299
341.639954,-1332.370696,-8586.388927,76.609550
341.640282,0.000000,-8216.285956,229.828649
341.640609,0.000000,-7254.018232,0.000000
341.640937,148.041188,-7105.977043,-383.047749
341.641265,666.185348,-7476.080014,0.000000
341.641592,740.205942,-7402.059420,0.000000
341.641920,666.185348,-8068.244768,612.876398
341.642247,148.041188,-8364.327145,842.705048
341.642575,-666.185348,-9918.759623,1072.533697
341.642902,0.000000,-10436.903782,1915.238745
341.643230,-2812.782580,-10658.965565,1302.362347
341.643557,-2220.617826,-11251.130318,1685.410096
341.643885,-2960.823768,-10584.944971,995.924147
341.644213,-2960.823768,-9474.636058,842.705048
341.644540,-2072.576638,-9622.677246,-306.438199
341.644868,-592.164754,-7994.224174,-229.828649
341.645195,814.226536,-7624.121203,229.828649
341.645523,1480.411884,-7105.977043,536.266849
341.645850,1628.453072,-6883.915261,383.047749
341.646178,1776.494261,-8438.347739,766.095498
341.646505,1850.514855,-8734.430116,1072.533697
341.646833,1628.453072,-9548.656652,2068.457845
341.647161,592.164754,-10881.027347,2221.676944
341.647488,0.000000,-10288.862594,3064.381992
341.647816,-592.164754,-11473.192101,2145.067394
341.648143,-1628.453072,-10955.047942,1991.848295
341.648471,-1554.432478,-10881.027347,1378.971896
341.648798,-2516.700203,-9548.656652,766.095498
341.649126,-1628.453072,-8808.450710,306.438199
341.649453,-962.267725,-8290.306550,-306.438199
341.649781,0.000000,-7550.100608,-76.609550
341.650108,0.000000,-7402.059420,0.000000
341.650436,592.164754,-6809.894666,153.219100
341.650764,74.020594,-7698.141797,153.219100
341.651091,370.102971,-8586.388927,383.047749
341.651419,0.000000,-8956.491898,1149.143247
341.651746,-1036.288319,-9770.718434,766.095498
341.652074,-888.247130,-11029.068536,1378.971896
341.652401,-1998.556043,-10658.965565,919.314598
341.652729,-2368.659014,-10510.924376,1225.752797
341.653056,-2294.638420,-10066.800811,153.219100
341.653384,-1850.514855,-9474.636058,0.000000
341.653712,-666.185348,-8734.430116,-459.657299
341.654039,148.041188,-7698.141797,-995.924147
341.654367,1850.514855,-7105.977043,229.828649
341.654694,2072.576638,-7105.977043,-306.438199
341.655022,2220.617826,-7772.162391,0.000000
341.655349,2220.617826,-8364.327145,0.000000
341.655677,1924.535449,-8734.430116,383.047749
341.656004,1184.329507,-9400.615463,1225.752797
341.656332,1332.370696,-10436.903782,1608.800546
341.656660,0.000000,-11103.089130,1072.533697
341.656987,-666.185348,-11621.233289,1838.629195
341.657315,-1036.288319,-10732.986159,1149.143247
341.657642,-1776.494261,-9770.718434,1072.533697
341.657970,-1554.432478,-9400.615463,306.438199
341.658297,-962.267725,-8734.430116,-306.438199
341.658625,-518.144159,-7698.141797,-306.438199
341.658952,296.082377,-7254.018232,-383.047749
341.659280,814.226536,-6587.832884,-306.438199
341.659607,962.267725,-7254.018232,0.000000
341.659935,592.164754,-7698.141797,229.828649
341.660263,148.041188,-8290.306550,612.876398
341.660590,-370.102971,-9326.594869,919.314598
341.660918,-518.144159,-9992.780217,1455.581446
341.661245,-1332.370696,-10214.842000,1838.629195
341.661573,-2294.638420,-10955.047942,1532.190996
341.661900,-2886.803174,-10807.006753,842.705048
341.662228,-2590.720797,-10140.821405,459.657299
341.662555,-2294.638420,-9252.574275,0.000000
341.662883,-814.226536,-8364.327145,842.705048
341.663211,370.102971,-7550.100608,76.609550
341.663538,1332.370696,-7105.977043,153.219100
341.663866,1924.535449,-7328.038826,306.438199
341.664193,1628.453072,-7772.162391,536.266849
341.664521,1258.350101,-8438.347739,1302.362347
341.664848,1184.329507,-9400.615463,1685.410096
341.665176,888.247130,-9844.739029,1762.019645
341.665503,296.082377,-10658.965565,2374.896044
341.665831,-444.123565,-10955.047942,1838.629195
341.666159,-1110.308913,-10955.047942,1532.190996
341.666486,-1332.370696,-10881.027347,842.705048
341.666814,-2072.576638,-10066.800811,766.095498
341.667141,-2220.617826,-8956.491898,229.828649
341.667469,-1554.432478,-8438.347739,0.000000
341.667796,-888.247130,-7550.100608,-383.047749
341.668124,222.061783,-7179.997637,-229.828649
341.668451,370.102971,-7105.977043,-229.828649
341.668779,222.061783,-7328.038826,-306.438199
341.669107,0.000000,-8068.244768,0.000000
341.669434,0.000000,-8956.491898,306.438199
341.669762,-222.061783,-9400.615463,0.000000
341.670089,-888.247130,-9992.780217,995.924147
341.670417,-962.267725,-10807.006753,1378.971896
341.670744,-1702.473667,-10955.047942,1072.533697
341.671072,-1850.514855,-10807.006753,766.095498
341.671399,-2220.617826,-9696.697840,306.438199
341.671727,-1332.370696,-9178.553681,-536.266849
341.672054,-148.041188,-8438.347739,-612.876398
341.672382,814.226536,-7772.162391,-459.657299
341.672710,1554.432478,-7624.121203,-383.047749
341.673037,2516.700203,-7476.080014,-153.219100
341.673365,2294.638420,-7698.141797,0.000000
341.673692,1998.556043,-8882.471304,229.828649
341.674020,1332.370696,-9474.636058,766.095498
341.674347,888.247130,-10214.842000,1455.581446
341.674675,296.082377,-10732.986159,1762.019645
341.675002,-666.185348,-11029.068536,1532.190996
341.675330,-1332.370696,-10807.006753,1608.800546
341.675658,-1480.411884,-10140.821405,919.314598
341.675985,-1850.514855,-9548.656652,612.876398
341.676313,-1850.514855,-8956.491898,0.000000
341.676640,-1036.288319,-8068.244768,-229.828649
341.676968,-222.061783,-7105.977043,-459.657299
341.677295,74.020594,-7031.956449,-536.266849
341.677623,74.020594,-6883.915261,-229.828649
341.677950,296.082377,-7402.059420,0.000000
341.678278,0.000000,-7402.059420,229.828649
341.678606,222.061783,-9030.512492,1072.533697
341.678933,-296.082377,-9548.656652,1149.143247
341.679261,-888.247130,-10288.862594,1455.581446
341.679588,-1702.473667,-10955.047942,1378.971896
341.679916,-2294.638420,-10732.986159,1302.362347
341.680243,-2442.679609,-10362.883188,1072.533697
341.680571,-1998.556043,-9474.636058,306.438199
341.680898,-962.267725,-8512.368333,76.609550
341.681226,222.061783,-7550.100608,76.609550
341.681553,1406.391290,-7254.018232,229.828649
341.681881,2072.576638,-6883.915261,766.095498
341.682209,2294.638420,-7402.059420,766.095498
341.682536,1702.473667,-8142.265362,1302.362347
341.682864,1258.350101,-9030.512492,1762.019645
341.683191,666.185348,-9918.759623,1838.629195
341.683519,-148.041188,-9770.718434,2145.067394
341.683846,0.000000,-10955.047942,2528.115143
341.684174,-1036.288319,-11103.089130,2221.676944
341.684501,-1924.535449,-11177.109724,1762.019645
341.684829,-2516.700203,-10288.862594,1072.533697
341.685156,-2294.638420,-9474.636058,536.266849
341.685484,-2294.638420,-8586.388927,-229.828649
341.685811,-1776.494261,-7994.224174,-689.485948
341.686139,-962.267725,-7402.059420,-612.876398
341.686466,-370.102971,-7031.956449,-766.095498
341.686794,222.061783,-7254.018232,0.000000
341.687121,0.000000,-7328.038826,153.219100
341.687449,0.000000,-8438.347739,306.438199
341.687776,-148.041188,-9326.594869,612.876398
341.688104,-518.144159,-9992.780217,842.705048
341.688431,-518.144159,-10658.965565,1149.143247
341.688759,-962.267725,-10658.965565,995.924147
341.689086,-1628.453072,-10584.944971,766.095498
341.689414,-1628.453072,-10658.965565,306.438199
341.689741,-1480.411884,-9918.759623,-306.438199
341.690069,-518.144159,-9030.512492,-459.657299
341.690396,814.226536,-8216.285956,-689.485948
341.690724,1924.535449,-7402.059420,-612.876398
341.691051,2146.597232,-7772.162391,-459.657299
341.691379,2368.659014,-7994.224174,0.000000
341.691706,2368.659014,-8364.327145,153.219100
341.692034,1924.535449,-8734.430116,536.266849
341.692361,1702.473667,-9918.759623,1762.019645
341.692689,814.226536,-10732.986159,1302.362347
341.693016,-370.102971,-11029.068536,1532.190996
341.693344,-962.267725,-10881.027347,1149.143247
341.693671,-1702.473667,-10658.965565,1072.533697
341.693999,-2368.659014,-10066.800811,536.266849
341.694326,-1998.556043,-9252.574275,229.828649
341.694653,-1998.556043,-8364.327145,-153.219100
341.694981,-888.247130,-7550.100608,-383.047749
341.695308,-222.061783,-7254.018232,-536.266849
341.695636,222.061783,-6883.915261,-1072.533697
341.695963,444.123565,-7031.956449,0.000000
341.696291,740.205942,-7920.203579,153.219100
341.696618,296.082377,-8438.347739,459.657299
341.696946,0.000000,-9326.594869,995.924147
341.697273,-444.123565,-9770.718434,1608.800546
341.697601,-1480.411884,-10584.944971,1991.848295
341.697928,-1924.535449,-11251.130318,1455.581446
341.698256,-2368.659014,-10881.027347,1149.143247
341.698583,-2294.638420,-10288.862594,919.314598
341.698911,-1332.370696,-9252.574275,689.485948
341.699238,-370.102971,-7994.224174,766.095498
341.699566,1036.288319,-7402.059420,383.047749
341.699893,1776.494261,-7179.997637,612.876398
341.700221,1998.556043,-7179.997637,766.095498
341.700548,2220.617826,-7846.182985,1149.143247
341.700876,1480.411884,-7846.182985,1838.629195
341.701203,1110.308913,-9104.533087,1915.238745
341.701531,592.164754,-9770.718434,2374.896044
341.701858,222.061783,-10214.842000,2528.115143
341.702186,-962.267725,-10955.047942,2681.334243
341.702513,-1406.391290,-10584.944971,1991.848295
341.702841,-2516.700203,-10362.883188,1762.019645
341.703168,-2812.782580,-9770.718434,689.485948
341.703496,-2590.720797,-8956.491898,306.438199
341.703823,-2220.617826,-8142.265362,-306.438199
341.704151,-962.267725,-7550.100608,-76.609550
341.704478,-296.082377,-6883.915261,-306.438199
341.704806,-148.041188,-7105.977043,-229.828649
341.705133,0.000000,-7402.059420,-306.438199
341.705461,0.000000,-8142.265362,0.000000
341.705788,-74.020594,-9178.553681,383.047749
341.706116,-518.144159,-9548.656652,612.876398
341.706443,-888.247130,-10510.924376,995.924147
341.706771,-1110.308913,-11251.130318,995.924147
341.707098,-1554.432478,-11325.150913,612.876398
341.707425,-1924.535449,-10807.006753,383.047749
341.707753,-1406.391290,-9992.780217,-153.219100
341.708080,-740.205942,-9548.656652,-459.657299
341.708408,0.000000,-8660.409521,-689.485948
341.708735,1184.329507,-8068.244768,-995.924147
341.709063,2368.659014,-7698.141797,-1072.533697
341.709390,2442.679609,-7624.121203,229.828649
341.709718,3182.885551,-8660.409521,-459.657299
341.710045,2590.720797,-8882.471304,0.000000
341.710373,2072.576638,-9474.636058,689.485948
341.710700,1554.432478,-10584.944971,1225.752797
341.711028,1110.308913,-11029.068536,1685.410096
341.711355,0.000000,-11103.089130,1762.019645
341.711683,-1036.288319,-11177.109724,1532.190996
341.712010,-1850.514855,-10510.924376,766.095498
341.712338,-1924.535449,-9770.718434,153.219100
341.712665,-2072.576638,-8882.471304,-536.266849
341.712993,-1332.370696,-7920.203579,-1378.971896
341.713320,-666.185348,-7254.018232,-766.095498
341.713648,74.020594,-6957.935855,-459.657299
341.713975,666.185348,-6809.894666,-459.657299
341.714303,666.185348,-7105.977043,0.000000
341.714630,962.267725,-7550.100608,689.485948
341.714958,222.061783,-8808.450710,1072.533697
341.715285,-370.102971,-9474.636058,1455.581446
341.715613,-1184.329507,-10214.842000,1915.238745
341.715940,-1998.556043,-10658.965565,1838.629195
341.716268,-2294.638420,-11177.109724,2298.286494
341.716595,-2516.700203,-10288.862594,1072.533697
341.716923,-2072.576638,-9622.677246,612.876398
341.717250,-962.267725,-8438.347739,383.047749
341.717578,296.082377,-7846.182985,612.876398
341.717905,1258.350101,-6883.915261,766.095498
341.718233,1776.494261,-7105.977043,919.314598
341.718560,1998.556043,-7254.018232,766.095498
341.718888,1554.432478,-8142.265362,1532.190996
341.719215,1036.288319,-8734.430116,1532.190996
341.719543,444.123565,-9622.677246,1762.019645
341.719870,370.102971,-10214.842000,2681.334243
341.720197,-296.082377,-10584.944971,2374.896044
341.720525,-1702.473667,-11029.068536,2604.724693
341.720852,-2294.638420,-10658.965565,1608.800546
341.721180,-2664.741391,-10362.883188,1149.143247
341.721507,-2812.782580,-9326.594869,-229.828649
341.721835,-2220.617826,-8660.409521,-229.828649
341.722162,-1628.453072,-7846.182985,-536.266849
341.722490,-666.185348,-7179.997637,-612.876398
341.722817,74.020594,-7105.977043,-766.095498
341.723145,296.082377,-7254.018232,-766.095498
341.723472,444.123565,-7846.182985,0.000000
341.723800,0.000000,-8734.430116,306.438199
341.724127,74.020594,-9622.677246,306.438199
341.724455,-370.102971,-10288.862594,995.924147
341.724782,-518.144159,-11103.089130,1455.581446
341.725110,-1480.411884,-11251.130318,1225.752797
341.725437,-1258.350101,-11251.130318,536.266849
341.725765,-1776.494261,-11103.089130,229.828649
341.726092,-1110.308913,-10140.821405,-153.219100
341.726420,-444.123565,-9104.533087,-689.485948
341.726747,444.123565,-8068.244768,-842.705048
341.727075,1850.514855,-7846.182985,-1072.533697
341.727402,2220.617826,-7402.059420,-612.876398
341.727730,2442.679609,-7846.182985,-383.047749
341.728057,2368.659014,-8364.327145,229.828649
341.728385,2368.659014,-9622.677246,306.438199
341.728712,1110.308913,-9992.780217,842.705048
341.729040,814.226536,-10362.883188,1302.362347
341.729367,0.000000,-11177.109724,1532.190996
341.729695,-1036.288319,-11029.068536,1225.752797
341.730022,-1702.473667,-11251.130318,995.924147
341.730350,-2072.576638,-9918.759623,383.047749
341.730677,-2294.638420,-9400.615463,0.000000
341.731005,-1628.453072,-8586.388927,-229.828649
341.731332,-1110.308913,-7846.182985,-459.657299
341.731660,-222.061783,-6883.915261,-536.266849
341.731987,518.144159,-6513.812290,-306.438199
341.732315,518.144159,-6661.853478,0.000000
341.732642,592.164754,-7328.038826,153.219100
341.732969,444.123565,-8142.265362,766.095498
341.733297,444.123565,-9104.533087,1225.752797
341.733624,-518.144159,-9622.677246,2451.505594
341.733952,-1258.350101,-10436.903782,1762.019645
341.734279,-2072.576638,-10807.006753,1762.019645
341.734607,-2368.659014,-10584.944971,1225.752797
341.734934,-2368.659014,-9844.739029,1072.533697
341.735262,-1332.370696,-9178.553681,612.876398
341.735589,-222.061783,-7846.182985,689.485948
341.735917,1036.288319,-7550.100608,612.876398
341.736244,1554.432478,-7105.977043,536.266849
341.736572,2072.576638,-7031.956449,689.485948
341.736899,2294.638420,-7772.162391,1532.190996
341.737227,1480.411884,-8216.285956,1072.533697
341.737554,666.185348,-9252.574275,1532.190996
341.737882,296.082377,-9844.739029,2374.896044
341.738209,0.000000,-10362.883188,2451.505594
341.738537,-1258.350101,-10881.027347,2298.286494
341.738864,-1258.350101,-11177.109724,1838.629195
341.739192,-2516.700203,-10436.903782,1608.800546
341.739519,-2812.782580,-9548.656652,689.485948
341.739847,-2368.659014,-9104.533087,0.000000
341.740174,-1998.556043,-8290.306550,-383.047749
341.740502,-888.247130,-7328.038826,-536.266849
341.740829,-296.082377,-7105.977043,-536.266849
341.741157,0.000000,-7105.977043,-459.657299
341.741484,0.000000,-7550.100608,-153.219100
341.741812,-222.061783,-8290.306550,0.000000
341.742139,-296.082377,-9178.553681,0.000000
341.742467,0.000000,-9474.636058,1072.533697
341.742794,-148.041188,-10510.924376,1225.752797
341.743122,-888.247130,-10955.047942,1302.362347
341.743449,-1332.370696,-11325.150913,919.314598
341.743777,-1776.494261,-10881.027347,383.047749
341.744104,-1406.391290,-10214.842000,229.828649
341.744432,-962.267725,-9548.656652,-536.266849
341.744759,0.000000,-8660.409521,-689.485948
341.745086,1258.350101,-7846.182985,-689.485948
341.745414,2146.597232,-7476.080014,0.000000
341.745741,2812.782580,-7698.141797,-306.438199
341.746069,2368.659014,-7994.224174,0.000000
341.746396,2072.576638,-8586.388927,76.609550
341.746724,1554.432478,-9474.636058,842.705048
341.747051,1036.288319,-10066.800811,1072.533697
341.747379,74.020594,-10436.903782,1762.019645
341.747706,-814.226536,-10732.986159,1532.190996
341.748034,-1258.350101,-10807.006753,1685.410096
341.748361,-1924.535449,-10436.903782,995.924147
341.748689,-2294.638420,-9696.697840,383.047749
341.749016,-2146.597232,-8660.409521,153.219100
341.749344,-740.205942,-8364.327145,-459.657299
341.749671,-592.164754,-7476.080014,-995.924147
341.749999,0.000000,-6957.935855,-995.924147
341.750326,74.020594,-6735.874072,-612.876398
341.750654,740.205942,-7105.977043,76.609550
