#time,accel_x,accel_y,accel_z
465.810393,-148.041188,-9104.533087,919.314598
465.810721,0.000000,-9252.574275,459.657299
465.811049,-370.102971,-9178.553681,689.485948
465.811377,-444.123565,-9104.533087,612.876398
465.811705,-444.123565,-8808.450710,612.876398
465.812033,-666.185348,-9030.512492,919.314598
465.812361,0.000000,-9104.533087,536.266849
465.812689,-148.041188,-9178.553681,536.266849
465.813017,-222.061783,-9178.553681,459.657299
465.813345,-296.082377,-9104.533087,536.266849
465.813673,-222.061783,-9030.512492,766.095498
465.814001,-370.102971,-8882.471304,612.876398
465.814329,0.000000,-9104.533087,459.657299
465.814657,-148.041188,-9104.533087,536.266849
465.814985,-296.082377,-9030.512492,536.266849
465.815313,-370.102971,-9326.594869,612.876398
465.815641,-222.061783,-9252.574275,383.047749
465.815969,-296.082377,-9178.553681,306.438199
465.816297,-222.061783,-9400.615463,306.438199
465.816625,-222.061783,-9178.553681,383.047749
465.816953,-370.102971,-9104.533087,383.047749
465.817281,0.000000,-9030.512492,612.876398
465.817609,-148.041188,-9178.553681,612.876398
465.817937,-296.082377,-9178.553681,459.657299
465.818265,-148.041188,-9326.594869,612.876398
465.818593,-148.041188,-9030.512492,536.266849
465.818921,0.000000,-8956.491898,536.266849
465.819249,0.000000,-9178.553681,536.266849
465.819577,-222.061783,-9252.574275,459.657299
465.819905,-370.102971,-9104.533087,306.438199
465.820233,-444.123565,-9104.533087,383.047749
465.820561,-666.185348,-9770.718434,-153.219100
465.820889,-1258.350101,-9548.656652,-229.828649
465.821217,-1406.391290,-9474.636058,0.000000
465.821545,-1036.288319,-9252.574275,-383.047749
465.821873,-740.205942,-8956.491898,-536.266849
465.822201,-148.041188,-9326.594869,-842.705048
465.822529,-666.185348,-8660.409521,-383.047749
465.822858,-962.267725,-9178.553681,-766.095498
465.823186,-1110.308913,-9104.533087,-1378.971896
465.823514,-1258.350101,-9178.553681,-1225.752797
465.823842,-1184.329507,-8808.450710,-1532.190996
465.824170,-740.205942,-9252.574275,-1302.362347
465.824498,-296.082377,-9178.553681,-1225.752797
465.824826,-148.041188,-9104.533087,-1225.752797
465.825154,148.041188,-9178.553681,-1608.800546
465.825482,0.000000,-9474.636058,-1532.190996
465.825810,0.000000,-9104.533087,-1378.971896
465.826138,148.041188,-9178.553681,-1685.410096
465.826466,296.082377,-9178.553681,-2221.676944
465.826794,74.020594,-9326.594869,-1685.410096
465.827122,148.041188,-9474.636058,-1915.238745
465.827450,296.082377,-9178.553681,-1685.410096
465.827778,148.041188,-9104.533087,-1608.800546
465.828106,444.123565,-9252.574275,-1838.629195
465.828434,74.020594,-9400.615463,-1915.238745
465.828762,148.041188,-9326.594869,-2068.457845
465.829090,148.041188,-9104.533087,-2145.067394
465.829418,74.020594,-9252.574275,-1608.800546
465.829746,0.000000,-9400.615463,-1915.238745
465.830074,-222.061783,-9252.574275,-1762.019645
465.830402,-444.123565,-9030.512492,-1915.238745
465.830730,-666.185348,-8882.471304,-1915.238745
465.831058,-814.226536,-9326.594869,-2298.286494
465.831386,-1184.329507,-9252.574275,-2298.286494
465.831714,-1184.329507,-9178.553681,-2604.724693
465.832042,-1776.494261,-9030.512492,-2681.334243
465.832370,-1850.514855,-8956.491898,-2987.772442
465.832698,-1332.370696,-9178.553681,-3217.601092
465.833026,-1628.453072,-9104.533087,-3217.601092
465.833354,-1998.556043,-8808.450710,-3677.258390
465.833682,-1924.535449,-9104.533087,-3907.087040
465.834010,-1998.556043,-8956.491898,-3907.087040
465.834338,-1628.453072,-8734.430116,-3753.867940
465.834666,-962.267725,-8438.347739,-3600.648841
465.834994,-296.082377,-9104.533087,-3524.039291
465.835322,148.041188,-8882.471304,-3600.648841
465.835650,888.247130,-8882.471304,-2834.553343
465.835978,1110.308913,-8586.388927,-2528.115143
465.836306,2072.576638,-8512.368333,-2451.505594
465.836634,2146.597232,-9252.574275,-2145.067394
465.836962,1702.473667,-9474.636058,-2145.067394
465.837290,962.267725,-9918.759623,-2298.286494
465.837618,592.164754,-10288.862594,-2604.724693
465.837946,-888.247130,-9992.780217,-3294.210641
465.838274,-1554.432478,-10288.862594,-3983.696590
465.838602,-1998.556043,-9844.739029,-4366.744339
465.838930,-2146.597232,-9548.656652,-4826.401637
465.839258,-518.144159,-8882.471304,-4826.401637
465.839586,962.267725,-7772.162391,-4213.525239
465.839914,1924.535449,-7476.080014,-3600.648841
465.840242,2812.782580,-7254.018232,-2987.772442
465.840570,2960.823768,-7698.141797,-2374.896044
465.840898,1628.453072,-8438.347739,-2145.067394
465.841226,0.000000,-9326.594869,-2145.067394
465.841554,-2220.617826,-10436.903782,-2298.286494
465.841882,-3404.947333,-11103.089130,-2451.505594
465.842210,-3775.050304,-10955.047942,-2528.115143
465.842538,-1924.535449,-9844.739029,-2298.286494
465.842866,2738.761985,-7698.141797,-689.485948
465.843194,7624.121203,-5699.585753,1762.019645
465.843522,10140.821405,-5403.503377,3600.648841
465.843850,9400.615463,-6735.874072,4213.525239
465.844178,5181.441594,-9030.512492,3524.039291
465.844506,-740.205942,-11029.068536,1302.362347
465.844834,-6809.894666,-12509.480420,-536.266849
465.845162,-10288.862594,-14137.933492,-1915.238745
465.845490,-11843.295072,-13989.892304,-3524.039291
465.845818,-10732.986159,-12213.398043,-3753.867940
465.846146,-7994.224174,-9548.656652,-4290.134789
465.846474,-2886.803174,-7476.080014,-2681.334243
465.846802,-1258.350101,-4367.215058,-4136.915689
465.847130,1258.350101,-4441.235652,-3600.648841
465.847458,-2146.597232,-5921.647536,-5286.058936
465.847786,-4737.318029,-7105.977043,-6128.763984
465.848114,-9992.780217,-9104.533087,-7967.393179
465.848442,-11399.171507,-9918.759623,-9499.584175
465.848770,-9030.512492,-9918.759623,-7737.564530
465.849098,-5477.523971,-8586.388927,-6281.983084
465.849426,2368.659014,-7476.080014,-4596.572988
465.849754,6661.853478,-6735.874072,-2834.553343
465.850082,9252.574275,-7254.018232,-2298.286494
465.850410,8438.347739,-9548.656652,-3140.991542
465.850738,4885.359217,-10955.047942,-4673.182538
465.851066,4219.173869,-11621.233289,-5132.839837
465.851394,6217.729913,-11177.109724,-4903.011187
465.851722,9992.780217,-8586.388927,-2298.286494
465.852050,14211.954086,-9030.512492,536.266849
465.852378,13841.851115,-9548.656652,2221.676944
465.852706,10658.965565,-10140.821405,1455.581446
465.853035,7772.162391,-11251.130318,842.705048
465.853363,5625.565159,-11473.192101,-459.657299
465.853691,3182.885551,-11251.130318,-153.219100
465.854019,4367.215058,-11769.274478,0.000000
465.854347,1480.411884,-10658.965565,1225.752797
465.854675,-1776.494261,-11251.130318,1072.533697
465.855003,-6883.915261,-10436.903782,-995.924147
465.855331,-11917.315666,-8956.491898,-2374.896044
465.855659,-14804.118840,-7105.977043,-5362.668486
465.855987,-12583.501014,-4737.318029,-5898.935335
465.856315,-7846.182985,-2960.823768,-5669.106685
465.856643,-4589.276840,-2368.659014,-3064.381992
465.856971,-1480.411884,-2294.638420,-1915.238745
465.857299,-888.247130,-3701.029710,-766.095498
465.857627,-2368.659014,-4737.318029,229.828649
465.857955,-1776.494261,-6069.688724,1378.971896
465.858283,-2738.761985,-8512.368333,2068.457845
465.858611,-3034.844362,-10288.862594,3447.429741
465.858939,-3256.906145,-12213.398043,4519.963438
465.859267,-1776.494261,-13027.624579,6281.983084
465.859595,1628.453072,-12065.356855,6818.249932
465.859923,5699.585753,-10807.006753,7354.516781
465.860251,7920.203579,-10955.047942,7354.516781
465.860579,6735.874072,-11325.150913,6205.373534
465.860907,3552.988522,-11399.171507,4366.744339
465.861235,1184.329507,-10807.006753,2987.772442
465.861563,222.061783,-9770.718434,2451.505594
465.861891,-444.123565,-9400.615463,766.095498
465.862219,-296.082377,-9326.594869,2834.553343
465.862547,1628.453072,-9104.533087,3140.991542
465.862875,-3256.906145,-11843.295072,2451.505594
465.863203,-6069.688724,-10732.986159,1072.533697
465.863531,-7698.141797,-10732.986159,153.219100
465.863859,-7031.956449,-10288.862594,-689.485948
465.864187,-6217.729913,-8734.430116,-919.314598
465.864515,-3849.070898,-6957.935855,153.219100
465.864843,-4145.153275,-6587.832884,-306.438199
465.865171,-3404.947333,-7105.977043,0.000000
465.865499,-3923.091493,-7624.121203,-1302.362347
465.865827,-4811.338623,-8512.368333,-3140.991542
465.866155,-1406.391290,-8364.327145,-3294.210641
465.866483,0.000000,-9030.512492,-3217.601092
465.866811,1480.411884,-9770.718434,-2221.676944
465.867139,1480.411884,-9622.677246,-1532.190996
465.867467,2442.679609,-11769.274478,-1455.581446
465.867795,4145.153275,-11473.192101,-1302.362347
465.868123,5477.523971,-10362.883188,-1149.143247
465.868451,7031.956449,-11029.068536,229.828649
465.868779,6957.935855,-11399.171507,1455.581446
465.869107,4959.379811,-11399.171507,766.095498
465.869435,3478.967927,-12435.459826,1455.581446
465.869763,3108.864956,-11547.212695,842.705048
465.870090,3997.112087,-9474.636058,612.876398
465.870418,5773.606348,-8512.368333,1378.971896
465.870746,4515.256246,-6957.935855,-612.876398
465.871074,2368.659014,-7920.203579,1302.362347
465.871402,2072.576638,-7254.018232,612.876398
465.871730,-370.102971,-8068.244768,0.000000
465.872058,-1110.308913,-5995.668130,0.000000
465.872385,74.020594,-7105.977043,0.000000
465.872713,-518.144159,-6809.894666,459.657299
465.873041,-3108.864956,-8290.306550,76.609550
465.873369,-4811.338623,-8660.409521,0.000000
465.873697,-8142.265362,-9178.553681,-842.705048
465.874025,-7550.100608,-8512.368333,-1149.143247
465.874353,-6513.812290,-7846.182985,-995.924147
465.874680,-4885.359217,-7402.059420,-1149.143247
465.875008,-3701.029710,-7698.141797,-536.266849
465.875336,-3849.070898,-7772.162391,-459.657299
465.875664,-3182.885551,-7402.059420,-612.876398
465.875992,-1850.514855,-6809.894666,0.000000
465.876320,444.123565,-6957.935855,153.219100
465.876648,2294.638420,-6957.935855,1225.752797
465.876976,2886.803174,-7698.141797,2834.553343
465.877303,1776.494261,-8142.265362,2911.162892
465.877631,1184.329507,-9400.615463,3524.039291
465.877959,962.267725,-9844.739029,2987.772442
465.878287,2368.659014,-9918.759623,2757.943793
465.878615,3775.050304,-9844.739029,3600.648841
465.878943,3404.947333,-9844.739029,3370.820191
465.879271,2442.679609,-9844.739029,3140.991542
465.879598,888.247130,-10066.800811,2451.505594
465.879926,1702.473667,-9178.553681,2451.505594
465.880254,3775.050304,-9030.512492,3217.601092
465.880582,1998.556043,-8734.430116,1225.752797
465.880910,370.102971,-10214.842000,2451.505594
465.881238,-1406.391290,-8956.491898,1915.238745
465.881566,-5403.503377,-11547.212695,919.314598
465.881893,-5625.565159,-11103.089130,-383.047749
465.882221,-4293.194464,-10436.903782,-1378.971896
465.882549,-4071.132681,-9548.656652,-842.705048
465.882877,-1628.453072,-8734.430116,-536.266849
465.883205,-3256.906145,-9252.574275,-459.657299
465.883533,-4293.194464,-9400.615463,-612.876398
465.883861,-3701.029710,-8216.285956,-1378.971896
465.884188,-3256.906145,-7994.224174,-1225.752797
465.884516,-222.061783,-7105.977043,-1072.533697
465.884844,1776.494261,-6883.915261,-689.485948
465.885172,1998.556043,-7920.203579,459.657299
465.885500,1628.453072,-9474.636058,766.095498
465.885828,296.082377,-9992.780217,689.485948
465.886156,148.041188,-10214.842000,689.485948
465.886483,1480.411884,-10584.944971,383.047749
465.886811,3108.864956,-10807.006753,689.485948
465.887139,3478.967927,-11399.171507,1149.143247
465.887467,2738.761985,-11695.253884,1455.581446
465.887795,1850.514855,-11843.295072,1608.800546
465.888123,1776.494261,-11251.130318,689.485948
465.888451,2368.659014,-9918.759623,766.095498
465.888778,3108.864956,-9252.574275,1149.143247
465.889106,3034.844362,-9104.533087,1532.190996
465.889434,-222.061783,-9474.636058,536.266849
465.889762,-1184.329507,-9918.759623,919.314598
465.890090,-2664.741391,-8290.306550,76.609550
465.890418,-3330.926739,-8438.347739,229.828649
465.890746,-1480.411884,-7624.121203,-383.047749
465.891073,-1184.329507,-7328.038826,306.438199
465.891401,-2442.679609,-8068.244768,536.266849
465.891729,-3404.947333,-7328.038826,-153.219100
465.892057,-4293.194464,-7328.038826,-766.095498
465.892385,-3108.864956,-6809.894666,-689.485948
465.892713,-148.041188,-6143.709319,-689.485948
465.893041,222.061783,-6809.894666,766.095498
465.893368,962.267725,-7105.977043,1072.533697
465.893696,-370.102971,-8808.450710,1608.800546
465.894024,-1998.556043,-9474.636058,995.924147
465.894352,-1332.370696,-9770.718434,306.438199
465.894680,148.041188,-9474.636058,536.266849
465.895008,1036.288319,-9400.615463,689.485948
465.895336,1776.494261,-9770.718434,1608.800546
465.895663,1110.308913,-9844.739029,2221.676944
465.895991,74.020594,-9770.718434,1762.019645
465.896319,592.164754,-9030.512492,1302.362347
465.896647,1480.411884,-8438.347739,1378.971896
465.896975,2294.638420,-8068.244768,1532.190996
465.897303,1776.494261,-8660.409521,1991.848295
465.897631,0.000000,-8808.450710,2145.067394
465.897958,-1184.329507,-9400.615463,2068.457845
465.898286,-2146.597232,-8808.450710,1915.238745
465.898614,-1776.494261,-8808.450710,0.000000
465.898942,-444.123565,-8512.368333,1149.143247
465.899270,-222.061783,-7772.162391,766.095498
465.899598,-1924.535449,-9326.594869,919.314598
465.899926,-3034.844362,-9326.594869,229.828649
465.900253,-2368.659014,-9178.553681,-306.438199
465.900581,-2368.659014,-8734.430116,-1225.752797
465.900909,740.205942,-7920.203579,-612.876398
465.901237,1184.329507,-8290.306550,0.000000
465.901565,1184.329507,-9104.533087,612.876398
465.901893,148.041188,-9918.759623,153.219100
465.902221,-2368.659014,-10955.047942,-229.828649
465.902548,-2368.659014,-10955.047942,-1072.533697
465.902876,-814.226536,-10658.965565,-766.095498
465.903204,222.061783,-9918.759623,153.219100
465.903532,1110.308913,-9622.677246,612.876398
465.903860,888.247130,-10214.842000,919.314598
465.904188,444.123565,-9844.739029,612.876398
465.904516,370.102971,-9326.594869,0.000000
465.904843,1036.288319,-8808.450710,-153.219100
465.905171,2072.576638,-8660.409521,536.266849
465.905499,1924.535449,-9030.512492,612.876398
465.905827,814.226536,-9770.718434,689.485948
465.906155,-740.205942,-10658.965565,689.485948
465.906483,-1480.411884,-10436.903782,76.609550
465.906811,-592.164754,-9548.656652,76.609550
465.907139,814.226536,-8882.471304,0.000000
465.907466,148.041188,-9252.574275,0.000000
465.907794,-444.123565,-9992.780217,766.095498
465.908122,-2072.576638,-9474.636058,0.000000
465.908450,-2368.659014,-9474.636058,229.828649
465.908778,-1258.350101,-7698.141797,-689.485948
465.909106,1628.453072,-7402.059420,-153.219100
465.909434,1924.535449,-7772.162391,612.876398
465.909761,1998.556043,-8142.265362,1608.800546
465.910089,0.000000,-9474.636058,1608.800546
465.910417,-2146.597232,-9474.636058,766.095498
465.910745,-2442.679609,-9104.533087,76.609550
465.911073,-962.267725,-9030.512492,153.219100
465.911401,370.102971,-8734.430116,842.705048
465.911729,814.226536,-8734.430116,1532.190996
465.912056,-592.164754,-8956.491898,1762.019645
465.912384,-518.144159,-8660.409521,1225.752797
465.912712,-370.102971,-8660.409521,1072.533697
465.913040,962.267725,-7624.121203,919.314598
465.913368,1850.514855,-7772.162391,1072.533697
465.913696,1406.391290,-8216.285956,1532.190996
465.914024,-444.123565,-9400.615463,1685.410096
465.914351,-1924.535449,-10066.800811,1838.629195
465.914679,-2516.700203,-10066.800811,1532.190996
465.915007,-1628.453072,-9548.656652,1225.752797
465.915335,-444.123565,-9474.636058,612.876398
465.915663,-592.164754,-8882.471304,1455.581446
465.915991,-1924.535449,-9400.615463,1225.752797
465.916319,-2368.659014,-9104.533087,459.657299
465.916646,-3108.864956,-8660.409521,-229.828649
465.916974,-1110.308913,-7254.018232,-612.876398
465.917302,1332.370696,-6587.832884,0.000000
465.917630,1776.494261,-6513.812290,1072.533697
465.917958,814.226536,-7105.977043,1225.752797
465.918286,-1332.370696,-8956.491898,919.314598
465.918614,-2886.803174,-9548.656652,0.000000
465.918941,-2664.741391,-9474.636058,-229.828649
465.919269,-1110.308913,-9252.574275,76.609550
465.919597,222.061783,-9474.636058,383.047749
465.919925,888.247130,-9918.759623,1455.581446
465.920253,0.000000,-10362.883188,842.705048
465.920581,-962.267725,-9844.739029,459.657299
465.920909,-444.123565,-9400.615463,76.609550
465.921236,962.267725,-9104.533087,-153.219100
465.921564,1924.535449,-8512.368333,0.000000
465.921892,2368.659014,-9400.615463,612.876398
465.922220,1332.370696,-9992.780217,1149.143247
465.922548,0.000000,-10066.800811,766.095498
465.922876,-740.205942,-10288.862594,0.000000
465.923204,0.000000,-9696.697840,-153.219100
465.923531,666.185348,-9326.594869,76.609550
465.923859,222.061783,-9622.677246,459.657299
465.924187,-370.102971,-9548.656652,153.219100
465.924515,-2146.597232,-9474.636058,459.657299
465.924843,-1924.535449,-9178.553681,0.000000
465.925171,-222.061783,-8438.347739,-306.438199
465.925499,1850.514855,-7550.100608,229.828649
465.925826,2664.741391,-8068.244768,1455.581446
465.926154,1110.308913,-7994.224174,1225.752797
465.926482,-1110.308913,-9400.615463,919.314598
465.926810,-2146.597232,-9696.697840,0.000000
465.927138,-1998.556043,-9474.636058,-612.876398
465.927466,-296.082377,-9400.615463,0.000000
465.927794,1184.329507,-8882.471304,76.609550
465.928121,370.102971,-9400.615463,689.485948
465.928449,-962.267725,-9918.759623,689.485948
465.928777,-1776.494261,-9918.759623,306.438199
465.929105,-1554.432478,-9474.636058,76.609550
465.929433,296.082377,-8734.430116,0.000000
465.929761,1332.370696,-8660.409521,459.657299
465.930089,1184.329507,-9178.553681,1149.143247
465.930416,74.020594,-9770.718434,1378.971896
465.930744,-1184.329507,-10214.842000,689.485948
465.931072,-1332.370696,-9844.739029,0.000000
465.931400,-148.041188,-9104.533087,76.609550
465.931728,1184.329507,-8512.368333,689.485948
465.932056,1184.329507,-8438.347739,1072.533697
465.932384,370.102971,-9252.574275,1455.581446
465.932711,-370.102971,-9178.553681,1072.533697
465.933039,-666.185348,-8882.471304,995.924147
465.933367,592.164754,-8438.347739,689.485948
465.933695,1924.535449,-7846.182985,1149.143247
465.934023,1998.556043,-8512.368333,1532.190996
465.934351,444.123565,-9400.615463,1762.019645
465.934679,-1258.350101,-9992.780217,1225.752797
465.935006,-2886.803174,-9992.780217,612.876398
465.935334,-2146.597232,-9622.677246,153.219100
465.935662,-740.205942,-9104.533087,383.047749
465.935990,74.020594,-8882.471304,842.705048
465.936318,-222.061783,-8956.491898,1685.410096
465.936646,-1924.535449,-9326.594869,1149.143247
465.936974,-2664.741391,-8956.491898,536.266849
465.937302,-2664.741391,-8364.327145,0.000000
465.937629,-1406.391290,-7846.182985,0.000000
465.937957,74.020594,-7846.182985,842.705048
465.938285,-518.144159,-8364.327145,689.485948
465.938613,-2146.597232,-8956.491898,919.314598
465.938941,-3034.844362,-9474.636058,536.266849
465.939269,-2664.741391,-9252.574275,-306.438199
465.939597,-1258.350101,-8512.368333,-689.485948
465.939924,222.061783,-7846.182985,-229.828649
465.940252,1184.329507,-8290.306550,306.438199
465.940580,518.144159,-8882.471304,689.485948
465.940908,74.020594,-9474.636058,536.266849
465.941236,444.123565,-9400.615463,459.657299
465.941564,1776.494261,-8660.409521,229.828649
465.941892,2516.700203,-8808.450710,842.705048
465.942219,2590.720797,-9474.636058,1149.143247
465.942547,1110.308913,-10436.903782,1455.581446
465.942875,-592.164754,-10658.965565,1378.971896
465.943203,-1332.370696,-10362.883188,0.000000
465.943531,-666.185348,-9622.677246,-459.657299
465.943859,444.123565,-9474.636058,-459.657299
465.944187,1110.308913,-9104.533087,76.609550
465.944514,1036.288319,-9104.533087,229.828649
465.944842,0.000000,-9178.553681,0.000000
465.945170,-592.164754,-9030.512492,-383.047749
465.945498,-370.102971,-8660.409521,-612.876398
465.945826,962.267725,-8068.244768,-459.657299
465.946154,1480.411884,-7994.224174,229.828649
465.946482,1332.370696,-8808.450710,1072.533697
465.946809,-814.226536,-9696.697840,1149.143247
465.947137,-1924.535449,-10362.883188,842.705048
465.947465,-1998.556043,-9992.780217,459.657299
465.947793,-666.185348,-9622.677246,306.438199
465.948121,518.144159,-9548.656652,383.047749
465.948449,370.102971,-9326.594869,1225.752797
465.948777,-444.123565,-9696.697840,1608.800546
465.949104,-962.267725,-9548.656652,1302.362347
465.949432,-222.061783,-8882.471304,995.924147
465.949760,1332.370696,-8512.368333,1225.752797
465.950088,2368.659014,-8142.265362,1608.800546
465.950416,2072.576638,-9030.512492,2451.505594
465.950744,74.020594,-9474.636058,2221.676944
465.951072,-2294.638420,-10140.821405,1838.629195
465.951399,-3478.967927,-10288.862594,1149.143247
465.951727,-2738.761985,-9474.636058,306.438199
465.952055,-1184.329507,-8808.450710,842.705048
465.952383,-666.185348,-8364.327145,995.924147
465.952711,-1480.411884,-8586.388927,1302.362347
465.953039,-2442.679609,-8512.368333,919.314598
465.953367,-3034.844362,-7994.224174,0.000000
465.953694,-2294.638420,-7328.038826,-995.924147
465.954022,-592.164754,-7031.956449,-306.438199
465.954350,370.102971,-7328.038826,229.828649
465.954678,370.102971,-8068.244768,919.314598
465.955006,-814.226536,-8660.409521,1378.971896
465.955334,-1480.411884,-9474.636058,1149.143247
465.955662,-2072.576638,-9400.615463,76.609550
465.955989,-1110.308913,-9474.636058,0.000000
465.956317,0.000000,-9400.615463,76.609550
465.956645,148.041188,-9474.636058,306.438199
465.956973,0.000000,-9548.656652,306.438199
465.957301,-370.102971,-9548.656652,76.609550
465.957629,296.082377,-8956.491898,-229.828649
465.957957,2368.659014,-8142.265362,0.000000
465.958284,3701.029710,-7846.182985,459.657299
465.958612,3478.967927,-8216.285956,1378.971896
465.958940,1702.473667,-9400.615463,1302.362347
465.959268,-296.082377,-10214.842000,995.924147
465.959596,-1406.391290,-10436.903782,153.219100
465.959924,-1258.350101,-10066.800811,-306.438199
465.960252,74.020594,-9548.656652,459.657299
465.960579,962.267725,-9474.636058,459.657299
465.960907,0.000000,-9474.636058,689.485948
465.961235,-1258.350101,-9770.718434,76.609550
465.961563,-2220.617826,-9474.636058,-612.876398
465.961891,-1036.288319,-8364.327145,-995.924147
465.962219,814.226536,-7476.080014,-1149.143247
465.962547,1406.391290,-7698.141797,-306.438199
465.962874,1036.288319,-8808.450710,536.266849
465.963202,-444.123565,-9696.697840,689.485948
465.963530,-2072.576638,-10288.862594,383.047749
465.963858,-2072.576638,-10066.800811,0.000000
465.964186,-1036.288319,-10140.821405,229.828649
465.964514,74.020594,-9918.759623,612.876398
465.964842,296.082377,-10214.842000,1302.362347
465.965170,-222.061783,-10362.883188,1685.410096
465.965497,-666.185348,-9844.739029,1608.800546
465.965825,296.082377,-9252.574275,1608.800546
465.966153,1998.556043,-8216.285956,1455.581446
465.966481,2812.782580,-8216.285956,1915.238745
465.966809,2368.659014,-9030.512492,2374.896044
465.967137,222.061783,-10214.842000,2451.505594
465.967465,-2368.659014,-10362.883188,1762.019645
465.967792,-2664.741391,-10214.842000,1225.752797
465.968120,-1850.514855,-9548.656652,919.314598
465.968448,-814.226536,-9400.615463,1149.143247
465.968776,-740.205942,-9252.574275,1378.971896
465.969104,-1998.556043,-8956.491898,1455.581446
465.969432,-3478.967927,-9104.533087,306.438199
465.969760,-3997.112087,-8660.409521,-383.047749
465.970087,-2738.761985,-7846.182985,-919.314598
465.970415,-1036.288319,-6735.874072,-842.705048
465.970743,814.226536,-6883.915261,76.609550
465.971071,-296.082377,-7179.997637,689.485948
465.971399,-1776.494261,-8512.368333,612.876398
465.971726,-3182.885551,-9178.553681,0.000000
465.972054,-2886.803174,-8882.471304,-995.924147
465.972382,-888.247130,-8364.327145,-919.314598
465.972710,1036.288319,-8216.285956,0.000000
465.973037,1776.494261,-8438.347739,842.705048
465.973365,1776.494261,-9030.512492,1762.019645
465.973693,1258.350101,-9178.553681,1762.019645
465.974021,2294.638420,-8290.306550,1838.629195
465.974348,3775.050304,-8290.306550,1378.971896
465.974676,4515.256246,-8512.368333,1532.190996
465.975004,3478.967927,-9030.512492,2221.676944
465.975332,1480.411884,-10066.800811,2145.067394
465.975659,-666.185348,-10436.903782,1149.143247
465.975987,-1110.308913,-9696.697840,842.705048
465.976315,0.000000,-9474.636058,229.828649
465.976643,148.041188,-9400.615463,459.657299
465.976970,0.000000,-9252.574275,536.266849
465.977298,-1850.514855,-9474.636058,306.438199
465.977626,-3478.967927,-9104.533087,383.047749
465.977954,-4293.194464,-9030.512492,-1225.752797
465.978281,-2886.803174,-7994.224174,-1608.800546
465.978609,-1480.411884,-7105.977043,-1072.533697
465.978937,0.000000,-7031.956449,-536.266849
465.979265,-1110.308913,-7328.038826,229.828649
465.979592,-2442.679609,-8290.306550,76.609550
465.979920,-3552.988522,-9178.553681,-689.485948
465.980248,-3478.967927,-8882.471304,-1378.971896
465.980576,-1998.556043,-8586.388927,-1149.143247
465.980903,0.000000,-8660.409521,-842.705048
465.981231,1036.288319,-9178.553681,689.485948
465.981559,592.164754,-9400.615463,766.095498
465.981887,1036.288319,-9992.780217,689.485948
465.982214,1850.514855,-9622.677246,689.485948
465.982542,3108.864956,-8808.450710,995.924147
465.982870,4589.276840,-9400.615463,1302.362347
465.983198,4589.276840,-10807.006753,1685.410096
465.983525,1480.411884,-10066.800811,1762.019645
465.983853,1258.350101,-11843.295072,1838.629195
465.984181,666.185348,-11917.315666,1378.971896
465.984509,-592.164754,-9400.615463,919.314598
465.984836,1332.370696,-10362.883188,1149.143247
465.985164,0.000000,-10288.862594,919.314598
465.985492,-666.185348,-9622.677246,1455.581446
465.985820,-3627.009116,-10140.821405,153.219100
465.986147,-3552.988522,-9326.594869,0.000000
465.986475,-1628.453072,-7846.182985,-689.485948
465.986803,-740.205942,-7772.162391,-306.438199
465.987131,148.041188,-7846.182985,306.438199
465.987458,-1110.308913,-8586.388927,229.828649
465.987786,-2812.782580,-9770.718434,153.219100
465.988114,-3330.926739,-9696.697840,-306.438199
465.988442,-3552.988522,-9474.636058,-536.266849
465.988769,-1924.535449,-9400.615463,-689.485948
465.989097,-370.102971,-9400.615463,306.438199
465.989425,-592.164754,-9992.780217,995.924147
465.989753,-1258.350101,-9844.739029,1685.410096
465.990080,-666.185348,-9844.739029,1225.752797
465.990408,222.061783,-9548.656652,919.314598
465.990736,2220.617826,-9178.553681,1225.752797
465.991064,3034.844362,-9252.574275,1762.019645
465.991392,2664.741391,-9548.656652,2911.162892
465.991719,1776.494261,-10140.821405,2757.943793
465.992047,74.020594,-10362.883188,2374.896044
465.992375,222.061783,-10214.842000,1991.848295
465.992703,888.247130,-9696.697840,1685.410096
465.993030,962.267725,-9104.533087,1532.190996
465.993358,592.164754,-9252.574275,1991.848295
465.993686,-1258.350101,-9400.615463,1455.581446
465.994014,-3330.926739,-9622.677246,766.095498
465.994341,-2886.803174,-8512.368333,-229.828649
465.994669,-1850.514855,-7254.018232,-153.219100
465.994997,-814.226536,-6957.935855,0.000000
465.995325,-370.102971,-7476.080014,0.000000
465.995652,-1480.411884,-8216.285956,153.219100
465.995980,-3701.029710,-8734.430116,-766.095498
465.996308,-3997.112087,-8882.471304,-1685.410096
465.996636,-3108.864956,-8586.388927,-1838.629195
465.996963,-962.267725,-7846.182985,-1608.800546
465.997291,1036.288319,-7550.100608,-459.657299
465.997619,1406.391290,-8216.285956,383.047749
465.997947,1184.329507,-8808.450710,842.705048
465.998274,962.267725,-9030.512492,153.219100
465.998602,1554.432478,-8438.347739,-306.438199
465.998930,2812.782580,-8290.306550,536.266849
465.999258,3849.070898,-8734.430116,1072.533697
465.999585,3404.947333,-9326.594869,1838.629195
465.999913,2368.659014,-9770.718434,2145.067394
466.000241,1554.432478,-9844.739029,2068.457845
466.000569,1184.329507,-9770.718434,919.314598
466.000896,1850.514855,-9030.512492,689.485948
466.001224,2442.679609,-8808.450710,995.924147
466.001552,2072.576638,-9400.615463,1608.800546
466.001880,0.000000,-9474.636058,383.047749
466.002207,-2368.659014,-9622.677246,306.438199
466.002535,-2368.659014,-8142.265362,-306.438199
466.002863,-1924.535449,-8216.285956,-306.438199
466.003191,-666.185348,-7624.121203,0.000000
466.003518,-962.267725,-7846.182985,306.438199
466.003846,-2960.823768,-9104.533087,842.705048
466.004174,-4663.297435,-9474.636058,-229.828649
466.004502,-5847.626942,-9548.656652,-1072.533697
466.004829,-4737.318029,-9030.512492,-1685.410096
466.005157,-1924.535449,-7772.162391,-1455.581446
466.005485,-148.041188,-8142.265362,-383.047749
466.005813,444.123565,-8068.244768,383.047749
466.006140,-148.041188,-8512.368333,766.095498
466.006468,-518.144159,-8808.450710,383.047749
466.006796,888.247130,-8882.471304,536.266849
466.007124,2368.659014,-8734.430116,689.485948
466.007451,2960.823768,-9252.574275,1608.800546
466.007779,2812.782580,-10066.800811,2451.505594
466.008107,1480.411884,-11251.130318,2834.553343
466.008435,666.185348,-11843.295072,2834.553343
466.008762,1184.329507,-11473.192101,2604.724693
466.009090,2220.617826,-10584.944971,2145.067394
466.009418,2368.659014,-10436.903782,2374.896044
466.009746,1628.453072,-10510.924376,2145.067394
466.010074,0.000000,-10510.924376,2451.505594
466.010401,-1480.411884,-9622.677246,1532.190996
466.010729,-2368.659014,-9030.512492,536.266849
466.011057,-296.082377,-7994.224174,153.219100
466.011385,-296.082377,-8512.368333,919.314598
466.011712,-1184.329507,-8438.347739,612.876398
466.012040,-2886.803174,-8956.491898,536.266849
466.012368,-5033.400406,-9696.697840,0.000000
466.012696,-6291.750507,-9770.718434,-1302.362347
466.013023,-4959.379811,-9030.512492,-1532.190996
466.013351,-2664.741391,-8438.347739,-919.314598
466.013679,-888.247130,-7846.182985,-76.609550
466.014007,-666.185348,-8068.244768,612.876398
466.014334,-740.205942,-8808.450710,612.876398
466.014662,-518.144159,-8438.347739,229.828649
466.014990,518.144159,-8216.285956,0.000000
466.015318,2220.617826,-8290.306550,153.219100
466.015645,3034.844362,-8438.347739,1149.143247
466.015973,2590.720797,-9548.656652,2145.067394
466.016301,2072.576638,-10658.965565,2374.896044
466.016629,1110.308913,-10881.027347,1991.848295
466.016956,1332.370696,-10436.903782,1685.410096
466.017284,2368.659014,-10436.903782,2068.457845
466.017612,2368.659014,-9992.780217,1838.629195
466.017940,1480.411884,-9918.759623,1762.019645
466.018267,74.020594,-9696.697840,1225.752797
466.018595,-814.226536,-9474.636058,995.924147
466.018923,-888.247130,-8438.347739,229.828649
466.019251,-444.123565,-7772.162391,689.485948
466.019578,592.164754,-6883.915261,229.828649
466.019906,-296.082377,-7772.162391,1149.143247
466.020234,-2368.659014,-8142.265362,306.438199
466.020562,-3775.050304,-8734.430116,-306.438199
466.020889,-5329.482782,-8882.471304,-1149.143247
466.021217,-4071.132681,-7920.203579,-2068.457845
466.021545,-1924.535449,-7328.038826,-1455.581446
466.021873,-1258.350101,-7254.018232,-612.876398
466.022200,-592.164754,-7698.141797,0.000000
466.022528,-1628.453072,-8512.368333,-612.876398
466.022856,-2072.576638,-8142.265362,-689.485948
466.023184,-222.061783,-7994.224174,-612.876398
466.023511,1924.535449,-7920.203579,-383.047749
466.023839,3108.864956,-8586.388927,612.876398
466.024167,3478.967927,-8734.430116,1608.800546
466.024495,2516.700203,-9696.697840,2451.505594
466.024822,1924.535449,-9992.780217,1915.238745
466.025150,1924.535449,-10140.821405,1455.581446
466.025478,2146.597232,-10066.800811,1225.752797
466.025806,2368.659014,-9918.759623,1378.971896
466.026133,1554.432478,-9918.759623,1225.752797
466.026461,0.000000,-9844.739029,1225.752797
466.026789,-740.205942,-9474.636058,766.095498
466.027117,-222.061783,-9104.533087,919.314598
466.027444,518.144159,-7846.182985,0.000000
466.027772,518.144159,-7772.162391,766.095498
466.028100,296.082377,-7846.182985,459.657299
466.028428,-2664.741391,-9622.677246,536.266849
466.028755,-5107.421000,-9992.780217,-536.266849
466.029083,-5181.441594,-9770.718434,-1378.971896
466.029411,-3627.009116,-9326.594869,-1149.143247
466.029739,-1628.453072,-8290.306550,-995.924147
466.030067,-592.164754,-8586.388927,76.609550
466.030394,-1628.453072,-9326.594869,76.609550
466.030722,-1850.514855,-9400.615463,-229.828649
466.031050,-2294.638420,-9030.512492,-612.876398
466.031378,-1258.350101,-8734.430116,-1072.533697
466.031705,1702.473667,-8660.409521,-153.219100
466.032033,2886.803174,-8882.471304,1302.362347
466.032361,3034.844362,-9326.594869,2221.676944
466.032689,2072.576638,-10214.842000,2911.162892
466.033016,1332.370696,-10658.965565,2298.286494
466.033344,1332.370696,-10510.924376,1685.410096
466.033672,2072.576638,-10510.924376,1532.190996
466.034000,2072.576638,-10362.883188,1685.410096
466.034327,1406.391290,-10881.027347,2451.505594
466.034655,444.123565,-10584.944971,2298.286494
466.034983,-592.164754,-10288.862594,1915.238745
466.035311,-666.185348,-9030.512492,995.924147
466.035638,74.020594,-8512.368333,1225.752797
466.035966,1036.288319,-8142.265362,1072.533697
466.036294,-962.267725,-9030.512492,842.705048
466.036622,-3627.009116,-9104.533087,612.876398
466.036949,-5403.503377,-9770.718434,-153.219100
466.037277,-5329.482782,-9252.574275,-1225.752797
466.037605,-4145.153275,-8364.327145,-1149.143247
466.037933,-1406.391290,-7402.059420,-153.219100
466.038260,-962.267725,-7402.059420,383.047749
466.038588,-1480.411884,-8068.244768,536.266849
466.038916,-1850.514855,-8364.327145,153.219100
466.039244,-2368.659014,-8290.306550,-612.876398
466.039571,222.061783,-7920.203579,-229.828649
466.039899,1702.473667,-7624.121203,229.828649
466.040227,2664.741391,-8364.327145,1685.410096
466.040555,2590.720797,-9178.553681,2451.505594
466.040882,1258.350101,-9548.656652,2604.724693
466.041210,740.205942,-9992.780217,2298.286494
466.041538,740.205942,-9252.574275,1378.971896
466.041866,1332.370696,-9326.594869,842.705048
466.042193,2072.576638,-9474.636058,995.924147
466.042521,1480.411884,-9326.594869,1225.752797
466.042849,222.061783,-9400.615463,919.314598
466.043177,-666.185348,-8512.368333,919.314598
466.043504,-518.144159,-8512.368333,-536.266849
466.043832,444.123565,-7920.203579,0.000000
466.044160,1036.288319,-7624.121203,76.609550
466.044488,-1184.329507,-8882.471304,383.047749
466.044815,-2738.761985,-9104.533087,-229.828649
466.045143,-4663.297435,-9252.574275,-383.047749
466.045471,-4811.338623,-9178.553681,-1532.190996
466.045799,-2960.823768,-8512.368333,-1762.019645
466.046126,-1184.329507,-7994.224174,-842.705048
466.046454,-444.123565,-7772.162391,0.000000
466.046782,-1036.288319,-7994.224174,-612.876398
466.047110,-1554.432478,-8364.327145,-995.924147
466.047437,-1554.432478,-8364.327145,-1378.971896
466.047765,518.144159,-7772.162391,-1072.533697
466.048093,2590.720797,-7920.203579,-153.219100
466.048421,3923.091493,-8364.327145,842.705048
466.048748,3627.009116,-9548.656652,1915.238745
466.049076,2516.700203,-10584.944971,1991.848295
466.049404,1184.329507,-11177.109724,1302.362347
466.049732,1480.411884,-11251.130318,766.095498
466.050060,1628.453072,-10584.944971,1072.533697
466.050387,2072.576638,-11029.068536,1302.362347
466.050715,1184.329507,-11251.130318,1838.629195
466.051043,148.041188,-10807.006753,1532.190996
466.051371,-222.061783,-10362.883188,1302.362347
466.051698,592.164754,-9326.594869,1762.019645
466.052026,814.226536,-8734.430116,612.876398
466.052354,222.061783,-8882.471304,1149.143247
466.052682,-444.123565,-9178.553681,995.924147
466.053009,-3478.967927,-9918.759623,689.485948
466.053337,-4885.359217,-9918.759623,0.000000
466.053665,-4811.338623,-9474.636058,-229.828649
466.053993,-3552.988522,-9252.574275,-306.438199
466.054320,-1924.535449,-8882.471304,0.000000
466.054648,-1258.350101,-8882.471304,383.047749
466.054976,-1924.535449,-8956.491898,383.047749
466.055304,-2442.679609,-8734.430116,536.266849
466.055631,-1924.535449,-8956.491898,-536.266849
466.055959,-370.102971,-8290.306550,-306.438199
466.056287,1924.535449,-8216.285956,689.485948
466.056615,2664.741391,-8512.368333,1838.629195
466.056942,2368.659014,-9252.574275,2451.505594
466.057270,1110.308913,-9918.759623,2451.505594
466.057598,222.061783,-10362.883188,1991.848295
466.057926,296.082377,-10288.862594,1378.971896
466.058253,1406.391290,-9918.759623,1685.410096
466.058581,1258.350101,-9252.574275,2221.676944
466.058909,1332.370696,-9770.718434,2374.896044
466.059237,222.061783,-9474.636058,2374.896044
466.059564,0.000000,-8956.491898,1915.238745
466.059892,74.020594,-7624.121203,1302.362347
466.060220,1036.288319,-7105.977043,1608.800546
466.060548,1110.308913,-7254.018232,1149.143247
466.060875,-1332.370696,-8142.265362,1608.800546
466.061203,-4071.132681,-8808.450710,689.485948
466.061531,-5403.503377,-9030.512492,-612.876398
466.061859,-5477.523971,-8216.285956,-1225.752797
466.062186,-3627.009116,-7179.997637,-1378.971896
466.062514,-1258.350101,-7105.977043,-306.438199
466.062842,-1332.370696,-7179.997637,76.609550
466.063170,-2294.638420,-7772.162391,-306.438199
466.063497,-3108.864956,-7624.121203,-995.924147
466.063825,-2960.823768,-7476.080014,-1608.800546
466.064153,-740.205942,-7179.997637,-1915.238745
466.064481,1702.473667,-7402.059420,-612.876398
466.064808,3034.844362,-7846.182985,612.876398
466.065136,2738.761985,-8882.471304,1302.362347
466.065464,1628.453072,-9696.697840,1378.971896
466.065792,888.247130,-9918.759623,0.000000
466.066119,1258.350101,-9992.780217,0.000000
466.066447,2220.617826,-9844.739029,0.000000
466.066775,3108.864956,-9844.739029,306.438199
466.067103,3182.885551,-10066.800811,76.609550
466.067430,2886.803174,-10436.903782,766.095498
466.067758,2368.659014,-9918.759623,995.924147
466.068086,2294.638420,-9326.594869,459.657299
466.068414,2812.782580,-9474.636058,1149.143247
466.068742,1628.453072,-9548.656652,306.438199
466.069069,-1332.370696,-10140.821405,306.438199
466.069397,-2664.741391,-10658.965565,-842.705048
466.069724,-4811.338623,-10807.006753,-919.314598
466.070052,-4367.215058,-9844.739029,-1685.410096
466.070379,-2368.659014,-8956.491898,-1532.190996
466.070707,-962.267725,-8364.327145,-306.438199
466.071034,-666.185348,-8438.347739,-229.828649
466.071362,-1998.556043,-9178.553681,0.000000
466.071689,-3552.988522,-9104.533087,-1072.533697
466.072017,-2664.741391,-8586.388927,-1149.143247
466.072344,-370.102971,-7772.162391,-383.047749
466.072672,1998.556043,-7698.141797,536.266849
466.072999,2812.782580,-8364.327145,2298.286494
466.073327,1406.391290,-9474.636058,2681.334243
466.073654,222.061783,-10584.944971,2451.505594
466.073982,-592.164754,-10214.842000,1838.629195
466.074309,222.061783,-10214.842000,1302.362347
466.074637,1554.432478,-9992.780217,1608.800546
466.074964,1702.473667,-10362.883188,2374.896044
466.075292,1258.350101,-10362.883188,2681.334243
466.075620,740.205942,-9992.780217,2911.162892
466.075947,518.144159,-9104.533087,2987.772442
466.076275,1480.411884,-8882.471304,2145.067394
466.076602,814.226536,-8956.491898,1378.971896
466.076930,-222.061783,-8956.491898,1991.848295
466.077257,-1702.473667,-9178.553681,1225.752797
466.077585,-4367.215058,-9696.697840,766.095498
466.077912,-5107.421000,-9326.594869,0.000000
466.078240,-4515.256246,-8956.491898,153.219100
466.078567,-2812.782580,-8068.244768,0.000000
466.078895,-2146.597232,-7772.162391,383.047749
466.079222,-2220.617826,-7920.203579,689.485948
466.079550,-3627.009116,-8216.285956,0.000000
466.079877,-4145.153275,-8068.244768,-766.095498
466.080205,-2738.761985,-7550.100608,-1225.752797
466.080532,-370.102971,-7105.977043,-1072.533697
466.080860,1998.556043,-6883.915261,153.219100
466.081187,2960.823768,-7846.182985,1225.752797
466.081515,1480.411884,-9178.553681,1838.629195
466.081842,0.000000,-10510.924376,1225.752797
466.082170,-888.247130,-11029.068536,306.438199
466.082498,148.041188,-10362.883188,-229.828649
466.082825,1998.556043,-10436.903782,612.876398
466.083153,2960.823768,-9992.780217,919.314598
466.083480,3034.844362,-9696.697840,1532.190996
466.083808,2738.761985,-10140.821405,1685.410096
466.084135,2146.597232,-9548.656652,1225.752797
466.084463,2294.638420,-9030.512492,383.047749
466.084790,2220.617826,-8364.327145,612.876398
466.085118,1332.370696,-9178.553681,919.314598
466.085445,-222.061783,-9622.677246,383.047749
466.085773,-2516.700203,-9770.718434,612.876398
466.086100,-2886.803174,-8882.471304,-229.828649
466.086428,-2516.700203,-9104.533087,-229.828649
466.086755,-1776.494261,-8142.265362,-459.657299
466.087083,-1110.308913,-8216.285956,-612.876398
466.087410,-2294.638420,-8660.409521,-229.828649
466.087738,-3182.885551,-8882.471304,-1149.143247
466.088065,-3923.091493,-8438.347739,-1608.800546
466.088393,-2812.782580,-7994.224174,-2145.067394
466.088721,0.000000,-7254.018232,-1532.190996
466.089048,2072.576638,-7476.080014,-536.266849
466.089376,2294.638420,-7994.224174,689.485948
466.089703,962.267725,-8956.491898,1838.629195
466.090031,-1184.329507,-10214.842000,306.438199
466.090358,-1036.288319,-10658.965565,-229.828649
466.090686,-222.061783,-10288.862594,-536.266849
466.091013,1184.329507,-10066.800811,153.219100
466.091341,2738.761985,-9992.780217,1762.019645
466.091668,2590.720797,-10066.800811,1455.581446
466.091996,1850.514855,-10066.800811,1991.848295
466.092323,1628.453072,-9400.615463,1378.971896
466.092651,1924.535449,-8882.471304,766.095498
466.092978,2442.679609,-8438.347739,995.924147
466.093306,2072.576638,-8512.368333,919.314598
466.093633,74.020594,-8808.450710,766.095498
466.093961,-1480.411884,-9918.759623,1149.143247
466.094288,-1850.514855,-9770.718434,612.876398
466.094616,-1702.473667,-9770.718434,689.485948
466.094943,-666.185348,-9178.553681,459.657299
466.095271,-444.123565,-9326.594869,919.314598
466.095599,-1850.514855,-9474.636058,995.924147
466.095926,-3923.091493,-9918.759623,229.828649
466.096254,-3849.070898,-9474.636058,0.000000
466.096581,-2886.803174,-7920.203579,-306.438199
466.096909,0.000000,-7476.080014,459.657299
466.097236,1850.514855,-7402.059420,1378.971896
466.097564,1258.350101,-7994.224174,1915.238745
466.097891,-444.123565,-9104.533087,2068.457845
466.098219,-2146.597232,-9548.656652,1532.190996
466.098546,-2590.720797,-9474.636058,76.609550
466.098874,-1554.432478,-9474.636058,-229.828649
466.099201,0.000000,-9252.574275,919.314598
466.099529,814.226536,-9252.574275,1608.800546
466.099856,888.247130,-9474.636058,2604.724693
466.100184,666.185348,-8808.450710,1915.238745
466.100511,74.020594,-8808.450710,1302.362347
466.100839,518.144159,-8290.306550,536.266849
466.101166,888.247130,-8438.347739,919.314598
466.101494,222.061783,-8734.430116,1225.752797
466.101822,-222.061783,-9178.553681,1685.410096
466.102149,-1998.556043,-9992.780217,766.095498
466.102477,-2368.659014,-9548.656652,612.876398
466.102804,-888.247130,-9400.615463,766.095498
466.103132,0.000000,-8512.368333,229.828649
466.103459,-296.082377,-8882.471304,1455.581446
466.103787,-444.123565,-8808.450710,766.095498
466.104114,-2294.638420,-9918.759623,766.095498
466.104442,-2738.761985,-9252.574275,-383.047749
466.104769,-1184.329507,-8586.388927,-689.485948
466.105097,518.144159,-7402.059420,536.266849
466.105424,2664.741391,-7550.100608,459.657299
466.105752,2146.597232,-8290.306550,1378.971896
466.106079,74.020594,-9178.553681,766.095498
466.106407,-1258.350101,-9770.718434,0.000000
466.106734,-2368.659014,-9474.636058,-1149.143247
466.107062,-518.144159,-9400.615463,-1302.362347
466.107389,518.144159,-8956.491898,-536.266849
466.107717,1184.329507,-8734.430116,229.828649
466.108044,1110.308913,-9252.574275,919.314598
466.108372,444.123565,-9030.512492,536.266849
466.108700,222.061783,-8660.409521,0.000000
466.109027,444.123565,-8512.368333,-153.219100
466.109355,592.164754,-8660.409521,-153.219100
466.109682,518.144159,-8956.491898,153.219100
466.110010,0.000000,-9474.636058,536.266849
466.110337,-888.247130,-10066.800811,459.657299
466.110665,-1184.329507,-9104.533087,229.828649
466.110992,-740.205942,-9326.594869,-536.266849
466.111320,74.020594,-8882.471304,0.000000
466.111647,518.144159,-9400.615463,0.000000
466.111975,-888.247130,-9992.780217,0.000000
466.112302,-1480.411884,-9844.739029,0.000000
466.112630,-2368.659014,-9770.718434,-689.485948
466.112957,-962.267725,-9326.594869,-995.924147
466.113285,962.267725,-8734.430116,-229.828649
466.113612,2516.700203,-8660.409521,995.924147
466.113940,2146.597232,-9178.553681,1608.800546
466.114267,74.020594,-10066.800811,1378.971896
466.114595,-2072.576638,-10584.944971,229.828649
466.114923,-2368.659014,-10362.883188,-383.047749
466.115250,-962.267725,-9918.759623,-536.266849
466.115578,370.102971,-9104.533087,536.266849
466.115905,1480.411884,-9622.677246,1225.752797
466.116233,1184.329507,-9474.636058,1762.019645
466.116560,296.082377,-9548.656652,1532.190996
466.116888,0.000000,-9474.636058,842.705048
466.117215,444.123565,-8586.388927,1302.362347
466.117543,1258.350101,-9178.553681,689.485948
466.117870,666.185348,-9400.615463,1532.190996
466.118198,0.000000,-9844.739029,2068.457845
466.118525,-962.267725,-10288.862594,1915.238745
466.118853,-1110.308913,-10066.800811,2068.457845
466.119180,-740.205942,-9548.656652,1915.238745
466.119508,74.020594,-9770.718434,1915.238745
466.119835,-962.267725,-9474.636058,1762.019645
466.120163,-1924.535449,-9622.677246,1532.190996
466.120490,-3108.864956,-9548.656652,842.705048
466.120818,-3034.844362,-8956.491898,306.438199
466.121145,-1406.391290,-7698.141797,0.000000
466.121473,888.247130,-7105.977043,1149.143247
466.121801,1480.411884,-7105.977043,1838.629195
466.122128,296.082377,-8142.265362,2145.067394
466.122456,-1776.494261,-9104.533087,1455.581446
466.122783,-3478.967927,-9622.677246,459.657299
466.123111,-3775.050304,-9400.615463,-536.266849
466.123438,-2368.659014,-8808.450710,-459.657299
466.123766,0.000000,-8364.327145,459.657299
466.124093,962.267725,-7920.203579,1225.752797
466.124421,666.185348,-8216.285956,1762.019645
466.124748,-296.082377,-8142.265362,995.924147
466.125076,-592.164754,-8068.244768,0.000000
466.125403,0.000000,-7772.162391,-383.047749
466.125731,518.144159,-7994.224174,0.000000
466.126058,592.164754,-8216.285956,76.609550
466.126386,0.000000,-9104.533087,689.485948
466.126713,-740.205942,-9474.636058,536.266849
466.127041,-592.164754,-9104.533087,0.000000
466.127368,0.000000,-8660.409521,-306.438199
466.127696,888.247130,-8586.388927,153.219100
466.128023,1480.411884,-8808.450710,0.000000
466.128351,0.000000,-9474.636058,0.000000
466.128679,-666.185348,-9474.636058,-383.047749
466.129006,-740.205942,-8734.430116,-689.485948
466.129334,814.226536,-7846.182985,0.000000
466.129661,3182.885551,-7698.141797,0.000000
466.129989,3330.926739,-8290.306550,1225.752797
466.130316,1628.453072,-8882.471304,1302.362347
466.130644,-814.226536,-10066.800811,612.876398
466.130971,-2442.679609,-10658.965565,-383.047749
466.131299,-2146.597232,-9770.718434,-1149.143247
466.131626,-444.123565,-9252.574275,-995.924147
466.131954,592.164754,-9178.553681,76.609550
466.132281,1110.308913,-9474.636058,919.314598
466.132609,370.102971,-9400.615463,1149.143247
466.132936,-888.247130,-9030.512492,76.609550
466.133264,-962.267725,-9178.553681,-459.657299
466.133591,-296.082377,-8882.471304,-842.705048
466.133919,370.102971,-8882.471304,0.000000
466.134246,222.061783,-9178.553681,689.485948
466.134574,-148.041188,-9474.636058,1838.629195
466.134902,-1406.391290,-10140.821405,1455.581446
466.135229,-1554.432478,-9918.759623,842.705048
466.135557,-962.267725,-9548.656652,612.876398
466.135884,0.000000,-9252.574275,1149.143247
466.136212,0.000000,-9474.636058,1762.019645
466.136539,-814.226536,-9474.636058,1608.800546
466.136867,-1924.535449,-9474.636058,1378.971896
466.137194,-962.267725,-8660.409521,842.705048
466.137522,666.185348,-8290.306550,1225.752797
466.137849,2146.597232,-7772.162391,2145.067394
466.138177,1702.473667,-8512.368333,2528.115143
466.138504,0.000000,-9400.615463,2451.505594
466.138832,-2516.700203,-9918.759623,1302.362347
466.139159,-3478.967927,-10140.821405,459.657299
466.139487,-2590.720797,-9622.677246,153.219100
466.139814,-888.247130,-8882.471304,0.000000
466.140142,370.102971,-8512.368333,1149.143247
466.140469,592.164754,-8586.388927,1762.019645
466.140797,-740.205942,-8660.409521,1685.410096
466.141124,-1554.432478,-8438.347739,689.485948
466.141452,-1480.411884,-7920.203579,0.000000
466.141780,-592.164754,-7846.182985,76.609550
466.142107,0.000000,-7920.203579,536.266849
466.142435,0.000000,-8290.306550,1072.533697
466.142762,-222.061783,-8808.450710,1378.971896
466.143090,-1036.288319,-9030.512492,1149.143247
466.143417,-1110.308913,-9326.594869,383.047749
466.143745,0.000000,-9030.512492,153.219100
466.144072,666.185348,-9178.553681,229.828649
466.144400,592.164754,-9326.594869,383.047749
466.144727,444.123565,-9696.697840,1072.533697
466.145055,148.041188,-9474.636058,459.657299
466.145382,222.061783,-9252.574275,0.000000
466.145710,1924.535449,-8734.430116,153.219100
466.146037,3034.844362,-8660.409521,842.705048
466.146365,2442.679609,-9400.615463,1532.190996
466.146692,148.041188,-10214.842000,1685.410096
466.147020,-1480.411884,-11177.109724,689.485948
466.147347,-2812.782580,-11103.089130,-306.438199
466.147675,-2442.679609,-10140.821405,-919.314598
466.148003,-666.185348,-9400.615463,-766.095498
466.148330,296.082377,-8586.388927,383.047749
466.148658,814.226536,-8660.409521,536.266849
466.148985,-814.226536,-8512.368333,0.000000
466.149313,-2146.597232,-8586.388927,-919.314598
466.149640,-1998.556043,-8364.327145,-1532.190996
466.149968,-888.247130,-7994.224174,-1685.410096
466.150295,0.000000,-7846.182985,-536.266849
466.150623,222.061783,-8290.306550,0.000000
466.150950,-296.082377,-8956.491898,229.828649
466.151278,-1110.308913,-9400.615463,229.828649
466.151605,-962.267725,-9474.636058,-229.828649
466.151933,-740.205942,-9548.656652,-689.485948
466.152260,0.000000,-9474.636058,0.000000
466.152588,0.000000,-9696.697840,0.000000
466.152915,-222.061783,-10288.862594,76.609550
466.153243,-370.102971,-9844.739029,153.219100
466.153570,1036.288319,-9030.512492,153.219100
466.153898,2516.700203,-8142.265362,459.657299
466.154225,4071.132681,-7994.224174,1302.362347
466.154553,3552.988522,-8808.450710,1838.629195
466.154881,1850.514855,-9622.677246,2374.896044
466.155208,-370.102971,-9992.780217,1072.533697
466.155536,-1998.556043,-9918.759623,689.485948
466.155863,-1258.350101,-10140.821405,536.266849
466.156191,-296.082377,-9622.677246,1149.143247
466.156518,222.061783,-9252.574275,1685.410096
466.156846,74.020594,-9030.512492,2221.676944
466.157173,-1554.432478,-9030.512492,1991.848295
466.157501,-2738.761985,-8586.388927,229.828649
466.157828,-2516.700203,-8142.265362,0.000000
466.158156,-1036.288319,-7698.141797,-229.828649
466.158483,0.000000,-7772.162391,306.438199
466.158811,-370.102971,-7994.224174,1685.410096
466.159138,-1110.308913,-8882.471304,1455.581446
466.159466,-2294.638420,-9474.636058,1225.752797
466.159793,-2146.597232,-9326.594869,689.485948
466.160121,-1036.288319,-9252.574275,459.657299
466.160448,-888.247130,-9252.574275,1302.362347
466.160776,-370.102971,-9844.739029,1608.800546
466.161104,-962.267725,-10288.862594,1685.410096
466.161431,-1258.350101,-10066.800811,1302.362347
466.161759,0.000000,-9178.553681,1072.533697
466.162086,2368.659014,-9178.553681,1532.190996
466.162414,3552.988522,-8438.347739,2145.067394
466.162741,2886.803174,-8956.491898,2451.505594
466.163069,814.226536,-9474.636058,1915.238745
466.163396,-1554.432478,-10140.821405,919.314598
466.163724,-1776.494261,-10288.862594,76.609550
466.164051,-962.267725,-9326.594869,-536.266849
466.164379,0.000000,-9104.533087,0.000000
466.164706,1184.329507,-8882.471304,1149.143247
466.165034,0.000000,-9252.574275,1302.362347
466.165361,-1628.453072,-8808.450710,536.266849
466.165689,-2072.576638,-8808.450710,-153.219100
466.166016,-2738.761985,-8512.368333,-1608.800546
466.166344,-1406.391290,-8512.368333,-1455.581446
466.166671,-444.123565,-8438.347739,-612.876398
466.166999,-148.041188,-8586.388927,153.219100
466.167326,-1184.329507,-8660.409521,536.266849
466.167654,-1702.473667,-9030.512492,-536.266849
466.167982,-1998.556043,-8882.471304,-1225.752797
466.168309,-592.164754,-8734.430116,-766.095498
466.168637,592.164754,-8660.409521,-689.485948
466.168964,1036.288319,-8438.347739,0.000000
466.169292,888.247130,-8660.409521,153.219100
466.169619,888.247130,-8956.491898,612.876398
466.169947,1628.453072,-8216.285956,306.438199
466.170274,2960.823768,-7994.224174,1149.143247
466.170602,3923.091493,-7920.203579,2145.067394
466.170929,2368.659014,-9400.615463,2068.457845
466.171257,296.082377,-10436.903782,1991.848295
466.171584,-2072.576638,-10881.027347,1149.143247
466.171911,-2368.659014,-10066.800811,-306.438199
466.172239,-814.226536,-9844.739029,153.219100
466.172566,888.247130,-8956.491898,0.000000
466.172894,1184.329507,-9104.533087,842.705048
466.173221,0.000000,-8438.347739,1072.533697
466.173549,-1702.473667,-8586.388927,76.609550
466.173876,-2812.782580,-8142.265362,-766.095498
466.174203,-2146.597232,-7476.080014,-1455.581446
466.174531,-1184.329507,-7328.038826,-612.876398
466.174858,-592.164754,-7772.162391,153.219100
466.175186,-592.164754,-8290.306550,995.924147
466.175513,-1924.535449,-8956.491898,612.876398
466.175841,-2812.782580,-9326.594869,306.438199
466.176168,-2072.576638,-9326.594869,0.000000
466.176496,-1406.391290,-9474.636058,-153.219100
466.176823,0.000000,-9548.656652,76.609550
466.177150,370.102971,-9696.697840,842.705048
466.177478,592.164754,-9844.739029,1149.143247
466.177805,1332.370696,-9474.636058,1838.629195
466.178133,1998.556043,-9252.574275,1149.143247
466.178460,3478.967927,-8956.491898,1608.800546
466.178788,3997.112087,-9474.636058,2451.505594
466.179115,2812.782580,-10140.821405,2757.943793
466.179443,740.205942,-10955.047942,2374.896044
466.179770,-1184.329507,-11473.192101,1762.019645
466.180097,-1184.329507,-11029.068536,1455.581446
466.180425,-444.123565,-9918.759623,689.485948
466.180752,74.020594,-9770.718434,1685.410096
466.181080,296.082377,-8882.471304,2298.286494
466.181407,-1406.391290,-9548.656652,2145.067394
466.181735,-3108.864956,-9104.533087,612.876398
466.182062,-3775.050304,-8512.368333,-229.828649
466.182390,-3478.967927,-8438.347739,-919.314598
466.182717,-1628.453072,-7920.203579,0.000000
466.183044,-1110.308913,-7402.059420,689.485948
466.183372,-1184.329507,-7994.224174,919.314598
466.183699,-1850.514855,-8216.285956,612.876398
466.184027,-3034.844362,-8882.471304,0.000000
466.184354,-2738.761985,-8808.450710,-919.314598
466.184682,-1110.308913,-8734.430116,-306.438199
466.185009,-666.185348,-8512.368333,0.000000
466.185336,222.061783,-9104.533087,612.876398
466.185664,296.082377,-9400.615463,612.876398
466.185991,740.205942,-9400.615463,689.485948
466.186319,1850.514855,-8734.430116,153.219100
466.186646,3330.926739,-8364.327145,919.314598
466.186974,3997.112087,-9104.533087,1532.190996
466.187301,3627.009116,-9844.739029,1991.848295
466.187629,1776.494261,-10510.924376,1915.238745
466.187956,74.020594,-10140.821405,1378.971896
466.188283,-148.041188,-10214.842000,1149.143247
466.188611,666.185348,-9622.677246,612.876398
466.188938,444.123565,-9252.574275,536.266849
466.189266,814.226536,-9252.574275,1149.143247
466.189593,-592.164754,-8586.388927,766.095498
466.189921,-2664.741391,-8808.450710,0.000000
466.190248,-3256.906145,-8068.244768,-1532.190996
466.190576,-2294.638420,-7402.059420,-1455.581446
466.190903,-1036.288319,-7402.059420,-1532.190996
466.191230,0.000000,-7254.018232,-153.219100
466.191558,-1258.350101,-7920.203579,153.219100
466.191885,-2738.761985,-8734.430116,-536.266849
466.192213,-2960.823768,-9326.594869,-1149.143247
466.192540,-2738.761985,-9252.574275,-1532.190996
466.192868,-592.164754,-9030.512492,-1225.752797
466.193195,740.205942,-8660.409521,0.000000
466.193522,1628.453072,-9104.533087,689.485948
466.193850,1406.391290,-9252.574275,919.314598
466.194177,1628.453072,-9178.553681,842.705048
466.194505,2146.597232,-8734.430116,995.924147
466.194832,3552.988522,-8734.430116,2145.067394
466.195160,3775.050304,-9252.574275,2451.505594
466.195487,2812.782580,-10362.883188,2757.943793
466.195815,962.267725,-11029.068536,2604.724693
466.196142,-444.123565,-11177.109724,2298.286494
466.196469,-592.164754,-10658.965565,1608.800546
466.196797,148.041188,-9918.759623,842.705048
466.197124,-222.061783,-9992.780217,1762.019645
466.197452,222.061783,-9474.636058,1685.410096
466.197779,-1554.432478,-9400.615463,1378.971896
466.198107,-3404.947333,-8586.388927,612.876398
466.198434,-3404.947333,-7994.224174,-306.438199
466.198762,-2664.741391,-7031.956449,-306.438199
466.199089,-1776.494261,-6957.935855,0.000000
466.199416,-1110.308913,-7105.977043,612.876398
466.199744,-2220.617826,-7772.162391,919.314598
466.200071,-3404.947333,-8438.347739,1072.533697
466.200399,-3701.029710,-8512.368333,0.000000
466.200726,-3775.050304,-9178.553681,-459.657299
466.201054,-1998.556043,-9178.553681,-383.047749
466.201381,-740.205942,-8956.491898,306.438199
466.201709,-666.185348,-8808.450710,919.314598
466.202036,222.061783,-9474.636058,1149.143247
466.202363,518.144159,-9178.553681,229.828649
466.202691,1924.535449,-8512.368333,76.609550
466.203018,3552.988522,-8512.368333,612.876398
466.203346,3923.091493,-8808.450710,1378.971896
466.203673,3997.112087,-9548.656652,2068.457845
466.204001,2220.617826,-10288.862594,1915.238745
466.204328,888.247130,-11103.089130,1455.581446
466.204655,444.123565,-10881.027347,1149.143247
466.204983,1184.329507,-10584.944971,1455.581446
466.205310,1924.535449,-9992.780217,1991.848295
466.205638,518.144159,-10066.800811,1302.362347
466.205965,-518.144159,-10214.842000,1532.190996
466.206293,-1998.556043,-9548.656652,383.047749
466.206620,-3034.844362,-8882.471304,-383.047749
466.206948,-1554.432478,-7920.203579,-459.657299
466.207275,-296.082377,-7254.018232,0.000000
466.207602,-518.144159,-7624.121203,0.000000
466.207930,-1110.308913,-7994.224174,0.000000
466.208257,-3627.009116,-8586.388927,-689.485948
466.208585,-4293.194464,-8882.471304,-1149.143247
466.208912,-3182.885551,-9030.512492,-1915.238745
466.209240,-2368.659014,-8956.491898,-1608.800546
466.209567,-518.144159,-8882.471304,-842.705048
466.209895,0.000000,-8882.471304,0.000000
466.210222,-296.082377,-9326.594869,153.219100
466.210549,148.041188,-9178.553681,-842.705048
466.210877,1258.350101,-8586.388927,0.000000
466.211204,3182.885551,-8660.409521,689.485948
466.211532,3997.112087,-9104.533087,1608.800546
466.211859,3330.926739,-9844.739029,1991.848295
466.212187,2220.617826,-10732.986159,2068.457845
466.212514,1258.350101,-10584.944971,1838.629195
466.212841,1036.288319,-10066.800811,1378.971896
466.213169,2368.659014,-9992.780217,1608.800546
466.213496,2442.679609,-10066.800811,1991.848295
466.213824,1702.473667,-9918.759623,2298.286494
466.214151,-1554.432478,-9844.739029,1762.019645
466.214479,-1924.535449,-9622.677246,919.314598
466.214806,-2368.659014,-9178.553681,0.000000
466.215134,-2146.597232,-8364.327145,-153.219100
466.215461,-888.247130,-7772.162391,306.438199
466.215788,-814.226536,-7550.100608,536.266849
466.216116,-2738.761985,-8068.244768,612.876398
466.216443,-3849.070898,-8364.327145,0.000000
466.216771,-5329.482782,-8660.409521,-1225.752797
466.217098,-4293.194464,-8290.306550,-1455.581446
466.217426,-2368.659014,-7698.141797,-1225.752797
466.217753,-1332.370696,-7550.100608,0.000000
466.218081,-296.082377,-7698.141797,536.266849
466.218408,-444.123565,-7846.182985,995.924147
466.218735,0.000000,-7846.182985,306.438199
466.219063,814.226536,-7476.080014,-459.657299
466.219390,2368.659014,-8068.244768,919.314598
466.219718,2812.782580,-8438.347739,1685.410096
466.220045,2442.679609,-9622.677246,2298.286494
466.220373,1628.453072,-10510.924376,2374.896044
466.220700,888.247130,-10732.986159,2145.067394
466.221028,1036.288319,-9992.780217,1838.629195
466.221355,2368.659014,-10140.821405,1532.190996
466.221682,2442.679609,-10140.821405,1991.848295
466.222010,1554.432478,-10288.862594,1991.848295
466.222337,-74.020594,-9918.759623,1378.971896
466.222665,-1850.514855,-9622.677246,229.828649
466.222992,-1332.370696,-9178.553681,-306.438199
466.223320,-1036.288319,-8660.409521,-153.219100
466.223647,-296.082377,-7994.224174,383.047749
466.223974,-370.102971,-8586.388927,919.314598
466.224302,-2072.576638,-8364.327145,459.657299
466.224629,-3849.070898,-9178.553681,-536.266849
466.224957,-4367.215058,-9030.512492,-1149.143247
466.225284,-4367.215058,-8586.388927,-1762.019645
466.225612,-1998.556043,-8512.368333,-1302.362347
466.225939,-666.185348,-8068.244768,-536.266849
466.226267,-296.082377,-8512.368333,229.828649
466.226594,0.000000,-8882.471304,229.828649
466.226921,-148.041188,-8882.471304,0.000000
466.227249,962.267725,-9030.512492,76.609550
466.227576,2590.720797,-9252.574275,459.657299
466.227904,2812.782580,-9474.636058,919.314598
466.228231,2442.679609,-10214.842000,2298.286494
466.228559,1480.411884,-10955.047942,2068.457845
466.228886,370.102971,-11103.089130,1532.190996
466.229214,814.226536,-10658.965565,1302.362347
466.229541,2072.576638,-10362.883188,1532.190996
466.229868,1850.514855,-9844.739029,1838.629195
466.230196,740.205942,-9696.697840,1762.019645
466.230523,-1110.308913,-9992.780217,1149.143247
466.230851,-1998.556043,-9622.677246,536.266849
466.231178,-1628.453072,-8586.388927,-153.219100
466.231506,-814.226536,-7698.141797,76.609550
466.231833,222.061783,-7402.059420,153.219100
466.232160,-740.205942,-7846.182985,1072.533697
466.232488,-2516.700203,-8512.368333,612.876398
466.232815,-4219.173869,-8438.347739,0.000000
466.233143,-4959.379811,-8142.265362,-995.924147
466.233470,-3923.091493,-7624.121203,-1608.800546
466.233798,-2146.597232,-7698.141797,-995.924147
466.234125,-1036.288319,-7550.100608,-459.657299
466.234453,-296.082377,-7772.162391,306.438199
466.234780,-666.185348,-7402.059420,153.219100
466.235107,-592.164754,-8216.285956,-153.219100
466.235435,740.205942,-8216.285956,-306.438199
466.235762,2368.659014,-8364.327145,383.047749
466.236090,3330.926739,-8882.471304,1302.362347
466.236417,2960.823768,-9400.615463,2145.067394
466.236745,1998.556043,-10436.903782,2145.067394
466.237072,1110.308913,-10732.986159,1608.800546
466.237400,1110.308913,-10658.965565,1302.362347
466.237727,1702.473667,-10288.862594,1225.752797
466.238054,2220.617826,-9918.759623,1532.190996
466.238382,888.247130,-10288.862594,1532.190996
466.238709,-444.123565,-9770.718434,1072.533697
466.239037,-1110.308913,-9252.574275,383.047749
466.239364,-1702.473667,-8734.430116,-306.438199
466.239692,-296.082377,-8438.347739,229.828649
466.240019,296.082377,-7328.038826,0.000000
466.240347,-1036.288319,-8290.306550,612.876398
466.240674,-2294.638420,-8882.471304,0.000000
466.241001,-3849.070898,-9474.636058,-766.095498
466.241329,-4737.318029,-9696.697840,-1532.190996
466.241656,-3552.988522,-8512.368333,-1302.362347
466.241984,-1702.473667,-9030.512492,-383.047749
466.242311,-814.226536,-9030.512492,153.219100
466.242639,-222.061783,-9326.594869,766.095498
466.242966,-888.247130,-9992.780217,153.219100
466.243293,-148.041188,-9178.553681,153.219100
466.243621,1258.350101,-9104.533087,0.000000
466.243948,2664.741391,-8956.491898,689.485948
466.244276,3330.926739,-9400.615463,1685.410096
466.244603,3108.864956,-9918.759623,2528.115143
466.244931,2146.597232,-10955.047942,2451.505594
466.245258,888.247130,-10955.047942,1991.848295
466.245586,1036.288319,-10881.027347,1762.019645
466.245913,1702.473667,-10807.006753,2221.676944
466.246240,1332.370696,-10807.006753,2298.286494
466.246568,-74.020594,-10955.047942,2528.115143
466.246895,-1850.514855,-10436.903782,1838.629195
466.247223,-2368.659014,-10066.800811,1225.752797
466.247550,-1776.494261,-9030.512492,459.657299
466.247878,-1036.288319,-8808.450710,612.876398
466.248205,-592.164754,-8660.409521,919.314598
466.248533,-1776.494261,-8660.409521,919.314598
466.248860,-3701.029710,-9178.553681,383.047749
466.249187,-5329.482782,-9400.615463,-306.438199
466.249515,-5107.421000,-8956.491898,-919.314598
466.249842,-3256.906145,-8364.327145,-1225.752797
466.250170,-1258.350101,-7550.100608,-689.485948
466.250497,0.000000,-7550.100608,229.828649
466.250825,0.000000,-7994.224174,689.485948
466.251152,0.000000,-7698.141797,153.219100
466.251479,0.000000,-7698.141797,-153.219100
466.251807,1628.453072,-7402.059420,689.485948
466.252134,3404.947333,-7994.224174,612.876398
466.252462,3404.947333,-8364.327145,1608.800546
466.252789,2664.741391,-9548.656652,1991.848295
466.253117,1924.535449,-9844.739029,1762.019645
466.253444,1406.391290,-10140.821405,1302.362347
466.253772,1998.556043,-9844.739029,1149.143247
466.254099,2368.659014,-9622.677246,842.705048
466.254426,2146.597232,-9326.594869,995.924147
466.254754,1554.432478,-9178.553681,1302.362347
466.255081,222.061783,-8882.471304,766.095498
466.255409,-1110.308913,-7920.203579,0.000000
466.255736,-222.061783,-7994.224174,0.000000
466.256064,0.000000,-7698.141797,-229.828649
466.256391,-444.123565,-7254.018232,459.657299
466.256719,-1258.350101,-8216.285956,766.095498
466.257046,-3256.906145,-8808.450710,229.828649
466.257373,-4737.318029,-9104.533087,-842.705048
466.257701,-4663.297435,-8216.285956,-1225.752797
466.258028,-3478.967927,-7698.141797,-1608.800546
466.258356,-1776.494261,-7105.977043,-995.924147
466.258683,-222.061783,-7328.038826,-229.828649
466.259011,-962.267725,-7550.100608,0.000000
466.259338,-1036.288319,-7846.182985,-229.828649
466.259666,-740.205942,-7846.182985,-842.705048
466.259993,370.102971,-7846.182985,-459.657299
466.260320,2146.597232,-8068.244768,689.485948
466.260648,2738.761985,-9030.512492,995.924147
466.260975,2220.617826,-9992.780217,1762.019645
466.261303,1110.308913,-10807.006753,1685.410096
466.261630,518.144159,-11029.068536,1378.971896
466.261958,962.267725,-10881.027347,1302.362347
466.262285,1998.556043,-10732.986159,1378.971896
466.262612,2072.576638,-10732.986159,1762.019645
466.262940,1332.370696,-10658.965565,2374.896044
466.263267,444.123565,-10436.903782,1991.848295
466.263595,0.000000,-10066.800811,1225.752797
466.263922,-370.102971,-9252.574275,536.266849
466.264250,888.247130,-8882.471304,1225.752797
466.264577,444.123565,-8660.409521,1685.410096
466.264905,-1110.308913,-9548.656652,1991.848295
466.265232,-3034.844362,-9918.759623,1149.143247
466.265559,-4737.318029,-9918.759623,689.485948
466.265887,-4737.318029,-9844.739029,0.000000
466.266214,-3627.009116,-9030.512492,-612.876398
466.266542,-2516.700203,-8882.471304,-306.438199
466.266869,-2146.597232,-8512.368333,306.438199
466.267197,-2220.617826,-8438.347739,153.219100
466.267524,-2590.720797,-9030.512492,153.219100
466.267852,-2220.617826,-8364.327145,-459.657299
466.268179,-370.102971,-7920.203579,-383.047749
466.268506,1258.350101,-8290.306550,383.047749
466.268834,2368.659014,-8586.388927,1685.410096
466.269161,2368.659014,-9252.574275,2451.505594
466.269489,814.226536,-10066.800811,2068.457845
466.269816,296.082377,-10510.924376,1685.410096
466.270144,518.144159,-10732.986159,1302.362347
466.270471,1258.350101,-10510.924376,1685.410096
466.270798,1628.453072,-9992.780217,2374.896044
466.271126,1406.391290,-10066.800811,2145.067394
466.271453,296.082377,-9622.677246,1838.629195
466.271781,296.082377,-8882.471304,919.314598
466.272108,1036.288319,-7772.162391,153.219100
466.272436,1702.473667,-7624.121203,1149.143247
466.272763,1850.514855,-7772.162391,995.924147
466.273091,-148.041188,-9030.512492,1072.533697
466.273418,-2812.782580,-9030.512492,536.266849
466.273746,-3849.070898,-9548.656652,-459.657299
466.274073,-3997.112087,-8882.471304,-919.314598
466.274400,-2886.803174,-8734.430116,-766.095498
466.274728,-1480.411884,-8068.244768,-612.876398
466.275055,-1406.391290,-8438.347739,-306.438199
466.275383,-2072.576638,-8216.285956,-612.876398
466.275710,-1850.514855,-7994.224174,-1532.190996
466.276038,-1702.473667,-7550.100608,-1762.019645
466.276365,592.164754,-7105.977043,-1378.971896
466.276693,2368.659014,-7105.977043,-153.219100
466.277020,2738.761985,-7698.141797,689.485948
466.277348,2442.679609,-8882.471304,1302.362347
466.277675,1406.391290,-9474.636058,842.705048
466.278002,592.164754,-10288.862594,842.705048
466.278330,888.247130,-10436.903782,383.047749
466.278657,1702.473667,-10510.924376,689.485948
466.278985,1998.556043,-10807.006753,1455.581446
466.279312,1850.514855,-10288.862594,2068.457845
466.279640,1110.308913,-10510.924376,1532.190996
466.279967,740.205942,-9918.759623,1225.752797
466.280295,814.226536,-9178.553681,842.705048
466.280622,1628.453072,-9178.553681,1455.581446
466.280949,1036.288319,-8586.388927,842.705048
466.281277,-1406.391290,-9178.553681,1685.410096
466.281604,-2886.803174,-9696.697840,612.876398
466.281932,-4589.276840,-9992.780217,0.000000
466.282259,-4219.173869,-9178.553681,-536.266849
466.282587,-2368.659014,-8438.347739,-229.828649
466.282914,-1332.370696,-8216.285956,306.438199
466.283242,-1406.391290,-8216.285956,612.876398
466.283569,-2220.617826,-8364.327145,306.438199
466.283897,-2886.803174,-8068.244768,-536.266849
466.284224,-1850.514855,-7846.182985,-689.485948
466.284551,74.020594,-7698.141797,-536.266849
466.284879,888.247130,-7698.141797,689.485948
466.285206,1702.473667,-8586.388927,1455.581446
466.285534,740.205942,-9696.697840,1532.190996
466.285861,-296.082377,-10510.924376,1072.533697
466.286189,-296.082377,-10140.821405,689.485948
466.286516,962.267725,-10066.800811,689.485948
466.286844,2294.638420,-10362.883188,1225.752797
466.287171,2442.679609,-10214.842000,1608.800546
466.287499,2072.576638,-10362.883188,2145.067394
466.287826,1258.350101,-10584.944971,2145.067394
466.288153,666.185348,-10214.842000,1225.752797
466.288481,1184.329507,-9622.677246,1225.752797
466.288808,1554.432478,-9252.574275,766.095498
466.289136,444.123565,-9622.677246,1532.190996
466.289463,-296.082377,-9844.739029,1838.629195
466.289791,-2220.617826,-10140.821405,1072.533697
466.290118,-3775.050304,-9474.636058,459.657299
466.290446,-3256.906145,-9178.553681,-383.047749
466.290773,-2294.638420,-8512.368333,-383.047749
466.291101,-2072.576638,-8290.306550,-306.438199
466.291428,-1628.453072,-7624.121203,306.438199
466.291755,-2368.659014,-7920.203579,-306.438199
466.292083,-2960.823768,-7772.162391,-1149.143247
466.292410,-1480.411884,-7105.977043,-1302.362347
466.292738,0.000000,-7254.018232,-842.705048
466.293065,1628.453072,-7254.018232,153.219100
466.293393,1184.329507,-8068.244768,919.314598
466.293720,0.000000,-9548.656652,1149.143247
466.294048,-814.226536,-10288.862594,383.047749
466.294375,-888.247130,-10140.821405,0.000000
466.294703,296.082377,-9696.697840,153.219100
466.295030,1998.556043,-9474.636058,459.657299
466.295357,2516.700203,-9474.636058,842.705048
466.295685,2368.659014,-9400.615463,1455.581446
466.296012,1480.411884,-9326.594869,1072.533697
466.296340,1258.350101,-9178.553681,383.047749
466.296667,1776.494261,-8956.491898,919.314598
466.296995,1850.514855,-9030.512492,766.095498
466.297322,1036.288319,-9474.636058,689.485948
466.297650,0.000000,-9844.739029,1532.190996
466.297977,-1184.329507,-9844.739029,842.705048
466.298304,-2442.679609,-10066.800811,0.000000
466.298632,-2368.659014,-8956.491898,0.000000
466.298959,-1480.411884,-8512.368333,0.000000
466.299287,-1332.370696,-7994.224174,76.609550
466.299614,-1702.473667,-8142.265362,229.828649
466.299942,-1924.535449,-8438.347739,0.000000
466.300269,-2812.782580,-7698.141797,-766.095498
466.300597,-1554.432478,-7328.038826,-689.485948
466.300924,74.020594,-7105.977043,-459.657299
466.301252,666.185348,-7476.080014,612.876398
466.301579,888.247130,-8586.388927,1685.410096
466.301906,-296.082377,-9178.553681,1685.410096
466.302234,-1406.391290,-10140.821405,1072.533697
466.302561,-1776.494261,-10584.944971,459.657299
466.302889,-666.185348,-10288.862594,306.438199
466.303216,518.144159,-10066.800811,1225.752797
466.303544,1406.391290,-10214.842000,919.314598
466.303871,666.185348,-9992.780217,1991.848295
466.304199,148.041188,-9992.780217,1225.752797
466.304526,222.061783,-9474.636058,689.485948
466.304854,1036.288319,-9104.533087,612.876398
466.305181,2146.597232,-9104.533087,1072.533697
466.305508,1332.370696,-9474.636058,1608.800546
466.305836,148.041188,-9992.780217,2068.457845
466.306163,-1332.370696,-10436.903782,1762.019645
466.306491,-2294.638420,-10214.842000,536.266849
466.306818,-1702.473667,-9696.697840,612.876398
466.307146,-296.082377,-8586.388927,536.266849
466.307473,-518.144159,-8882.471304,995.924147
466.307801,-1036.288319,-8882.471304,995.924147
466.308128,-1924.535449,-8956.491898,536.266849
466.308456,-2368.659014,-8586.388927,0.000000
466.308783,-1480.411884,-7550.100608,-306.438199
466.309110,222.061783,-7328.038826,-306.438199
466.309438,962.267725,-7476.080014,153.219100
466.309765,740.205942,-8290.306550,842.705048
466.310093,-888.247130,-9252.574275,612.876398
466.310420,-1998.556043,-9770.718434,229.828649
466.310748,-2220.617826,-9622.677246,-306.438199
466.311075,-888.247130,-9622.677246,-229.828649
466.311403,518.144159,-9474.636058,153.219100
466.311730,1184.329507,-9548.656652,995.924147
466.312057,888.247130,-9474.636058,1072.533697
466.312385,296.082377,-9474.636058,229.828649
466.312712,148.041188,-9252.574275,306.438199
466.313040,1184.329507,-8734.430116,76.609550
466.313367,1924.535449,-8660.409521,536.266849
466.313695,888.247130,-8660.409521,995.924147
466.314022,0.000000,-9474.636058,1378.971896
466.314350,-1258.350101,-9548.656652,689.485948
466.314677,-1924.535449,-9326.594869,-459.657299
466.315005,-1480.411884,-8734.430116,-229.828649
466.315332,592.164754,-8586.388927,459.657299
466.315659,370.102971,-8512.368333,1072.533697
466.315987,-148.041188,-8586.388927,1378.971896
466.316314,-1332.370696,-8808.450710,612.876398
466.316642,-1628.453072,-8290.306550,0.000000
466.316969,-1332.370696,-7772.162391,-383.047749
466.317297,814.226536,-7254.018232,76.609550
466.317624,888.247130,-7772.162391,689.485948
466.317952,518.144159,-8438.347739,1302.362347
466.318279,-1258.350101,-9178.553681,1072.533697
466.318607,-2590.720797,-9474.636058,0.000000
466.318934,-2294.638420,-9326.594869,-536.266849
466.319261,-962.267725,-8882.471304,-459.657299
466.319589,592.164754,-8956.491898,76.609550
466.319916,1036.288319,-9030.512492,919.314598
466.320244,740.205942,-9474.636058,1302.362347
466.320571,0.000000,-9252.574275,1072.533697
466.320899,0.000000,-8586.388927,306.438199
466.321226,592.164754,-8882.471304,383.047749
466.321554,962.267725,-9178.553681,842.705048
466.321881,518.144159,-9548.656652,1225.752797
466.322209,-370.102971,-10214.842000,1762.019645
466.322536,-1258.350101,-10288.862594,1378.971896
466.322863,-1036.288319,-9548.656652,612.876398
466.323191,0.000000,-9252.574275,153.219100
466.323518,0.000000,-8956.491898,459.657299
466.323846,592.164754,-9030.512492,995.924147
466.324173,-518.144159,-8586.388927,1762.019645
466.324501,-1258.350101,-9104.533087,306.438199
466.324828,-1480.411884,-8956.491898,-229.828649
466.325156,-444.123565,-8364.327145,0.000000
466.325483,592.164754,-8364.327145,383.047749
466.325811,1406.391290,-8882.471304,1685.410096
466.326138,370.102971,-9474.636058,1838.629195
466.326465,-1998.556043,-10140.821405,919.314598
466.326793,-2664.741391,-10510.924376,0.000000
466.327120,-2590.720797,-10362.883188,-153.219100
466.327448,-1258.350101,-9844.739029,-306.438199
466.327775,0.000000,-8364.327145,536.266849
466.328103,814.226536,-8956.491898,1378.971896
466.328430,370.102971,-8956.491898,919.314598
466.328758,-222.061783,-9104.533087,383.047749
466.329085,-444.123565,-8586.388927,0.000000
466.329412,296.082377,-8438.347739,0.000000
466.329740,962.267725,-8808.450710,459.657299
466.330067,518.144159,-9326.594869,1072.533697
466.330395,0.000000,-9918.759623,1608.800546
466.330722,-814.226536,-10584.944971,1225.752797
466.331050,-888.247130,-10214.842000,842.705048
466.331377,-1036.288319,-9844.739029,0.000000
466.331705,0.000000,-9548.656652,689.485948
466.332032,148.041188,-9696.697840,842.705048
466.332360,-592.164754,-9622.677246,919.314598
466.332687,-962.267725,-9400.615463,153.219100
466.333014,-888.247130,-8364.327145,0.000000
466.333342,444.123565,-7920.203579,-229.828649
466.333669,1776.494261,-7476.080014,229.828649
466.333997,2220.617826,-7772.162391,995.924147
466.334324,740.205942,-8364.327145,1302.362347
466.334652,-740.205942,-9474.636058,612.876398
466.334979,-2368.659014,-9622.677246,0.000000
466.335307,-2368.659014,-9400.615463,-383.047749
466.335634,-962.267725,-9400.615463,0.000000
466.335962,0.000000,-9326.594869,536.266849
466.336289,296.082377,-8660.409521,1149.143247
466.336616,-518.144159,-9326.594869,536.266849
466.336944,-1258.350101,-9178.553681,0.000000
466.337271,-888.247130,-8290.306550,-612.876398
466.337599,148.041188,-8068.244768,-612.876398
466.337926,1406.391290,-7994.224174,0.000000
466.338254,962.267725,-8882.471304,689.485948
466.338581,0.000000,-9622.677246,1302.362347
466.338909,-1332.370696,-9918.759623,689.485948
466.339236,-1702.473667,-10214.842000,153.219100
466.339564,-962.267725,-9474.636058,-536.266849
466.339891,296.082377,-9622.677246,1302.362347
466.340218,444.123565,-9474.636058,995.924147
466.340546,-148.041188,-9548.656652,1302.362347
466.340873,-444.123565,-9400.615463,689.485948
466.341201,-222.061783,-8512.368333,536.266849
466.341528,1036.288319,-7994.224174,612.876398
466.341856,2072.576638,-7846.182985,766.095498
466.342183,1628.453072,-8216.285956,1302.362347
466.342511,370.102971,-9104.533087,1455.581446
466.342838,-1184.329507,-9474.636058,995.924147
466.343165,-2072.576638,-9474.636058,76.609550
466.343493,-1924.535449,-9400.615463,0.000000
466.343820,-592.164754,-9178.553681,229.828649
466.344148,222.061783,-8956.491898,995.924147
466.344475,-148.041188,-9104.533087,1455.581446
466.344803,-592.164754,-9252.574275,1225.752797
466.345130,-1554.432478,-9326.594869,842.705048
466.345458,-1332.370696,-9104.533087,0.000000
466.345785,-370.102971,-8660.409521,0.000000
466.346113,370.102971,-8734.430116,536.266849
466.346440,0.000000,-8808.450710,995.924147
466.346767,-888.247130,-9474.636058,1608.800546
466.347095,-2072.576638,-9622.677246,766.095498
466.347422,-1998.556043,-9622.677246,0.000000
466.347750,-1184.329507,-9326.594869,0.000000
466.348077,74.020594,-9326.594869,229.828649
466.348405,666.185348,-9474.636058,766.095498
466.348732,222.061783,-9474.636058,1378.971896
466.349060,-222.061783,-9474.636058,842.705048
466.349387,-296.082377,-8882.471304,459.657299
466.349715,888.247130,-8364.327145,383.047749
466.350042,2072.576638,-8290.306550,1302.362347
466.350369,1702.473667,-8660.409521,1378.971896
466.350697,444.123565,-9400.615463,1532.190996
466.351024,-1332.370696,-9844.739029,995.924147
466.351352,-1924.535449,-9696.697840,229.828649
466.351679,-888.247130,-9400.615463,76.609550
466.352007,444.123565,-8364.327145,229.828649
466.352334,814.226536,-8956.491898,919.314598
466.352662,666.185348,-8956.491898,1149.143247
466.352989,-148.041188,-9178.553681,612.876398
466.353317,-1332.370696,-8438.347739,76.609550
466.353644,-814.226536,-8364.327145,-153.219100
466.353971,-222.061783,-8512.368333,-383.047749
466.354299,296.082377,-8734.430116,306.438199
466.354626,-148.041188,-8956.491898,1378.971896
466.354954,-962.267725,-9548.656652,842.705048
466.355281,-1998.556043,-9696.697840,306.438199
466.355609,-2294.638420,-9622.677246,-153.219100
466.355936,-1480.411884,-9400.615463,-383.047749
466.356264,-148.041188,-8882.471304,0.000000
466.356591,-296.082377,-8734.430116,229.828649
466.356919,0.000000,-8586.388927,229.828649
466.357246,-518.144159,-8808.450710,229.828649
466.357573,0.000000,-8142.265362,76.609550
466.357901,1110.308913,-7994.224174,0.000000
466.358228,1924.535449,-8290.306550,766.095498
466.358556,1776.494261,-9030.512492,1225.752797
466.358883,0.000000,-9548.656652,1225.752797
466.359211,-1554.432478,-10436.903782,612.876398
466.359538,-2072.576638,-10436.903782,229.828649
466.359866,-1480.411884,-10140.821405,0.000000
466.360193,148.041188,-9400.615463,-229.828649
466.360520,518.144159,-8956.491898,1072.533697
466.360848,592.164754,-8956.491898,995.924147
466.361175,-888.247130,-9178.553681,229.828649
466.361503,-1480.411884,-9252.574275,-229.828649
466.361830,-1110.308913,-8512.368333,-995.924147
466.362158,370.102971,-7772.162391,0.000000
466.362485,1332.370696,-8364.327145,229.828649
466.362813,1110.308913,-8734.430116,1072.533697
466.363140,222.061783,-9474.636058,1455.581446
466.363468,-888.247130,-9918.759623,1072.533697
466.363795,-888.247130,-9548.656652,689.485948
466.364122,-962.267725,-9548.656652,383.047749
466.364450,-148.041188,-9770.718434,842.705048
466.364777,-370.102971,-9622.677246,1149.143247
466.365105,-666.185348,-9474.636058,1225.752797
466.365432,-592.164754,-9252.574275,1225.752797
466.365760,370.102971,-7772.162391,995.924147
466.366087,1628.453072,-7402.059420,842.705048
466.366415,2368.659014,-7254.018232,1302.362347
466.366742,1776.494261,-8216.285956,1915.238745
466.367070,74.020594,-9178.553681,1915.238745
466.367397,-1776.494261,-9844.739029,1455.581446
466.367724,-3256.906145,-10140.821405,459.657299
466.368052,-2664.741391,-9844.739029,306.438199
466.368379,-1258.350101,-9622.677246,459.657299
466.368707,-888.247130,-9252.574275,1225.752797
466.369034,-1184.329507,-9770.718434,842.705048
466.369362,-2368.659014,-9178.553681,612.876398
466.369689,-2664.741391,-8808.450710,-76.609550
466.370017,-1998.556043,-8068.244768,-995.924147
466.370344,74.020594,-7402.059420,-612.876398
466.370672,1184.329507,-7624.121203,0.000000
466.370999,1110.308913,-7994.224174,842.705048
466.371326,-370.102971,-8956.491898,689.485948
466.371654,-1406.391290,-9622.677246,612.876398
466.371981,-1480.411884,-9622.677246,-153.219100
466.372309,-444.123565,-9474.636058,76.609550
466.372636,518.144159,-9548.656652,153.219100
466.372964,888.247130,-10066.800811,766.095498
466.373291,518.144159,-9918.759623,1072.533697
466.373619,518.144159,-9474.636058,842.705048
466.373946,962.267725,-8734.430116,459.657299
466.374273,2738.761985,-8364.327145,842.705048
466.374601,3256.906145,-8438.347739,1225.752797
466.374928,2368.659014,-8882.471304,1455.581446
466.375256,1036.288319,-9548.656652,1455.581446
466.375583,-740.205942,-10140.821405,919.314598
466.375911,-1406.391290,-10214.842000,383.047749
466.376238,-814.226536,-9474.636058,306.438199
466.376566,-370.102971,-9474.636058,689.485948
466.376893,-148.041188,-9178.553681,919.314598
466.377221,-1628.453072,-9474.636058,919.314598
466.377548,-2442.679609,-9326.594869,536.266849
466.377875,-3256.906145,-8882.471304,-766.095498
466.378203,-2664.741391,-8142.265362,-1378.971896
466.378530,-962.267725,-7402.059420,-1072.533697
466.378858,74.020594,-7476.080014,0.000000
466.379185,-222.061783,-7698.141797,383.047749
466.379513,-1628.453072,-8438.347739,536.266849
466.379840,-2368.659014,-9252.574275,-229.828649
466.380168,-2146.597232,-9400.615463,-1072.533697
466.380495,-888.247130,-9104.533087,-842.705048
466.380822,444.123565,-9252.574275,153.219100
466.381150,1406.391290,-9696.697840,995.924147
466.381477,1628.453072,-9326.594869,1225.752797
466.381805,1406.391290,-9104.533087,1455.581446
466.382132,1850.514855,-8734.430116,919.314598
466.382460,2664.741391,-8808.450710,1225.752797
466.382787,3034.844362,-7994.224174,1991.848295
466.383115,2516.700203,-9474.636058,2068.457845
466.383442,592.164754,-10066.800811,1762.019645
466.383769,-666.185348,-10510.924376,1838.629195
466.384097,-740.205942,-9992.780217,1072.533697
466.384424,222.061783,-9104.533087,842.705048
466.384752,592.164754,-9104.533087,536.266849
466.385079,0.000000,-9178.553681,1149.143247
466.385407,-1702.473667,-9104.533087,766.095498
466.385734,-3108.864956,-9178.553681,229.828649
466.386062,-4145.153275,-8808.450710,-459.657299
466.386389,-2664.741391,-7624.121203,-383.047749
466.386716,-1258.350101,-7550.100608,-229.828649
466.387044,-666.185348,-7772.162391,689.485948
466.387371,-1184.329507,-8364.327145,842.705048
466.387699,-2368.659014,-8734.430116,842.705048
466.388026,-3182.885551,-9326.594869,0.000000
466.388354,-2812.782580,-9400.615463,-612.876398
466.388681,-1850.514855,-9178.553681,-459.657299
466.389009,-222.061783,-9104.533087,306.438199
466.389336,518.144159,-9252.574275,1072.533697
466.389664,888.247130,-9548.656652,842.705048
466.389991,814.226536,-9326.594869,995.924147
466.390318,1554.432478,-9252.574275,766.095498
466.390646,2516.700203,-9030.512492,1149.143247
466.390973,2886.803174,-9400.615463,1685.410096
466.391301,2294.638420,-10140.821405,2298.286494
466.391628,888.247130,-10362.883188,2374.896044
466.391956,0.000000,-10807.006753,1532.190996
466.392283,0.000000,-10362.883188,919.314598
466.392611,-592.164754,-10288.862594,766.095498
466.392938,740.205942,-9696.697840,1608.800546
466.393265,296.082377,-9548.656652,1532.190996
466.393593,-1776.494261,-9844.739029,842.705048
466.393920,-2664.741391,-9696.697840,76.609550
466.394248,-2516.700203,-9104.533087,-689.485948
466.394575,-1924.535449,-8586.388927,-995.924147
466.394903,148.041188,-7624.121203,76.609550
466.395230,-148.041188,-7920.203579,459.657299
466.395558,-518.144159,-8364.327145,842.705048
466.395885,-2146.597232,-8956.491898,0.000000
466.396212,-3256.906145,-9474.636058,-766.095498
466.396540,-2738.761985,-9030.512492,-1149.143247
466.396867,-1480.411884,-8882.471304,-383.047749
466.397195,0.000000,-8956.491898,-229.828649
466.397522,666.185348,-9030.512492,689.485948
466.397850,296.082377,-9178.553681,919.314598
466.398177,592.164754,-8882.471304,1072.533697
466.398505,1628.453072,-8142.265362,459.657299
466.398832,2146.597232,-8142.265362,612.876398
466.399159,2812.782580,-8956.491898,1302.362347
466.399487,2442.679609,-9474.636058,1762.019645
466.399814,1332.370696,-10140.821405,1915.238745
466.400142,148.041188,-9844.739029,1762.019645
466.400469,-296.082377,-10288.862594,1302.362347
466.400797,-370.102971,-9770.718434,76.609550
466.401124,444.123565,-9400.615463,1378.971896
466.401452,814.226536,-9326.594869,1072.533697
466.401779,-592.164754,-9178.553681,995.924147
466.402107,-2146.597232,-8734.430116,229.828649
466.402434,-2368.659014,-8290.306550,-766.095498
466.402761,-1480.411884,-7476.080014,-689.485948
466.403089,-296.082377,-7105.977043,-536.266849
466.403416,0.000000,-7476.080014,689.485948
466.403744,-1554.432478,-8068.244768,383.047749
466.404071,-2590.720797,-9252.574275,383.047749
466.404399,-3849.070898,-9400.615463,-459.657299
466.404726,-3404.947333,-8660.409521,-1149.143247
466.405054,-1258.350101,-8216.285956,-995.924147
466.405381,0.000000,-7920.203579,536.266849
466.405708,592.164754,-8512.368333,689.485948
466.406036,222.061783,-8882.471304,689.485948
466.406363,222.061783,-8660.409521,459.657299
466.406691,1110.308913,-8216.285956,383.047749
466.407018,2442.679609,-8142.265362,383.047749
466.407346,3108.864956,-8956.491898,1532.190996
466.407673,2590.720797,-9474.636058,2374.896044
466.408001,1406.391290,-10288.862594,2298.286494
466.408328,444.123565,-10510.924376,2145.067394
466.408655,222.061783,-10436.903782,1302.362347
466.408983,814.226536,-9844.739029,1915.238745
466.409310,1184.329507,-9992.780217,1838.629195
466.409638,0.000000,-9844.739029,1532.190996
466.409965,-1480.411884,-9844.739029,1455.581446
466.410293,-2516.700203,-8882.471304,995.924147
466.410620,-2960.823768,-8734.430116,153.219100
466.410948,-1480.411884,-8216.285956,-306.438199
466.411275,-370.102971,-7772.162391,0.000000
466.411602,-814.226536,-7920.203579,536.266849
466.411930,-2072.576638,-8734.430116,995.924147
466.412257,-3627.009116,-9548.656652,536.266849
466.412585,-4737.318029,-9696.697840,-1149.143247
466.412912,-3330.926739,-9104.533087,-1378.971896
466.413240,-1332.370696,-8586.388927,-612.876398
466.413567,148.041188,-8512.368333,153.219100
466.413895,1110.308913,-8660.409521,689.485948
466.414222,592.164754,-8808.450710,1072.533697
466.414550,518.144159,-8882.471304,612.876398
466.414877,962.267725,-8660.409521,153.219100
466.415204,1924.535449,-8956.491898,689.485948
466.415532,2368.659014,-9326.594869,1149.143247
466.415859,2072.576638,-10288.862594,1991.848295
466.416187,962.267725,-10881.027347,1991.848295
466.416514,148.041188,-10955.047942,1532.190996
466.416842,0.000000,-10658.965565,766.095498
466.417169,740.205942,-9918.759623,1455.581446
466.417497,888.247130,-9474.636058,306.438199
466.417824,0.000000,-9770.718434,1072.533697
466.418151,-222.061783,-9474.636058,612.876398
466.418479,-2072.576638,-9622.677246,-153.219100
466.418806,-2220.617826,-8438.347739,-383.047749
466.419134,-1628.453072,-8068.244768,-689.485948
466.419461,-740.205942,-7772.162391,0.000000
466.419789,-1258.350101,-7846.182985,76.609550
466.420116,-1924.535449,-8512.368333,229.828649
466.420444,-3849.070898,-9178.553681,-383.047749
466.420771,-4071.132681,-9474.636058,-1225.752797
466.421098,-3182.885551,-8586.388927,-1608.800546
466.421426,-1184.329507,-8512.368333,-1302.362347
466.421753,666.185348,-8290.306550,0.000000
466.422081,1554.432478,-8438.347739,766.095498
466.422408,1702.473667,-8586.388927,459.657299
466.422736,1258.350101,-8808.450710,153.219100
466.423063,2072.576638,-8956.491898,229.828649
466.423391,3330.926739,-8808.450710,612.876398
466.423718,3404.947333,-9252.574275,1532.190996
466.424045,2664.741391,-9474.636058,2451.505594
466.424373,1776.494261,-10584.944971,2681.334243
466.424700,1036.288319,-10881.027347,1915.238745
466.425028,740.205942,-10584.944971,1378.971896
466.425355,1258.350101,-10066.800811,1455.581446
466.425683,1258.350101,-9770.718434,1915.238745
466.426010,74.020594,-9474.636058,1378.971896
466.426338,-1924.535449,-9548.656652,1302.362347
466.426665,-2368.659014,-8734.430116,306.438199
466.426993,-2812.782580,-8660.409521,0.000000
466.427320,-1850.514855,-7772.162391,-383.047749
466.427647,-518.144159,-7698.141797,689.485948
466.427975,-1332.370696,-8290.306550,1072.533697
466.428302,-2738.761985,-8956.491898,612.876398
466.428630,-4589.276840,-9696.697840,0.000000
466.428957,-5107.421000,-9326.594869,-612.876398
466.429285,-2738.761985,-8734.430116,-536.266849
466.429612,-962.267725,-7994.224174,-153.219100
466.429940,592.164754,-7920.203579,612.876398
466.430267,1332.370696,-8216.285956,1532.190996
466.430594,888.247130,-8512.368333,1685.410096
466.430922,148.041188,-8586.388927,1149.143247
466.431249,1850.514855,-8882.471304,1378.971896
466.431577,3108.864956,-8956.491898,1685.410096
466.431904,4441.235652,-9252.574275,2911.162892
466.432232,4367.215058,-10214.842000,3907.087040
466.432559,3478.967927,-11029.068536,4596.572988
466.432887,1924.535449,-11029.068536,3600.648841
466.433214,962.267725,-11251.130318,3370.820191
466.433541,888.247130,-10807.006753,2911.162892
466.433869,1702.473667,-10658.965565,3217.601092
466.434196,370.102971,-9622.677246,3447.429741
466.434524,148.041188,-9474.636058,3753.867940
466.434851,-1036.288319,-8512.368333,2757.943793
466.435179,-2516.700203,-8882.471304,2221.676944
466.435506,-3330.926739,-8216.285956,1072.533697
466.435834,-2886.803174,-7846.182985,1072.533697
466.436161,-2664.741391,-7328.038826,2374.896044
466.436488,-1924.535449,-7402.059420,2528.115143
466.436816,-2516.700203,-8068.244768,2604.724693
466.437143,-4071.132681,-9030.512492,1455.581446
466.437471,-4737.318029,-9400.615463,766.095498
466.437798,-5181.441594,-8956.491898,383.047749
466.438126,-3330.926739,-7994.224174,612.876398
466.438453,-592.164754,-7550.100608,2145.067394
466.438781,2072.576638,-7698.141797,3217.601092
466.439108,2886.803174,-7994.224174,3447.429741
466.439436,2072.576638,-8956.491898,3294.210641
466.439763,370.102971,-9844.739029,2757.943793
466.440090,-444.123565,-9918.759623,2145.067394
466.440418,962.267725,-9770.718434,2681.334243
466.440745,3701.029710,-9178.553681,4136.915689
466.441073,5995.668130,-9178.553681,5515.887586
466.441400,6291.750507,-9696.697840,6358.592633
466.441728,3775.050304,-10510.924376,6281.983084
466.442055,740.205942,-11029.068536,5362.668486
466.442383,-1554.432478,-11177.109724,3907.087040
466.442710,-3330.926739,-10881.027347,2604.724693
466.443037,-1184.329507,-9844.739029,2681.334243
466.443365,888.247130,-7994.224174,4060.306139
466.443692,1406.391290,-7698.141797,5056.230287
466.444020,1480.411884,-7550.100608,5669.106685
466.444347,-962.267725,-7846.182985,4443.353888
466.444675,-4071.132681,-8956.491898,2911.162892
466.445002,-5773.606348,-8216.285956,1608.800546
466.445330,-6809.894666,-9400.615463,842.705048
466.445657,-5033.400406,-8734.430116,1378.971896
466.445984,-1924.535449,-7846.182985,2987.772442
466.446312,222.061783,-7402.059420,4903.011187
466.446639,2072.576638,-7105.977043,5286.058936
466.446967,1184.329507,-7698.141797,4903.011187
466.447294,-1258.350101,-8808.450710,3600.648841
466.447622,-2960.823768,-10066.800811,2221.676944
466.447949,-3849.070898,-11103.089130,1378.971896
466.448277,-2664.741391,-11177.109724,1608.800546
466.448604,-444.123565,-10140.821405,2451.505594
466.448932,1924.535449,-9030.512492,3447.429741
466.449259,3775.050304,-8512.368333,4213.525239
466.449586,4071.132681,-8660.409521,4290.134789
466.449914,3182.885551,-9326.594869,3600.648841
466.450241,1628.453072,-9844.739029,2757.943793
466.450569,814.226536,-10658.965565,2528.115143
466.450896,518.144159,-10436.903782,2834.553343
466.451224,592.164754,-10436.903782,3140.991542
466.451551,962.267725,-10436.903782,4443.353888
466.451879,444.123565,-9696.697840,3830.477490
466.452206,-962.267725,-9622.677246,4060.306139
466.452533,74.020594,-8956.491898,2911.162892
466.452861,-518.144159,-8660.409521,2834.553343
466.453188,-370.102971,-8068.244768,2145.067394
466.453516,962.267725,-8290.306550,2681.334243
466.453843,444.123565,-8512.368333,2834.553343
466.454171,296.082377,-7994.224174,3217.601092
466.454498,814.226536,-8290.306550,3830.477490
466.454826,518.144159,-8734.430116,3600.648841
466.455153,148.041188,-9252.574275,3217.601092
466.455480,-592.164754,-9178.553681,3294.210641
466.455808,-1628.453072,-9474.636058,3370.820191
466.456135,-2072.576638,-9548.656652,3600.648841
466.456463,-2368.659014,-9622.677246,3294.210641
466.456790,-1850.514855,-9326.594869,3753.867940
466.457118,-962.267725,-8882.471304,3753.867940
466.457445,-592.164754,-8660.409521,3140.991542
466.457773,-370.102971,-8364.327145,3064.381992
466.458100,-592.164754,-8216.285956,2987.772442
466.458427,-888.247130,-8216.285956,3064.381992
466.458755,-666.185348,-8734.430116,3217.601092
466.459082,-370.102971,-8660.409521,3217.601092
466.459410,74.020594,-8734.430116,3677.258390
466.459737,592.164754,-9104.533087,3830.477490
466.460065,666.185348,-9474.636058,4060.306139
466.460392,370.102971,-9474.636058,3983.696590
466.460720,-444.123565,-10140.821405,3524.039291
466.461047,-888.247130,-10140.821405,3907.087040
466.461375,-222.061783,-9326.594869,3447.429741
466.461702,-740.205942,-9104.533087,2987.772442
466.462029,740.205942,-8290.306550,3217.601092
466.462357,740.205942,-8734.430116,2451.505594
466.462684,444.123565,-9030.512492,2451.505594
466.463012,-296.082377,-8956.491898,2068.457845
466.463339,0.000000,-9400.615463,2374.896044
466.463667,-740.205942,-9178.553681,2145.067394
466.463994,-740.205942,-9104.533087,1991.848295
466.464322,-518.144159,-9400.615463,2068.457845
466.464649,-740.205942,-9252.574275,1608.800546
466.464976,-444.123565,-9252.574275,1838.629195
466.465304,-1110.308913,-9474.636058,1991.848295
466.465631,-1184.329507,-9326.594869,1685.410096
466.465959,-1332.370696,-9400.615463,1608.800546
466.466286,-962.267725,-9104.533087,1378.971896
466.466614,-296.082377,-8808.450710,1072.533697
466.466941,444.123565,-8734.430116,1149.143247
466.467269,1110.308913,-8734.430116,1378.971896
466.467596,518.144159,-8808.450710,689.485948
466.467923,148.041188,-9474.636058,1225.752797
466.468251,74.020594,-9696.697840,1302.362347
466.468578,0.000000,-9918.759623,1149.143247
466.468906,1110.308913,-10510.924376,1838.629195
466.469233,1258.350101,-10362.883188,1608.800546
466.469561,1776.494261,-10066.800811,2145.067394
466.469888,1776.494261,-10140.821405,2298.286494
466.470216,740.205942,-9770.718434,1532.190996
466.470543,0.000000,-9474.636058,1225.752797
466.470870,-222.061783,-8586.388927,1378.971896
466.471198,-740.205942,-8956.491898,1149.143247
466.471525,-888.247130,-8586.388927,689.485948
466.471853,-296.082377,-8660.409521,1072.533697
466.472181,-592.164754,-8364.327145,1532.190996
466.472508,0.000000,-8364.327145,1225.752797
466.472836,-888.247130,-8512.368333,612.876398
466.473163,-1406.391290,-8438.347739,536.266849
466.473491,-888.247130,-8438.347739,459.657299
466.473819,-888.247130,-8438.347739,306.438199
466.474146,-666.185348,-8364.327145,842.705048
466.474474,-666.185348,-8734.430116,995.924147
466.474802,-592.164754,-9030.512492,1225.752797
466.475129,-740.205942,-9104.533087,1225.752797
466.475457,-740.205942,-9326.594869,1225.752797
466.475784,-444.123565,-9178.553681,1072.533697
466.476112,-148.041188,-8882.471304,766.095498
466.476440,0.000000,-8734.430116,842.705048
466.476767,0.000000,-8808.450710,766.095498
466.477095,148.041188,-8956.491898,1225.752797
466.477422,444.123565,-9252.574275,1532.190996
466.477750,296.082377,-9178.553681,1378.971896
466.478078,148.041188,-9474.636058,1225.752797
466.478405,0.000000,-9178.553681,1072.533697
466.478733,0.000000,-9104.533087,689.485948
466.479061,-222.061783,-8660.409521,612.876398
466.479388,148.041188,-8734.430116,842.705048
466.479716,0.000000,-8734.430116,536.266849
466.480043,-296.082377,-8586.388927,995.924147
466.480371,-444.123565,-8808.450710,995.924147
466.480699,-1036.288319,-8660.409521,612.876398
466.481026,-1332.370696,-8364.327145,766.095498
466.481354,-740.205942,-8956.491898,536.266849
466.481681,-888.247130,-9104.533087,229.828649
466.482009,-814.226536,-9104.533087,229.828649
466.482337,-592.164754,-9178.553681,383.047749
466.482664,-296.082377,-9400.615463,383.047749
466.482992,0.000000,-9400.615463,153.219100
466.483320,0.000000,-9252.574275,306.438199
466.483647,-370.102971,-9548.656652,612.876398
466.483975,-370.102971,-9844.739029,536.266849
466.484302,-888.247130,-9844.739029,459.657299
466.484630,0.000000,-9696.697840,842.705048
466.484958,0.000000,-9918.759623,842.705048
466.485285,0.000000,-9696.697840,689.485948
466.485613,296.082377,-9622.677246,842.705048
466.485941,666.185348,-9474.636058,612.876398
466.486268,666.185348,-9474.636058,842.705048
466.486596,592.164754,-9326.594869,612.876398
466.486923,148.041188,-9104.533087,306.438199
466.487251,0.000000,-9178.553681,766.095498
466.487579,0.000000,-9178.553681,536.266849
466.487906,0.000000,-8808.450710,919.314598
466.488234,74.020594,-8956.491898,76.609550
466.488561,0.000000,-8882.471304,383.047749
466.488889,0.000000,-9104.533087,153.219100
466.489217,0.000000,-8808.450710,229.828649
466.489544,-296.082377,-8586.388927,229.828649
466.489872,-518.144159,-8586.388927,76.609550
466.490200,-814.226536,-9030.512492,229.828649
466.490527,-962.267725,-9030.512492,229.828649
466.490855,-1110.308913,-9326.594869,0.000000
466.491182,-1110.308913,-9030.512492,689.485948
466.491510,-888.247130,-9104.533087,306.438199
466.491838,-740.205942,-8882.471304,383.047749
466.492165,-444.123565,-8734.430116,306.438199
466.492493,-370.102971,-8882.471304,459.657299
466.492820,-296.082377,-8808.450710,612.876398
466.493148,-444.123565,-8808.450710,383.047749
466.493476,-444.123565,-8882.471304,766.095498
466.493803,-740.205942,-9178.553681,766.095498
466.494131,-1036.288319,-9400.615463,995.924147
466.494459,-888.247130,-9474.636058,1149.143247
466.494786,-740.205942,-8956.491898,842.705048
466.495114,-592.164754,-8660.409521,842.705048
466.495441,-148.041188,-8660.409521,689.485948
466.495769,-370.102971,-8586.388927,536.266849
466.496097,-518.144159,-8586.388927,612.876398
466.496424,-592.164754,-8512.368333,689.485948
466.496752,-740.205942,-8734.430116,76.609550
466.497079,-814.226536,-9104.533087,766.095498
466.497407,-666.185348,-9252.574275,612.876398
466.497735,-518.144159,-9326.594869,919.314598
466.498062,-444.123565,-9326.594869,612.876398
466.498390,0.000000,-8882.471304,842.705048
466.498718,-518.144159,-9104.533087,689.485948
466.499045,-518.144159,-9326.594869,612.876398
466.499373,-592.164754,-9400.615463,536.266849
466.499700,-518.144159,-9400.615463,766.095498
466.500028,-518.144159,-8734.430116,0.000000
466.500356,-296.082377,-9326.594869,612.876398
466.500683,-444.123565,-8882.471304,229.828649
466.501011,-296.082377,-9030.512492,766.095498
466.501338,-444.123565,-9030.512492,153.219100
466.501666,-148.041188,-9178.553681,919.314598
466.501994,0.000000,-9252.574275,383.047749
466.502321,0.000000,-9104.533087,306.438199
466.502649,0.000000,-9030.512492,536.266849
466.502977,0.000000,-9104.533087,383.047749
466.503304,-148.041188,-8956.491898,689.485948
466.503632,-666.185348,-9030.512492,459.657299
466.503959,-888.247130,-8808.450710,612.876398
466.504287,-1110.308913,-8808.450710,306.438199
466.504615,-740.205942,-9030.512492,229.828649
466.504942,-518.144159,-8660.409521,383.047749
466.505270,0.000000,-8882.471304,842.705048
466.505598,74.020594,-9030.512492,612.876398
466.505925,370.102971,-8956.491898,383.047749
466.506253,370.102971,-8882.471304,536.266849
466.506580,0.000000,-8956.491898,383.047749
466.506908,0.000000,-8882.471304,1225.752797
466.507236,0.000000,-9918.759623,766.095498
466.507563,-222.061783,-9992.780217,842.705048
466.507891,-148.041188,-9622.677246,842.705048
466.508218,148.041188,-9474.636058,766.095498
466.508546,444.123565,-9252.574275,536.266849
466.508874,592.164754,-8808.450710,689.485948
466.509201,814.226536,-8586.388927,536.266849
466.509529,370.102971,-8216.285956,153.219100
466.509857,222.061783,-8438.347739,383.047749
466.510184,0.000000,-8956.491898,306.438199
466.510512,-444.123565,-8660.409521,612.876398
466.510839,-444.123565,-9326.594869,689.485948
466.511167,-148.041188,-9178.553681,689.485948
466.511495,0.000000,-9252.574275,459.657299
466.511822,222.061783,-8512.368333,842.705048
466.512150,370.102971,-8438.347739,383.047749
466.512477,666.185348,-8512.368333,76.609550
466.512805,74.020594,-8734.430116,229.828649
466.513133,0.000000,-9400.615463,76.609550
466.513460,-148.041188,-9474.636058,536.266849
466.513788,-370.102971,-9178.553681,842.705048
466.514116,-296.082377,-9474.636058,536.266849
466.514443,-370.102971,-9474.636058,459.657299
466.514771,-222.061783,-9252.574275,306.438199
466.515098,0.000000,-9104.533087,229.828649
466.515426,222.061783,-8956.491898,0.000000
466.515754,592.164754,-9326.594869,229.828649
466.516081,0.000000,-9548.656652,459.657299
466.516409,-296.082377,-9548.656652,612.876398
466.516736,-296.082377,-9622.677246,689.485948
466.517064,-222.061783,-9474.636058,459.657299
466.517392,0.000000,-9474.636058,306.438199
466.517719,-370.102971,-9548.656652,459.657299
466.518047,-444.123565,-9252.574275,536.266849
466.518375,-444.123565,-9326.594869,153.219100
466.518702,-592.164754,-9104.533087,689.485948
466.519030,-444.123565,-9252.574275,995.924147
466.519357,-888.247130,-9696.697840,766.095498
466.519685,-814.226536,-9474.636058,689.485948
466.520013,-888.247130,-9474.636058,842.705048
466.520340,-814.226536,-9474.636058,766.095498
466.520668,-592.164754,-9252.574275,1302.362347
466.520995,-518.144159,-9252.574275,459.657299
466.521323,-444.123565,-9178.553681,612.876398
466.521651,-296.082377,-9326.594869,536.266849
466.521978,-518.144159,-9474.636058,919.314598
466.522306,-814.226536,-9252.574275,306.438199
466.522634,-592.164754,-9474.636058,612.876398
466.522961,-666.185348,-9178.553681,689.485948
466.523289,-962.267725,-8956.491898,766.095498
466.523616,-666.185348,-9178.553681,536.266849
466.523944,-444.123565,-9178.553681,306.438199
466.524272,-814.226536,-7994.224174,842.705048
466.524599,-666.185348,-8734.430116,306.438199
466.524927,-518.144159,-8956.491898,383.047749
466.525255,-666.185348,-9104.533087,536.266849
466.525582,-222.061783,-8512.368333,995.924147
466.525910,-222.061783,-8660.409521,1225.752797
466.526237,-592.164754,-8660.409521,536.266849
466.526565,-518.144159,-8956.491898,383.047749
466.526893,-592.164754,-8808.450710,76.609550
466.527220,-518.144159,-8808.450710,229.828649
466.527548,-296.082377,-8660.409521,612.876398
466.527875,-444.123565,-8660.409521,229.828649
466.528203,-370.102971,-8882.471304,383.047749
466.528531,-222.061783,-8734.430116,612.876398
466.528858,0.000000,-8660.409521,536.266849
466.529186,-148.041188,-8586.388927,383.047749
466.529514,296.082377,-8808.450710,459.657299
466.529841,148.041188,-9030.512492,459.657299
466.530169,148.041188,-8660.409521,306.438199
466.530496,0.000000,-8808.450710,536.266849
466.530824,148.041188,-9104.533087,536.266849
466.531152,148.041188,-8882.471304,536.266849
466.531479,222.061783,-9400.615463,306.438199
466.531807,148.041188,-9252.574275,766.095498
466.532134,222.061783,-9400.615463,459.657299
466.532462,222.061783,-9178.553681,612.876398
466.532790,-222.061783,-9030.512492,689.485948
466.533117,74.020594,-9252.574275,306.438199
466.533445,0.000000,-9104.533087,536.266849
466.533773,-148.041188,-9030.512492,383.047749
466.534100,-222.061783,-9178.553681,306.438199
466.534428,0.000000,-9104.533087,306.438199
466.534755,-222.061783,-8808.450710,459.657299
466.535083,-370.102971,-8882.471304,459.657299
466.535411,-370.102971,-8956.491898,383.047749
466.535738,-148.041188,-9104.533087,459.657299
466.536066,-518.144159,-8808.450710,306.438199
466.536393,444.123565,-9400.615463,689.485948
466.536721,0.000000,-9474.636058,612.876398
466.537049,-296.082377,-9548.656652,689.485948
466.537376,0.000000,-9548.656652,689.485948
466.537704,222.061783,-9178.553681,995.924147
466.538032,296.082377,-9252.574275,766.095498
466.538359,0.000000,-9474.636058,612.876398
466.538687,0.000000,-9474.636058,536.266849
466.539014,0.000000,-9548.656652,766.095498
466.539342,0.000000,-9474.636058,0.000000
466.539670,0.000000,-9474.636058,612.876398
466.539997,0.000000,-9474.636058,612.876398
466.540325,0.000000,-9474.636058,766.095498
466.540652,0.000000,-9326.594869,459.657299
466.540980,-222.061783,-9252.574275,612.876398
466.541308,0.000000,-9030.512492,995.924147
466.541635,0.000000,-9326.594869,459.657299
466.541963,-444.123565,-9030.512492,536.266849
466.542291,-592.164754,-9252.574275,536.266849
466.542618,-444.123565,-9474.636058,383.047749
466.542946,-222.061783,-9252.574275,766.095498
466.543273,-444.123565,-8882.471304,612.876398
466.543601,-666.185348,-9178.553681,689.485948
466.543929,-370.102971,-9178.553681,536.266849
466.544256,-518.144159,-9326.594869,536.266849
466.544584,0.000000,-9104.533087,919.314598
466.544912,-148.041188,-9252.574275,766.095498
466.545239,-296.082377,-9178.553681,689.485948
466.545567,-222.061783,-9326.594869,612.876398
466.545894,-222.061783,-9474.636058,536.266849
466.546222,-296.082377,-9252.574275,766.095498
466.546550,148.041188,-9030.512492,766.095498
466.546877,-296.082377,-9178.553681,612.876398
466.547205,-296.082377,-9030.512492,766.095498
466.547532,-222.061783,-9178.553681,612.876398
466.547860,-148.041188,-9104.533087,689.485948
466.548188,-222.061783,-9030.512492,612.876398
466.548515,-296.082377,-9178.553681,612.876398
466.548843,0.000000,-9400.615463,536.266849
466.549171,-222.061783,-9104.533087,536.266849
466.549498,-296.082377,-8956.491898,536.266849
466.549826,0.000000,-8660.409521,612.876398
466.550153,0.000000,-8586.388927,306.438199
466.550481,-296.082377,-8882.471304,536.266849
466.550809,-222.061783,-9178.553681,383.047749
466.551136,-148.041188,-9178.553681,536.266849
466.551464,-222.061783,-9178.553681,153.219100
466.551791,-148.041188,-9400.615463,306.438199
466.552119,-666.185348,-9030.512492,612.876398
466.552447,-518.144159,-9178.553681,612.876398
466.552774,-370.102971,-9252.574275,536.266849
466.553102,-444.123565,-9030.512492,229.828649
466.553430,-814.226536,-9104.533087,689.485948
466.553757,-148.041188,-9104.533087,689.485948
466.554085,-148.041188,-9030.512492,689.485948
466.554412,-370.102971,-9030.512492,612.876398
466.554740,-444.123565,-9178.553681,612.876398
466.555068,-370.102971,-8142.265362,612.876398
466.555395,-222.061783,-9104.533087,842.705048
466.555723,-370.102971,-8956.491898,536.266849
466.556050,-444.123565,-8882.471304,689.485948
466.556378,-518.144159,-8882.471304,766.095498
466.556706,-740.205942,-8808.450710,1378.971896
466.557033,-222.061783,-8660.409521,383.047749
466.557361,-518.144159,-9104.533087,612.876398
466.557689,-740.205942,-8882.471304,383.047749
466.558016,-814.226536,-8808.450710,766.095498
466.558344,-592.164754,-8660.409521,766.095498
466.558671,-740.205942,-8364.327145,383.047749
466.558999,-814.226536,-8882.471304,612.876398
466.559327,-740.205942,-8808.450710,536.266849
466.559654,-666.185348,-8808.450710,612.876398
466.559982,-592.164754,-8734.430116,612.876398
466.560309,-370.102971,-8808.450710,842.705048
466.560637,-666.185348,-8808.450710,612.876398
466.560965,-592.164754,-8956.491898,612.876398
466.561292,-592.164754,-8956.491898,689.485948
466.561620,-444.123565,-8808.450710,459.657299
466.561948,-444.123565,-9252.574275,995.924147
466.562275,-370.102971,-9178.553681,459.657299
466.562603,-148.041188,-9104.533087,612.876398
466.562930,0.000000,-9030.512492,459.657299
466.563258,0.000000,-8956.491898,306.438199
466.563586,0.000000,-8660.409521,383.047749
466.563913,222.061783,-9030.512492,229.828649
466.564241,0.000000,-9178.553681,459.657299
466.564568,0.000000,-9252.574275,612.876398
466.564896,-148.041188,-9178.553681,383.047749
466.565224,0.000000,-9104.533087,383.047749
466.565551,0.000000,-9178.553681,536.266849
466.565879,-222.061783,-9252.574275,383.047749
466.566207,74.020594,-9252.574275,383.047749
466.566534,-148.041188,-9178.553681,383.047749
466.566862,0.000000,-9104.533087,459.657299
466.567189,0.000000,-9326.594869,459.657299
466.567517,0.000000,-9178.553681,383.047749
466.567845,-148.041188,-9252.574275,383.047749
466.568172,-222.061783,-9400.615463,229.828649
466.568500,0.000000,-9474.636058,536.266849
466.568828,-370.102971,-8956.491898,919.314598
466.569155,74.020594,-9326.594869,1149.143247
466.569483,0.000000,-9474.636058,689.485948
466.569810,0.000000,-9474.636058,766.095498
466.570138,0.000000,-9400.615463,689.485948
466.570466,0.000000,-9622.677246,76.609550
466.570793,0.000000,-9252.574275,1378.971896
466.571121,0.000000,-9474.636058,536.266849
466.571448,74.020594,-9474.636058,536.266849
466.571776,0.000000,-9474.636058,612.876398
466.572104,0.000000,-9474.636058,612.876398
466.572431,222.061783,-9548.656652,689.485948
466.572759,0.000000,-9326.594869,459.657299
466.573087,-222.061783,-9400.615463,536.266849
466.573414,-148.041188,-9474.636058,459.657299
466.573742,0.000000,-9400.615463,536.266849
466.574069,0.000000,-9252.574275,459.657299
466.574397,-222.061783,-9104.533087,612.876398
466.574725,0.000000,-9252.574275,153.219100
466.575052,-296.082377,-9326.594869,536.266849
466.575380,-592.164754,-9104.533087,689.485948
466.575708,-222.061783,-9548.656652,153.219100
466.576035,-296.082377,-9548.656652,689.485948
466.576363,-296.082377,-9252.574275,995.924147
466.576690,-592.164754,-9104.533087,383.047749
466.577018,-518.144159,-9030.512492,536.266849
466.577346,0.000000,-9030.512492,842.705048
466.577673,-148.041188,-9030.512492,536.266849
466.578001,-370.102971,-9400.615463,383.047749
466.578329,-296.082377,-9030.512492,612.876398
466.578656,-370.102971,-9030.512492,459.657299
466.578984,-592.164754,-8956.491898,612.876398
466.579311,-592.164754,-8512.368333,919.314598
466.579639,-444.123565,-8882.471304,612.876398
466.579967,0.000000,-8956.491898,536.266849
466.580294,-296.082377,-8660.409521,766.095498
466.580622,-370.102971,-8586.388927,689.485948
466.580950,-148.041188,-8586.388927,995.924147
466.581277,-518.144159,-8512.368333,689.485948
466.581605,-518.144159,-8882.471304,612.876398
466.581933,-518.144159,-8808.450710,536.266849
466.582260,-740.205942,-8586.388927,689.485948
466.582588,-518.144159,-8512.368333,1149.143247
466.582915,-740.205942,-8808.450710,842.705048
466.583243,-666.185348,-8734.430116,536.266849
466.583571,-666.185348,-8734.430116,536.266849
466.583898,-666.185348,-8586.388927,459.657299
466.584226,-740.205942,-8586.388927,689.485948
466.584554,-666.185348,-8734.430116,995.924147
466.584881,-814.226536,-8956.491898,459.657299
466.585209,-444.123565,-8808.450710,612.876398
466.585536,-666.185348,-9178.553681,383.047749
466.585864,-888.247130,-9104.533087,153.219100
466.586192,-592.164754,-8956.491898,612.876398
466.586519,-370.102971,-8956.491898,306.438199
466.586847,-222.061783,-8882.471304,306.438199
466.587175,-296.082377,-9030.512492,459.657299
466.587502,-222.061783,-9178.553681,612.876398
466.587830,0.000000,-9252.574275,0.000000
466.588157,-222.061783,-8956.491898,306.438199
466.588485,-222.061783,-9104.533087,459.657299
466.588813,-148.041188,-9252.574275,459.657299
466.589140,0.000000,-9178.553681,383.047749
466.589468,0.000000,-9104.533087,459.657299
466.589796,0.000000,-8512.368333,459.657299
466.590123,0.000000,-9104.533087,459.657299
466.590451,0.000000,-9400.615463,383.047749
466.590778,0.000000,-9252.574275,383.047749
466.591106,0.000000,-8660.409521,766.095498
466.591434,0.000000,-9474.636058,919.314598
466.591761,0.000000,-9326.594869,229.828649
466.592089,0.000000,-9252.574275,459.657299
466.592417,-148.041188,-9178.553681,306.438199
466.592744,-222.061783,-9252.574275,689.485948
466.593072,-370.102971,-9178.553681,612.876398
466.593400,-296.082377,-9326.594869,536.266849
466.593727,-222.061783,-9030.512492,459.657299
466.594055,0.000000,-9474.636058,612.876398
466.594382,0.000000,-9474.636058,459.657299
466.594710,148.041188,-9474.636058,766.095498
466.595038,444.123565,-9474.636058,459.657299
466.595365,0.000000,-9252.574275,612.876398
466.595693,0.000000,-9252.574275,459.657299
466.596021,148.041188,-9326.594869,612.876398
466.596348,222.061783,-8808.450710,306.438199
466.596676,0.000000,-9252.574275,842.705048
466.597003,74.020594,-9400.615463,689.485948
466.597331,0.000000,-9326.594869,842.705048
466.597659,148.041188,-9326.594869,536.266849
466.597986,148.041188,-9400.615463,995.924147
466.598314,0.000000,-8808.450710,459.657299
466.598642,0.000000,-9030.512492,612.876398
466.598969,148.041188,-9326.594869,383.047749
466.599297,0.000000,-9326.594869,612.876398
466.599624,-296.082377,-9474.636058,306.438199
466.599952,-222.061783,-8882.471304,766.095498
466.600280,0.000000,-9400.615463,383.047749
466.600607,0.000000,-9474.636058,229.828649
466.600935,-222.061783,-9252.574275,229.828649
466.601263,-518.144159,-9252.574275,536.266849
466.601590,-222.061783,-9030.512492,689.485948
466.601918,0.000000,-9252.574275,612.876398
466.602245,-222.061783,-9252.574275,383.047749
466.602573,-296.082377,-9474.636058,459.657299
466.602901,-296.082377,-9474.636058,536.266849
466.603228,0.000000,-9252.574275,229.828649
466.603556,-148.041188,-8956.491898,612.876398
466.603884,-296.082377,-9178.553681,766.095498
466.604211,-148.041188,-9178.553681,459.657299
466.604539,-518.144159,-9252.574275,536.266849
466.604867,-370.102971,-8956.491898,612.876398
466.605194,-296.082377,-8586.388927,842.705048
466.605522,-296.082377,-8882.471304,919.314598
466.605849,-370.102971,-9104.533087,536.266849
466.606177,-370.102971,-8882.471304,689.485948
466.606505,-666.185348,-8734.430116,612.876398
466.606832,-222.061783,-9030.512492,995.924147
466.607160,-592.164754,-8808.450710,383.047749
466.607488,-888.247130,-8882.471304,612.876398
466.607815,-740.205942,-9030.512492,536.266849
466.608143,-814.226536,-9030.512492,459.657299
466.608470,-592.164754,-8956.491898,536.266849
466.608798,-444.123565,-9252.574275,536.266849
466.609126,-592.164754,-9104.533087,459.657299
466.609453,-518.144159,-9030.512492,459.657299
466.609781,-888.247130,-9104.533087,459.657299
466.610109,-444.123565,-8956.491898,995.924147
466.610436,-666.185348,-9178.553681,306.438199
466.610764,-222.061783,-9030.512492,306.438199
466.611091,-518.144159,-8882.471304,689.485948
466.611419,-148.041188,-9104.533087,536.266849
466.611747,-148.041188,-9178.553681,612.876398
466.612074,444.123565,-9252.574275,842.705048
466.612402,-148.041188,-8660.409521,383.047749
466.612730,-296.082377,-8808.450710,689.485948
466.613057,-370.102971,-9104.533087,536.266849
466.613385,-296.082377,-8808.450710,536.266849
466.613713,0.000000,-9030.512492,842.705048
466.614040,-222.061783,-8734.430116,919.314598
466.614368,-518.144159,-8882.471304,689.485948
466.614695,-296.082377,-9030.512492,689.485948
466.615023,-370.102971,-8882.471304,536.266849
466.615351,-296.082377,-8586.388927,689.485948
466.615678,-222.061783,-8882.471304,1149.143247
466.616006,-370.102971,-9104.533087,459.657299
466.616334,-592.164754,-9030.512492,536.266849
466.616661,-518.144159,-8882.471304,612.876398
466.616989,-518.144159,-8808.450710,1302.362347
466.617316,-148.041188,-8956.491898,995.924147
466.617644,-148.041188,-9326.594869,689.485948
466.617972,-222.061783,-9104.533087,536.266849
466.618299,-444.123565,-9178.553681,612.876398
466.618627,-296.082377,-9178.553681,612.876398
466.618955,-370.102971,-9178.553681,919.314598
466.619282,-222.061783,-9252.574275,459.657299
466.619610,0.000000,-9178.553681,842.705048
466.619937,-148.041188,-9252.574275,689.485948
466.620265,-148.041188,-9326.594869,459.657299
466.620593,0.000000,-8808.450710,229.828649
466.620920,148.041188,-9030.512492,459.657299
466.621248,0.000000,-9104.533087,459.657299
466.621576,0.000000,-9400.615463,612.876398
466.621903,-222.061783,-9252.574275,383.047749
466.622231,148.041188,-8956.491898,306.438199
466.622558,0.000000,-9104.533087,76.609550
466.622886,0.000000,-9474.636058,229.828649
466.623214,-222.061783,-9474.636058,383.047749
466.623541,-148.041188,-9326.594869,229.828649
466.623869,0.000000,-9104.533087,76.609550
466.624197,-222.061783,-8882.471304,842.705048
466.624524,0.000000,-9474.636058,536.266849
466.624852,0.000000,-9326.594869,459.657299
466.625180,0.000000,-9474.636058,612.876398
466.625507,-222.061783,-9400.615463,383.047749
466.625835,-592.164754,-9326.594869,612.876398
466.626162,0.000000,-9474.636058,383.047749
466.626490,0.000000,-9400.615463,536.266849
466.626818,0.000000,-9474.636058,766.095498
466.627145,0.000000,-9548.656652,919.314598
466.627473,0.000000,-9400.615463,689.485948
466.627801,0.000000,-9400.615463,459.657299
466.628128,-296.082377,-9104.533087,689.485948
466.628456,-296.082377,-9326.594869,766.095498
466.628783,-370.102971,-9326.594869,689.485948
466.629111,0.000000,-9030.512492,229.828649
466.629439,0.000000,-8808.450710,612.876398
466.629766,-148.041188,-8882.471304,766.095498
466.630094,-222.061783,-9104.533087,689.485948
466.630422,-296.082377,-8956.491898,842.705048
466.630749,-296.082377,-8882.471304,995.924147
466.631077,74.020594,-9030.512492,842.705048
466.631404,-222.061783,-9252.574275,689.485948
466.631732,-296.082377,-9030.512492,689.485948
466.632060,-370.102971,-9104.533087,536.266849
466.632387,-592.164754,-8882.471304,689.485948
466.632715,-370.102971,-9104.533087,766.095498
466.633043,-296.082377,-9252.574275,459.657299
466.633370,-370.102971,-9252.574275,612.876398
466.633698,-296.082377,-9030.512492,459.657299
466.634025,-222.061783,-9178.553681,306.438199
466.634353,-296.082377,-8956.491898,383.047749
466.634681,-296.082377,-8956.491898,536.266849
466.635008,-222.061783,-9030.512492,459.657299
466.635336,-222.061783,-9178.553681,229.828649
466.635664,-222.061783,-8956.491898,612.876398
466.635991,0.000000,-9252.574275,76.609550
466.636319,-148.041188,-8660.409521,766.095498
466.636647,-370.102971,-9030.512492,459.657299
466.636974,0.000000,-9030.512492,383.047749
466.637302,-296.082377,-9030.512492,306.438199
466.637629,-222.061783,-9104.533087,919.314598
466.637957,0.000000,-8956.491898,536.266849
466.638285,-370.102971,-8734.430116,612.876398
466.638612,-370.102971,-8956.491898,536.266849
466.638940,-296.082377,-8882.471304,689.485948
466.639268,-296.082377,-8586.388927,919.314598
466.639595,0.000000,-8586.388927,536.266849
466.639923,-370.102971,-8808.450710,459.657299
