#time,accel_x,accel_y,accel_z
550.829156,-222.061783,-8882.471304,612.876398
550.829484,-370.102971,-9252.574275,383.047749
550.829812,-222.061783,-9326.594869,536.266849
550.830140,0.000000,-9178.553681,459.657299
550.830468,0.000000,-9104.533087,919.314598
550.830795,-518.144159,-9178.553681,1225.752797
550.831123,-222.061783,-9326.594869,306.438199
550.831451,-148.041188,-9104.533087,459.657299
550.831779,-222.061783,-8956.491898,612.876398
550.832107,-222.061783,-9252.574275,536.266849
550.832434,-370.102971,-9104.533087,919.314598
550.832762,-444.123565,-9030.512492,612.876398
550.833090,-444.123565,-9030.512492,459.657299
550.833418,-296.082377,-8956.491898,459.657299
550.833746,0.000000,-9252.574275,612.876398
550.834074,-222.061783,-9178.553681,306.438199
550.834401,-296.082377,-8956.491898,842.705048
550.834729,-148.041188,-9030.512492,612.876398
550.835057,-370.102971,-9104.533087,536.266849
550.835385,-222.061783,-9326.594869,536.266849
550.835713,-296.082377,-8882.471304,612.876398
550.836040,0.000000,-9252.574275,459.657299
550.836368,-444.123565,-9326.594869,612.876398
550.836696,-296.082377,-9178.553681,536.266849
550.837024,-444.123565,-9178.553681,689.485948
550.837352,-74.020594,-8956.491898,689.485948
550.837679,0.000000,-8956.491898,919.314598
550.838007,-296.082377,-9178.553681,766.095498
550.838335,-222.061783,-9252.574275,536.266849
550.838663,-222.061783,-9104.533087,536.266849
550.838991,-444.123565,-9400.615463,383.047749
550.839318,-666.185348,-9104.533087,0.000000
550.839646,-1406.391290,-9474.636058,-383.047749
550.839974,-1258.350101,-9400.615463,-383.047749
550.840302,-962.267725,-9030.512492,-459.657299
550.840630,-370.102971,-9104.533087,-229.828649
550.840957,-518.144159,-8808.450710,-306.438199
550.841285,-740.205942,-9326.594869,-1149.143247
550.841613,-1184.329507,-9178.553681,-1149.143247
550.841941,-1258.350101,-9252.574275,-1149.143247
550.842269,-1184.329507,-9104.533087,-1378.971896
550.842596,-666.185348,-9030.512492,-1762.019645
550.842924,-370.102971,-9178.553681,-1149.143247
550.843252,-74.020594,-9178.553681,-1302.362347
550.843580,0.000000,-9104.533087,-1532.190996
550.843908,0.000000,-9252.574275,-1608.800546
550.844236,0.000000,-8956.491898,-1608.800546
550.844563,148.041188,-9178.553681,-1302.362347
550.844891,222.061783,-9400.615463,-1532.190996
550.845219,148.041188,-9252.574275,-1685.410096
550.845547,222.061783,-9252.574275,-1762.019645
550.845875,296.082377,-9474.636058,-1608.800546
550.846202,666.185348,-8956.491898,-1455.581446
550.846530,962.267725,-9178.553681,-1685.410096
550.846858,592.164754,-9252.574275,-1762.019645
550.847186,148.041188,-9178.553681,-1991.848295
550.847514,0.000000,-9326.594869,-1838.629195
550.847841,0.000000,-8512.368333,-1455.581446
550.848169,148.041188,-9178.553681,-1762.019645
550.848497,0.000000,-9400.615463,-1838.629195
550.848825,-222.061783,-9178.553681,-1685.410096
550.849153,-592.164754,-9030.512492,-2221.676944
550.849480,-592.164754,-8808.450710,-1915.238745
550.849808,-962.267725,-9400.615463,-2298.286494
550.850136,-1184.329507,-9252.574275,-2451.505594
550.850464,-1850.514855,-9400.615463,-2604.724693
550.850792,-1850.514855,-9252.574275,-2987.772442
550.851119,-1998.556043,-9030.512492,-3140.991542
550.851447,-1850.514855,-8734.430116,-2911.162892
550.851775,-1998.556043,-9104.533087,-3524.039291
550.852103,-2146.597232,-8956.491898,-3677.258390
550.852431,-2072.576638,-8956.491898,-3983.696590
550.852758,-1998.556043,-9104.533087,-4213.525239
550.853086,-1850.514855,-8808.450710,-3064.381992
550.853414,-962.267725,-9104.533087,-4290.134789
550.853742,0.000000,-8956.491898,-3983.696590
550.854070,518.144159,-8808.450710,-3524.039291
550.854397,1258.350101,-8956.491898,-3140.991542
550.854725,1924.535449,-8660.409521,-2681.334243
550.855053,2442.679609,-8956.491898,-2451.505594
550.855381,2294.638420,-9326.594869,-1991.848295
550.855709,2146.597232,-9844.739029,-1991.848295
550.856037,1258.350101,-10288.862594,-2221.676944
550.856364,370.102971,-10584.944971,-2834.553343
550.856692,-592.164754,-10362.883188,-3447.429741
550.857020,-1850.514855,-10584.944971,-3907.087040
550.857348,-1924.535449,-10140.821405,-4903.011187
550.857676,-1628.453072,-9622.677246,-4826.401637
550.858003,-1036.288319,-8512.368333,-4749.792088
550.858331,962.267725,-7698.141797,-4136.915689
550.858659,2146.597232,-7105.977043,-3524.039291
550.858987,2812.782580,-7031.956449,-2757.943793
550.859315,2960.823768,-7550.100608,-2068.457845
550.859642,1554.432478,-8586.388927,-1991.848295
550.859970,-370.102971,-9474.636058,-2221.676944
550.860298,-2960.823768,-10214.842000,-2374.896044
550.860626,-4145.153275,-11251.130318,-2757.943793
550.860954,-4071.132681,-11029.068536,-2834.553343
550.861281,-2960.823768,-10066.800811,-2834.553343
550.861609,-666.185348,-9030.512492,-2298.286494
550.861937,2812.782580,-7105.977043,-1072.533697
550.862265,6809.894666,-5403.503377,995.924147
550.862593,10584.944971,-4737.318029,3140.991542
550.862920,11251.130318,-5403.503377,4366.744339
550.863248,7846.182985,-8216.285956,4443.353888
550.863576,1110.308913,-11917.315666,3370.820191
550.863904,-5773.606348,-13989.892304,1608.800546
550.864232,-9548.656652,-15100.201217,0.000000
550.864559,-12139.377449,-14582.057057,-1685.410096
550.864887,-9474.636058,-12287.418637,-1838.629195
550.865215,-6883.915261,-10288.862594,-1685.410096
550.865543,-1776.494261,-7031.956449,-689.485948
550.865871,-1702.473667,-4811.338623,-1915.238745
550.866199,-444.123565,-4885.359217,-3140.991542
550.866526,-5699.585753,-5995.668130,-6128.763984
550.866854,-9252.574275,-7328.038826,-7737.564530
550.867182,-13915.871710,-8882.471304,-10189.070123
550.867510,-13989.892304,-8290.306550,-11031.775171
550.867838,-10288.862594,-8216.285956,-9346.365076
550.868165,-4737.318029,-7254.018232,-7584.345430
550.868493,1628.453072,-6291.750507,-5592.497135
550.868821,3404.947333,-6957.935855,-4749.792088
550.869149,5699.585753,-8808.450710,-4519.963438
550.869477,2664.741391,-10288.862594,-6511.811733
550.869804,2664.741391,-10955.047942,-7201.297681
550.870132,5181.441594,-10881.027347,-6205.373534
550.870460,9252.574275,-10955.047942,-4903.011187
550.870788,11473.192101,-9844.739029,-2987.772442
550.871116,12879.583391,-9474.636058,-1532.190996
550.871443,13397.727550,-10510.924376,-1378.971896
550.871771,12657.521608,-9770.718434,-1455.581446
550.872099,13397.727550,-9474.636058,-1225.752797
550.872427,13767.830521,-11251.130318,-536.266849
550.872755,9178.553681,-11621.233289,-2451.505594
550.873082,2146.597232,-13841.851115,-2757.943793
550.873410,-4959.379811,-14211.954086,-5515.887586
550.873738,-11399.171507,-13767.830521,-7431.126331
550.874066,-8808.450710,-9178.553681,-7737.564530
550.874394,-2368.659014,-4515.256246,-6435.202183
550.874721,1998.556043,-2146.597232,-3524.039291
550.875049,4811.338623,-2220.617826,-1762.019645
550.875377,2146.597232,-2516.700203,-689.485948
550.875705,-1924.535449,-3775.050304,-995.924147
550.876033,-3701.029710,-5255.462188,-1302.362347
550.876360,-6883.915261,-7179.997637,-919.314598
550.876688,-6735.874072,-8438.347739,-1072.533697
550.877016,-6143.709319,-9622.677246,1225.752797
550.877344,-4959.379811,-10362.883188,3447.429741
550.877672,-4293.194464,-8882.471304,4979.620737
550.878000,-1776.494261,-7476.080014,4903.011187
550.878327,-1332.370696,-9104.533087,2987.772442
550.878655,-3627.009116,-11103.089130,459.657299
550.878983,-5477.523971,-11843.295072,-995.924147
550.879311,-6883.915261,-10955.047942,-1991.848295
550.879639,-3701.029710,-8660.409521,-919.314598
550.879966,-296.082377,-8438.347739,0.000000
550.880294,444.123565,-9178.553681,766.095498
550.880622,0.000000,-9178.553681,1072.533697
550.880950,-2812.782580,-9030.512492,383.047749
550.881278,-3849.070898,-9474.636058,306.438199
550.881605,-4367.215058,-10066.800811,-306.438199
550.881933,-3108.864956,-11695.253884,-1225.752797
550.882261,-2590.720797,-12065.356855,-2221.676944
550.882589,-3627.009116,-10584.944971,-2604.724693
550.882917,-962.267725,-7846.182985,-1991.848295
550.883244,518.144159,-6587.832884,-1991.848295
550.883572,962.267725,-6069.688724,-2451.505594
550.883900,1776.494261,-7105.977043,-4673.182538
550.884228,3997.112087,-7698.141797,-4903.011187
550.884556,4737.318029,-7698.141797,-4826.401637
550.884883,5699.585753,-8364.327145,-4136.915689
550.885211,3997.112087,-11325.150913,-3983.696590
550.885539,3552.988522,-13767.830521,-3677.258390
550.885866,4071.132681,-14063.912898,-3370.820191
550.886194,3849.070898,-13175.665768,-2451.505594
550.886522,3404.947333,-11843.295072,-2834.553343
550.886850,2368.659014,-11917.315666,-2451.505594
550.887177,2368.659014,-11695.253884,-2068.457845
550.887505,2516.700203,-10140.821405,-1685.410096
550.887833,2072.576638,-9696.697840,-2834.553343
550.888161,444.123565,-9252.574275,-3217.601092
550.888488,-740.205942,-8808.450710,-3983.696590
550.888816,-888.247130,-7698.141797,-3907.087040
550.889144,0.000000,-6883.915261,-4213.525239
550.889471,74.020594,-5995.668130,-2604.724693
550.889799,296.082377,-5107.421000,-2374.896044
550.890127,962.267725,-4885.359217,-1072.533697
550.890455,148.041188,-5847.626942,0.000000
550.890782,-1036.288319,-8216.285956,-306.438199
550.891110,-3108.864956,-9844.739029,-1149.143247
550.891438,-3701.029710,-9474.636058,-995.924147
550.891766,-3849.070898,-9474.636058,-689.485948
550.892093,-3478.967927,-9104.533087,229.828649
550.892421,-2294.638420,-7994.224174,536.266849
550.892749,0.000000,-7179.997637,1225.752797
550.893076,888.247130,-7550.100608,1302.362347
550.893404,-1406.391290,-8290.306550,153.219100
550.893732,-3627.009116,-9696.697840,-919.314598
550.894060,-4145.153275,-9770.718434,-1838.629195
550.894387,-3775.050304,-9548.656652,-2604.724693
550.894715,-2664.741391,-9252.574275,-1762.019645
550.895043,-370.102971,-8216.285956,-842.705048
550.895371,2442.679609,-6143.709319,536.266849
550.895698,4367.215058,-5329.482782,2068.457845
550.896026,3182.885551,-6439.791695,2145.067394
550.896354,1258.350101,-8216.285956,1915.238745
550.896682,-444.123565,-9252.574275,1149.143247
550.897009,-1406.391290,-9178.553681,995.924147
550.897337,-1258.350101,-9548.656652,1838.629195
550.897665,296.082377,-9770.718434,2528.115143
550.897992,3330.926739,-7846.182985,2987.772442
550.898320,5625.565159,-7846.182985,3907.087040
550.898648,3182.885551,-9252.574275,2911.162892
550.898976,-962.267725,-9770.718434,1225.752797
550.899303,-2072.576638,-10881.027347,-153.219100
550.899631,-4515.256246,-11177.109724,-766.095498
550.899959,-3627.009116,-11547.212695,-995.924147
550.900287,-1924.535449,-11325.150913,229.828649
550.900614,666.185348,-9992.780217,1455.581446
550.900942,2146.597232,-9178.553681,2451.505594
550.901270,148.041188,-10214.842000,2604.724693
550.901597,-3997.112087,-10140.821405,1149.143247
550.901925,-5107.421000,-10658.965565,0.000000
550.902253,-5699.585753,-10510.924376,-459.657299
550.902581,-5699.585753,-9474.636058,-612.876398
550.902908,-2664.741391,-8364.327145,536.266849
550.903236,962.267725,-7105.977043,2451.505594
550.903564,2368.659014,-7476.080014,2834.553343
550.903892,444.123565,-8512.368333,1915.238745
550.904219,-2442.679609,-8956.491898,153.219100
550.904547,-3256.906145,-9178.553681,-1225.752797
550.904875,-2442.679609,-9548.656652,-1838.629195
550.905202,-1628.453072,-9992.780217,-1378.971896
550.905530,518.144159,-10510.924376,-612.876398
550.905858,4367.215058,-10362.883188,1455.581446
550.906186,4885.359217,-10436.903782,2451.505594
550.906513,2294.638420,-11251.130318,1532.190996
550.906841,-444.123565,-12287.418637,306.438199
550.907169,-1776.494261,-11843.295072,-1685.410096
550.907497,-1628.453072,-10881.027347,-2451.505594
550.907824,-666.185348,-9992.780217,-995.924147
550.908152,3182.885551,-8586.388927,995.924147
550.908480,4441.235652,-8216.285956,1838.629195
550.908807,5107.421000,-8364.327145,2451.505594
550.909135,1776.494261,-9474.636058,1455.581446
550.909463,-1702.473667,-9474.636058,-383.047749
550.909791,-2368.659014,-8512.368333,-1991.848295
550.910118,-1924.535449,-8512.368333,-1838.629195
550.910446,-1702.473667,-7550.100608,-1991.848295
550.910774,1332.370696,-6957.935855,-536.266849
550.911102,3923.091493,-5995.668130,1378.971896
550.911429,3997.112087,-6365.771101,1915.238745
550.911757,444.123565,-8068.244768,1378.971896
550.912085,-2220.617826,-8882.471304,0.000000
550.912412,-3330.926739,-8660.409521,-1455.581446
550.912740,-2886.803174,-9104.533087,-1378.971896
550.913068,-2664.741391,-8882.471304,-1149.143247
550.913396,444.123565,-7846.182985,612.876398
550.913723,2738.761985,-7772.162391,2757.943793
550.914051,2590.720797,-8216.285956,3830.477490
550.914379,0.000000,-9844.739029,2834.553343
550.914707,-3034.844362,-10288.862594,1225.752797
550.915034,-3552.988522,-9696.697840,306.438199
550.915362,-3775.050304,-9992.780217,0.000000
550.915690,-2960.823768,-8808.450710,459.657299
550.916017,0.000000,-7624.121203,1532.190996
550.916345,2960.823768,-6365.771101,3064.381992
550.916673,3330.926739,-7031.956449,3907.087040
550.917001,0.000000,-7698.141797,3217.601092
550.917328,-2368.659014,-8512.368333,1072.533697
550.917656,-4145.153275,-8882.471304,0.000000
550.917984,-4441.235652,-8882.471304,-536.266849
550.918312,-3849.070898,-8956.491898,0.000000
550.918639,148.041188,-8290.306550,1455.581446
550.918967,2738.761985,-7476.080014,2451.505594
550.919295,3034.844362,-8290.306550,3217.601092
550.919622,-518.144159,-9400.615463,1532.190996
550.919950,-1924.535449,-10066.800811,459.657299
550.920278,-2590.720797,-10510.924376,-1378.971896
550.920606,-2886.803174,-10881.027347,-1149.143247
550.920933,-2220.617826,-10584.944971,-919.314598
550.921261,1110.308913,-10140.821405,612.876398
550.921589,3923.091493,-9400.615463,2298.286494
550.921917,3997.112087,-9474.636058,2681.334243
550.922244,1480.411884,-10584.944971,1762.019645
550.922572,-1406.391290,-10807.006753,-306.438199
550.922900,-2812.782580,-10214.842000,-1455.581446
550.923227,-3701.029710,-10732.986159,-1685.410096
550.923555,-3330.926739,-9992.780217,-1378.971896
550.923883,962.267725,-9178.553681,76.609550
550.924211,3404.947333,-8290.306550,1455.581446
550.924538,3552.988522,-9104.533087,1685.410096
550.924866,1480.411884,-9844.739029,995.924147
550.925194,0.000000,-10288.862594,0.000000
550.925522,-1850.514855,-10807.006753,-536.266849
550.925849,-2960.823768,-11769.274478,-842.705048
550.926177,-1924.535449,-11325.150913,-766.095498
550.926505,1924.535449,-9918.759623,153.219100
550.926833,4515.256246,-8956.491898,2221.676944
550.927160,4145.153275,-9696.697840,2604.724693
550.927488,740.205942,-10658.965565,1838.629195
550.927816,-1036.288319,-10584.944971,229.828649
550.928143,-2294.638420,-9844.739029,-842.705048
550.928471,-3552.988522,-10140.821405,-1302.362347
550.928799,-2442.679609,-9326.594869,-612.876398
550.929127,1184.329507,-8734.430116,383.047749
550.929454,2886.803174,-7476.080014,2068.457845
550.929782,2442.679609,-7698.141797,2451.505594
550.930110,518.144159,-8660.409521,1608.800546
550.930438,-1406.391290,-8364.327145,153.219100
550.930765,-2590.720797,-9030.512492,153.219100
550.931093,-4145.153275,-9104.533087,-919.314598
550.931421,-3108.864956,-8364.327145,-383.047749
550.931748,74.020594,-7031.956449,842.705048
550.932076,2590.720797,-7179.997637,2451.505594
550.932404,1850.514855,-7994.224174,2987.772442
550.932732,0.000000,-8882.471304,1915.238745
550.933059,-2590.720797,-8586.388927,689.485948
550.933387,-3923.091493,-8586.388927,-459.657299
550.933715,-4367.215058,-9252.574275,-995.924147
550.934043,-2812.782580,-8290.306550,-995.924147
550.934370,740.205942,-7254.018232,383.047749
550.934698,3552.988522,-6513.812290,1608.800546
550.935026,3034.844362,-7402.059420,2145.067394
550.935353,1258.350101,-8216.285956,1532.190996
550.935681,0.000000,-8216.285956,766.095498
550.936009,-1628.453072,-9030.512492,-612.876398
550.936337,-1998.556043,-9770.718434,-383.047749
550.936664,-1258.350101,-8586.388927,0.000000
550.936992,2368.659014,-7624.121203,2068.457845
550.937320,4737.318029,-7772.162391,3524.039291
550.937648,3108.864956,-8512.368333,3753.867940
550.937975,518.144159,-9474.636058,2451.505594
550.938303,-1480.411884,-9030.512492,612.876398
550.938631,-3256.906145,-9104.533087,-612.876398
550.938958,-4293.194464,-9548.656652,-1532.190996
550.939286,-3330.926739,-9400.615463,-1991.848295
550.939614,370.102971,-7772.162391,-153.219100
550.939942,1850.514855,-7624.121203,612.876398
550.940269,740.205942,-8660.409521,766.095498
550.940597,-1554.432478,-9326.594869,0.000000
550.940925,-2146.597232,-9104.533087,-766.095498
550.941253,-3256.906145,-9770.718434,-1762.019645
550.941580,-3701.029710,-10732.986159,-1378.971896
550.941908,-2516.700203,-10066.800811,-383.047749
550.942236,962.267725,-9030.512492,1378.971896
550.942563,2886.803174,-8734.430116,2834.553343
550.942891,1480.411884,-9548.656652,2681.334243
550.943219,-666.185348,-10584.944971,1532.190996
550.943547,-1850.514855,-10214.842000,76.609550
550.943874,-2516.700203,-10140.821405,-612.876398
550.944202,-3034.844362,-10140.821405,-1225.752797
550.944530,148.041188,-8660.409521,-612.876398
550.944858,3923.091493,-7920.203579,306.438199
550.945185,5625.565159,-7698.141797,1762.019645
550.945513,4367.215058,-9400.615463,2068.457845
550.945841,2146.597232,-10362.883188,1378.971896
550.946168,444.123565,-10732.986159,383.047749
550.946496,-740.205942,-11917.315666,153.219100
550.946824,-2368.659014,-12213.398043,0.000000
550.947152,74.020594,-10881.027347,842.705048
550.947479,2886.803174,-9770.718434,2681.334243
550.947807,2886.803174,-10066.800811,3370.820191
550.948135,1258.350101,-10807.006753,3907.087040
550.948463,-1924.535449,-11177.109724,1838.629195
550.948790,-2960.823768,-9992.780217,229.828649
550.949118,-4589.276840,-10140.821405,-1149.143247
550.949446,-5329.482782,-9770.718434,-1762.019645
550.949773,-2590.720797,-7994.224174,-919.314598
550.950101,666.185348,-6587.832884,0.000000
550.950429,2220.617826,-6217.729913,995.924147
550.950757,222.061783,-7105.977043,383.047749
550.951084,-740.205942,-7772.162391,0.000000
550.951412,-1998.556043,-7698.141797,-1378.971896
550.951740,-2442.679609,-8586.388927,-689.485948
550.952068,-2886.803174,-9104.533087,-459.657299
550.952395,0.000000,-8364.327145,1378.971896
550.952723,2812.782580,-7772.162391,3294.210641
550.953051,3552.988522,-7624.121203,4443.353888
550.953378,1406.391290,-8586.388927,3907.087040
550.953706,-444.123565,-9326.594869,2451.505594
550.954034,-1628.453072,-9104.533087,1072.533697
550.954362,-3182.885551,-9252.574275,229.828649
550.954689,-2738.761985,-8660.409521,-536.266849
550.955017,0.000000,-7254.018232,919.314598
550.955345,3034.844362,-6883.915261,1532.190996
550.955673,2738.761985,-6439.791695,1608.800546
550.956000,0.000000,-7698.141797,1072.533697
550.956328,-1924.535449,-7994.224174,-306.438199
550.956656,-3701.029710,-8216.285956,-766.095498
550.956983,-4071.132681,-8438.347739,-1378.971896
550.957311,-3182.885551,-7920.203579,-995.924147
550.957639,-740.205942,-7328.038826,383.047749
550.957967,2146.597232,-7402.059420,2374.896044
550.958294,1776.494261,-7105.977043,2681.334243
550.958622,-148.041188,-8438.347739,2298.286494
550.958950,-2516.700203,-9030.512492,306.438199
550.959278,-3701.029710,-9918.759623,-1149.143247
550.959605,-4367.215058,-10658.965565,-1762.019645
550.959933,-3849.070898,-9474.636058,-2221.676944
550.960261,296.082377,-8364.327145,-1302.362347
550.960589,3404.947333,-7920.203579,-229.828649
550.960916,4367.215058,-8882.471304,383.047749
550.961244,2516.700203,-10066.800811,-383.047749
550.961572,1406.391290,-10288.862594,-1685.410096
550.961899,0.000000,-11103.089130,-1225.752797
550.962227,-1184.329507,-12213.398043,-1838.629195
550.962555,-814.226536,-11991.336260,-1302.362347
550.962883,2294.638420,-11029.068536,383.047749
550.963210,5107.421000,-10140.821405,2298.286494
550.963538,4885.359217,-10510.924376,3294.210641
550.963866,2442.679609,-11843.295072,2757.943793
550.964194,592.164754,-11473.192101,1608.800546
550.964521,-962.267725,-11177.109724,153.219100
550.964849,-2516.700203,-11547.212695,-612.876398
550.965177,-2220.617826,-10955.047942,-689.485948
550.965504,0.000000,-9400.615463,-306.438199
550.965832,2072.576638,-8512.368333,1225.752797
550.966160,2590.720797,-9400.615463,1991.848295
550.966488,74.020594,-9474.636058,1149.143247
550.966815,-888.247130,-9770.718434,612.876398
550.967143,-2664.741391,-10140.821405,-919.314598
550.967471,-4219.173869,-10732.986159,-689.485948
550.967799,-3775.050304,-10288.862594,0.000000
550.968126,0.000000,-8734.430116,1991.848295
550.968454,2368.659014,-7698.141797,3447.429741
550.968782,2368.659014,-8364.327145,4903.011187
550.969109,-370.102971,-9030.512492,3753.867940
550.969437,-2146.597232,-8734.430116,2451.505594
550.969765,-3552.988522,-8734.430116,1302.362347
550.970093,-4737.318029,-9178.553681,306.438199
550.970420,-4367.215058,-8364.327145,306.438199
550.970748,-962.267725,-7254.018232,919.314598
550.971076,1258.350101,-6513.812290,1991.848295
550.971404,1110.308913,-6957.935855,2298.286494
550.971731,-666.185348,-7624.121203,1149.143247
550.972059,-1998.556043,-7550.100608,0.000000
550.972387,-2886.803174,-7476.080014,-766.095498
550.972714,-3775.050304,-7846.182985,-1608.800546
550.973042,-2442.679609,-7328.038826,-1149.143247
550.973370,1184.329507,-7105.977043,842.705048
550.973698,2960.823768,-6883.915261,1838.629195
550.974025,2960.823768,-7254.018232,3217.601092
550.974353,1554.432478,-8512.368333,2374.896044
550.974681,444.123565,-8882.471304,1532.190996
550.975009,-1036.288319,-9696.697840,0.000000
550.975336,-2442.679609,-10140.821405,-689.485948
550.975664,-1998.556043,-9548.656652,-919.314598
550.975992,740.205942,-8586.388927,-536.266849
550.976319,2516.700203,-7698.141797,0.000000
550.976647,1850.514855,-8438.347739,-306.438199
550.976975,888.247130,-8882.471304,-1378.971896
550.977303,0.000000,-8364.327145,-1838.629195
550.977630,370.102971,-8438.347739,-2145.067394
550.977958,-296.082377,-8882.471304,-2374.896044
550.978286,666.185348,-8660.409521,-1455.581446
550.978614,3404.947333,-8364.327145,459.657299
550.978941,3997.112087,-8142.265362,2451.505594
550.979269,2812.782580,-10288.862594,2528.115143
550.979597,296.082377,-10955.047942,1991.848295
550.979924,-1036.288319,-11473.192101,1302.362347
550.980252,-2442.679609,-11621.233289,459.657299
550.980580,-3108.864956,-11621.233289,-383.047749
550.980908,-2072.576638,-10807.006753,-536.266849
550.981235,1406.391290,-9326.594869,766.095498
550.981563,2368.659014,-8660.409521,995.924147
550.981891,1110.308913,-9474.636058,689.485948
550.982219,-370.102971,-9696.697840,-306.438199
550.982546,-1554.432478,-9104.533087,-1072.533697
550.982874,-2812.782580,-9918.759623,-1378.971896
550.983202,-3552.988522,-10140.821405,-1149.143247
550.983529,-1998.556043,-9918.759623,0.000000
550.983857,814.226536,-9326.594869,1991.848295
550.984185,2368.659014,-9474.636058,3600.648841
550.984513,1184.329507,-9918.759623,3524.039291
550.984840,-740.205942,-10288.862594,2987.772442
550.985168,-1850.514855,-9770.718434,1838.629195
550.985496,-3478.967927,-10140.821405,919.314598
550.985824,-4071.132681,-9992.780217,306.438199
550.986151,-2146.597232,-8290.306550,0.000000
550.986479,518.144159,-7476.080014,1225.752797
550.986806,1480.411884,-7105.977043,1302.362347
550.987134,518.144159,-7920.203579,1072.533697
550.987461,-592.164754,-7994.224174,-306.438199
550.987789,-1480.411884,-8216.285956,-1225.752797
550.988116,-1924.535449,-9622.677246,-995.924147
550.988444,-2590.720797,-9696.697840,-995.924147
550.988771,0.000000,-9622.677246,306.438199
550.989099,2812.782580,-8956.491898,1685.410096
550.989426,3552.988522,-9326.594869,2757.943793
550.989754,2146.597232,-10140.821405,2911.162892
550.990082,518.144159,-9400.615463,2298.286494
550.990409,-740.205942,-9326.594869,1302.362347
550.990737,-1480.411884,-9918.759623,612.876398
550.991064,-1702.473667,-9400.615463,459.657299
550.991392,518.144159,-7920.203579,766.095498
550.991719,2664.741391,-7179.997637,1532.190996
550.992047,2590.720797,-7698.141797,1838.629195
550.992374,444.123565,-8956.491898,689.485948
550.992702,-1036.288319,-8438.347739,-383.047749
550.993029,-1406.391290,-7994.224174,-1838.629195
550.993357,-2220.617826,-8882.471304,-1532.190996
550.993684,-2220.617826,-8660.409521,-1378.971896
550.994012,444.123565,-8438.347739,0.000000
550.994339,2886.803174,-7772.162391,1762.019645
550.994667,2812.782580,-8068.244768,2757.943793
550.994995,222.061783,-9400.615463,2451.505594
550.995322,-1702.473667,-9770.718434,1149.143247
550.995650,-3404.947333,-9770.718434,306.438199
550.995977,-4737.318029,-10436.903782,-383.047749
550.996305,-4737.318029,-9104.533087,-689.485948
550.996632,-1776.494261,-8068.244768,-306.438199
550.996960,740.205942,-7105.977043,536.266849
550.997287,1184.329507,-7624.121203,229.828649
550.997615,-296.082377,-8660.409521,-689.485948
550.997942,-1998.556043,-9474.636058,-1302.362347
550.998270,-2368.659014,-9326.594869,-2298.286494
550.998597,-3404.947333,-9474.636058,-3140.991542
550.998925,-2072.576638,-9474.636058,-2681.334243
550.999252,1702.473667,-8660.409521,-612.876398
550.999580,4515.256246,-8216.285956,1991.848295
550.999908,4663.297435,-8586.388927,2987.772442
551.000235,2812.782580,-9770.718434,2451.505594
551.000563,1628.453072,-10214.842000,1455.581446
551.000890,0.000000,-10436.903782,612.876398
551.001218,-1184.329507,-11325.150913,0.000000
551.001545,-1258.350101,-10807.006753,536.266849
551.001873,1628.453072,-9622.677246,612.876398
551.002200,4071.132681,-8808.450710,1991.848295
551.002528,4367.215058,-8734.430116,2221.676944
551.002855,2516.700203,-9918.759623,1149.143247
551.003183,296.082377,-10362.883188,229.828649
551.003510,-1036.288319,-9844.739029,-1225.752797
551.003838,-2664.741391,-10362.883188,-1608.800546
551.004165,-2368.659014,-9770.718434,-1455.581446
551.004493,148.041188,-8956.491898,0.000000
551.004821,1924.535449,-8068.244768,2145.067394
551.005148,1702.473667,-8068.244768,2604.724693
551.005476,-592.164754,-8956.491898,2451.505594
551.005803,-1924.535449,-8956.491898,1685.410096
551.006131,-3701.029710,-9622.677246,995.924147
551.006458,-4663.297435,-10955.047942,689.485948
551.006786,-3849.070898,-9400.615463,1072.533697
551.007113,-888.247130,-8438.347739,2221.676944
551.007441,814.226536,-7994.224174,3064.381992
551.007768,814.226536,-9104.533087,2987.772442
551.008096,-1184.329507,-9992.780217,2221.676944
551.008423,-2516.700203,-9252.574275,1225.752797
551.008751,-3627.009116,-9030.512492,-536.266849
551.009078,-3775.050304,-9030.512492,-1225.752797
551.009406,-2294.638420,-8216.285956,-1072.533697
551.009734,1406.391290,-7550.100608,612.876398
551.010061,3330.926739,-6291.750507,2604.724693
551.010389,3108.864956,-7031.956449,2604.724693
551.010716,518.144159,-8068.244768,2374.896044
551.011044,-1406.391290,-9104.533087,1378.971896
551.011371,-3330.926739,-9770.718434,383.047749
551.011699,-3849.070898,-10436.903782,229.828649
551.012026,-2590.720797,-9252.574275,536.266849
551.012354,1036.288319,-7772.162391,1378.971896
551.012681,2886.803174,-7550.100608,2145.067394
551.013009,2368.659014,-8216.285956,1455.581446
551.013336,296.082377,-8512.368333,0.000000
551.013664,-518.144159,-7994.224174,-1149.143247
551.013991,-1850.514855,-8660.409521,-2298.286494
551.014319,-2368.659014,-9474.636058,-2757.943793
551.014647,-592.164754,-8882.471304,-1762.019645
551.014974,3034.844362,-7920.203579,0.000000
551.015302,4885.359217,-7476.080014,2451.505594
551.015629,4663.297435,-8882.471304,1991.848295
551.015957,1702.473667,-10140.821405,1378.971896
551.016284,-592.164754,-11103.089130,766.095498
551.016612,-2664.741391,-11621.233289,-229.828649
551.016939,-3256.906145,-11547.212695,-459.657299
551.017267,-1036.288319,-10214.842000,0.000000
551.017594,1776.494261,-9252.574275,1072.533697
551.017922,3034.844362,-8216.285956,1762.019645
551.018249,1702.473667,-8512.368333,1455.581446
551.018577,0.000000,-8290.306550,0.000000
551.018904,-1554.432478,-8956.491898,-1685.410096
551.019232,-3552.988522,-9474.636058,-2528.115143
551.019560,-4071.132681,-9770.718434,-3064.381992
551.019887,-2516.700203,-8882.471304,-2221.676944
551.020215,666.185348,-7698.141797,0.000000
551.020542,2368.659014,-8586.388927,1608.800546
551.020870,1998.556043,-9252.574275,2451.505594
551.021197,0.000000,-10066.800811,1762.019645
551.021525,-1776.494261,-10436.903782,1072.533697
551.021852,-3552.988522,-10881.027347,229.828649
551.022180,-3923.091493,-11177.109724,76.609550
551.022507,-1702.473667,-9918.759623,1149.143247
551.022835,1554.432478,-9178.553681,2221.676944
551.023162,2960.823768,-8882.471304,3140.991542
551.023490,1998.556043,-9252.574275,2604.724693
551.023817,0.000000,-9178.553681,1685.410096
551.024145,-1406.391290,-9178.553681,306.438199
551.024473,-2368.659014,-10066.800811,-842.705048
551.024800,-3034.844362,-9844.739029,-1225.752797
551.025128,-1184.329507,-8956.491898,-383.047749
551.025455,2368.659014,-8438.347739,1532.190996
551.025783,3627.009116,-7772.162391,2451.505594
551.026110,2516.700203,-8512.368333,2834.553343
551.026438,444.123565,-9252.574275,2145.067394
551.026765,-1924.535449,-9844.739029,1149.143247
551.027093,-4071.132681,-10510.924376,0.000000
551.027420,-4589.276840,-9548.656652,0.000000
551.027748,-1924.535449,-8216.285956,76.609550
551.028075,1110.308913,-7550.100608,1302.362347
551.028403,2368.659014,-7402.059420,1838.629195
551.028730,1332.370696,-8364.327145,1532.190996
551.029058,-148.041188,-8364.327145,766.095498
551.029386,-1036.288319,-8142.265362,-842.705048
551.029713,-2146.597232,-9400.615463,-1378.971896
551.030041,-1924.535449,-9400.615463,-1378.971896
551.030368,0.000000,-9252.574275,-229.828649
551.030696,2960.823768,-9326.594869,1838.629195
551.031023,2886.803174,-8512.368333,2681.334243
551.031351,2146.597232,-9178.553681,2604.724693
551.031678,148.041188,-9548.656652,1685.410096
551.032006,-1332.370696,-10140.821405,383.047749
551.032333,-2886.803174,-10436.903782,76.609550
551.032661,-2738.761985,-9178.553681,0.000000
551.032988,-296.082377,-7476.080014,459.657299
551.033316,2294.638420,-6809.894666,1378.971896
551.033643,2442.679609,-7846.182985,2068.457845
551.033971,740.205942,-8216.285956,1225.752797
551.034299,-962.267725,-7994.224174,459.657299
551.034626,-2146.597232,-8808.450710,-612.876398
551.034954,-3256.906145,-9696.697840,-1149.143247
551.035281,-3034.844362,-9992.780217,-919.314598
551.035609,-814.226536,-8882.471304,0.000000
551.035936,1850.514855,-7624.121203,1302.362347
551.036264,2368.659014,-7402.059420,2221.676944
551.036591,74.020594,-8586.388927,1225.752797
551.036919,-1998.556043,-9474.636058,306.438199
551.037246,-2960.823768,-9844.739029,-995.924147
551.037574,-2960.823768,-9326.594869,-995.924147
551.037901,-2368.659014,-8068.244768,-1225.752797
551.038229,370.102971,-7772.162391,76.609550
551.038556,2516.700203,-7920.203579,1225.752797
551.038884,3108.864956,-8142.265362,1991.848295
551.039212,1110.308913,-9178.553681,1072.533697
551.039539,-296.082377,-10140.821405,383.047749
551.039867,-1924.535449,-10510.924376,-1072.533697
551.040194,-3256.906145,-11769.274478,-1225.752797
551.040522,-2516.700203,-10436.903782,-1455.581446
551.040849,740.205942,-9474.636058,0.000000
551.041177,3108.864956,-8734.430116,1378.971896
551.041504,3404.947333,-9326.594869,1838.629195
551.041832,1406.391290,-9992.780217,919.314598
551.042159,0.000000,-9622.677246,0.000000
551.042487,-1332.370696,-10362.883188,-689.485948
551.042814,-2294.638420,-11621.233289,-1302.362347
551.043142,-1776.494261,-10658.965565,-1072.533697
551.043469,740.205942,-9326.594869,153.219100
551.043797,3330.926739,-8586.388927,1532.190996
551.044125,2960.823768,-9696.697840,2068.457845
551.044452,1850.514855,-10140.821405,1455.581446
551.044780,740.205942,-9622.677246,919.314598
551.045107,-296.082377,-9548.656652,76.609550
551.045435,-1702.473667,-10955.047942,0.000000
551.045762,-1628.453072,-10510.924376,0.000000
551.046090,1036.288319,-8808.450710,1378.971896
551.046417,2442.679609,-7920.203579,2528.115143
551.046745,2220.617826,-8364.327145,2604.724693
551.047072,-740.205942,-9696.697840,1991.848295
551.047400,-2294.638420,-9844.739029,1608.800546
551.047727,-3552.988522,-9770.718434,459.657299
551.048055,-4071.132681,-9548.656652,1149.143247
551.048382,-2960.823768,-9178.553681,766.095498
551.048710,-1036.288319,-8660.409521,1838.629195
551.049038,222.061783,-8808.450710,2604.724693
551.049365,-740.205942,-8882.471304,2145.067394
551.049693,-1776.494261,-8438.347739,1302.362347
551.050020,-2294.638420,-7846.182985,536.266849
551.050348,-3256.906145,-8586.388927,-459.657299
551.050675,-3923.091493,-9326.594869,-306.438199
551.051003,-2294.638420,-7772.162391,0.000000
551.051330,1332.370696,-6661.853478,1532.190996
551.051658,2590.720797,-6365.771101,2528.115143
551.051985,1406.391290,-8586.388927,2374.896044
551.052313,-1110.308913,-9030.512492,1302.362347
551.052640,-1850.514855,-8882.471304,153.219100
551.052968,-2516.700203,-9030.512492,-383.047749
551.053295,-2738.761985,-8956.491898,-306.438199
551.053623,-666.185348,-8808.450710,0.000000
551.053951,2590.720797,-7476.080014,995.924147
551.054278,4663.297435,-7105.977043,1685.410096
551.054606,3923.091493,-7550.100608,1378.971896
551.054933,2368.659014,-8364.327145,766.095498
551.055261,814.226536,-9030.512492,0.000000
551.055588,-1110.308913,-9474.636058,-766.095498
551.055916,-1998.556043,-9548.656652,-919.314598
551.056243,-222.061783,-9252.574275,0.000000
551.056571,1998.556043,-8290.306550,1149.143247
551.056898,3256.906145,-8142.265362,2374.896044
551.057226,1628.453072,-9030.512492,2068.457845
551.057553,0.000000,-9178.553681,689.485948
551.057881,-1258.350101,-9474.636058,-153.219100
551.058208,-2368.659014,-9918.759623,-919.314598
551.058536,-3627.009116,-9326.594869,-1378.971896
551.058864,-2294.638420,-8364.327145,-1225.752797
551.059191,444.123565,-7698.141797,-306.438199
551.059519,1628.453072,-7179.997637,536.266849
551.059846,444.123565,-7994.224174,229.828649
551.060174,-814.226536,-8290.306550,-383.047749
551.060501,-1258.350101,-8808.450710,-689.485948
551.060829,-2146.597232,-9844.739029,-1302.362347
551.061156,-2072.576638,-9844.739029,-919.314598
551.061484,0.000000,-9474.636058,153.219100
551.061811,2738.761985,-9178.553681,1149.143247
551.062139,2886.803174,-9252.574275,2604.724693
551.062466,1628.453072,-10658.965565,2528.115143
551.062794,-518.144159,-11251.130318,1608.800546
551.063121,-2146.597232,-11621.233289,306.438199
551.063449,-2960.823768,-11399.171507,-383.047749
551.063777,-2960.823768,-11177.109724,-766.095498
551.064104,-888.247130,-10362.883188,-536.266849
551.064432,1702.473667,-9030.512492,459.657299
551.064759,1998.556043,-8364.327145,383.047749
551.065087,1184.329507,-8956.491898,229.828649
551.065414,-222.061783,-8660.409521,-153.219100
551.065742,-1776.494261,-9030.512492,-689.485948
551.066069,-2368.659014,-9622.677246,-919.314598
551.066397,-2886.803174,-9992.780217,-459.657299
551.066724,-222.061783,-9474.636058,842.705048
551.067052,2442.679609,-8364.327145,2068.457845
551.067379,2294.638420,-9104.533087,3064.381992
551.067707,296.082377,-10436.903782,2451.505594
551.068034,-1850.514855,-10658.965565,1072.533697
551.068362,-2368.659014,-10140.821405,536.266849
551.068690,-2294.638420,-10214.842000,76.609550
551.069017,-1184.329507,-9178.553681,383.047749
551.069345,1480.411884,-8364.327145,766.095498
551.069672,3627.009116,-7550.100608,2221.676944
551.070000,3256.906145,-7846.182985,2068.457845
551.070327,1850.514855,-8808.450710,1455.581446
551.070655,0.000000,-8734.430116,229.828649
551.070982,-1110.308913,-9622.677246,306.438199
551.071310,-1776.494261,-10955.047942,842.705048
551.071637,-1850.514855,-10436.903782,1225.752797
551.071965,148.041188,-9104.533087,2834.553343
551.072292,2442.679609,-8438.347739,4290.134789
551.072620,1702.473667,-8734.430116,3983.696590
551.072947,-1036.288319,-9844.739029,2528.115143
551.073275,-3182.885551,-9474.636058,1225.752797
551.073603,-4367.215058,-9030.512492,0.000000
551.073930,-4219.173869,-8808.450710,-459.657299
551.074258,-3849.070898,-7476.080014,-1072.533697
551.074585,-518.144159,-7105.977043,0.000000
551.074913,1332.370696,-6365.771101,766.095498
551.075240,888.247130,-7031.956449,919.314598
551.075568,-370.102971,-7550.100608,306.438199
551.075895,-2072.576638,-8290.306550,-919.314598
551.076223,-2516.700203,-9548.656652,-1455.581446
551.076550,-3478.967927,-10288.862594,-1685.410096
551.076878,-2442.679609,-9622.677246,-766.095498
551.077205,1110.308913,-7846.182985,153.219100
551.077533,3849.070898,-7105.977043,2145.067394
551.077860,3552.988522,-8290.306550,2604.724693
551.078188,1776.494261,-9622.677246,1762.019645
551.078516,-370.102971,-9844.739029,306.438199
551.078843,-1406.391290,-9770.718434,0.000000
551.079171,-2516.700203,-9622.677246,-2068.457845
551.079498,-1332.370696,-8956.491898,-1378.971896
551.079826,1702.473667,-7772.162391,-842.705048
551.080153,3552.988522,-7550.100608,0.000000
551.080481,3775.050304,-7624.121203,229.828649
551.080808,2072.576638,-7476.080014,-842.705048
551.081136,296.082377,-8216.285956,-842.705048
551.081463,-518.144159,-9326.594869,-1302.362347
551.081791,-1924.535449,-10510.924376,-1455.581446
551.082118,-888.247130,-10362.883188,0.000000
551.082446,2664.741391,-9474.636058,1838.629195
551.082773,3256.906145,-8956.491898,4060.306139
551.083101,2812.782580,-10140.821405,3447.429741
551.083429,74.020594,-10732.986159,2298.286494
551.083756,-2220.617826,-10584.944971,995.924147
551.084084,-2812.782580,-11029.068536,0.000000
551.084411,-4589.276840,-10288.862594,-1072.533697
551.084739,-3552.988522,-9844.739029,-919.314598
551.085066,-296.082377,-8956.491898,0.000000
551.085394,1332.370696,-7994.224174,459.657299
551.085721,1554.432478,-7920.203579,1302.362347
551.086049,-296.082377,-8364.327145,536.266849
551.086376,-1628.453072,-9178.553681,0.000000
551.086704,-3627.009116,-10066.800811,-919.314598
551.087031,-4293.194464,-10955.047942,-766.095498
551.087359,-3182.885551,-9918.759623,229.828649
551.087687,814.226536,-9400.615463,2221.676944
551.088014,2368.659014,-8734.430116,3447.429741
551.088342,2442.679609,-9400.615463,4136.915689
551.088669,370.102971,-9474.636058,2987.772442
551.088997,-740.205942,-9548.656652,1991.848295
551.089324,-2442.679609,-9844.739029,459.657299
551.089652,-2664.741391,-10066.800811,-306.438199
551.089980,-1998.556043,-9030.512492,-766.095498
551.090307,1406.391290,-7994.224174,0.000000
551.090635,2294.638420,-7994.224174,459.657299
551.090962,2812.782580,-8216.285956,1225.752797
551.091290,666.185348,-8956.491898,383.047749
551.091617,148.041188,-8882.471304,0.000000
551.091945,-962.267725,-9400.615463,-689.485948
551.092273,-1406.391290,-9918.759623,-383.047749
551.092600,74.020594,-9030.512492,536.266849
551.092928,2664.741391,-8438.347739,2681.334243
551.093255,3182.885551,-8216.285956,3753.867940
551.093583,1258.350101,-9104.533087,3140.991542
551.093910,-1110.308913,-9622.677246,2451.505594
551.094238,-2590.720797,-9400.615463,995.924147
551.094566,-4071.132681,-9252.574275,0.000000
551.094893,-3775.050304,-8660.409521,-689.485948
551.095221,-1924.535449,-7105.977043,-995.924147
551.095548,1406.391290,-6365.771101,153.219100
551.095876,2368.659014,-6069.688724,383.047749
551.096204,1406.391290,-6883.915261,306.438199
551.096531,-148.041188,-7698.141797,0.000000
551.096859,-1924.535449,-8290.306550,-995.924147
551.097186,-3701.029710,-9918.759623,-1302.362347
551.097514,-3923.091493,-10510.924376,-1149.143247
551.097841,-2146.597232,-9918.759623,-383.047749
551.098169,1184.329507,-8956.491898,2221.676944
551.098497,2664.741391,-9030.512492,3217.601092
551.098824,1628.453072,-9770.718434,3217.601092
551.099152,-222.061783,-9992.780217,2145.067394
551.099479,-1184.329507,-9918.759623,383.047749
551.099807,-2294.638420,-9844.739029,0.000000
551.100134,-2590.720797,-9992.780217,-995.924147
551.100462,-592.164754,-9030.512492,-459.657299
551.100790,1554.432478,-7920.203579,0.000000
551.101117,3552.988522,-8068.244768,1225.752797
551.101445,2220.617826,-9178.553681,-153.219100
551.101772,666.185348,-9104.533087,-306.438199
551.102100,-296.082377,-9696.697840,-1302.362347
551.102427,-2146.597232,-10214.842000,-2298.286494
551.102755,-1628.453072,-10362.883188,-1302.362347
551.103083,74.020594,-9696.697840,-766.095498
551.103410,2886.803174,-9252.574275,1685.410096
551.103738,3034.844362,-9696.697840,2451.505594
551.104065,1406.391290,-10066.800811,2145.067394
551.104393,-296.082377,-10066.800811,1378.971896
551.104720,-888.247130,-9992.780217,306.438199
551.105048,-2146.597232,-10807.006753,153.219100
551.105376,-2368.659014,-10436.903782,-306.438199
551.105703,-370.102971,-9178.553681,229.828649
551.106031,1480.411884,-8512.368333,842.705048
551.106358,1554.432478,-8956.491898,1225.752797
551.106686,74.020594,-9770.718434,689.485948
551.107014,-1776.494261,-9844.739029,-306.438199
551.107341,-2294.638420,-9474.636058,-1072.533697
551.107669,-2812.782580,-9548.656652,-1302.362347
551.107996,-1998.556043,-9178.553681,-536.266849
551.108324,888.247130,-8438.347739,1608.800546
551.108651,2812.782580,-7698.141797,2834.553343
551.108979,2516.700203,-8438.347739,3447.429741
551.109307,518.144159,-9252.574275,2987.772442
551.109634,-1036.288319,-9178.553681,2451.505594
551.109962,-1554.432478,-9178.553681,1302.362347
551.110289,-2590.720797,-9696.697840,1302.362347
551.110617,-2590.720797,-9252.574275,689.485948
551.110944,-370.102971,-8142.265362,1378.971896
551.111272,1258.350101,-7476.080014,2068.457845
551.111600,1554.432478,-7179.997637,1302.362347
551.111927,148.041188,-7476.080014,919.314598
551.112255,-1702.473667,-8438.347739,-689.485948
551.112582,-2368.659014,-8660.409521,-1302.362347
551.112910,-2368.659014,-8956.491898,-1072.533697
551.113237,-1036.288319,-8364.327145,-306.438199
551.113565,1924.535449,-7476.080014,1915.238745
551.113893,3923.091493,-8068.244768,3064.381992
551.114220,2294.638420,-9326.594869,3294.210641
551.114548,-222.061783,-9696.697840,2681.334243
551.114875,-2146.597232,-9770.718434,1685.410096
551.115203,-2738.761985,-9474.636058,76.609550
551.115531,-3923.091493,-10214.842000,-766.095498
551.115858,-2664.741391,-9474.636058,-612.876398
551.116186,-296.082377,-8142.265362,0.000000
551.116513,1998.556043,-7328.038826,536.266849
551.116841,2072.576638,-7476.080014,76.609550
551.117168,74.020594,-7920.203579,-612.876398
551.117496,-1332.370696,-8882.471304,-1838.629195
551.117824,-2664.741391,-9252.574275,-2528.115143
551.118151,-3108.864956,-9992.780217,-2374.896044
551.118479,-2146.597232,-8882.471304,-1608.800546
551.118806,1184.329507,-8586.388927,383.047749
551.119134,3330.926739,-8290.306550,1762.019645
551.119461,3256.906145,-8808.450710,2145.067394
551.119789,1258.350101,-9696.697840,1532.190996
551.120117,-592.164754,-9548.656652,689.485948
551.120444,-2072.576638,-10140.821405,306.438199
551.120772,-2886.803174,-10732.986159,-766.095498
551.121099,-1480.411884,-9918.759623,-919.314598
551.121427,1258.350101,-8956.491898,0.000000
551.121754,3404.947333,-8512.368333,995.924147
551.122082,2960.823768,-8660.409521,536.266849
551.122410,1628.453072,-8882.471304,459.657299
551.122737,0.000000,-9474.636058,-689.485948
551.123065,-1184.329507,-10510.924376,-1532.190996
551.123392,-2516.700203,-11177.109724,-1685.410096
551.123720,-1036.288319,-10066.800811,-612.876398
551.124048,1480.411884,-9178.553681,1072.533697
551.124375,2812.782580,-9178.553681,2757.943793
551.124703,2664.741391,-9548.656652,3524.039291
551.125030,1036.288319,-9992.780217,2757.943793
551.125358,-814.226536,-9770.718434,1455.581446
551.125685,-3330.926739,-10288.862594,689.485948
551.126013,-4589.276840,-11029.068536,153.219100
551.126341,-3552.988522,-9918.759623,0.000000
551.126668,-148.041188,-9400.615463,1225.752797
551.126996,1554.432478,-8734.430116,2068.457845
551.127323,962.267725,-9178.553681,1762.019645
551.127651,-370.102971,-9622.677246,766.095498
551.127978,-1776.494261,-9252.574275,-153.219100
551.128306,-2886.803174,-9622.677246,-995.924147
551.128634,-3330.926739,-9844.739029,-1762.019645
551.128961,-1554.432478,-9400.615463,-689.485948
551.129289,1110.308913,-8068.244768,306.438199
551.129616,2738.761985,-7920.203579,2451.505594
551.129944,2294.638420,-8734.430116,3447.429741
551.130271,888.247130,-9474.636058,2757.943793
551.130599,-444.123565,-9474.636058,2451.505594
551.130927,-2220.617826,-10066.800811,1149.143247
551.131254,-3034.844362,-9918.759623,229.828649
551.131582,-1924.535449,-9178.553681,306.438199
551.131909,1332.370696,-8364.327145,1378.971896
551.132237,2442.679609,-7920.203579,1685.410096
551.132565,1924.535449,-7476.080014,1455.581446
551.132892,1036.288319,-7994.224174,306.438199
551.133220,-444.123565,-7550.100608,-919.314598
551.133547,-1480.411884,-8512.368333,-1685.410096
551.133875,-1998.556043,-8808.450710,-1915.238745
551.134202,-518.144159,-7550.100608,153.219100
551.134530,2072.576638,-7476.080014,536.266849
551.134858,2812.782580,-7254.018232,2068.457845
551.135185,1480.411884,-8290.306550,2374.896044
551.135513,0.000000,-9252.574275,1991.848295
551.135840,-1702.473667,-8660.409521,1378.971896
551.136168,-2738.761985,-9844.739029,0.000000
551.136495,-3256.906145,-9252.574275,-306.438199
551.136823,-1184.329507,-8142.265362,76.609550
551.137151,1702.473667,-7179.997637,1225.752797
551.137478,2368.659014,-7031.956449,1225.752797
551.137806,1036.288319,-7402.059420,1149.143247
551.138133,-296.082377,-8142.265362,-229.828649
551.138461,-1924.535449,-8290.306550,-1225.752797
551.138788,-3478.967927,-8956.491898,-2451.505594
551.139116,-3182.885551,-9548.656652,-1991.848295
551.139444,-814.226536,-8808.450710,-459.657299
551.139771,1332.370696,-8660.409521,1225.752797
551.140099,1998.556043,-8734.430116,2298.286494
551.140426,666.185348,-9696.697840,2451.505594
551.140754,-962.267725,-10288.862594,1532.190996
551.141081,-2220.617826,-10288.862594,536.266849
551.141409,-3552.988522,-10288.862594,-153.219100
551.141737,-2886.803174,-9844.739029,-612.876398
551.142064,0.000000,-8956.491898,459.657299
551.142392,2220.617826,-7994.224174,1455.581446
551.142719,2738.761985,-7476.080014,1608.800546
551.143047,1406.391290,-8808.450710,995.924147
551.143375,0.000000,-9178.553681,-229.828649
551.143702,-1924.535449,-9844.739029,-1225.752797
551.144030,-2960.823768,-11177.109724,-1838.629195
551.144357,-2590.720797,-10732.986159,-1532.190996
551.144685,814.226536,-9696.697840,0.000000
551.145012,3108.864956,-8882.471304,1991.848295
551.145340,3478.967927,-9030.512492,2604.724693
551.145668,1776.494261,-9992.780217,2604.724693
551.145995,-148.041188,-10362.883188,1608.800546
551.146323,-1628.453072,-10658.965565,842.705048
551.146650,-2960.823768,-11029.068536,0.000000
551.146978,-2220.617826,-11029.068536,689.485948
551.147305,74.020594,-9622.677246,1532.190996
551.147633,1850.514855,-8956.491898,2757.943793
551.147961,2146.597232,-9104.533087,2757.943793
551.148288,0.000000,-9252.574275,1991.848295
551.148616,-1924.535449,-9770.718434,229.828649
551.148943,-3034.844362,-9622.677246,-995.924147
551.149271,-3923.091493,-9770.718434,-1532.190996
551.149598,-2294.638420,-9030.512492,-383.047749
551.149926,222.061783,-7920.203579,536.266849
551.150254,2960.823768,-7254.018232,2374.896044
551.150581,2960.823768,-7254.018232,2528.115143
551.150909,814.226536,-8142.265362,2298.286494
551.151236,-1776.494261,-9104.533087,1608.800546
551.151564,-2960.823768,-9326.594869,153.219100
551.151892,-3775.050304,-10066.800811,76.609550
551.152219,-2664.741391,-9696.697840,153.219100
551.152547,518.144159,-8290.306550,1685.410096
551.152874,2738.761985,-7846.182985,2374.896044
551.153202,3182.885551,-7846.182985,2681.334243
551.153529,1332.370696,-8290.306550,1149.143247
551.153857,-1110.308913,-8882.471304,-306.438199
551.154185,-2664.741391,-9770.718434,-1532.190996
551.154512,-3627.009116,-10066.800811,-2757.943793
551.154840,-2294.638420,-9252.574275,-1915.238745
551.155167,1110.308913,-8364.327145,-612.876398
551.155495,3330.926739,-8364.327145,919.314598
551.155822,3330.926739,-9178.553681,1685.410096
551.156150,1406.391290,-9622.677246,1302.362347
551.156478,-740.205942,-8882.471304,306.438199
551.156805,-2368.659014,-9474.636058,-1149.143247
551.157133,-3034.844362,-9918.759623,-1608.800546
551.157460,-1702.473667,-9252.574275,-612.876398
551.157788,814.226536,-8216.285956,383.047749
551.158115,2886.803174,-7105.977043,1838.629195
551.158443,2516.700203,-8068.244768,2068.457845
551.158771,1184.329507,-8808.450710,1149.143247
551.159098,-296.082377,-8660.409521,76.609550
551.159426,-1702.473667,-9178.553681,-1455.581446
551.159753,-2590.720797,-9770.718434,-1685.410096
551.160081,-1258.350101,-9474.636058,-1991.848295
551.160409,1406.391290,-7920.203579,153.219100
551.160736,3627.009116,-7476.080014,1532.190996
551.161064,3330.926739,-8364.327145,1838.629195
551.161391,1480.411884,-9622.677246,1991.848295
551.161719,-518.144159,-9548.656652,1455.581446
551.162046,-3034.844362,-9992.780217,-76.609550
551.162374,-3849.070898,-11251.130318,-153.219100
551.162702,-2960.823768,-10140.821405,76.609550
551.163029,74.020594,-9252.574275,1532.190996
551.163357,2368.659014,-8660.409521,2681.334243
551.163684,1480.411884,-9030.512492,3140.991542
551.164012,-148.041188,-9474.636058,2221.676944
551.164339,-1628.453072,-8808.450710,459.657299
551.164667,-2664.741391,-9178.553681,-689.485948
551.164995,-3627.009116,-9918.759623,-1302.362347
551.165322,-2442.679609,-8660.409521,-1149.143247
551.165650,444.123565,-7105.977043,383.047749
551.165977,2516.700203,-6883.915261,1608.800546
551.166305,1998.556043,-8142.265362,2145.067394
551.166632,740.205942,-9252.574275,2145.067394
551.166960,-1036.288319,-9474.636058,919.314598
551.167288,-3108.864956,-10658.965565,76.609550
551.167615,-4589.276840,-11547.212695,-383.047749
551.167943,-2738.761985,-10584.944971,76.609550
551.168270,222.061783,-9178.553681,1302.362347
551.168598,1998.556043,-8364.327145,1838.629195
551.168925,1554.432478,-8956.491898,1838.629195
551.169253,148.041188,-8882.471304,919.314598
551.169581,-962.267725,-8068.244768,229.828649
551.169908,-1702.473667,-8808.450710,-766.095498
551.170236,-1480.411884,-9030.512492,-995.924147
551.170563,-148.041188,-8438.347739,0.000000
551.170891,2072.576638,-7624.121203,1302.362347
551.171219,2960.823768,-7920.203579,2221.676944
551.171546,1332.370696,-9104.533087,2298.286494
551.171874,-518.144159,-9622.677246,1915.238745
551.172201,-1776.494261,-9474.636058,1532.190996
551.172529,-2664.741391,-10140.821405,0.000000
551.172856,-2590.720797,-10066.800811,0.000000
551.173184,-814.226536,-9252.574275,459.657299
551.173512,1628.453072,-7920.203579,1302.362347
551.173839,2590.720797,-7920.203579,1991.848295
551.174167,2368.659014,-8512.368333,1225.752797
551.174494,-296.082377,-8734.430116,306.438199
551.174822,-1110.308913,-8660.409521,-689.485948
551.175149,-2442.679609,-9400.615463,-1149.143247
551.175477,-2146.597232,-9474.636058,-995.924147
551.175805,-666.185348,-8734.430116,0.000000
551.176132,1628.453072,-8068.244768,1608.800546
551.176460,2294.638420,-8290.306550,2145.067394
551.176787,962.267725,-9474.636058,1915.238745
551.177115,-666.185348,-10066.800811,1225.752797
551.177442,-1998.556043,-9696.697840,306.438199
551.177770,-3478.967927,-10066.800811,-536.266849
551.178098,-3775.050304,-10288.862594,-995.924147
551.178425,-1480.411884,-8734.430116,0.000000
551.178753,962.267725,-7402.059420,536.266849
551.179080,1998.556043,-7402.059420,1991.848295
551.179408,1184.329507,-8216.285956,766.095498
551.179736,0.000000,-8660.409521,0.000000
551.180063,-740.205942,-9104.533087,-689.485948
551.180391,-1554.432478,-10066.800811,-842.705048
551.180718,-1480.411884,-10362.883188,-536.266849
551.181046,592.164754,-10436.903782,919.314598
551.181373,2516.700203,-9696.697840,2145.067394
551.181701,1998.556043,-9992.780217,2374.896044
551.182029,814.226536,-10436.903782,1915.238745
551.182356,-740.205942,-10066.800811,766.095498
551.182684,-1702.473667,-9844.739029,-612.876398
551.183011,-2516.700203,-10140.821405,-842.705048
551.183339,-2072.576638,-9400.615463,-919.314598
551.183666,370.102971,-8216.285956,0.000000
551.183994,2664.741391,-7328.038826,1225.752797
551.184322,3404.947333,-7994.224174,1608.800546
551.184649,1184.329507,-8438.347739,1455.581446
551.184977,-222.061783,-9030.512492,766.095498
551.185304,-1702.473667,-9622.677246,0.000000
551.185632,-3256.906145,-10955.047942,-459.657299
551.185959,-3552.988522,-10658.965565,-383.047749
551.186287,-518.144159,-9400.615463,995.924147
551.186615,1628.453072,-8438.347739,2145.067394
551.186942,2294.638420,-8438.347739,2451.505594
551.187270,666.185348,-8808.450710,1685.410096
551.187597,-518.144159,-8956.491898,1378.971896
551.187925,-1924.535449,-8660.409521,0.000000
551.188253,-2960.823768,-9400.615463,-842.705048
551.188580,-2960.823768,-9474.636058,-612.876398
551.188908,-666.185348,-8068.244768,0.000000
551.189235,1776.494261,-7920.203579,1685.410096
551.189563,2368.659014,-7846.182985,2221.676944
551.189890,666.185348,-8882.471304,1532.190996
551.190218,-592.164754,-9474.636058,1072.533697
551.190545,-1998.556043,-9844.739029,153.219100
551.190873,-2960.823768,-10658.965565,-229.828649
551.191200,-1998.556043,-10066.800811,-459.657299
551.191528,296.082377,-8734.430116,1072.533697
551.191856,2072.576638,-8364.327145,1991.848295
551.192183,2220.617826,-8438.347739,2374.896044
551.192511,592.164754,-8734.430116,1762.019645
551.192838,74.020594,-8290.306550,919.314598
551.193166,-1480.411884,-8956.491898,-229.828649
551.193493,-2368.659014,-9548.656652,-689.485948
551.193821,-1702.473667,-9326.594869,-459.657299
551.194148,814.226536,-8364.327145,229.828649
551.194476,2146.597232,-7994.224174,1455.581446
551.194803,2072.576638,-9400.615463,1072.533697
551.195131,-296.082377,-9770.718434,1072.533697
551.195459,-1332.370696,-9548.656652,0.000000
551.195786,-2294.638420,-9844.739029,-766.095498
551.196114,-3256.906145,-10140.821405,-1072.533697
551.196441,-1628.453072,-9326.594869,-689.485948
551.196769,1036.288319,-7846.182985,536.266849
551.197096,2590.720797,-7402.059420,1838.629195
551.197424,1998.556043,-8216.285956,1608.800546
551.197751,-148.041188,-9252.574275,1072.533697
551.198079,-1258.350101,-8956.491898,0.000000
551.198406,-3034.844362,-9548.656652,-995.924147
551.198734,-3627.009116,-10732.986159,-1302.362347
551.199061,-2442.679609,-9844.739029,-1149.143247
551.199389,444.123565,-8882.471304,0.000000
551.199717,2294.638420,-7920.203579,1455.581446
551.200044,3108.864956,-8660.409521,459.657299
551.200372,1628.453072,-9474.636058,919.314598
551.200699,0.000000,-9696.697840,229.828649
551.201027,-888.247130,-10288.862594,-229.828649
551.201354,-2220.617826,-10066.800811,-536.266849
551.201682,0.000000,-8956.491898,459.657299
551.202009,1998.556043,-7772.162391,1378.971896
551.202337,3627.009116,-7772.162391,2451.505594
551.202664,2516.700203,-8808.450710,2681.334243
551.202992,74.020594,-9326.594869,1991.848295
551.203320,-740.205942,-9400.615463,842.705048
551.203647,-3108.864956,-10362.883188,-306.438199
551.203975,-3923.091493,-10732.986159,-536.266849
551.204302,-2738.761985,-9474.636058,-536.266849
551.204630,74.020594,-7994.224174,536.266849
551.204957,1702.473667,-7476.080014,1762.019645
551.205285,666.185348,-8438.347739,1532.190996
551.205612,-740.205942,-9030.512492,612.876398
551.205940,-2072.576638,-8660.409521,-153.219100
551.206267,-3182.885551,-9104.533087,-1455.581446
551.206595,-3478.967927,-9622.677246,-536.266849
551.206923,-1332.370696,-8364.327145,0.000000
551.207250,1406.391290,-7920.203579,1838.629195
551.207578,2664.741391,-7772.162391,2911.162892
551.207905,1998.556043,-8660.409521,2834.553343
551.208233,0.000000,-9030.512492,2221.676944
551.208560,-1480.411884,-9400.615463,689.485948
551.208888,-3627.009116,-10214.842000,-689.485948
551.209215,-4145.153275,-10584.944971,-995.924147
551.209543,-1998.556043,-9400.615463,-842.705048
551.209870,1628.453072,-7994.224174,229.828649
551.210198,2442.679609,-7698.141797,612.876398
551.210525,2590.720797,-8660.409521,1072.533697
551.210853,1110.308913,-8290.306550,536.266849
551.211181,-296.082377,-8660.409521,-383.047749
551.211508,-814.226536,-9400.615463,-612.876398
551.211836,-962.267725,-9474.636058,-459.657299
551.212163,666.185348,-8882.471304,1225.752797
551.212491,3034.844362,-8586.388927,2757.943793
551.212818,3108.864956,-9104.533087,3524.039291
551.213146,1332.370696,-10140.821405,3600.648841
551.213473,-1036.288319,-9770.718434,2298.286494
551.213801,-2072.576638,-9844.739029,1225.752797
551.214128,-3849.070898,-10140.821405,-459.657299
551.214456,-4071.132681,-10214.842000,-919.314598
551.214784,-1702.473667,-8808.450710,-536.266849
551.215111,1110.308913,-7402.059420,612.876398
551.215439,2294.638420,-7328.038826,995.924147
551.215766,1110.308913,-7994.224174,766.095498
551.216094,-592.164754,-8882.471304,-153.219100
551.216421,-2220.617826,-9400.615463,-766.095498
551.216749,-3627.009116,-9696.697840,-766.095498
551.217076,-3330.926739,-9548.656652,-306.438199
551.217404,-222.061783,-9178.553681,612.876398
551.217731,2072.576638,-8956.491898,2374.896044
551.218059,2368.659014,-9030.512492,3370.820191
551.218387,1036.288319,-9770.718434,2834.553343
551.218714,0.000000,-9844.739029,1915.238745
551.219042,-2146.597232,-9770.718434,76.609550
551.219369,-3404.947333,-11103.089130,-766.095498
551.219697,-2886.803174,-10732.986159,-1302.362347
551.220024,-592.164754,-9326.594869,-459.657299
551.220352,2368.659014,-8290.306550,383.047749
551.220679,3627.009116,-7920.203579,995.924147
551.221007,1998.556043,-9326.594869,459.657299
551.221334,592.164754,-9548.656652,-459.657299
551.221662,-814.226536,-9918.759623,-1225.752797
551.221989,-2368.659014,-10732.986159,-1072.533697
551.222317,-1702.473667,-9844.739029,-383.047749
551.222645,518.144159,-9030.512492,536.266849
551.222972,2812.782580,-8660.409521,2145.067394
551.223300,2442.679609,-9252.574275,3064.381992
551.223627,1110.308913,-9696.697840,2757.943793
551.223955,-1110.308913,-8956.491898,1762.019645
551.224282,-2368.659014,-9400.615463,689.485948
551.224610,-3849.070898,-9992.780217,-612.876398
551.224937,-3256.906145,-9474.636058,-842.705048
551.225265,296.082377,-7920.203579,76.609550
551.225592,3108.864956,-6217.729913,1685.410096
551.225920,3775.050304,-6735.874072,2221.676944
551.226248,2072.576638,-8068.244768,1838.629195
551.226575,518.144159,-8734.430116,1149.143247
551.226903,-1184.329507,-8882.471304,766.095498
551.227230,-2516.700203,-9474.636058,995.924147
551.227558,-2664.741391,-9400.615463,1532.190996
551.227885,296.082377,-9252.574275,2757.943793
551.228213,2516.700203,-8808.450710,4826.401637
551.228540,2516.700203,-8364.327145,5669.106685
551.228868,1258.350101,-8882.471304,4979.620737
551.229195,-888.247130,-9104.533087,3753.867940
551.229523,-2812.782580,-9104.533087,3064.381992
551.229851,-4145.153275,-9104.533087,1532.190996
551.230178,-3256.906145,-8734.430116,1532.190996
551.230506,-518.144159,-7550.100608,2298.286494
551.230833,2294.638420,-7031.956449,3677.258390
551.231161,1702.473667,-7031.956449,4060.306139
551.231488,0.000000,-8142.265362,2834.553343
551.231816,-2886.803174,-9030.512492,1455.581446
551.232143,-4589.276840,-9178.553681,76.609550
551.232471,-4885.359217,-8882.471304,-306.438199
551.232798,-3552.988522,-8364.327145,0.000000
551.233126,-296.082377,-7624.121203,1608.800546
551.233453,3108.864956,-6735.874072,4060.306139
551.233781,4737.318029,-6513.812290,5592.497135
551.234109,3997.112087,-7846.182985,5515.887586
551.234436,518.144159,-9844.739029,4673.182538
551.234764,-2220.617826,-11029.068536,3140.991542
551.235091,-3034.844362,-10955.047942,2451.505594
551.235419,-1628.453072,-10881.027347,2528.115143
551.235746,0.000000,-10510.924376,2987.772442
551.236074,2220.617826,-9918.759623,3983.696590
551.236401,3923.091493,-8882.471304,4903.011187
551.236729,3701.029710,-7846.182985,4443.353888
551.237056,1554.432478,-9252.574275,3140.991542
551.237384,-2072.576638,-11029.068536,1608.800546
551.237712,-4589.276840,-11621.233289,0.000000
551.238039,-4737.318029,-10658.965565,536.266849
551.238367,-2368.659014,-9770.718434,1455.581446
551.238694,-222.061783,-9400.615463,2987.772442
551.239022,1406.391290,-9474.636058,4519.963438
551.239349,1702.473667,-9178.553681,5286.058936
551.239677,1110.308913,-8586.388927,5898.935335
551.240004,-222.061783,-9400.615463,4366.744339
551.240332,-1702.473667,-10362.883188,3447.429741
551.240659,-2738.761985,-11325.150913,2757.943793
551.240987,-1776.494261,-10881.027347,2911.162892
551.241315,-222.061783,-9622.677246,4060.306139
551.241642,2294.638420,-8586.388927,4903.011187
551.241970,2368.659014,-8660.409521,4903.011187
551.242297,1110.308913,-9844.739029,4136.915689
551.242625,0.000000,-10066.800811,3217.601092
551.242952,-222.061783,-8882.471304,3064.381992
551.243280,666.185348,-9474.636058,2528.115143
551.243607,444.123565,-10510.924376,3140.991542
551.243935,-370.102971,-11325.150913,3370.820191
551.244262,-1702.473667,-11177.109724,3370.820191
551.244590,-1332.370696,-9622.677246,3600.648841
551.244917,-740.205942,-8808.450710,3370.820191
551.245245,-666.185348,-8660.409521,3370.820191
551.245573,-1258.350101,-8734.430116,2757.943793
551.245900,-2072.576638,-8808.450710,2374.896044
551.246228,-1406.391290,-8290.306550,2298.286494
551.246555,444.123565,-6809.894666,2911.162892
551.246883,2812.782580,-6809.894666,4060.306139
551.247210,4145.153275,-7624.121203,4596.572988
551.247538,2368.659014,-8956.491898,4673.182538
551.247865,-444.123565,-9696.697840,4596.572988
551.248193,-2368.659014,-9474.636058,3677.258390
551.248520,-1776.494261,-9326.594869,3140.991542
551.248848,74.020594,-8808.450710,3370.820191
551.249176,1480.411884,-8956.491898,3524.039291
551.249503,1110.308913,-9474.636058,3677.258390
551.249831,74.020594,-9326.594869,3447.429741
551.250158,-1184.329507,-8734.430116,2834.553343
551.250486,-1036.288319,-7772.162391,2911.162892
551.250813,74.020594,-7624.121203,2604.724693
551.251141,370.102971,-7624.121203,2987.772442
551.251468,0.000000,-8216.285956,2987.772442
551.251796,-2072.576638,-8290.306550,3294.210641
551.252123,-3478.967927,-8734.430116,2604.724693
551.252451,-3330.926739,-8956.491898,2298.286494
551.252779,-2072.576638,-8956.491898,1838.629195
551.253106,148.041188,-8586.388927,2681.334243
551.253434,888.247130,-7846.182985,3370.820191
551.253761,888.247130,-7772.162391,3370.820191
551.254089,148.041188,-8216.285956,3524.039291
551.254416,-888.247130,-8734.430116,2604.724693
551.254744,-888.247130,-8956.491898,2068.457845
551.255071,0.000000,-9400.615463,1915.238745
551.255399,1776.494261,-8882.471304,2834.553343
551.255726,2664.741391,-8660.409521,4366.744339
551.256054,3627.009116,-9474.636058,5515.887586
551.256381,3034.844362,-10436.903782,5209.449386
551.256709,1480.411884,-10955.047942,3983.696590
551.257037,-518.144159,-11843.295072,3447.429741
551.257364,-2294.638420,-11621.233289,2911.162892
551.257692,-2072.576638,-10955.047942,3140.991542
551.258019,74.020594,-9918.759623,4213.525239
551.258347,1924.535449,-8808.450710,5286.058936
551.258674,3108.864956,-9252.574275,5515.887586
551.259002,1110.308913,-9252.574275,5132.839837
551.259329,-2294.638420,-9252.574275,3677.258390
551.259657,-4293.194464,-9622.677246,2451.505594
551.259984,-4885.359217,-9400.615463,1762.019645
551.260312,-3849.070898,-8586.388927,1838.629195
551.260640,-1480.411884,-8068.244768,2681.334243
551.260967,148.041188,-7402.059420,4060.306139
551.261295,1110.308913,-7846.182985,5209.449386
551.261622,0.000000,-8068.244768,4749.792088
551.261950,-1850.514855,-9326.594869,3830.477490
551.262277,-3108.864956,-10362.883188,2604.724693
551.262605,-4219.173869,-10881.027347,1762.019645
551.262932,-3849.070898,-10658.965565,1685.410096
551.263260,-1924.535449,-9918.759623,2374.896044
551.263587,370.102971,-9252.574275,3830.477490
551.263915,2368.659014,-8438.347739,4136.915689
551.264243,3108.864956,-8512.368333,4136.915689
551.264570,2516.700203,-8734.430116,3753.867940
551.264898,1184.329507,-9622.677246,2834.553343
551.265225,814.226536,-10214.842000,2451.505594
551.265553,296.082377,-10066.800811,2987.772442
551.265880,518.144159,-9844.739029,3217.601092
551.266208,740.205942,-9474.636058,3677.258390
551.266535,370.102971,-9252.574275,3830.477490
551.266863,74.020594,-8956.491898,2528.115143
551.267190,0.000000,-8364.327145,3677.258390
551.267518,-222.061783,-8068.244768,2374.896044
551.267845,222.061783,-7994.224174,2145.067394
551.268173,814.226536,-7476.080014,2298.286494
551.268501,1332.370696,-7179.997637,2987.772442
551.268828,1776.494261,-7328.038826,3447.429741
551.269156,1776.494261,-7476.080014,3983.696590
551.269483,814.226536,-8512.368333,3983.696590
551.269811,222.061783,-9104.533087,3983.696590
551.270138,-962.267725,-9770.718434,3753.867940
551.270466,-1776.494261,-9548.656652,3677.258390
551.270793,-1924.535449,-9770.718434,3524.039291
551.271121,-1628.453072,-9844.739029,3600.648841
551.271448,-1480.411884,-9474.636058,3217.601092
551.271776,-1332.370696,-8956.491898,3064.381992
551.272104,-666.185348,-8068.244768,2681.334243
551.272431,-222.061783,-7698.141797,2451.505594
551.272759,-740.205942,-7920.203579,2757.943793
551.273086,-814.226536,-7920.203579,2681.334243
551.273414,-1332.370696,-8142.265362,2681.334243
551.273741,-1332.370696,-7994.224174,2757.943793
551.274069,-592.164754,-8586.388927,3677.258390
551.274396,-148.041188,-9104.533087,3370.820191
551.274724,222.061783,-9474.636058,3677.258390
551.275051,0.000000,-10066.800811,3677.258390
551.275379,-370.102971,-10066.800811,3753.867940
551.275707,-666.185348,-9400.615463,3524.039291
551.276034,-814.226536,-9770.718434,3447.429741
551.276362,-444.123565,-9326.594869,2757.943793
551.276689,148.041188,-9030.512492,2757.943793
551.277017,1036.288319,-9104.533087,2757.943793
551.277344,1184.329507,-9474.636058,3294.210641
551.277672,740.205942,-9548.656652,2374.896044
551.277999,222.061783,-10140.821405,2528.115143
551.278327,-518.144159,-10140.821405,2298.286494
551.278654,-592.164754,-10362.883188,2221.676944
551.278982,-370.102971,-10140.821405,2145.067394
551.279309,-444.123565,-9918.759623,1991.848295
551.279637,-888.247130,-10214.842000,2221.676944
551.279965,-962.267725,-9844.739029,2068.457845
551.280292,-1480.411884,-9622.677246,1532.190996
551.280620,-1554.432478,-9104.533087,1608.800546
551.280947,-962.267725,-8882.471304,1149.143247
551.281275,-444.123565,-8364.327145,1455.581446
551.281602,0.000000,-8216.285956,1072.533697
551.281930,222.061783,-7994.224174,842.705048
551.282257,444.123565,-8290.306550,1149.143247
551.282585,592.164754,-8882.471304,459.657299
551.282912,0.000000,-9030.512492,1225.752797
551.283240,0.000000,-9548.656652,1302.362347
551.283568,296.082377,-9696.697840,1455.581446
551.283895,888.247130,-10066.800811,1762.019645
551.284223,1628.453072,-9696.697840,2068.457845
551.284550,1406.391290,-9918.759623,1685.410096
551.284878,814.226536,-9622.677246,1915.238745
551.285205,444.123565,-9474.636058,1685.410096
551.285533,-370.102971,-9252.574275,1302.362347
551.285860,-518.144159,-8956.491898,919.314598
551.286188,-296.082377,-8512.368333,766.095498
551.286515,-296.082377,-8586.388927,1072.533697
551.286843,-296.082377,-8290.306550,766.095498
551.287171,-296.082377,-8364.327145,995.924147
551.287498,-666.185348,-8216.285956,766.095498
551.287826,-962.267725,-7846.182985,842.705048
551.288153,-962.267725,-7994.224174,229.828649
551.288481,-1184.329507,-8068.244768,612.876398
551.288808,-888.247130,-8068.244768,459.657299
551.289136,-740.205942,-8290.306550,842.705048
551.289464,-518.144159,-8364.327145,229.828649
551.289791,-814.226536,-8216.285956,1149.143247
551.290119,-444.123565,-8512.368333,1072.533697
551.290446,-370.102971,-8660.409521,689.485948
551.290774,0.000000,-8512.368333,766.095498
551.291102,0.000000,-8660.409521,919.314598
551.291429,222.061783,-8586.388927,842.705048
551.291757,296.082377,-8808.450710,842.705048
551.292084,296.082377,-9252.574275,1072.533697
551.292412,0.000000,-9400.615463,1072.533697
551.292739,0.000000,-9622.677246,1302.362347
551.293067,-370.102971,-9474.636058,1455.581446
551.293395,0.000000,-9326.594869,689.485948
551.293722,0.000000,-9178.553681,842.705048
551.294050,-222.061783,-9104.533087,766.095498
551.294377,-296.082377,-9030.512492,842.705048
551.294705,-666.185348,-8438.347739,1149.143247
551.295033,-666.185348,-9178.553681,1225.752797
551.295360,-814.226536,-9030.512492,1072.533697
551.295688,-1332.370696,-9178.553681,842.705048
551.296015,-1406.391290,-9030.512492,536.266849
551.296343,-1258.350101,-8956.491898,689.485948
551.296670,-1036.288319,-9178.553681,612.876398
551.296998,-592.164754,-9104.533087,689.485948
551.297326,-518.144159,-9326.594869,689.485948
551.297653,-222.061783,-9474.636058,459.657299
551.297981,0.000000,-9696.697840,995.924147
551.298308,0.000000,-9474.636058,306.438199
551.298636,-296.082377,-9844.739029,459.657299
551.298964,-296.082377,-10214.842000,689.485948
551.299291,-518.144159,-10066.800811,459.657299
551.299619,-370.102971,-10214.842000,689.485948
551.299946,370.102971,-9844.739029,689.485948
551.300274,296.082377,-9622.677246,689.485948
551.300601,370.102971,-9474.636058,536.266849
551.300929,518.144159,-9474.636058,612.876398
551.301257,592.164754,-9252.574275,459.657299
551.301584,444.123565,-9178.553681,919.314598
551.301912,0.000000,-9178.553681,536.266849
551.302239,-148.041188,-9252.574275,383.047749
551.302567,0.000000,-9474.636058,766.095498
551.302895,0.000000,-9178.553681,536.266849
551.303222,148.041188,-9104.533087,995.924147
551.303550,296.082377,-8734.430116,76.609550
551.303877,74.020594,-8808.450710,76.609550
551.304205,0.000000,-8882.471304,0.000000
551.304533,-222.061783,-8586.388927,153.219100
551.304860,-222.061783,-8808.450710,0.000000
551.305188,-296.082377,-8734.430116,306.438199
551.305515,-666.185348,-8660.409521,76.609550
551.305843,-666.185348,-9178.553681,153.219100
551.306170,-666.185348,-9030.512492,229.828649
551.306498,-518.144159,-8882.471304,153.219100
551.306826,-592.164754,-8734.430116,383.047749
551.307153,-296.082377,-8290.306550,306.438199
551.307481,-296.082377,-8586.388927,459.657299
551.307808,-296.082377,-8660.409521,306.438199
551.308136,-592.164754,-8586.388927,459.657299
551.308464,-666.185348,-8438.347739,919.314598
551.308791,-814.226536,-9104.533087,1149.143247
551.309119,-814.226536,-9104.533087,689.485948
551.309446,-518.144159,-9104.533087,766.095498
551.309774,-518.144159,-8512.368333,612.876398
551.310101,-592.164754,-8216.285956,1532.190996
551.310429,222.061783,-8438.347739,306.438199
551.310757,-148.041188,-8956.491898,459.657299
551.311084,-148.041188,-9030.512492,612.876398
551.311412,-518.144159,-9178.553681,766.095498
551.311739,-518.144159,-9696.697840,1072.533697
551.312067,-518.144159,-9474.636058,842.705048
551.312395,-666.185348,-9474.636058,689.485948
551.312722,-296.082377,-9400.615463,536.266849
551.313050,-222.061783,-9104.533087,383.047749
551.313377,-370.102971,-9400.615463,306.438199
551.313705,-222.061783,-8882.471304,842.705048
551.314032,-592.164754,-9252.574275,612.876398
551.314360,-370.102971,-9252.574275,459.657299
551.314688,-666.185348,-9474.636058,689.485948
551.315015,-666.185348,-9474.636058,459.657299
551.315343,-444.123565,-9474.636058,995.924147
551.315670,-148.041188,-9030.512492,459.657299
551.315998,-148.041188,-9030.512492,383.047749
551.316326,0.000000,-8956.491898,383.047749
551.316653,-148.041188,-9326.594869,229.828649
551.316981,-148.041188,-9326.594869,306.438199
551.317308,0.000000,-9474.636058,229.828649
551.317636,-370.102971,-9844.739029,536.266849
551.317964,-592.164754,-9696.697840,689.485948
551.318291,-148.041188,-9844.739029,536.266849
551.318619,0.000000,-9104.533087,995.924147
551.318946,0.000000,-8808.450710,689.485948
551.319274,-222.061783,-8956.491898,459.657299
551.319601,-592.164754,-8808.450710,76.609550
551.319929,-962.267725,-9030.512492,153.219100
551.320257,-1184.329507,-9030.512492,306.438199
551.320584,-1184.329507,-9326.594869,1072.533697
551.320912,-1184.329507,-8882.471304,766.095498
551.321239,-592.164754,-9030.512492,612.876398
551.321567,0.000000,-8734.430116,766.095498
551.321895,296.082377,-8586.388927,459.657299
551.322222,518.144159,-8216.285956,612.876398
551.322550,222.061783,-8586.388927,766.095498
551.322877,0.000000,-9104.533087,689.485948
551.323205,-518.144159,-9548.656652,842.705048
551.323532,-518.144159,-9622.677246,995.924147
551.323860,-222.061783,-9474.636058,1838.629195
551.324188,0.000000,-9252.574275,612.876398
551.324515,296.082377,-8956.491898,919.314598
551.324843,740.205942,-8512.368333,306.438199
551.325170,666.185348,-7994.224174,459.657299
551.325498,296.082377,-7698.141797,153.219100
551.325826,148.041188,-8068.244768,306.438199
551.326153,-592.164754,-8586.388927,459.657299
551.326481,-888.247130,-9252.574275,459.657299
551.326808,-740.205942,-9474.636058,689.485948
551.327136,-444.123565,-9400.615463,612.876398
551.327463,-74.020594,-8882.471304,0.000000
551.327791,296.082377,-8956.491898,153.219100
551.328119,296.082377,-8438.347739,0.000000
551.328446,518.144159,-8364.327145,153.219100
551.328774,0.000000,-8660.409521,76.609550
551.329101,-222.061783,-9104.533087,153.219100
551.329429,-666.185348,-9474.636058,383.047749
551.329757,-814.226536,-9992.780217,536.266849
551.330084,-888.247130,-9844.739029,383.047749
551.330412,-666.185348,-9548.656652,306.438199
551.330739,0.000000,-9474.636058,0.000000
551.331067,148.041188,-8660.409521,153.219100
551.331394,444.123565,-8586.388927,76.609550
551.331722,592.164754,-8882.471304,76.609550
551.332050,222.061783,-9030.512492,383.047749
551.332377,0.000000,-9844.739029,689.485948
551.332705,-592.164754,-9622.677246,1149.143247
551.333032,-518.144159,-10362.883188,1225.752797
551.333360,-888.247130,-9844.739029,995.924147
551.333688,-592.164754,-9918.759623,919.314598
551.334015,-518.144159,-9326.594869,383.047749
551.334343,-444.123565,-8512.368333,842.705048
551.334670,-518.144159,-8956.491898,459.657299
551.334998,-814.226536,-9030.512492,842.705048
551.335326,-888.247130,-9400.615463,919.314598
551.335653,-888.247130,-9474.636058,766.095498
551.335981,-1036.288319,-9326.594869,1225.752797
551.336308,-962.267725,-9770.718434,919.314598
551.336636,-740.205942,-9400.615463,612.876398
551.336963,-518.144159,-9252.574275,306.438199
551.337291,-518.144159,-8882.471304,612.876398
551.337619,0.000000,-8956.491898,1302.362347
551.337946,0.000000,-9474.636058,383.047749
551.338274,-518.144159,-9696.697840,689.485948
551.338601,-592.164754,-9622.677246,1072.533697
551.338929,-740.205942,-9474.636058,842.705048
551.339257,-740.205942,-9474.636058,842.705048
551.339584,0.000000,-9326.594869,689.485948
551.339912,-666.185348,-8808.450710,306.438199
551.340239,0.000000,-8512.368333,383.047749
551.340567,-148.041188,-8512.368333,153.219100
551.340894,-222.061783,-8586.388927,383.047749
551.341222,-296.082377,-8586.388927,612.876398
551.341550,-296.082377,-8734.430116,383.047749
551.341877,0.000000,-8808.450710,536.266849
551.342205,-148.041188,-9030.512492,306.438199
551.342532,0.000000,-8956.491898,153.219100
551.342860,0.000000,-8734.430116,842.705048
551.343188,222.061783,-8882.471304,76.609550
551.343515,148.041188,-9252.574275,306.438199
551.343843,0.000000,-9104.533087,689.485948
551.344170,0.000000,-9252.574275,612.876398
551.344498,0.000000,-9104.533087,459.657299
551.344825,148.041188,-9178.553681,536.266849
551.345153,0.000000,-8808.450710,612.876398
551.345481,-222.061783,-8660.409521,383.047749
551.345808,-148.041188,-8438.347739,229.828649
551.346136,-222.061783,-8364.327145,459.657299
551.346463,148.041188,-8512.368333,76.609550
551.346791,-444.123565,-8660.409521,536.266849
551.347119,-370.102971,-8956.491898,842.705048
551.347446,-222.061783,-9030.512492,612.876398
551.347774,-296.082377,-9252.574275,995.924147
551.348101,-296.082377,-9030.512492,842.705048
551.348429,0.000000,-8882.471304,1149.143247
551.348756,0.000000,-9178.553681,689.485948
551.349084,-148.041188,-9104.533087,536.266849
551.349412,-444.123565,-9252.574275,689.485948
551.349739,-740.205942,-8660.409521,1225.752797
551.350067,-74.020594,-9104.533087,536.266849
551.350394,-518.144159,-9400.615463,842.705048
551.350722,-518.144159,-9548.656652,612.876398
551.351050,-296.082377,-9326.594869,536.266849
551.351377,74.020594,-9178.553681,995.924147
551.351705,74.020594,-8808.450710,153.219100
551.352032,-148.041188,-9252.574275,229.828649
551.352360,0.000000,-9474.636058,383.047749
551.352688,0.000000,-9548.656652,689.485948
551.353015,0.000000,-9770.718434,459.657299
551.353343,222.061783,-9548.656652,919.314598
551.353670,0.000000,-9770.718434,689.485948
551.353998,0.000000,-9770.718434,766.095498
551.354325,222.061783,-9474.636058,229.828649
551.354653,0.000000,-9252.574275,306.438199
551.354981,370.102971,-9252.574275,383.047749
551.355308,0.000000,-9104.533087,383.047749
551.355636,-222.061783,-9400.615463,306.438199
551.355963,-592.164754,-9400.615463,459.657299
551.356291,-444.123565,-9474.636058,459.657299
551.356619,0.000000,-9400.615463,1072.533697
551.356946,-222.061783,-8734.430116,536.266849
551.357274,0.000000,-9104.533087,306.438199
551.357601,0.000000,-8882.471304,383.047749
551.357929,0.000000,-8956.491898,306.438199
551.358256,-296.082377,-8734.430116,919.314598
551.358584,-592.164754,-8956.491898,1072.533697
551.358912,-370.102971,-9252.574275,689.485948
551.359239,-444.123565,-9400.615463,919.314598
551.359567,-518.144159,-9178.553681,919.314598
551.359894,-518.144159,-9104.533087,689.485948
551.360222,-370.102971,-8586.388927,919.314598
551.360550,-296.082377,-8808.450710,383.047749
551.360877,-444.123565,-8512.368333,459.657299
551.361205,-444.123565,-8882.471304,459.657299
551.361532,-296.082377,-8660.409521,306.438199
551.361860,-296.082377,-8586.388927,1072.533697
551.362187,0.000000,-8734.430116,689.485948
551.362515,-296.082377,-9030.512492,766.095498
551.362843,0.000000,-9252.574275,612.876398
551.363170,0.000000,-9178.553681,306.438199
551.363498,370.102971,-9474.636058,919.314598
551.363825,148.041188,-9104.533087,842.705048
551.364153,74.020594,-9104.533087,459.657299
551.364481,0.000000,-9474.636058,459.657299
551.364808,74.020594,-9474.636058,536.266849
551.365136,-148.041188,-9252.574275,842.705048
551.365463,0.000000,-8808.450710,919.314598
551.365791,-148.041188,-9326.594869,306.438199
551.366118,-148.041188,-8956.491898,229.828649
551.366446,-222.061783,-8882.471304,153.219100
551.366774,0.000000,-8808.450710,229.828649
551.367101,-222.061783,-8586.388927,306.438199
551.367429,0.000000,-9178.553681,306.438199
551.367756,-296.082377,-9178.553681,459.657299
551.368084,-444.123565,-9178.553681,689.485948
551.368412,-444.123565,-9474.636058,612.876398
551.368739,-370.102971,-9178.553681,689.485948
551.369067,-592.164754,-9474.636058,459.657299
551.369394,-222.061783,-9474.636058,459.657299
551.369722,-148.041188,-9548.656652,383.047749
551.370050,-444.123565,-9474.636058,766.095498
551.370377,-296.082377,-9474.636058,306.438199
551.370705,-518.144159,-9326.594869,842.705048
551.371032,-888.247130,-9104.533087,612.876398
551.371360,-1184.329507,-9104.533087,536.266849
551.371687,-888.247130,-9104.533087,383.047749
551.372015,-1036.288319,-8660.409521,689.485948
551.372343,-888.247130,-8882.471304,919.314598
551.372670,-518.144159,-8586.388927,612.876398
551.372998,-888.247130,-8734.430116,459.657299
551.373325,-740.205942,-9030.512492,536.266849
551.373653,-666.185348,-8808.450710,612.876398
551.373981,-888.247130,-8438.347739,842.705048
551.374308,-222.061783,-9400.615463,766.095498
551.374636,-444.123565,-9252.574275,536.266849
551.374963,-592.164754,-8956.491898,536.266849
551.375291,-296.082377,-9178.553681,612.876398
551.375618,-296.082377,-9030.512492,842.705048
551.375946,-444.123565,-9400.615463,459.657299
551.376274,-592.164754,-9104.533087,306.438199
551.376601,-444.123565,-8882.471304,383.047749
551.376929,-370.102971,-9030.512492,459.657299
551.377256,0.000000,-8882.471304,995.924147
551.377584,0.000000,-8808.450710,459.657299
551.377912,-222.061783,-8808.450710,383.047749
551.378239,-296.082377,-8956.491898,306.438199
551.378567,0.000000,-8734.430116,383.047749
551.378894,-222.061783,-8882.471304,306.438199
551.379222,74.020594,-8512.368333,536.266849
551.379549,0.000000,-8734.430116,306.438199
551.379877,0.000000,-8956.491898,459.657299
551.380205,0.000000,-8882.471304,536.266849
551.380532,0.000000,-9030.512492,459.657299
551.380860,-296.082377,-8586.388927,689.485948
551.381187,0.000000,-9178.553681,536.266849
551.381515,0.000000,-9030.512492,229.828649
551.381843,-222.061783,-8882.471304,536.266849
551.382170,-148.041188,-8956.491898,383.047749
551.382498,0.000000,-8808.450710,1072.533697
551.382825,0.000000,-9178.553681,306.438199
551.383153,0.000000,-9104.533087,536.266849
551.383481,0.000000,-9178.553681,612.876398
551.383808,0.000000,-9400.615463,536.266849
551.384136,370.102971,-9400.615463,689.485948
551.384463,370.102971,-9474.636058,306.438199
551.384791,148.041188,-9474.636058,536.266849
551.385118,0.000000,-9400.615463,689.485948
551.385446,0.000000,-9622.677246,536.266849
551.385774,-222.061783,-9770.718434,689.485948
551.386101,0.000000,-9770.718434,229.828649
551.386429,-370.102971,-9474.636058,459.657299
551.386756,-148.041188,-9474.636058,766.095498
551.387084,0.000000,-9326.594869,536.266849
551.387412,0.000000,-9252.574275,459.657299
551.387739,148.041188,-8808.450710,306.438199
551.388067,0.000000,-9252.574275,0.000000
551.388394,-444.123565,-9252.574275,383.047749
551.388722,-148.041188,-9474.636058,459.657299
551.389049,0.000000,-9622.677246,153.219100
551.389377,0.000000,-9474.636058,766.095498
551.389705,0.000000,-9400.615463,536.266849
551.390032,0.000000,-9548.656652,459.657299
551.390360,0.000000,-9622.677246,536.266849
551.390687,-148.041188,-9400.615463,383.047749
551.391015,-148.041188,-9104.533087,995.924147
551.391342,-148.041188,-8956.491898,766.095498
551.391670,-444.123565,-8808.450710,459.657299
551.391998,-444.123565,-9178.553681,689.485948
551.392325,-518.144159,-9252.574275,612.876398
551.392653,-296.082377,-9030.512492,459.657299
551.392980,0.000000,-8734.430116,76.609550
551.393308,-444.123565,-8882.471304,383.047749
551.393635,-592.164754,-8734.430116,306.438199
551.393963,-740.205942,-8956.491898,459.657299
551.394291,-592.164754,-8882.471304,612.876398
551.394618,-370.102971,-8882.471304,536.266849
551.394946,-592.164754,-8882.471304,842.705048
551.395273,-518.144159,-9104.533087,766.095498
551.395601,-444.123565,-9178.553681,766.095498
551.395928,-444.123565,-8882.471304,842.705048
551.396256,0.000000,-9104.533087,612.876398
551.396584,-518.144159,-8808.450710,536.266849
551.396911,-814.226536,-8808.450710,536.266849
551.397239,-740.205942,-8808.450710,612.876398
551.397566,-888.247130,-8660.409521,306.438199
551.397894,-666.185348,-8808.450710,612.876398
551.398222,-1036.288319,-8586.388927,1378.971896
551.398549,-296.082377,-8734.430116,459.657299
551.398877,-296.082377,-8364.327145,459.657299
551.399204,-222.061783,-8438.347739,306.438199
551.399532,-222.061783,-8512.368333,459.657299
551.399859,0.000000,-8586.388927,995.924147
551.400187,0.000000,-8808.450710,536.266849
551.400515,0.000000,-9104.533087,612.876398
551.400842,-296.082377,-9252.574275,842.705048
551.401170,-518.144159,-9252.574275,612.876398
551.401497,-518.144159,-9252.574275,766.095498
551.401825,-370.102971,-8882.471304,842.705048
551.402152,-444.123565,-9104.533087,536.266849
551.402480,-370.102971,-9030.512492,383.047749
551.402808,-222.061783,-9030.512492,536.266849
551.403135,0.000000,-9326.594869,76.609550
551.403463,-592.164754,-8956.491898,995.924147
551.403790,-444.123565,-9252.574275,306.438199
551.404118,-518.144159,-9326.594869,459.657299
551.404445,-370.102971,-9178.553681,689.485948
551.404773,-296.082377,-9252.574275,306.438199
551.405101,-148.041188,-8882.471304,842.705048
551.405428,-222.061783,-9326.594869,459.657299
551.405756,-222.061783,-9326.594869,919.314598
551.406083,-296.082377,-9474.636058,612.876398
551.406411,-444.123565,-9548.656652,612.876398
551.406738,-370.102971,-9622.677246,842.705048
551.407066,0.000000,-9474.636058,459.657299
551.407394,-370.102971,-9326.594869,612.876398
551.407721,-222.061783,-9474.636058,459.657299
551.408049,0.000000,-9178.553681,536.266849
551.408376,148.041188,-9030.512492,459.657299
551.408704,-444.123565,-8956.491898,383.047749
551.409031,-444.123565,-9178.553681,383.047749
551.409359,-296.082377,-9326.594869,612.876398
551.409687,0.000000,-9474.636058,536.266849
551.410014,296.082377,-9474.636058,229.828649
551.410342,-222.061783,-9030.512492,153.219100
551.410669,-148.041188,-9400.615463,383.047749
551.410997,0.000000,-9252.574275,459.657299
551.411324,0.000000,-9474.636058,306.438199
551.411652,0.000000,-9474.636058,383.047749
551.411980,-444.123565,-9252.574275,995.924147
551.412307,-148.041188,-9326.594869,459.657299
551.412635,0.000000,-9178.553681,459.657299
551.412962,0.000000,-8956.491898,612.876398
551.413290,0.000000,-8882.471304,306.438199
551.413618,0.000000,-8956.491898,1149.143247
551.413945,148.041188,-9104.533087,536.266849
551.414273,0.000000,-8956.491898,536.266849
551.414600,0.000000,-8956.491898,459.657299
551.414928,0.000000,-9252.574275,536.266849
551.415255,-148.041188,-9104.533087,612.876398
551.415583,74.020594,-8882.471304,919.314598
551.415911,-148.041188,-8956.491898,536.266849
551.416238,-148.041188,-9178.553681,459.657299
551.416566,0.000000,-9252.574275,612.876398
551.416893,0.000000,-9104.533087,689.485948
551.417221,-222.061783,-8660.409521,306.438199
551.417548,-444.123565,-9030.512492,536.266849
551.417876,-370.102971,-9326.594869,536.266849
551.418204,-518.144159,-8956.491898,536.266849
551.418531,-370.102971,-8956.491898,612.876398
551.418859,0.000000,-8660.409521,766.095498
551.419186,-592.164754,-8808.450710,689.485948
551.419514,-666.185348,-9104.533087,536.266849
551.419841,-370.102971,-9104.533087,612.876398
551.420169,-296.082377,-9178.553681,612.876398
551.420497,-296.082377,-8882.471304,1302.362347
551.420824,0.000000,-9474.636058,689.485948
551.421152,0.000000,-9474.636058,689.485948
551.421479,0.000000,-9474.636058,536.266849
551.421807,-296.082377,-9178.553681,459.657299
551.422134,0.000000,-9474.636058,1072.533697
551.422462,0.000000,-9104.533087,459.657299
551.422790,-444.123565,-9252.574275,459.657299
551.423117,-222.061783,-9400.615463,383.047749
551.423445,-518.144159,-9474.636058,766.095498
551.423772,-444.123565,-9178.553681,612.876398
551.424100,-518.144159,-9400.615463,229.828649
551.424427,-222.061783,-9104.533087,536.266849
551.424755,-370.102971,-9178.553681,383.047749
551.425083,-296.082377,-9104.533087,306.438199
551.425410,-148.041188,-9400.615463,229.828649
551.425738,-148.041188,-9400.615463,229.828649
551.426065,0.000000,-9400.615463,612.876398
551.426393,0.000000,-9252.574275,459.657299
551.426720,-222.061783,-9326.594869,689.485948
551.427048,0.000000,-9474.636058,612.876398
551.427376,-296.082377,-9252.574275,0.000000
551.427703,-296.082377,-9030.512492,995.924147
551.428031,-296.082377,-8808.450710,612.876398
551.428358,-518.144159,-8882.471304,459.657299
551.428686,-740.205942,-8956.491898,459.657299
551.429013,-592.164754,-8808.450710,689.485948
551.429341,-296.082377,-8956.491898,689.485948
551.429669,-370.102971,-9030.512492,612.876398
551.429996,-592.164754,-8882.471304,536.266849
551.430324,-296.082377,-8882.471304,459.657299
551.430651,-222.061783,-8586.388927,689.485948
551.430979,0.000000,-8438.347739,842.705048
551.431307,-444.123565,-9104.533087,689.485948
551.431634,-444.123565,-8882.471304,842.705048
551.431962,-296.082377,-9178.553681,612.876398
551.432289,-296.082377,-9030.512492,612.876398
551.432617,-370.102971,-8734.430116,306.438199
551.432944,-592.164754,-8956.491898,459.657299
551.433272,-370.102971,-9030.512492,689.485948
551.433600,-444.123565,-8734.430116,459.657299
551.433927,-370.102971,-8882.471304,612.876398
551.434255,-148.041188,-8808.450710,153.219100
551.434582,-518.144159,-8808.450710,766.095498
551.434910,-370.102971,-8956.491898,689.485948
551.435237,-518.144159,-8956.491898,536.266849
551.435565,-222.061783,-9104.533087,459.657299
551.435893,148.041188,-9178.553681,689.485948
551.436220,-370.102971,-8660.409521,919.314598
551.436548,0.000000,-9252.574275,612.876398
551.436875,0.000000,-9326.594869,612.876398
551.437203,-296.082377,-9400.615463,536.266849
551.437530,-518.144159,-9104.533087,536.266849
551.437858,-370.102971,-9178.553681,995.924147
551.438186,-222.061783,-8882.471304,459.657299
551.438513,-370.102971,-8956.491898,536.266849
551.438841,-296.082377,-9104.533087,536.266849
551.439168,-518.144159,-9252.574275,459.657299
551.439496,-444.123565,-9104.533087,383.047749
551.439823,0.000000,-9178.553681,229.828649
551.440151,-222.061783,-9252.574275,306.438199
551.440479,-296.082377,-9474.636058,536.266849
551.440806,-148.041188,-9400.615463,536.266849
551.441134,-222.061783,-9326.594869,459.657299
551.441461,0.000000,-9400.615463,459.657299
551.441789,0.000000,-9400.615463,383.047749
551.442116,0.000000,-9548.656652,459.657299
551.442444,-222.061783,-9474.636058,383.047749
551.442772,0.000000,-9474.636058,536.266849
551.443099,0.000000,-9622.677246,689.485948
551.443427,-148.041188,-9474.636058,766.095498
551.443754,-222.061783,-9474.636058,612.876398
551.444082,-296.082377,-9326.594869,306.438199
551.444409,-296.082377,-9104.533087,383.047749
551.444737,74.020594,-8956.491898,612.876398
551.445065,-296.082377,-9252.574275,383.047749
551.445392,-222.061783,-9178.553681,536.266849
551.445720,-296.082377,-9178.553681,306.438199
551.446047,-148.041188,-9474.636058,459.657299
551.446375,-296.082377,-8956.491898,612.876398
551.446703,-370.102971,-9252.574275,689.485948
551.447030,0.000000,-9030.512492,383.047749
551.447358,0.000000,-9178.553681,689.485948
551.447685,0.000000,-9252.574275,689.485948
551.448013,0.000000,-8808.450710,766.095498
551.448340,-296.082377,-9104.533087,383.047749
551.448668,-222.061783,-9104.533087,536.266849
551.448996,-518.144159,-9104.533087,536.266849
551.449323,-148.041188,-9104.533087,612.876398
551.449651,0.000000,-9104.533087,383.047749
551.449978,148.041188,-8808.450710,229.828649
551.450306,0.000000,-8660.409521,306.438199
551.450633,-222.061783,-8734.430116,536.266849
551.450961,-148.041188,-8956.491898,459.657299
551.451289,-370.102971,-8956.491898,153.219100
551.451616,148.041188,-8882.471304,383.047749
551.451944,-148.041188,-8956.491898,612.876398
551.452271,0.000000,-9400.615463,842.705048
551.452599,-148.041188,-9400.615463,612.876398
551.452926,-296.082377,-9178.553681,612.876398
551.453254,0.000000,-8882.471304,766.095498
551.453582,-444.123565,-8956.491898,306.438199
551.453909,-444.123565,-9252.574275,612.876398
551.454237,-518.144159,-9178.553681,459.657299
551.454564,-444.123565,-9178.553681,766.095498
551.454892,-370.102971,-8956.491898,459.657299
551.455219,-740.205942,-8734.430116,766.095498
551.455547,-592.164754,-8956.491898,612.876398
551.455875,-666.185348,-8808.450710,536.266849
551.456202,-740.205942,-9030.512492,689.485948
551.456530,-740.205942,-8660.409521,919.314598
551.456857,-518.144159,-9104.533087,842.705048
551.457185,-592.164754,-9104.533087,689.485948
551.457512,-592.164754,-9030.512492,766.095498
551.457840,-518.144159,-9104.533087,612.876398
551.458168,-666.185348,-9104.533087,612.876398
551.458495,-666.185348,-8956.491898,306.438199
551.458823,-592.164754,-9178.553681,459.657299
551.459150,-666.185348,-9104.533087,536.266849
551.459478,-740.205942,-8882.471304,536.266849
551.459805,-592.164754,-8956.491898,689.485948
551.460133,222.061783,-8586.388927,306.438199
551.460461,-148.041188,-9030.512492,383.047749
551.460788,-222.061783,-8882.471304,383.047749
551.461116,-222.061783,-9178.553681,306.438199
551.461443,-296.082377,-9030.512492,536.266849
551.461771,0.000000,-9104.533087,536.266849
551.462099,-222.061783,-8882.471304,459.657299
551.462426,0.000000,-9104.533087,536.266849
551.462754,0.000000,-9178.553681,536.266849
551.463081,0.000000,-9326.594869,306.438199
551.463409,0.000000,-8956.491898,0.000000
551.463736,-444.123565,-8586.388927,689.485948
551.464064,-222.061783,-8956.491898,383.047749
551.464392,-148.041188,-9030.512492,383.047749
551.464719,-222.061783,-9252.574275,383.047749
551.465047,-370.102971,-9178.553681,153.219100
551.465374,0.000000,-9178.553681,0.000000
551.465702,0.000000,-9104.533087,229.828649
551.466029,-296.082377,-8956.491898,306.438199
551.466357,0.000000,-9030.512492,459.657299
551.466685,0.000000,-8956.491898,459.657299
551.467012,222.061783,-9030.512492,0.000000
551.467340,148.041188,-9030.512492,536.266849
551.467667,0.000000,-9178.553681,306.438199
551.467995,0.000000,-9400.615463,383.047749
551.468322,0.000000,-9104.533087,536.266849
551.468650,0.000000,-9400.615463,1378.971896
551.468978,-222.061783,-8660.409521,919.314598
551.469305,-296.082377,-9326.594869,766.095498
551.469633,-370.102971,-9104.533087,383.047749
551.469960,-222.061783,-9030.512492,612.876398
551.470288,-222.061783,-8734.430116,689.485948
551.470615,0.000000,-8586.388927,536.266849
551.470943,-222.061783,-9030.512492,459.657299
551.471271,-296.082377,-9104.533087,459.657299
551.471598,-370.102971,-9178.553681,383.047749
551.471926,0.000000,-9252.574275,536.266849
551.472253,-222.061783,-9326.594869,842.705048
551.472581,0.000000,-9474.636058,842.705048
551.472908,-222.061783,-9326.594869,842.705048
551.473236,0.000000,-9326.594869,612.876398
551.473564,-222.061783,-9400.615463,766.095498
551.473891,-222.061783,-9326.594869,766.095498
551.474219,-444.123565,-9474.636058,766.095498
551.474546,-444.123565,-9474.636058,689.485948
551.474874,-518.144159,-9252.574275,689.485948
551.475201,-518.144159,-9104.533087,536.266849
551.475529,-444.123565,-9252.574275,919.314598
551.475857,-296.082377,-8734.430116,459.657299
551.476184,-370.102971,-9030.512492,383.047749
551.476512,-370.102971,-8882.471304,536.266849
551.476839,-592.164754,-8882.471304,306.438199
551.477167,-296.082377,-9104.533087,612.876398
551.477494,0.000000,-8956.491898,919.314598
551.477822,74.020594,-9104.533087,459.657299
551.478150,74.020594,-9252.574275,306.438199
551.478477,0.000000,-9400.615463,689.485948
551.478805,-148.041188,-9474.636058,536.266849
551.479132,-740.205942,-9400.615463,766.095498
551.479460,0.000000,-9474.636058,459.657299
551.479788,-222.061783,-9178.553681,536.266849
551.480115,-370.102971,-9252.574275,459.657299
551.480443,-370.102971,-8956.491898,459.657299
551.480770,0.000000,-8956.491898,306.438199
551.481098,-518.144159,-8660.409521,306.438199
551.481425,-518.144159,-8956.491898,153.219100
551.481753,-592.164754,-9030.512492,459.657299
551.482081,-370.102971,-8956.491898,229.828649
551.482408,-148.041188,-9104.533087,766.095498
551.482736,-444.123565,-8438.347739,919.314598
551.483063,-148.041188,-9030.512492,766.095498
551.483391,0.000000,-9178.553681,536.266849
551.483718,0.000000,-9104.533087,612.876398
551.484046,-222.061783,-8882.471304,612.876398
551.484374,-222.061783,-8882.471304,842.705048
551.484701,-296.082377,-8882.471304,536.266849
551.485029,-518.144159,-8808.450710,995.924147
551.485356,-444.123565,-8808.450710,919.314598
551.485684,-666.185348,-8660.409521,612.876398
551.486011,-370.102971,-8734.430116,1378.971896
551.486339,-814.226536,-8660.409521,689.485948
551.486667,-666.185348,-8660.409521,689.485948
551.486994,-444.123565,-8808.450710,689.485948
551.487322,-444.123565,-8882.471304,536.266849
551.487649,-148.041188,-9104.533087,995.924147
551.487977,-740.205942,-9030.512492,842.705048
551.488304,-296.082377,-9104.533087,766.095498
551.488632,0.000000,-9326.594869,766.095498
551.488960,-148.041188,-9400.615463,689.485948
551.489287,-370.102971,-8956.491898,689.485948
551.489615,0.000000,-9252.574275,153.219100
551.489942,-296.082377,-9104.533087,612.876398
551.490270,-370.102971,-8956.491898,306.438199
551.490597,-148.041188,-9104.533087,383.047749
551.490925,-222.061783,-9030.512492,153.219100
551.491252,-222.061783,-8808.450710,153.219100
551.491580,0.000000,-8956.491898,229.828649
551.491907,296.082377,-9474.636058,459.657299
551.492235,74.020594,-9178.553681,306.438199
551.492562,0.000000,-9104.533087,153.219100
551.492889,0.000000,-9326.594869,1072.533697
551.493217,-222.061783,-9400.615463,306.438199
551.493544,0.000000,-9622.677246,612.876398
551.493872,0.000000,-9474.636058,383.047749
551.494199,0.000000,-9548.656652,689.485948
551.494527,0.000000,-9696.697840,842.705048
551.494854,-222.061783,-9400.615463,995.924147
551.495182,-592.164754,-9474.636058,689.485948
551.495509,-666.185348,-9474.636058,459.657299
551.495837,-592.164754,-9326.594869,612.876398
551.496164,-592.164754,-9178.553681,536.266849
551.496491,-444.123565,-9030.512492,1149.143247
551.496819,-296.082377,-9252.574275,689.485948
551.497146,-444.123565,-9104.533087,612.876398
551.497474,-444.123565,-9030.512492,612.876398
551.497801,-444.123565,-8808.450710,612.876398
551.498129,0.000000,-9104.533087,995.924147
551.498456,-592.164754,-9178.553681,766.095498
551.498784,-444.123565,-9400.615463,919.314598
551.499111,-222.061783,-9104.533087,689.485948
551.499438,-296.082377,-9326.594869,842.705048
551.499766,0.000000,-9252.574275,995.924147
551.500093,-296.082377,-8956.491898,766.095498
551.500421,-296.082377,-8956.491898,536.266849
551.500748,-296.082377,-9030.512492,612.876398
551.501076,-296.082377,-8956.491898,459.657299
551.501403,0.000000,-9104.533087,383.047749
551.501731,-592.164754,-8290.306550,536.266849
551.502058,-148.041188,-9252.574275,459.657299
551.502386,0.000000,-9178.553681,536.266849
551.502713,0.000000,-9178.553681,612.876398
551.503040,148.041188,-9030.512492,459.657299
551.503368,222.061783,-8808.450710,306.438199
551.503695,74.020594,-9252.574275,383.047749
551.504023,296.082377,-9474.636058,612.876398
551.504350,296.082377,-9252.574275,612.876398
551.504678,148.041188,-9326.594869,689.485948
551.505005,148.041188,-9474.636058,612.876398
551.505333,-148.041188,-9326.594869,612.876398
551.505660,0.000000,-9178.553681,459.657299
551.505987,0.000000,-8956.491898,306.438199
551.506315,-296.082377,-8882.471304,536.266849
551.506642,-370.102971,-9030.512492,306.438199
551.506970,-740.205942,-8734.430116,689.485948
551.507297,-740.205942,-9030.512492,383.047749
551.507625,-518.144159,-8808.450710,459.657299
551.507952,-518.144159,-8882.471304,766.095498
551.508280,-592.164754,-9178.553681,689.485948
551.508607,-592.164754,-9252.574275,383.047749
551.508935,-222.061783,-9030.512492,612.876398
551.509262,0.000000,-8956.491898,919.314598
551.509589,-222.061783,-9178.553681,689.485948
551.509917,-296.082377,-9326.594869,689.485948
551.510244,-370.102971,-9030.512492,0.000000
551.510572,0.000000,-9178.553681,766.095498
551.510899,-296.082377,-8956.491898,766.095498
551.511227,-370.102971,-9104.533087,842.705048
551.511554,-518.144159,-9178.553681,612.876398
551.511882,-740.205942,-8956.491898,766.095498
551.512209,-296.082377,-8956.491898,383.047749
551.512536,-370.102971,-8956.491898,536.266849
551.512864,-666.185348,-8882.471304,306.438199
551.513191,-444.123565,-9104.533087,306.438199
551.513519,0.000000,-9400.615463,766.095498
551.513846,0.000000,-8956.491898,459.657299
551.514174,-296.082377,-8956.491898,612.876398
551.514501,-518.144159,-9326.594869,229.828649
551.514829,-370.102971,-9400.615463,536.266849
551.515156,-370.102971,-9178.553681,536.266849
551.515484,-148.041188,-8882.471304,536.266849
551.515811,-518.144159,-9252.574275,536.266849
551.516138,-518.144159,-9178.553681,536.266849
551.516466,-444.123565,-9178.553681,459.657299
551.516793,-518.144159,-8734.430116,229.828649
551.517121,-148.041188,-8290.306550,612.876398
551.517448,-370.102971,-8660.409521,536.266849
551.517776,-666.185348,-8882.471304,459.657299
551.518103,-370.102971,-9030.512492,459.657299
551.518431,-296.082377,-8882.471304,689.485948
551.518758,0.000000,-8734.430116,919.314598
551.519085,-444.123565,-8882.471304,689.485948
551.519413,-444.123565,-9178.553681,459.657299
551.519740,0.000000,-9178.553681,536.266849
551.520068,0.000000,-9030.512492,612.876398
551.520395,0.000000,-9474.636058,1149.143247
551.520723,0.000000,-9030.512492,459.657299
551.521050,-444.123565,-9252.574275,612.876398
551.521378,-296.082377,-9326.594869,536.266849
551.521705,-296.082377,-9252.574275,612.876398
551.522033,-222.061783,-9252.574275,536.266849
551.522360,0.000000,-8956.491898,229.828649
551.522687,-296.082377,-8734.430116,306.438199
551.523015,-296.082377,-8734.430116,76.609550
551.523342,-296.082377,-9030.512492,459.657299
551.523670,-444.123565,-9178.553681,383.047749
551.523997,0.000000,-8956.491898,919.314598
551.524325,0.000000,-9030.512492,612.876398
551.524652,0.000000,-9030.512492,459.657299
551.524980,0.000000,-9474.636058,612.876398
551.525307,0.000000,-9326.594869,612.876398
551.525634,148.041188,-9104.533087,306.438199
551.525962,148.041188,-8956.491898,536.266849
551.526289,0.000000,-9252.574275,536.266849
551.526617,0.000000,-9178.553681,689.485948
551.526944,-370.102971,-9474.636058,612.876398
551.527272,-518.144159,-8882.471304,1072.533697
551.527599,-148.041188,-9178.553681,689.485948
551.527927,-296.082377,-9104.533087,459.657299
551.528254,-370.102971,-9252.574275,689.485948
551.528582,-740.205942,-9178.553681,459.657299
551.528909,-370.102971,-8882.471304,1149.143247
551.529236,-444.123565,-9252.574275,766.095498
551.529564,-296.082377,-9400.615463,842.705048
551.529891,-370.102971,-9400.615463,842.705048
551.530219,-370.102971,-9252.574275,842.705048
551.530546,-148.041188,-9474.636058,766.095498
551.530874,0.000000,-9104.533087,536.266849
551.531201,-370.102971,-9178.553681,689.485948
551.531529,-296.082377,-9252.574275,842.705048
551.531856,-370.102971,-9178.553681,306.438199
551.532183,-444.123565,-9326.594869,612.876398
551.532511,-444.123565,-9104.533087,536.266849
551.532838,-370.102971,-9252.574275,689.485948
551.533166,-296.082377,-9178.553681,612.876398
551.533493,-370.102971,-8956.491898,383.047749
551.533821,0.000000,-9178.553681,459.657299
551.534148,0.000000,-8660.409521,229.828649
551.534476,0.000000,-8882.471304,383.047749
551.534803,222.061783,-9252.574275,383.047749
551.535131,0.000000,-9474.636058,459.657299
551.535458,0.000000,-9474.636058,536.266849
551.535785,0.000000,-9400.615463,536.266849
551.536113,0.000000,-9178.553681,229.828649
551.536440,-222.061783,-9104.533087,459.657299
551.536768,-148.041188,-8956.491898,459.657299
551.537095,-148.041188,-8808.450710,383.047749
551.537423,-222.061783,-8956.491898,459.657299
551.537750,-222.061783,-8882.471304,689.485948
551.538078,-592.164754,-8660.409521,459.657299
551.538405,-666.185348,-8660.409521,306.438199
551.538732,-444.123565,-8956.491898,612.876398
551.539060,-296.082377,-8882.471304,459.657299
551.539387,-222.061783,-8956.491898,766.095498
551.539715,0.000000,-8734.430116,383.047749
551.540042,-518.144159,-8808.450710,536.266849
551.540370,-444.123565,-9104.533087,459.657299
551.540697,-444.123565,-9030.512492,766.095498
551.541025,-222.061783,-8660.409521,766.095498
551.541352,-518.144159,-8734.430116,1072.533697
551.541680,-740.205942,-8956.491898,842.705048
551.542007,-518.144159,-9030.512492,689.485948
551.542334,-666.185348,-9178.553681,536.266849
551.542662,-814.226536,-8882.471304,689.485948
551.542989,-518.144159,-8586.388927,153.219100
551.543317,-666.185348,-8586.388927,766.095498
551.543644,-444.123565,-8882.471304,306.438199
551.543972,-592.164754,-8882.471304,536.266849
551.544299,-370.102971,-9030.512492,383.047749
551.544627,-296.082377,-8290.306550,306.438199
551.544954,-518.144159,-8956.491898,306.438199
551.545281,-222.061783,-9178.553681,536.266849
551.545609,-148.041188,-9252.574275,383.047749
551.545936,0.000000,-9400.615463,536.266849
551.546264,0.000000,-9030.512492,383.047749
551.546591,0.000000,-9474.636058,919.314598
551.546919,0.000000,-9548.656652,536.266849
551.547246,-222.061783,-9548.656652,689.485948
551.547574,-370.102971,-9400.615463,459.657299
551.547901,-148.041188,-9178.553681,536.266849
551.548229,-370.102971,-8734.430116,536.266849
551.548556,-148.041188,-9178.553681,536.266849
551.548883,-148.041188,-9252.574275,306.438199
551.549211,-222.061783,-9104.533087,459.657299
551.549538,-370.102971,-9030.512492,536.266849
551.549866,0.000000,-9178.553681,612.876398
551.550193,-370.102971,-9178.553681,766.095498
551.550521,0.000000,-9326.594869,612.876398
551.550848,0.000000,-9252.574275,766.095498
551.551176,0.000000,-9400.615463,689.485948
551.551503,74.020594,-9104.533087,919.314598
551.551830,-222.061783,-9326.594869,842.705048
551.552158,-370.102971,-9178.553681,766.095498
551.552485,-296.082377,-9252.574275,612.876398
551.552813,-296.082377,-9326.594869,689.485948
551.553140,0.000000,-8882.471304,612.876398
551.553468,0.000000,-8660.409521,766.095498
551.553795,-222.061783,-9030.512492,612.876398
551.554123,-518.144159,-9252.574275,612.876398
551.554450,-518.144159,-9326.594869,612.876398
551.554778,-296.082377,-8660.409521,612.876398
551.555105,-222.061783,-8734.430116,842.705048
551.555432,0.000000,-9400.615463,536.266849
551.555760,0.000000,-9400.615463,536.266849
551.556087,0.000000,-9252.574275,612.876398
551.556415,0.000000,-9326.594869,689.485948
551.556742,-296.082377,-9104.533087,0.000000
551.557070,-370.102971,-9326.594869,689.485948
551.557397,-222.061783,-9178.553681,536.266849
551.557725,-518.144159,-9252.574275,689.485948
551.558052,-296.082377,-9104.533087,459.657299
551.558379,-444.123565,-9178.553681,995.924147
551.558707,-592.164754,-8882.471304,459.657299
551.559034,-296.082377,-9030.512492,383.047749
551.559362,-296.082377,-8956.491898,536.266849
551.559689,-370.102971,-8882.471304,536.266849
551.560017,-296.082377,-8882.471304,995.924147
551.560344,-148.041188,-8808.450710,995.924147
551.560672,-222.061783,-9326.594869,612.876398
551.560999,-148.041188,-9252.574275,459.657299
551.561327,-296.082377,-9252.574275,536.266849
551.561654,0.000000,-9178.553681,842.705048
551.561981,0.000000,-8660.409521,612.876398
551.562309,0.000000,-9178.553681,459.657299
551.562636,-148.041188,-9030.512492,536.266849
551.562964,-222.061783,-8882.471304,612.876398
551.563291,-296.082377,-9178.553681,612.876398
551.563619,-444.123565,-8956.491898,229.828649
551.563946,-222.061783,-9030.512492,459.657299
551.564274,0.000000,-9104.533087,536.266849
551.564601,-370.102971,-8882.471304,842.705048
551.564928,-222.061783,-8956.491898,612.876398
551.565256,0.000000,-9030.512492,229.828649
551.565583,-222.061783,-8882.471304,306.438199
551.565911,-148.041188,-8956.491898,459.657299
551.566238,-222.061783,-8882.471304,612.876398
551.566566,0.000000,-9326.594869,536.266849
551.566893,0.000000,-9474.636058,153.219100
551.567221,74.020594,-9030.512492,612.876398
551.567548,-370.102971,-9178.553681,229.828649
551.567876,-296.082377,-9178.553681,536.266849
551.568203,-518.144159,-9400.615463,612.876398
551.568530,-592.164754,-9104.533087,383.047749
551.568858,-296.082377,-9030.512492,689.485948
551.569185,-222.061783,-9030.512492,536.266849
551.569513,-518.144159,-9178.553681,459.657299
551.569840,-370.102971,-8956.491898,766.095498
551.570168,-296.082377,-9178.553681,536.266849
551.570495,-296.082377,-8512.368333,689.485948
551.570823,-518.144159,-9474.636058,689.485948
551.571150,-370.102971,-9252.574275,536.266849
551.571477,-296.082377,-9178.553681,766.095498
551.571805,-148.041188,-9252.574275,689.485948
551.572132,-814.226536,-9178.553681,1302.362347
551.572460,222.061783,-9474.636058,919.314598
551.572787,-296.082377,-9252.574275,766.095498
551.573115,-444.123565,-9326.594869,766.095498
551.573442,-592.164754,-9252.574275,766.095498
551.573770,-518.144159,-9400.615463,612.876398
551.574097,0.000000,-9104.533087,1072.533697
551.574425,-370.102971,-8956.491898,459.657299
551.574752,-222.061783,-9104.533087,306.438199
551.575079,-296.082377,-8956.491898,459.657299
551.575407,-370.102971,-8956.491898,306.438199
551.575734,-370.102971,-8660.409521,689.485948
551.576062,-148.041188,-9104.533087,383.047749
551.576389,0.000000,-9030.512492,689.485948
551.576717,0.000000,-9178.553681,612.876398
551.577044,0.000000,-9326.594869,383.047749
551.577372,74.020594,-9104.533087,689.485948
551.577699,-444.123565,-9252.574275,306.438199
551.578026,-222.061783,-9178.553681,459.657299
551.578354,-148.041188,-9104.533087,459.657299
551.578681,-296.082377,-9178.553681,383.047749
551.579009,-296.082377,-8882.471304,842.705048
551.579336,-296.082377,-8956.491898,229.828649
551.579664,-370.102971,-8882.471304,612.876398
551.579991,-370.102971,-9030.512492,229.828649
551.580319,-222.061783,-8956.491898,459.657299
551.580646,0.000000,-8956.491898,536.266849
551.580974,0.000000,-8586.388927,459.657299
551.581301,-444.123565,-9104.533087,459.657299
551.581628,-370.102971,-9178.553681,766.095498
551.581956,-370.102971,-9252.574275,766.095498
551.582283,0.000000,-9326.594869,842.705048
551.582611,0.000000,-8956.491898,1455.581446
551.582938,-222.061783,-9326.594869,612.876398
551.583266,-370.102971,-9252.574275,536.266849
551.583593,-296.082377,-9104.533087,612.876398
551.583921,-370.102971,-9030.512492,766.095498
551.584248,-444.123565,-8956.491898,919.314598
551.584575,-296.082377,-9030.512492,766.095498
551.584903,-296.082377,-9252.574275,689.485948
551.585230,-296.082377,-9474.636058,383.047749
551.585558,-444.123565,-9104.533087,766.095498
551.585885,-370.102971,-9252.574275,459.657299
551.586213,-444.123565,-9104.533087,995.924147
551.586540,-222.061783,-9400.615463,842.705048
551.586868,-296.082377,-9474.636058,612.876398
551.587195,-148.041188,-9474.636058,612.876398
551.587523,74.020594,-9548.656652,689.485948
551.587850,148.041188,-9622.677246,536.266849
551.588177,-222.061783,-9178.553681,536.266849
551.588505,0.000000,-9474.636058,459.657299
551.588832,0.000000,-9178.553681,383.047749
551.589160,-296.082377,-8882.471304,306.438199
551.589487,0.000000,-8882.471304,689.485948
551.589815,-222.061783,-9178.553681,612.876398
551.590142,-222.061783,-9030.512492,459.657299
551.590470,-370.102971,-9030.512492,459.657299
551.590797,-222.061783,-8882.471304,536.266849
551.591125,-148.041188,-8586.388927,229.828649
551.591452,0.000000,-8882.471304,536.266849
551.591780,0.000000,-9104.533087,612.876398
551.592107,148.041188,-9104.533087,536.266849
551.592435,74.020594,-9252.574275,689.485948
551.592762,-296.082377,-8956.491898,919.314598
551.593089,-370.102971,-9030.512492,459.657299
551.593417,-592.164754,-9178.553681,536.266849
551.593744,-666.185348,-9400.615463,689.485948
551.594072,-518.144159,-9178.553681,383.047749
551.594399,-518.144159,-9474.636058,766.095498
551.594727,-666.185348,-8660.409521,919.314598
551.595054,-518.144159,-9104.533087,459.657299
551.595382,-592.164754,-8586.388927,383.047749
551.595709,-592.164754,-8956.491898,383.047749
551.596037,-740.205942,-8734.430116,459.657299
551.596364,-666.185348,-8512.368333,536.266849
551.596692,-370.102971,-8882.471304,536.266849
551.597019,-296.082377,-8956.491898,689.485948
551.597347,-444.123565,-8956.491898,919.314598
551.597674,-592.164754,-8956.491898,689.485948
551.598002,-518.144159,-8882.471304,766.095498
551.598329,-296.082377,-8734.430116,536.266849
551.598656,-444.123565,-9030.512492,153.219100
551.598984,-370.102971,-9104.533087,383.047749
551.599311,-296.082377,-9030.512492,536.266849
551.599639,-148.041188,-8660.409521,536.266849
551.599966,0.000000,-8882.471304,383.047749
551.600294,-370.102971,-8956.491898,306.438199
551.600621,-296.082377,-8882.471304,459.657299
551.600949,-296.082377,-9104.533087,306.438199
551.601276,-148.041188,-8956.491898,306.438199
551.601604,0.000000,-8808.450710,919.314598
551.601931,0.000000,-9178.553681,612.876398
551.602259,-148.041188,-9252.574275,459.657299
551.602586,-222.061783,-9474.636058,612.876398
551.602914,-296.082377,-9252.574275,612.876398
551.603241,0.000000,-9400.615463,1685.410096
551.603569,0.000000,-9400.615463,459.657299
551.603896,0.000000,-9400.615463,536.266849
551.604223,-296.082377,-9030.512492,459.657299
551.604551,0.000000,-9252.574275,459.657299
551.604878,-666.185348,-8956.491898,919.314598
551.605206,-592.164754,-8808.450710,76.609550
551.605533,-592.164754,-9178.553681,229.828649
551.605861,-518.144159,-9030.512492,306.438199
551.606188,-370.102971,-9104.533087,536.266849
551.606516,0.000000,-9030.512492,76.609550
551.606843,0.000000,-9474.636058,995.924147
551.607171,-296.082377,-9252.574275,612.876398
551.607498,-370.102971,-9252.574275,459.657299
551.607826,-222.061783,-9474.636058,689.485948
551.608153,0.000000,-9548.656652,842.705048
551.608481,296.082377,-9326.594869,1149.143247
551.608808,0.000000,-9474.636058,689.485948
551.609136,0.000000,-9400.615463,689.485948
551.609463,0.000000,-9104.533087,689.485948
551.609790,0.000000,-9252.574275,612.876398
551.610118,0.000000,-9252.574275,459.657299
551.610445,0.000000,-9030.512492,612.876398
551.610773,-444.123565,-8956.491898,689.485948
551.611100,0.000000,-9326.594869,536.266849
551.611428,-296.082377,-9252.574275,536.266849
551.611755,-518.144159,-8512.368333,766.095498
551.612083,0.000000,-9400.615463,536.266849
551.612410,0.000000,-8956.491898,536.266849
551.612738,-222.061783,-9252.574275,536.266849
551.613065,-148.041188,-9252.574275,536.266849
551.613393,148.041188,-8734.430116,536.266849
551.613720,74.020594,-8956.491898,766.095498
551.614048,-370.102971,-9400.615463,536.266849
551.614375,-370.102971,-9326.594869,766.095498
551.614703,-296.082377,-9400.615463,766.095498
551.615030,-296.082377,-9178.553681,612.876398
551.615357,-370.102971,-8808.450710,383.047749
551.615685,-370.102971,-8660.409521,459.657299
551.616012,-370.102971,-9030.512492,612.876398
551.616340,0.000000,-8956.491898,536.266849
551.616667,-296.082377,-8808.450710,536.266849
551.616995,-370.102971,-8660.409521,1149.143247
551.617322,-148.041188,-8882.471304,383.047749
551.617650,-222.061783,-9104.533087,459.657299
551.617977,0.000000,-9178.553681,459.657299
551.618305,74.020594,-9030.512492,536.266849
551.618632,0.000000,-8882.471304,459.657299
551.618960,74.020594,-9178.553681,612.876398
551.619287,-222.061783,-9400.615463,459.657299
551.619615,-370.102971,-9252.574275,459.657299
551.619942,-370.102971,-9178.553681,306.438199
551.620270,0.000000,-9252.574275,229.828649
551.620597,-592.164754,-8808.450710,0.000000
551.620924,-370.102971,-9030.512492,153.219100
551.621252,-296.082377,-8882.471304,306.438199
551.621579,-296.082377,-8586.388927,459.657299
551.621907,-518.144159,-8808.450710,383.047749
551.622234,-296.082377,-8808.450710,229.828649
551.622562,0.000000,-9030.512492,229.828649
551.622889,0.000000,-9104.533087,306.438199
551.623217,-296.082377,-9252.574275,842.705048
551.623544,0.000000,-9474.636058,842.705048
551.623872,0.000000,-9252.574275,1302.362347
551.624199,-222.061783,-9104.533087,689.485948
551.624527,-370.102971,-9400.615463,766.095498
551.624854,-592.164754,-9252.574275,612.876398
551.625182,-370.102971,-9326.594869,766.095498
551.625509,-296.082377,-8956.491898,689.485948
551.625837,-444.123565,-8808.450710,1072.533697
551.626164,-444.123565,-9030.512492,459.657299
551.626492,-444.123565,-8956.491898,383.047749
551.626819,-740.205942,-8882.471304,459.657299
551.627146,-518.144159,-8808.450710,919.314598
551.627474,-296.082377,-8808.450710,689.485948
551.627801,-444.123565,-9030.512492,612.876398
551.628129,-444.123565,-9252.574275,689.485948
551.628456,-296.082377,-9178.553681,842.705048
551.628784,-148.041188,-9030.512492,536.266849
551.629111,296.082377,-9474.636058,919.314598
551.629439,0.000000,-9178.553681,536.266849
551.629766,0.000000,-9252.574275,536.266849
551.630094,74.020594,-9178.553681,229.828649
551.630421,-370.102971,-9178.553681,383.047749
551.630749,-296.082377,-9400.615463,306.438199
551.631076,0.000000,-9400.615463,536.266849
551.631404,-222.061783,-9178.553681,306.438199
551.631731,0.000000,-9252.574275,229.828649
551.632059,0.000000,-9030.512492,459.657299
551.632386,296.082377,-9178.553681,0.000000
551.632713,74.020594,-8660.409521,229.828649
551.633041,0.000000,-8956.491898,306.438199
551.633368,-222.061783,-9252.574275,383.047749
551.633696,-444.123565,-9326.594869,383.047749
551.634023,-370.102971,-9474.636058,766.095498
551.634351,-222.061783,-9030.512492,1302.362347
551.634678,0.000000,-9178.553681,766.095498
551.635006,-296.082377,-9030.512492,612.876398
551.635333,-444.123565,-9104.533087,689.485948
551.635661,-444.123565,-9178.553681,459.657299
551.635988,-592.164754,-8882.471304,536.266849
551.636316,-370.102971,-8808.450710,766.095498
551.636643,-444.123565,-9178.553681,612.876398
551.636971,-296.082377,-8956.491898,536.266849
551.637298,-444.123565,-9030.512492,689.485948
551.637626,-444.123565,-8660.409521,1072.533697
551.637953,0.000000,-8956.491898,689.485948
551.638280,-296.082377,-9178.553681,536.266849
551.638608,0.000000,-9104.533087,536.266849
551.638935,0.000000,-9252.574275,612.876398
551.639263,222.061783,-8956.491898,1149.143247
551.639590,148.041188,-9326.594869,995.924147
551.639918,-222.061783,-9548.656652,919.314598
551.640245,-666.185348,-9622.677246,689.485948
551.640573,-444.123565,-9400.615463,612.876398
551.640900,-518.144159,-9326.594869,383.047749
551.641228,-370.102971,-8734.430116,612.876398
551.641555,-222.061783,-9104.533087,306.438199
551.641883,0.000000,-9030.512492,383.047749
551.642210,-296.082377,-8882.471304,76.609550
551.642538,-222.061783,-8956.491898,383.047749
551.642865,-296.082377,-8660.409521,1072.533697
551.643193,-296.082377,-9104.533087,76.609550
551.643520,0.000000,-9326.594869,383.047749
551.643847,0.000000,-9178.553681,459.657299
551.644175,0.000000,-9178.553681,459.657299
551.644502,-222.061783,-8734.430116,459.657299
551.644830,-222.061783,-8956.491898,306.438199
551.645157,-296.082377,-9104.533087,919.314598
551.645485,-444.123565,-9178.553681,459.657299
551.645812,-370.102971,-9030.512492,612.876398
551.646140,-444.123565,-9326.594869,153.219100
551.646467,-888.247130,-9178.553681,842.705048
551.646795,-740.205942,-9030.512492,612.876398
551.647122,-592.164754,-8882.471304,459.657299
551.647450,-518.144159,-8808.450710,766.095498
551.647777,-518.144159,-8882.471304,459.657299
551.648105,-370.102971,-8660.409521,536.266849
551.648432,-222.061783,-8808.450710,689.485948
551.648760,-296.082377,-8808.450710,612.876398
551.649087,-74.020594,-8882.471304,612.876398
551.649414,-444.123565,-9104.533087,766.095498
551.649742,0.000000,-9178.553681,1762.019645
551.650069,-222.061783,-9178.553681,612.876398
551.650397,0.000000,-9030.512492,459.657299
551.650724,0.000000,-9030.512492,459.657299
551.651052,0.000000,-8956.491898,536.266849
551.651379,-444.123565,-8734.430116,995.924147
551.651707,0.000000,-8956.491898,766.095498
551.652034,0.000000,-8956.491898,459.657299
551.652362,-222.061783,-9178.553681,383.047749
551.652689,-74.020594,-9178.553681,383.047749
551.653017,0.000000,-9178.553681,383.047749
551.653344,0.000000,-8956.491898,306.438199
551.653672,74.020594,-9178.553681,229.828649
551.653999,-222.061783,-9326.594869,459.657299
551.654327,0.000000,-9400.615463,229.828649
551.654654,0.000000,-9326.594869,459.657299
551.654981,518.144159,-9622.677246,536.266849
551.655309,0.000000,-9474.636058,306.438199
551.655636,-296.082377,-9400.615463,536.266849
551.655964,-296.082377,-9400.615463,459.657299
551.656291,-444.123565,-9326.594869,536.266849
551.656619,-888.247130,-9030.512492,153.219100
551.656946,-518.144159,-9030.512492,689.485948
551.657274,-370.102971,-9178.553681,459.657299
551.657601,-740.205942,-8808.450710,612.876398
551.657929,-666.185348,-8808.450710,612.876398
551.658256,-666.185348,-8808.450710,766.095498
551.658584,-962.267725,-8956.491898,689.485948
551.658911,-518.144159,-8956.491898,689.485948
551.659239,-444.123565,-9104.533087,689.485948
551.659566,-740.205942,-9178.553681,536.266849
551.659894,74.020594,-9474.636058,919.314598
551.660221,-370.102971,-8882.471304,536.266849
