#time,accel_x,accel_y,accel_z
561.383977,-222.061783,-9252.574275,459.657299
561.384305,-222.061783,-9178.553681,766.095498
561.384633,0.000000,-8808.450710,689.485948
561.384960,-296.082377,-8956.491898,306.438199
561.385288,-222.061783,-9178.553681,689.485948
561.385616,-296.082377,-9252.574275,612.876398
561.385943,-370.102971,-9104.533087,689.485948
561.386271,-370.102971,-9030.512492,612.876398
561.386599,-444.123565,-9104.533087,689.485948
561.386926,-296.082377,-9252.574275,766.095498
561.387254,-222.061783,-9030.512492,612.876398
561.387582,-296.082377,-8956.491898,536.266849
561.387909,-296.082377,-8882.471304,459.657299
561.388237,-592.164754,-8956.491898,612.876398
561.388565,-370.102971,-9030.512492,612.876398
561.388892,-296.082377,-8956.491898,459.657299
561.389220,-370.102971,-9104.533087,383.047749
561.389548,-148.041188,-9104.533087,383.047749
561.389875,-518.144159,-8956.491898,1225.752797
561.390203,0.000000,-9178.553681,689.485948
561.390531,-148.041188,-9178.553681,612.876398
561.390858,-296.082377,-9104.533087,689.485948
561.391186,-148.041188,-8956.491898,842.705048
561.391514,-148.041188,-9178.553681,1302.362347
561.391841,0.000000,-9178.553681,459.657299
561.392169,-296.082377,-8956.491898,689.485948
561.392497,-222.061783,-9178.553681,306.438199
561.392824,-296.082377,-9252.574275,536.266849
561.393152,0.000000,-9178.553681,459.657299
561.393480,-370.102971,-9104.533087,229.828649
561.393807,-518.144159,-9030.512492,229.828649
561.394135,-370.102971,-9252.574275,459.657299
561.394463,-370.102971,-9178.553681,536.266849
561.394790,0.000000,-9178.553681,536.266849
561.395118,0.000000,-9178.553681,76.609550
561.395446,0.000000,-9030.512492,306.438199
561.395773,-370.102971,-9252.574275,689.485948
561.396101,-296.082377,-9326.594869,536.266849
561.396429,-222.061783,-8882.471304,842.705048
561.396756,0.000000,-9030.512492,612.876398
561.397084,0.000000,-9326.594869,383.047749
561.397412,-370.102971,-9252.574275,612.876398
561.397739,-296.082377,-9400.615463,459.657299
561.398067,-370.102971,-9104.533087,536.266849
561.398395,-296.082377,-9326.594869,229.828649
561.398722,-1184.329507,-9474.636058,76.609550
561.399050,-1480.411884,-9474.636058,-306.438199
561.399378,-1184.329507,-9178.553681,-536.266849
561.399705,-814.226536,-9030.512492,-229.828649
561.400033,-370.102971,-8586.388927,-383.047749
561.400361,-962.267725,-9030.512492,-536.266849
561.400688,-1110.308913,-9400.615463,-766.095498
561.401016,-962.267725,-9326.594869,-1378.971896
561.401344,-1110.308913,-8808.450710,-1302.362347
561.401671,-962.267725,-9326.594869,-1149.143247
561.401999,-592.164754,-9252.574275,-1685.410096
561.402327,-592.164754,-9178.553681,-1225.752797
561.402654,-148.041188,-9030.512492,-1225.752797
561.402982,0.000000,-9104.533087,-1532.190996
561.403310,-222.061783,-9030.512492,-1378.971896
561.403637,148.041188,-9326.594869,-1532.190996
561.403965,0.000000,-9178.553681,-1762.019645
561.404293,222.061783,-9326.594869,-1838.629195
561.404620,370.102971,-9474.636058,-1608.800546
561.404948,296.082377,-9474.636058,-1838.629195
561.405276,592.164754,-9400.615463,-1225.752797
561.405603,518.144159,-9178.553681,-1685.410096
561.405931,444.123565,-9252.574275,-1532.190996
561.406259,370.102971,-9400.615463,-1608.800546
561.406586,0.000000,-9474.636058,-1762.019645
561.406914,444.123565,-9178.553681,-1838.629195
561.407242,148.041188,-8956.491898,-1991.848295
561.407569,0.000000,-9400.615463,-1685.410096
561.407897,0.000000,-9474.636058,-1608.800546
561.408225,-296.082377,-9400.615463,-1608.800546
561.408552,-518.144159,-8956.491898,-2298.286494
561.408880,-962.267725,-8956.491898,-1532.190996
561.409208,-1332.370696,-9178.553681,-2451.505594
561.409535,-1258.350101,-9252.574275,-2451.505594
561.409863,-1924.535449,-8956.491898,-2757.943793
561.410191,-1850.514855,-9104.533087,-2681.334243
561.410518,-2368.659014,-8512.368333,-3064.381992
561.410846,-2072.576638,-9104.533087,-3600.648841
561.411174,-2072.576638,-8956.491898,-3830.477490
561.411501,-1998.556043,-8956.491898,-3830.477490
561.411829,-1924.535449,-8808.450710,-4213.525239
561.412157,-1480.411884,-8882.471304,-4903.011187
561.412484,-1184.329507,-8882.471304,-3983.696590
561.412812,-518.144159,-8734.430116,-3983.696590
561.413140,222.061783,-9030.512492,-3524.039291
561.413467,666.185348,-9030.512492,-3140.991542
561.413795,1480.411884,-9030.512492,-3830.477490
561.414123,1628.453072,-8734.430116,-2374.896044
561.414450,2146.597232,-9326.594869,-2298.286494
561.414778,1998.556043,-9474.636058,-1991.848295
561.415106,1628.453072,-9918.759623,-2221.676944
561.415433,1110.308913,-10288.862594,-2451.505594
561.415761,444.123565,-10066.800811,-2911.162892
561.416089,-962.267725,-10362.883188,-3447.429741
561.416416,-1480.411884,-10362.883188,-4136.915689
561.416744,-2146.597232,-10066.800811,-4673.182538
561.417072,-1036.288319,-8808.450710,-4903.011187
561.417399,296.082377,-7994.224174,-4443.353888
561.417727,1406.391290,-7476.080014,-3830.477490
561.418055,2738.761985,-7402.059420,-2987.772442
561.418382,3034.844362,-7254.018232,-2374.896044
561.418710,2220.617826,-8142.265362,-1915.238745
561.419038,1110.308913,-9474.636058,-1838.629195
561.419365,-1628.453072,-10214.842000,-2068.457845
561.419693,-2886.803174,-10658.965565,-2451.505594
561.420021,-3256.906145,-10732.986159,-2298.286494
561.420348,-2812.782580,-10066.800811,-2374.896044
561.420676,-1036.288319,-9400.615463,-1685.410096
561.421004,1184.329507,-8512.368333,-1532.190996
561.421331,4219.173869,-6883.915261,153.219100
561.421659,7994.224174,-5255.462188,1915.238745
561.421987,10436.903782,-5255.462188,3983.696590
561.422314,9326.594869,-7031.956449,5132.839837
561.422642,4367.215058,-10510.924376,4443.353888
561.422970,-2442.679609,-13027.624579,2911.162892
561.423297,-8364.327145,-14508.036463,536.266849
561.423625,-11843.295072,-14656.077652,-766.095498
561.423953,-11473.192101,-13471.748144,-1762.019645
561.424280,-9770.718434,-11695.253884,-1762.019645
561.424608,-4441.235652,-8882.471304,-2451.505594
561.424936,-2886.803174,-6365.771101,-919.314598
561.425263,-1184.329507,-3923.091493,-3294.210641
561.425591,-2516.700203,-5255.462188,-4213.525239
561.425919,-7920.203579,-6439.791695,-7737.564530
561.426246,-11473.192101,-7920.203579,-9269.755526
561.426574,-14878.139434,-9178.553681,-10265.679673
561.426902,-12657.521608,-8216.285956,-10648.727422
561.427229,-9326.594869,-8364.327145,-9116.536426
561.427557,-1406.391290,-7105.977043,-6971.469032
561.427885,2220.617826,-6143.709319,-5669.106685
561.428212,5403.503377,-7476.080014,-5515.887586
561.428540,5403.503377,-9326.594869,-5592.497135
561.428868,3330.926739,-10436.903782,-6894.859482
561.429195,4219.173869,-10436.903782,-7277.907231
561.429523,7402.059420,-10658.965565,-5669.106685
561.429851,11177.109724,-10436.903782,-4826.401637
561.430178,12731.542202,-10140.821405,-2528.115143
561.430506,14211.954086,-10214.842000,-1532.190996
561.430834,13249.686362,-10214.842000,-1915.238745
561.431161,13915.871710,-9474.636058,-1762.019645
561.431489,13249.686362,-9104.533087,-3370.820191
561.431817,11473.192101,-11399.171507,-1378.971896
561.432144,9548.656652,-12139.377449,-3064.381992
561.432472,0.000000,-15026.180623,-4826.401637
561.432800,-8882.471304,-14656.077652,-7124.688131
561.433127,-10362.883188,-12361.439231,-8197.221829
561.433455,-6809.894666,-6587.832884,-7584.345430
561.433783,-814.226536,-3108.864956,-5592.497135
561.434110,4959.379811,-1998.556043,-2451.505594
561.434438,3849.070898,-2442.679609,-766.095498
561.434766,592.164754,-3108.864956,-689.485948
561.435093,-2812.782580,-4071.132681,-689.485948
561.435421,-6513.812290,-6735.874072,-1149.143247
561.435749,-7179.997637,-7698.141797,-842.705048
561.436076,-7846.182985,-8438.347739,76.609550
561.436404,-6291.750507,-10214.842000,2374.896044
561.436732,-4811.338623,-9696.697840,4826.401637
561.437059,-3478.967927,-7624.121203,5439.278036
561.437387,-666.185348,-7031.956449,4443.353888
561.437715,-1628.453072,-9622.677246,2451.505594
561.438042,-4663.297435,-11399.171507,-383.047749
561.438370,-6957.935855,-10732.986159,-919.314598
561.438698,-5995.668130,-10214.842000,-536.266849
561.439025,-2664.741391,-8660.409521,0.000000
561.439353,-666.185348,-8882.471304,842.705048
561.439681,-222.061783,-9622.677246,842.705048
561.440008,-1924.535449,-9992.780217,1378.971896
561.440336,-4293.194464,-9400.615463,689.485948
561.440664,-4367.215058,-8808.450710,0.000000
561.440991,-3849.070898,-10955.047942,-612.876398
561.441319,-3701.029710,-11843.295072,-1762.019645
561.441647,-4219.173869,-11177.109724,-2451.505594
561.441974,-1776.494261,-9474.636058,-2298.286494
561.442302,-1924.535449,-7328.038826,-2068.457845
561.442630,444.123565,-6587.832884,-2451.505594
561.442957,962.267725,-7254.018232,-3294.210641
561.443285,1480.411884,-7624.121203,-4749.792088
561.443613,3923.091493,-7846.182985,-4979.620737
561.443940,6217.729913,-7920.203579,-3907.087040
561.444268,5551.544565,-9178.553681,-4290.134789
561.444596,5329.482782,-12213.398043,-3370.820191
561.444923,4885.359217,-14211.954086,-3907.087040
561.445251,3701.029710,-14359.995275,-3447.429741
561.445578,2664.741391,-13397.727550,-3524.039291
561.445905,1480.411884,-12583.501014,-3830.477490
561.446233,1036.288319,-11843.295072,-3600.648841
561.446560,2220.617826,-11473.192101,-3294.210641
561.446888,1924.535449,-9992.780217,-3524.039291
561.447215,1702.473667,-9178.553681,-3983.696590
561.447543,0.000000,-8586.388927,-4903.011187
561.447870,-814.226536,-7846.182985,-5286.058936
561.448197,-666.185348,-7179.997637,-5056.230287
561.448525,222.061783,-6217.729913,-4903.011187
561.448852,222.061783,-5477.523971,-4290.134789
561.449180,1554.432478,-4737.318029,-2221.676944
561.449507,1184.329507,-4959.379811,-1532.190996
561.449835,814.226536,-6365.771101,-689.485948
561.450162,-666.185348,-8734.430116,-1455.581446
561.450489,-2072.576638,-9474.636058,-1378.971896
561.450817,-2368.659014,-9992.780217,-1225.752797
561.451144,-2738.761985,-9844.739029,-689.485948
561.451472,-2442.679609,-9030.512492,0.000000
561.451799,-592.164754,-7254.018232,689.485948
561.452127,962.267725,-7328.038826,689.485948
561.452454,-666.185348,-7994.224174,0.000000
561.452781,-2812.782580,-9326.594869,-1608.800546
561.453109,-4071.132681,-9252.574275,-2451.505594
561.453436,-3923.091493,-9252.574275,-3217.601092
561.453764,-3775.050304,-8882.471304,-2911.162892
561.454091,-1776.494261,-8660.409521,-2298.286494
561.454419,1110.308913,-7031.956449,-459.657299
561.454746,3256.906145,-5107.421000,1302.362347
561.455073,2516.700203,-5847.626942,1455.581446
561.455401,740.205942,-7254.018232,995.924147
561.455728,-296.082377,-8068.244768,612.876398
561.456056,-1258.350101,-8734.430116,229.828649
561.456383,-1702.473667,-9844.739029,842.705048
561.456710,-814.226536,-9326.594869,1838.629195
561.457038,2516.700203,-8142.265362,3064.381992
561.457365,3849.070898,-8438.347739,3600.648841
561.457693,2812.782580,-9474.636058,2681.334243
561.458020,444.123565,-9400.615463,995.924147
561.458348,-962.267725,-9548.656652,-766.095498
561.458675,-1924.535449,-9844.739029,0.000000
561.459002,-740.205942,-10436.903782,0.000000
561.459330,0.000000,-11325.150913,383.047749
561.459657,2516.700203,-10955.047942,1991.848295
561.459985,2442.679609,-11695.253884,3217.601092
561.460312,-1036.288319,-11843.295072,2374.896044
561.460640,-3330.926739,-11621.233289,1225.752797
561.460967,-4959.379811,-11695.253884,536.266849
561.461294,-6069.688724,-10955.047942,0.000000
561.461622,-4959.379811,-9770.718434,306.438199
561.461949,-2368.659014,-6957.935855,766.095498
561.462277,222.061783,-6439.791695,2068.457845
561.462604,148.041188,-8438.347739,2451.505594
561.462932,-1998.556043,-7994.224174,919.314598
561.463259,-2738.761985,-8068.244768,-229.828649
561.463586,-2960.823768,-8290.306550,-842.705048
561.463914,-3478.967927,-9326.594869,-612.876398
561.464241,-2294.638420,-9474.636058,-459.657299
561.464569,740.205942,-8956.491898,536.266849
561.464896,2886.803174,-10066.800811,1762.019645
561.465223,1480.411884,-11695.253884,1838.629195
561.465551,-592.164754,-11769.274478,1072.533697
561.465878,-1184.329507,-11695.253884,-229.828649
561.466206,-1036.288319,-11843.295072,-995.924147
561.466533,-1184.329507,-11103.089130,-919.314598
561.466861,444.123565,-10066.800811,-995.924147
561.467188,2146.597232,-8882.471304,536.266849
561.467515,2368.659014,-9696.697840,306.438199
561.467843,-740.205942,-9622.677246,-229.828649
561.468170,0.000000,-8734.430116,-1762.019645
561.468498,740.205942,-8438.347739,-2451.505594
561.468825,1332.370696,-8290.306550,-1225.752797
561.469153,2738.761985,-7920.203579,-919.314598
561.469480,4515.256246,-5921.647536,76.609550
561.469807,5033.400406,-6883.915261,842.705048
561.470135,3552.988522,-8142.265362,1455.581446
561.470462,518.144159,-8882.471304,995.924147
561.470790,-296.082377,-8438.347739,0.000000
561.471117,-222.061783,-9326.594869,306.438199
561.471445,-740.205942,-8808.450710,229.828649
561.471772,740.205942,-8068.244768,612.876398
561.472099,2072.576638,-7698.141797,1225.752797
561.472427,2516.700203,-8216.285956,1762.019645
561.472754,-148.041188,-9326.594869,1225.752797
561.473082,-2146.597232,-9030.512492,536.266849
561.473409,-2516.700203,-9400.615463,0.000000
561.473736,-2590.720797,-9918.759623,306.438199
561.474064,-2368.659014,-8734.430116,536.266849
561.474391,-1702.473667,-7476.080014,766.095498
561.474719,222.061783,-7254.018232,2298.286494
561.475046,-1554.432478,-7994.224174,2528.115143
561.475374,-2812.782580,-8438.347739,2068.457845
561.475701,-3997.112087,-8216.285956,842.705048
561.476028,-3997.112087,-8142.265362,689.485948
561.476356,-4589.276840,-8438.347739,766.095498
561.476683,-2960.823768,-7328.038826,1225.752797
561.477011,-666.185348,-6365.771101,1915.238745
561.477338,296.082377,-7031.956449,2298.286494
561.477666,-370.102971,-7402.059420,2145.067394
561.477993,-370.102971,-7698.141797,612.876398
561.478320,-296.082377,-8734.430116,306.438199
561.478648,148.041188,-10066.800811,536.266849
561.478975,370.102971,-10510.924376,766.095498
561.479303,1628.453072,-10214.842000,1532.190996
561.479630,2516.700203,-10140.821405,2374.896044
561.479958,1554.432478,-11843.295072,2068.457845
561.480285,-222.061783,-11843.295072,1455.581446
561.480612,-888.247130,-10955.047942,0.000000
561.480940,-814.226536,-11843.295072,-383.047749
561.481267,-1036.288319,-10807.006753,-76.609550
561.481595,-222.061783,-10066.800811,-612.876398
561.481922,1776.494261,-9030.512492,153.219100
561.482249,1924.535449,-9030.512492,842.705048
561.482577,666.185348,-9622.677246,919.314598
561.482904,-666.185348,-9918.759623,-229.828649
561.483232,-1258.350101,-9844.739029,-1149.143247
561.483559,-1036.288319,-10807.006753,-842.705048
561.483887,-1258.350101,-10066.800811,-842.705048
561.484214,962.267725,-9400.615463,76.609550
561.484541,2812.782580,-8956.491898,1149.143247
561.484869,1406.391290,-10510.924376,1302.362347
561.485196,0.000000,-11473.192101,536.266849
561.485524,-1184.329507,-10584.944971,-229.828649
561.485851,-1258.350101,-10881.027347,-459.657299
561.486179,-1554.432478,-11251.130318,0.000000
561.486506,-296.082377,-10658.965565,76.609550
561.486833,518.144159,-9326.594869,76.609550
561.487161,1628.453072,-9178.553681,1149.143247
561.487488,518.144159,-9474.636058,995.924147
561.487816,0.000000,-9104.533087,229.828649
561.488143,-666.185348,-9178.553681,0.000000
561.488471,-592.164754,-9770.718434,0.000000
561.488798,-740.205942,-9326.594869,536.266849
561.489125,0.000000,-7846.182985,1225.752797
561.489453,1554.432478,-7994.224174,2451.505594
561.489780,814.226536,-8364.327145,2911.162892
561.490108,-1332.370696,-8660.409521,1838.629195
561.490435,-2738.761985,-7994.224174,689.485948
561.490762,-2960.823768,-8142.265362,0.000000
561.491090,-3627.009116,-8438.347739,-153.219100
561.491417,-2960.823768,-7698.141797,306.438199
561.491745,296.082377,-5699.585753,383.047749
561.492072,2368.659014,-5921.647536,1532.190996
561.492400,2220.617826,-7179.997637,1762.019645
561.492727,1184.329507,-7624.121203,1378.971896
561.493054,-296.082377,-8068.244768,689.485948
561.493382,-370.102971,-10214.842000,612.876398
561.493709,-1554.432478,-9992.780217,536.266849
561.494037,0.000000,-9622.677246,1455.581446
561.494364,1628.453072,-9104.533087,2451.505594
561.494692,1776.494261,-8734.430116,2911.162892
561.495019,222.061783,-9178.553681,2757.943793
561.495346,-814.226536,-8142.265362,1072.533697
561.495674,-1702.473667,-8216.285956,-153.219100
561.496001,-3034.844362,-8512.368333,-1072.533697
561.496329,-2072.576638,-7179.997637,-842.705048
561.496656,-962.267725,-5551.544565,-766.095498
561.496984,1184.329507,-6291.750507,229.828649
561.497311,0.000000,-6809.894666,153.219100
561.497638,-148.041188,-7550.100608,229.828649
561.497966,-1554.432478,-7550.100608,-536.266849
561.498293,-1850.514855,-9474.636058,306.438199
561.498621,-3108.864956,-10732.986159,-766.095498
561.498948,-1776.494261,-10066.800811,306.438199
561.499275,814.226536,-9030.512492,1302.362347
561.499603,1776.494261,-9918.759623,1991.848295
561.499930,370.102971,-10881.027347,1838.629195
561.500258,0.000000,-10288.862594,919.314598
561.500585,-1480.411884,-10658.965565,153.219100
561.500913,-2294.638420,-10955.047942,-536.266849
561.501240,-2072.576638,-10436.903782,-1378.971896
561.501567,444.123565,-9030.512492,-1532.190996
561.501895,3108.864956,-8808.450710,76.609550
561.502222,3182.885551,-8956.491898,919.314598
561.502550,2368.659014,-9622.677246,842.705048
561.502877,1110.308913,-9622.677246,76.609550
561.503205,740.205942,-11399.171507,536.266849
561.503532,0.000000,-11103.089130,612.876398
561.503859,-222.061783,-10807.006753,1225.752797
561.504187,740.205942,-10584.944971,1838.629195
561.504514,1184.329507,-11029.068536,2834.553343
561.504842,-666.185348,-11473.192101,2298.286494
561.505169,-1332.370696,-10732.986159,1608.800546
561.505497,-2442.679609,-10288.862594,0.000000
561.505824,-3552.988522,-11251.130318,-612.876398
561.506151,-3552.988522,-9696.697840,-1378.971896
561.506479,-1776.494261,-8142.265362,-1378.971896
561.506806,518.144159,-7994.224174,-306.438199
561.507134,666.185348,-7846.182985,-459.657299
561.507461,518.144159,-7698.141797,-459.657299
561.507789,962.267725,-7179.997637,-612.876398
561.508116,814.226536,-8882.471304,0.000000
561.508443,-222.061783,-9918.759623,995.924147
561.508771,444.123565,-9030.512492,1608.800546
561.509098,1184.329507,-8808.450710,2528.115143
561.509426,1776.494261,-9326.594869,3524.039291
561.509753,-666.185348,-9770.718434,3217.601092
561.510080,-1628.453072,-9400.615463,2604.724693
561.510408,-1850.514855,-8364.327145,1455.581446
561.510735,-2294.638420,-8882.471304,1072.533697
561.511063,-1628.453072,-7772.162391,536.266849
561.511390,0.000000,-6069.688724,153.219100
561.511718,1924.535449,-5551.544565,919.314598
561.512045,888.247130,-5699.585753,995.924147
561.512372,-740.205942,-6365.771101,-229.828649
561.512700,-1110.308913,-6809.894666,-229.828649
561.513027,-1110.308913,-7698.141797,-306.438199
561.513355,-1480.411884,-8142.265362,306.438199
561.513682,-962.267725,-7846.182985,1915.238745
561.514010,-148.041188,-7772.162391,1991.848295
561.514337,0.000000,-8734.430116,2298.286494
561.514664,-2442.679609,-9252.574275,1915.238745
561.514992,-3627.009116,-8956.491898,919.314598
561.515319,-3552.988522,-8808.450710,-306.438199
561.515647,-2220.617826,-9696.697840,0.000000
561.515974,-2516.700203,-7846.182985,-1072.533697
561.516302,-148.041188,-7105.977043,-766.095498
561.516629,1480.411884,-7105.977043,-536.266849
561.516956,1480.411884,-7624.121203,-612.876398
561.517284,518.144159,-7920.203579,-1378.971896
561.517611,370.102971,-8956.491898,-1532.190996
561.517939,740.205942,-9770.718434,-1532.190996
561.518266,1110.308913,-11103.089130,-689.485948
561.518593,2368.659014,-11547.212695,459.657299
561.518921,3404.947333,-10658.965565,1838.629195
561.519248,4071.132681,-11621.233289,2911.162892
561.519576,1850.514855,-12583.501014,2451.505594
561.519903,0.000000,-12509.480420,1149.143247
561.520231,-1184.329507,-12139.377449,0.000000
561.520558,-1554.432478,-12583.501014,-536.266849
561.520885,-2072.576638,-11473.192101,-383.047749
561.521213,0.000000,-10140.821405,-459.657299
561.521540,1776.494261,-9252.574275,153.219100
561.521868,1924.535449,-9400.615463,229.828649
561.522195,740.205942,-9474.636058,766.095498
561.522523,444.123565,-9326.594869,-1532.190996
561.522850,-518.144159,-9696.697840,-1225.752797
561.523177,-1332.370696,-10732.986159,-766.095498
561.523505,-962.267725,-10066.800811,306.438199
561.523832,1036.288319,-9030.512492,1455.581446
561.524160,1776.494261,-9104.533087,2604.724693
561.524487,148.041188,-9474.636058,3370.820191
561.524815,-1554.432478,-9918.759623,2681.334243
561.525142,-2516.700203,-9548.656652,1302.362347
561.525469,-3182.885551,-10140.821405,689.485948
561.525797,-3627.009116,-9622.677246,612.876398
561.526124,-1776.494261,-8660.409521,689.485948
561.526452,0.000000,-7476.080014,1149.143247
561.526779,370.102971,-7994.224174,1455.581446
561.527106,-444.123565,-8438.347739,689.485948
561.527434,-1184.329507,-7550.100608,1072.533697
561.527761,-962.267725,-7920.203579,-459.657299
561.528089,-1554.432478,-8586.388927,0.000000
561.528416,-814.226536,-8142.265362,612.876398
561.528744,0.000000,-7105.977043,1608.800546
561.529071,1924.535449,-7624.121203,3064.381992
561.529398,1110.308913,-7994.224174,3677.258390
561.529726,0.000000,-8438.347739,3294.210641
561.530053,-1332.370696,-8438.347739,2145.067394
561.530381,-1998.556043,-8882.471304,1225.752797
561.530708,-3330.926739,-8956.491898,383.047749
561.531036,-1776.494261,-7698.141797,306.438199
561.531363,-370.102971,-6439.791695,0.000000
561.531690,1110.308913,-7105.977043,229.828649
561.532018,444.123565,-7550.100608,-229.828649
561.532345,518.144159,-7550.100608,-919.314598
561.532673,814.226536,-7624.121203,-919.314598
561.533000,444.123565,-8734.430116,-842.705048
561.533328,0.000000,-9400.615463,-612.876398
561.533655,1702.473667,-8808.450710,536.266849
561.533982,1998.556043,-9622.677246,1838.629195
561.534310,888.247130,-10214.842000,1838.629195
561.534637,0.000000,-10881.027347,1838.629195
561.534965,-888.247130,-10658.965565,995.924147
561.535292,-1554.432478,-11103.089130,612.876398
561.535619,-2368.659014,-11103.089130,0.000000
561.535947,-1406.391290,-9400.615463,0.000000
561.536274,666.185348,-7994.224174,-766.095498
561.536602,962.267725,-8512.368333,-229.828649
561.536929,74.020594,-8142.265362,-1225.752797
561.537257,0.000000,-7698.141797,-2221.676944
561.537584,370.102971,-7994.224174,-2145.067394
561.537911,222.061783,-8882.471304,-766.095498
561.538239,0.000000,-9178.553681,-689.485948
561.538566,814.226536,-9474.636058,153.219100
561.538894,1628.453072,-10214.842000,1378.971896
561.539221,444.123565,-11029.068536,2145.067394
561.539549,-814.226536,-10732.986159,1532.190996
561.539876,-1332.370696,-10066.800811,919.314598
561.540203,-1480.411884,-11177.109724,459.657299
561.540531,-2368.659014,-10881.027347,0.000000
561.540858,-1998.556043,-9622.677246,0.000000
561.541186,0.000000,-7994.224174,-153.219100
561.541513,518.144159,-8290.306550,536.266849
561.541841,-740.205942,-8586.388927,-689.485948
561.542168,-888.247130,-8438.347739,-1455.581446
561.542495,-592.164754,-8882.471304,-1532.190996
561.542823,-592.164754,-9400.615463,-1225.752797
561.543150,74.020594,-9696.697840,76.609550
561.543478,1258.350101,-8882.471304,1302.362347
561.543805,2886.803174,-9178.553681,2681.334243
561.544133,1850.514855,-10140.821405,3217.601092
561.544460,222.061783,-9844.739029,3294.210641
561.544788,-962.267725,-9696.697840,2221.676944
561.545116,-1184.329507,-10288.862594,2221.676944
561.545443,-2442.679609,-10140.821405,1608.800546
561.545771,-1480.411884,-8660.409521,1455.581446
561.546098,518.144159,-7402.059420,1685.410096
561.546426,1332.370696,-8142.265362,2068.457845
561.546753,444.123565,-7920.203579,1302.362347
561.547081,-370.102971,-7550.100608,459.657299
561.547408,-370.102971,-7846.182985,-306.438199
561.547736,-592.164754,-8734.430116,-306.438199
561.548063,-1110.308913,-8512.368333,306.438199
561.548391,518.144159,-8438.347739,1762.019645
561.548718,2294.638420,-8142.265362,2911.162892
561.549046,1332.370696,-9770.718434,3447.429741
561.549373,-518.144159,-9622.677246,3140.991542
561.549701,-2368.659014,-9844.739029,2374.896044
561.550028,-3923.091493,-10362.883188,1149.143247
561.550356,-5551.544565,-10288.862594,306.438199
561.550684,-5033.400406,-8956.491898,-153.219100
561.551011,-2664.741391,-6587.832884,-76.609550
561.551339,-370.102971,-6809.894666,0.000000
561.551666,-1332.370696,-7254.018232,-306.438199
561.551994,-1258.350101,-6735.874072,-1762.019645
561.552321,-1184.329507,-7105.977043,-2298.286494
561.552649,-1258.350101,-8216.285956,-2528.115143
561.552976,-1110.308913,-8512.368333,-2451.505594
561.553304,1110.308913,-8808.450710,-1762.019645
561.553631,2886.803174,-8808.450710,612.876398
561.553959,2738.761985,-9992.780217,1685.410096
561.554286,2146.597232,-10807.006753,1838.629195
561.554614,1406.391290,-10436.903782,919.314598
561.554941,962.267725,-11251.130318,689.485948
561.555269,0.000000,-11547.212695,383.047749
561.555596,74.020594,-10510.924376,0.000000
561.555924,2220.617826,-9030.512492,306.438199
561.556252,3404.947333,-8956.491898,612.876398
561.556579,2368.659014,-9622.677246,153.219100
561.556907,1406.391290,-9474.636058,-1149.143247
561.557234,888.247130,-8734.430116,-1455.581446
561.557562,370.102971,-9474.636058,-1762.019645
561.557889,0.000000,-9178.553681,-1532.190996
561.558217,1258.350101,-8734.430116,-612.876398
561.558544,2664.741391,-8586.388927,76.609550
561.558872,2368.659014,-10140.821405,1608.800546
561.559199,-666.185348,-9844.739029,1608.800546
561.559527,-1554.432478,-9770.718434,1532.190996
561.559854,-2886.803174,-10732.986159,1225.752797
561.560182,-3997.112087,-11029.068536,1762.019645
561.560509,-3627.009116,-10288.862594,1225.752797
561.560837,-1776.494261,-8438.347739,1302.362347
561.561164,-1184.329507,-8364.327145,1608.800546
561.561492,-2442.679609,-8956.491898,1072.533697
561.561820,-2960.823768,-8438.347739,153.219100
561.562147,-2368.659014,-7328.038826,-536.266849
561.562475,-1702.473667,-7624.121203,-842.705048
561.562802,-1924.535449,-8068.244768,-689.485948
561.563130,666.185348,-7624.121203,306.438199
561.563457,2294.638420,-7105.977043,1532.190996
561.563785,2738.761985,-8142.265362,3064.381992
561.564112,148.041188,-8956.491898,2911.162892
561.564440,-1406.391290,-9770.718434,2145.067394
561.564767,-2664.741391,-10881.027347,1762.019645
561.565095,-3627.009116,-11695.253884,1532.190996
561.565422,-2664.741391,-9770.718434,1455.581446
561.565750,0.000000,-7920.203579,1838.629195
561.566077,1924.535449,-7846.182985,2451.505594
561.566405,888.247130,-7476.080014,1532.190996
561.566733,814.226536,-7402.059420,536.266849
561.567060,74.020594,-6735.874072,-1225.752797
561.567388,-666.185348,-7920.203579,-689.485948
561.567715,-814.226536,-8734.430116,-1532.190996
561.568043,1702.473667,-8364.327145,0.000000
561.568370,3256.906145,-7994.224174,1225.752797
561.568698,4293.194464,-8734.430116,2911.162892
561.569025,2220.617826,-10140.821405,3064.381992
561.569353,0.000000,-10881.027347,2451.505594
561.569680,-1702.473667,-11325.150913,1532.190996
561.570008,-3108.864956,-11917.315666,842.705048
561.570335,-3478.967927,-11177.109724,536.266849
561.570663,-1628.453072,-9252.574275,153.219100
561.570990,-370.102971,-8290.306550,612.876398
561.571318,-370.102971,-8068.244768,306.438199
561.571645,-222.061783,-7476.080014,-383.047749
561.571973,-962.267725,-6957.935855,-1991.848295
561.572301,-518.144159,-8216.285956,-2145.067394
561.572628,-1924.535449,-9178.553681,-2374.896044
561.572956,-148.041188,-8438.347739,-1225.752797
561.573283,888.247130,-8660.409521,0.000000
561.573611,1480.411884,-10214.842000,1378.971896
561.573938,-296.082377,-11399.171507,2298.286494
561.574266,-1184.329507,-11103.089130,1455.581446
561.574593,-1776.494261,-10658.965565,383.047749
561.574921,-2220.617826,-11843.295072,459.657299
561.575248,-2368.659014,-11177.109724,229.828649
561.575576,0.000000,-9252.574275,766.095498
561.575903,1850.514855,-8364.327145,1225.752797
561.576231,1258.350101,-8808.450710,766.095498
561.576558,740.205942,-8364.327145,0.000000
561.576886,296.082377,-7772.162391,-1225.752797
561.577213,444.123565,-9104.533087,-1225.752797
561.577541,-296.082377,-9400.615463,-1532.190996
561.577869,296.082377,-8808.450710,-1072.533697
561.578196,2220.617826,-8216.285956,459.657299
561.578524,3552.988522,-9252.574275,1608.800546
561.578851,1332.370696,-9992.780217,1838.629195
561.579179,-148.041188,-10214.842000,1455.581446
561.579506,-1554.432478,-10732.986159,995.924147
561.579834,-3034.844362,-11473.192101,612.876398
561.580161,-2886.803174,-10066.800811,306.438199
561.580489,-1258.350101,-8068.244768,383.047749
561.580816,148.041188,-7328.038826,995.924147
561.581144,296.082377,-8142.265362,919.314598
561.581471,-370.102971,-7402.059420,306.438199
561.581799,-370.102971,-6587.832884,-689.485948
561.582126,666.185348,-7846.182985,-689.485948
561.582454,-222.061783,-8438.347739,-689.485948
561.582781,222.061783,-8734.430116,536.266849
561.583109,1702.473667,-8734.430116,1378.971896
561.583437,1998.556043,-8956.491898,2528.115143
561.583764,740.205942,-9696.697840,2911.162892
561.584092,-370.102971,-9548.656652,2451.505594
561.584419,-962.267725,-9844.739029,1608.800546
561.584747,-1924.535449,-10584.944971,2068.457845
561.585074,-2590.720797,-9178.553681,995.924147
561.585402,-814.226536,-7105.977043,1532.190996
561.585729,370.102971,-7105.977043,1915.238745
561.586057,74.020594,-7920.203579,1608.800546
561.586384,-592.164754,-7476.080014,1072.533697
561.586712,-1036.288319,-7105.977043,153.219100
561.587039,-1184.329507,-7994.224174,383.047749
561.587367,-2294.638420,-9400.615463,0.000000
561.587694,-1628.453072,-8956.491898,536.266849
561.588022,74.020594,-8364.327145,1072.533697
561.588350,518.144159,-8882.471304,2068.457845
561.588677,-1110.308913,-9400.615463,1149.143247
561.589005,-1998.556043,-9696.697840,766.095498
561.589332,-2738.761985,-9474.636058,-306.438199
561.589660,-2220.617826,-9844.739029,306.438199
561.589987,-1850.514855,-9252.574275,-229.828649
561.590315,0.000000,-7920.203579,306.438199
561.590642,814.226536,-7920.203579,536.266849
561.590970,888.247130,-8512.368333,995.924147
561.591297,-444.123565,-8808.450710,-229.828649
561.591625,0.000000,-8734.430116,-995.924147
561.591952,74.020594,-9992.780217,-1455.581446
561.592280,0.000000,-11251.130318,-1302.362347
561.592607,1036.288319,-10066.800811,-612.876398
561.592935,2738.761985,-9474.636058,689.485948
561.593262,3034.844362,-10510.924376,689.485948
561.593590,888.247130,-11769.274478,536.266849
561.593918,-370.102971,-11325.150913,0.000000
561.594245,-370.102971,-10658.965565,-689.485948
561.594573,-518.144159,-11621.233289,-766.095498
561.594900,-740.205942,-10955.047942,-1149.143247
561.595228,666.185348,-9400.615463,0.000000
561.595555,2220.617826,-8660.409521,612.876398
561.595883,2220.617826,-9474.636058,1149.143247
561.596210,1036.288319,-9474.636058,612.876398
561.596538,370.102971,-8882.471304,383.047749
561.596865,-518.144159,-9474.636058,-383.047749
561.597193,-1480.411884,-11103.089130,-689.485948
561.597520,-666.185348,-10066.800811,153.219100
561.597848,888.247130,-8586.388927,1225.752797
561.598175,1924.535449,-8586.388927,2451.505594
561.598503,1110.308913,-9992.780217,2604.724693
561.598830,-1406.391290,-9918.759623,1838.629195
561.599158,-2368.659014,-9400.615463,919.314598
561.599486,-3108.864956,-9918.759623,459.657299
561.599813,-3330.926739,-9770.718434,919.314598
561.600141,-2368.659014,-8734.430116,1225.752797
561.600468,-1036.288319,-7994.224174,1455.581446
561.600796,-444.123565,-8438.347739,1915.238745
561.601123,-444.123565,-7476.080014,1685.410096
561.601451,-814.226536,-7179.997637,612.876398
561.601778,-1554.432478,-7772.162391,153.219100
561.602106,-2072.576638,-9252.574275,0.000000
561.602433,-2368.659014,-7920.203579,0.000000
561.602761,0.000000,-7105.977043,842.705048
561.603088,962.267725,-7772.162391,2221.676944
561.603416,296.082377,-8586.388927,2451.505594
561.603743,-740.205942,-8734.430116,2145.067394
561.604071,-1110.308913,-8068.244768,995.924147
561.604399,-2072.576638,-9178.553681,306.438199
561.604726,-2960.823768,-9474.636058,-153.219100
561.605054,-1036.288319,-7328.038826,612.876398
561.605381,1184.329507,-6809.894666,689.485948
561.605709,2664.741391,-7179.997637,1455.581446
561.606036,2368.659014,-7328.038826,1455.581446
561.606364,2072.576638,-7179.997637,689.485948
561.606691,962.267725,-7994.224174,153.219100
561.607019,-740.205942,-9252.574275,153.219100
561.607346,-814.226536,-9252.574275,-229.828649
561.607674,148.041188,-8438.347739,306.438199
561.608001,1332.370696,-9400.615463,1378.971896
561.608329,740.205942,-9770.718434,1455.581446
561.608656,888.247130,-9252.574275,1532.190996
561.608984,-222.061783,-8438.347739,306.438199
561.609311,-370.102971,-9474.636058,153.219100
561.609639,-1924.535449,-9770.718434,-459.657299
561.609967,-962.267725,-8290.306550,-306.438199
561.610294,-370.102971,-7328.038826,0.000000
561.610622,1110.308913,-8068.244768,689.485948
561.610949,0.000000,-8586.388927,0.000000
561.611277,0.000000,-7920.203579,0.000000
561.611604,0.000000,-9104.533087,-229.828649
561.611932,-888.247130,-10140.821405,-459.657299
561.612259,-1554.432478,-9622.677246,0.000000
561.612587,370.102971,-9770.718434,689.485948
561.612914,1628.453072,-10362.883188,1378.971896
561.613242,888.247130,-11103.089130,2068.457845
561.613569,-666.185348,-11103.089130,1838.629195
561.613897,-1702.473667,-11103.089130,689.485948
561.614224,-2664.741391,-11991.336260,0.000000
561.614552,-3256.906145,-11843.295072,-536.266849
561.614879,-2960.823768,-10436.903782,-1225.752797
561.615207,-1110.308913,-9178.553681,-766.095498
561.615535,0.000000,-8882.471304,-612.876398
561.615862,-148.041188,-8660.409521,-689.485948
561.616190,370.102971,-8364.327145,-842.705048
561.616517,148.041188,-8216.285956,-1455.581446
561.616845,0.000000,-9992.780217,-842.705048
561.617172,-888.247130,-9474.636058,-383.047749
561.617500,888.247130,-8734.430116,1072.533697
561.617827,1776.494261,-9548.656652,1915.238745
561.618155,1554.432478,-11029.068536,2757.943793
561.618482,-444.123565,-10732.986159,2221.676944
561.618810,0.000000,-10436.903782,1685.410096
561.619137,-518.144159,-10881.027347,1072.533697
561.619465,-666.185348,-10362.883188,689.485948
561.619792,0.000000,-9030.512492,612.876398
561.620120,2146.597232,-7846.182985,1072.533697
561.620447,3182.885551,-7994.224174,1991.848295
561.620775,2368.659014,-8364.327145,1302.362347
561.621103,1628.453072,-7624.121203,1072.533697
561.621430,666.185348,-9030.512492,536.266849
561.621758,-222.061783,-10436.903782,1072.533697
561.622085,-1258.350101,-10436.903782,1455.581446
561.622413,-740.205942,-9474.636058,2987.772442
561.622740,592.164754,-8956.491898,3294.210641
561.623068,0.000000,-9474.636058,3524.039291
561.623395,-1776.494261,-9696.697840,2834.553343
561.623723,-3627.009116,-8734.430116,1302.362347
561.624050,-4441.235652,-8734.430116,766.095498
561.624378,-4737.318029,-8142.265362,-383.047749
561.624705,-4737.318029,-7031.956449,-1072.533697
561.625033,-2442.679609,-6291.750507,-689.485948
561.625360,-962.267725,-6217.729913,0.000000
561.625688,-814.226536,-6439.791695,-459.657299
561.626016,-666.185348,-6217.729913,-306.438199
561.626343,-592.164754,-7105.977043,-842.705048
561.626671,-592.164754,-8586.388927,-459.657299
561.626998,-814.226536,-8586.388927,-459.657299
561.627326,1184.329507,-8438.347739,689.485948
561.627653,2516.700203,-8660.409521,2068.457845
561.627981,1406.391290,-10510.924376,2987.772442
561.628308,0.000000,-11325.150913,2374.896044
561.628636,-518.144159,-10510.924376,1149.143247
561.628963,-740.205942,-10436.903782,0.000000
561.629291,-518.144159,-10066.800811,-536.266849
561.629618,74.020594,-8364.327145,-1302.362347
561.629946,2146.597232,-7105.977043,-1149.143247
561.630273,3849.070898,-6661.853478,-383.047749
561.630601,3775.050304,-7105.977043,-306.438199
561.630928,2812.782580,-7105.977043,-919.314598
561.631256,2072.576638,-7772.162391,-766.095498
561.631584,74.020594,-10066.800811,-842.705048
561.631911,-1332.370696,-10881.027347,-229.828649
561.632239,296.082377,-10436.903782,1072.533697
561.632566,1110.308913,-9992.780217,2374.896044
561.632894,1554.432478,-10955.047942,2681.334243
561.633221,-888.247130,-11399.171507,2068.457845
561.633549,-2072.576638,-10362.883188,1225.752797
561.633876,-2146.597232,-9844.739029,306.438199
561.634204,-2516.700203,-9918.759623,-612.876398
561.634531,-2368.659014,-9252.574275,-842.705048
561.634859,-666.185348,-7994.224174,-766.095498
561.635186,148.041188,-8068.244768,0.000000
561.635514,-296.082377,-8586.388927,0.000000
561.635841,-666.185348,-8734.430116,-383.047749
561.636169,-1110.308913,-8882.471304,0.000000
561.636496,-1258.350101,-11177.109724,306.438199
561.636824,-2368.659014,-11251.130318,306.438199
561.637152,-148.041188,-10436.903782,1915.238745
561.637479,962.267725,-9696.697840,2681.334243
561.637807,1776.494261,-10362.883188,3830.477490
561.638134,-148.041188,-10732.986159,3140.991542
561.638462,-1628.453072,-9992.780217,2221.676944
561.638789,-2812.782580,-9474.636058,689.485948
561.639117,-2590.720797,-10066.800811,306.438199
561.639444,-2442.679609,-8290.306550,-383.047749
561.639772,74.020594,-7402.059420,229.828649
561.640099,1628.453072,-7031.956449,229.828649
561.640427,2294.638420,-7402.059420,842.705048
561.640754,1258.350101,-7698.141797,0.000000
561.641082,1184.329507,-7772.162391,0.000000
561.641409,444.123565,-8956.491898,0.000000
561.641737,-740.205942,-9844.739029,459.657299
561.642064,0.000000,-9992.780217,1149.143247
561.642392,1406.391290,-9770.718434,2681.334243
561.642720,1332.370696,-10066.800811,3524.039291
561.643047,-370.102971,-9844.739029,3140.991542
561.643375,-1702.473667,-9400.615463,2298.286494
561.643702,-2812.782580,-9474.636058,459.657299
561.644030,-2442.679609,-9326.594869,-229.828649
561.644357,-3923.091493,-7846.182985,-1149.143247
561.644684,-814.226536,-6291.750507,-842.705048
561.645012,-148.041188,-6069.688724,-1378.971896
561.645339,444.123565,-6735.874072,-995.924147
561.645667,-222.061783,-6069.688724,-1455.581446
561.645995,518.144159,-6217.729913,-1072.533697
561.646322,148.041188,-8216.285956,-1225.752797
561.646650,-444.123565,-9326.594869,306.438199
561.646977,148.041188,-9252.574275,536.266849
561.647305,1924.535449,-9252.574275,2145.067394
561.647632,1998.556043,-10510.924376,3140.991542
561.647960,-222.061783,-11029.068536,2451.505594
561.648288,-740.205942,-10362.883188,2528.115143
561.648615,-740.205942,-10066.800811,995.924147
561.648943,-1184.329507,-10436.903782,459.657299
561.649270,-888.247130,-9400.615463,0.000000
561.649598,1110.308913,-7846.182985,0.000000
561.649925,1406.391290,-7254.018232,229.828649
561.650253,1258.350101,-8364.327145,-459.657299
561.650581,-444.123565,-8734.430116,-1149.143247
561.650908,0.000000,-8512.368333,-1915.238745
561.651236,0.000000,-8882.471304,-1762.019645
561.651563,518.144159,-9844.739029,-766.095498
561.651891,592.164754,-9474.636058,306.438199
561.652218,1406.391290,-9844.739029,1685.410096
561.652546,1332.370696,-10584.944971,2834.553343
561.652874,-888.247130,-11029.068536,2145.067394
561.653201,-2146.597232,-10436.903782,1302.362347
561.653529,-2590.720797,-10436.903782,153.219100
561.653856,-2664.741391,-11399.171507,459.657299
561.654184,-2812.782580,-10066.800811,0.000000
561.654511,-370.102971,-7698.141797,76.609550
561.654839,1628.453072,-7328.038826,689.485948
561.655167,2220.617826,-8068.244768,995.924147
561.655494,74.020594,-8660.409521,-383.047749
561.655822,-370.102971,-9252.574275,-689.485948
561.656149,-888.247130,-9770.718434,-842.705048
561.656477,-1258.350101,-10807.006753,0.000000
561.656804,0.000000,-10066.800811,1302.362347
561.657132,1332.370696,-9770.718434,2528.115143
561.657460,2146.597232,-10140.821405,3677.258390
561.657787,740.205942,-10436.903782,3677.258390
561.658115,-222.061783,-9696.697840,3064.381992
561.658442,-1110.308913,-9474.636058,2298.286494
561.658770,-2146.597232,-10288.862594,1455.581446
561.659097,-3997.112087,-9770.718434,76.609550
561.659425,-2812.782580,-7920.203579,0.000000
561.659753,-814.226536,-6735.874072,383.047749
561.660080,592.164754,-6735.874072,536.266849
561.660408,148.041188,-6291.750507,-612.876398
561.660735,740.205942,-6883.915261,-536.266849
561.661063,0.000000,-7698.141797,-995.924147
561.661390,-370.102971,-8586.388927,-383.047749
561.661718,-222.061783,-9178.553681,76.609550
561.662046,814.226536,-8142.265362,2374.896044
561.662373,1480.411884,-9844.739029,2834.553343
561.662701,0.000000,-10510.924376,2911.162892
561.663028,-1036.288319,-9992.780217,1838.629195
561.663356,-1258.350101,-8808.450710,1455.581446
561.663683,-1480.411884,-9326.594869,536.266849
561.664011,-2146.597232,-9400.615463,0.000000
561.664339,-888.247130,-7920.203579,-459.657299
561.664666,0.000000,-7254.018232,-459.657299
561.664994,518.144159,-7772.162391,-459.657299
561.665321,-592.164754,-7254.018232,-1838.629195
561.665649,-222.061783,-7772.162391,-1838.629195
561.665976,-666.185348,-8438.347739,-2145.067394
561.666304,-666.185348,-9030.512492,-1378.971896
561.666632,-592.164754,-8586.388927,-766.095498
561.666959,1332.370696,-8290.306550,536.266849
561.667287,2368.659014,-8808.450710,1685.410096
561.667614,592.164754,-10362.883188,1915.238745
561.667942,-740.205942,-9992.780217,1072.533697
561.668269,-1110.308913,-9622.677246,612.876398
561.668597,-1480.411884,-10436.903782,459.657299
561.668925,-1998.556043,-9992.780217,0.000000
561.669252,148.041188,-8808.450710,153.219100
561.669580,1850.514855,-7994.224174,0.000000
561.669907,1406.391290,-8586.388927,-306.438199
561.670235,666.185348,-8660.409521,-995.924147
561.670562,740.205942,-8364.327145,-1608.800546
561.670890,740.205942,-9474.636058,-1378.971896
561.671218,740.205942,-11177.109724,-689.485948
561.671545,888.247130,-10362.883188,76.609550
561.671873,2664.741391,-10140.821405,1915.238745
561.672200,2664.741391,-10066.800811,3447.429741
561.672528,1184.329507,-11029.068536,3294.210641
561.672855,-888.247130,-11103.089130,2451.505594
561.673183,-2146.597232,-11103.089130,1762.019645
561.673511,-3256.906145,-11695.253884,1302.362347
561.673838,-4071.132681,-11251.130318,459.657299
561.674166,-2368.659014,-9770.718434,842.705048
561.674493,0.000000,-8660.409521,1608.800546
561.674821,0.000000,-9252.574275,1378.971896
561.675148,-888.247130,-8956.491898,229.828649
561.675476,-1110.308913,-8512.368333,-612.876398
561.675804,-1258.350101,-9104.533087,-1378.971896
561.676131,-1850.514855,-9400.615463,-919.314598
561.676459,-1554.432478,-9992.780217,-459.657299
561.676786,888.247130,-9326.594869,1302.362347
561.677114,2072.576638,-9178.553681,2681.334243
561.677441,1110.308913,-10362.883188,2987.772442
561.677769,-296.082377,-9548.656652,2911.162892
561.678097,-1258.350101,-10140.821405,2145.067394
561.678424,-2516.700203,-10732.986159,1455.581446
561.678752,-3330.926739,-10362.883188,612.876398
561.679079,-1850.514855,-8808.450710,766.095498
561.679407,444.123565,-7105.977043,1225.752797
561.679734,1258.350101,-7550.100608,1149.143247
561.680062,1406.391290,-7105.977043,766.095498
561.680390,444.123565,-6735.874072,-383.047749
561.680717,592.164754,-6883.915261,-1149.143247
561.681045,-666.185348,-7994.224174,-1302.362347
561.681372,-888.247130,-8216.285956,-1608.800546
561.681700,814.226536,-7994.224174,0.000000
561.682027,2146.597232,-7624.121203,1302.362347
561.682355,1776.494261,-8660.409521,2145.067394
561.682683,592.164754,-9104.533087,1915.238745
561.683010,-592.164754,-8290.306550,1685.410096
561.683338,-2368.659014,-9474.636058,1225.752797
561.683665,-3330.926739,-9696.697840,229.828649
561.683993,-2368.659014,-8364.327145,0.000000
561.684320,0.000000,-6217.729913,229.828649
561.684648,1406.391290,-6883.915261,536.266849
561.684976,814.226536,-7031.956449,153.219100
561.685303,740.205942,-6587.832884,-612.876398
561.685631,0.000000,-6661.853478,-1532.190996
561.685958,-814.226536,-8290.306550,-1149.143247
561.686286,-1924.535449,-9104.533087,-1838.629195
561.686613,-814.226536,-8956.491898,-766.095498
561.686941,74.020594,-9104.533087,459.657299
561.687269,962.267725,-9326.594869,1991.848295
561.687596,-148.041188,-9400.615463,1608.800546
561.687924,-740.205942,-9548.656652,1762.019645
561.688251,-1480.411884,-9992.780217,689.485948
561.688579,-2516.700203,-10066.800811,306.438199
561.688906,-1924.535449,-9104.533087,229.828649
561.689234,-370.102971,-7994.224174,153.219100
561.689562,444.123565,-8586.388927,766.095498
561.689889,296.082377,-8956.491898,153.219100
561.690217,0.000000,-8142.265362,-459.657299
561.690544,-444.123565,-8734.430116,-1072.533697
561.690872,-814.226536,-10288.862594,-1149.143247
561.691199,-888.247130,-10510.924376,-689.485948
561.691527,1036.288319,-9474.636058,153.219100
561.691855,2442.679609,-9326.594869,995.924147
561.692182,2146.597232,-11177.109724,2374.896044
561.692510,148.041188,-11621.233289,2298.286494
561.692837,-666.185348,-10955.047942,2221.676944
561.693165,-814.226536,-11103.089130,1838.629195
561.693492,-1554.432478,-11621.233289,1685.410096
561.693820,-1998.556043,-10955.047942,1455.581446
561.694148,0.000000,-9770.718434,2145.067394
561.694475,518.144159,-9400.615463,1915.238745
561.694803,-296.082377,-9178.553681,1532.190996
561.695130,-888.247130,-9326.594869,383.047749
561.695458,-1184.329507,-9252.574275,-383.047749
561.695785,-1332.370696,-9548.656652,-919.314598
561.696113,-1258.350101,-9252.574275,-459.657299
561.696441,370.102971,-8068.244768,536.266849
561.696768,1850.514855,-8290.306550,1149.143247
561.697096,1850.514855,-9622.677246,2068.457845
561.697423,-518.144159,-9548.656652,1685.410096
561.697751,-962.267725,-9548.656652,1532.190996
561.698078,-1702.473667,-9696.697840,1302.362347
561.698406,-2146.597232,-10140.821405,1455.581446
561.698734,-2072.576638,-9474.636058,1225.752797
561.699061,148.041188,-8364.327145,1685.410096
561.699389,296.082377,-8512.368333,1838.629195
561.699716,-148.041188,-8364.327145,1225.752797
561.700044,-1184.329507,-8290.306550,-459.657299
561.700371,-1702.473667,-8364.327145,-1532.190996
561.700699,-1184.329507,-8956.491898,-1608.800546
561.701027,-740.205942,-9030.512492,-1685.410096
561.701354,1628.453072,-8216.285956,-612.876398
561.701682,3108.864956,-8142.265362,919.314598
561.702009,2738.761985,-9178.553681,1532.190996
561.702337,518.144159,-9770.718434,689.485948
561.702664,-814.226536,-9474.636058,459.657299
561.702992,-1628.453072,-9622.677246,-459.657299
561.703320,-2220.617826,-9474.636058,-306.438199
561.703647,-1184.329507,-8734.430116,76.609550
561.703975,592.164754,-7624.121203,766.095498
561.704302,1332.370696,-7254.018232,1149.143247
561.704630,518.144159,-7624.121203,766.095498
561.704957,444.123565,-6883.915261,0.000000
561.705285,-518.144159,-7105.977043,-1302.362347
561.705613,-444.123565,-8438.347739,-1532.190996
561.705940,-962.267725,-8586.388927,-1915.238745
561.706268,666.185348,-7624.121203,-612.876398
561.706595,2590.720797,-7402.059420,689.485948
561.706923,3627.009116,-8142.265362,2068.457845
561.707250,1998.556043,-9548.656652,1838.629195
561.707578,888.247130,-9622.677246,1378.971896
561.707906,-814.226536,-10288.862594,689.485948
561.708233,-2590.720797,-11621.233289,306.438199
561.708561,-2368.659014,-10881.027347,229.828649
561.708888,-296.082377,-9104.533087,1532.190996
561.709216,444.123565,-9030.512492,1685.410096
561.709543,296.082377,-9474.636058,1685.410096
561.709871,-592.164754,-8956.491898,1225.752797
561.710199,-1480.411884,-7476.080014,76.609550
561.710526,-1110.308913,-9030.512492,-766.095498
561.710854,-2368.659014,-9326.594869,-995.924147
561.711181,-1554.432478,-8364.327145,-459.657299
561.711509,-222.061783,-7920.203579,306.438199
561.711836,518.144159,-8068.244768,1072.533697
561.712164,296.082377,-8808.450710,1838.629195
561.712492,-666.185348,-9400.615463,1608.800546
561.712819,-1480.411884,-9918.759623,1072.533697
561.713147,-2664.741391,-11695.253884,766.095498
561.713474,-3330.926739,-10955.047942,536.266849
561.713802,-1998.556043,-9326.594869,1532.190996
561.714129,0.000000,-8586.388927,1225.752797
561.714457,444.123565,-9252.574275,1225.752797
561.714785,370.102971,-9178.553681,1149.143247
561.715112,444.123565,-8660.409521,383.047749
561.715440,0.000000,-8882.471304,0.000000
561.715767,-962.267725,-9696.697840,0.000000
561.716095,-222.061783,-9548.656652,0.000000
561.716422,1110.308913,-9178.553681,383.047749
561.716750,1332.370696,-9622.677246,1455.581446
561.717078,592.164754,-10288.862594,1608.800546
561.717405,148.041188,-9622.677246,1149.143247
561.717733,-444.123565,-9770.718434,1225.752797
561.718060,-740.205942,-10658.965565,995.924147
561.718388,-1406.391290,-9844.739029,383.047749
561.718715,74.020594,-8660.409521,1072.533697
561.719043,444.123565,-7846.182985,842.705048
561.719371,666.185348,-8216.285956,1378.971896
561.719698,0.000000,-7624.121203,153.219100
561.720026,222.061783,-7254.018232,0.000000
561.720353,-444.123565,-8438.347739,-536.266849
561.720681,-1258.350101,-8734.430116,-229.828649
561.721008,-1184.329507,-8734.430116,0.000000
561.721336,222.061783,-7846.182985,612.876398
561.721664,1110.308913,-9326.594869,1302.362347
561.721991,0.000000,-9770.718434,1072.533697
561.722319,-444.123565,-9770.718434,1302.362347
561.722646,-1406.391290,-9400.615463,383.047749
561.722974,-1776.494261,-10140.821405,153.219100
561.723301,-2294.638420,-9548.656652,-153.219100
561.723629,-814.226536,-8512.368333,229.828649
561.723957,0.000000,-7846.182985,459.657299
561.724284,518.144159,-8512.368333,612.876398
561.724612,-592.164754,-8142.265362,229.828649
561.724939,0.000000,-7920.203579,306.438199
561.725267,-222.061783,-8882.471304,-153.219100
561.725594,-296.082377,-9770.718434,76.609550
561.725922,296.082377,-9622.677246,153.219100
561.726250,1184.329507,-8808.450710,1149.143247
561.726577,814.226536,-9474.636058,1455.581446
561.726905,0.000000,-9844.739029,1455.581446
561.727232,-444.123565,-9844.739029,536.266849
561.727560,-1110.308913,-9178.553681,229.828649
561.727887,-1332.370696,-9622.677246,-153.219100
561.728215,-1998.556043,-9548.656652,-306.438199
561.728543,222.061783,-8734.430116,383.047749
561.728870,666.185348,-8216.285956,842.705048
561.729198,814.226536,-8808.450710,1302.362347
561.729525,148.041188,-9252.574275,459.657299
561.729853,0.000000,-8956.491898,459.657299
561.730180,-1110.308913,-9252.574275,-229.828649
561.730508,-1184.329507,-10510.924376,0.000000
561.730836,-666.185348,-9474.636058,612.876398
561.731163,1702.473667,-8882.471304,1608.800546
561.731491,1628.453072,-9030.512492,2145.067394
561.731818,592.164754,-9400.615463,1532.190996
561.732146,-444.123565,-9474.636058,1302.362347
561.732473,-1332.370696,-9178.553681,536.266849
561.732801,-1998.556043,-9918.759623,0.000000
561.733129,-2664.741391,-9548.656652,-153.219100
561.733456,-740.205942,-8438.347739,153.219100
561.733784,296.082377,-7994.224174,612.876398
561.734111,1258.350101,-8586.388927,1608.800546
561.734439,74.020594,-8586.388927,919.314598
561.734766,0.000000,-9104.533087,1149.143247
561.735094,-1332.370696,-9548.656652,153.219100
561.735422,-2368.659014,-10807.006753,0.000000
561.735749,-1480.411884,-10066.800811,153.219100
561.736077,296.082377,-8956.491898,1532.190996
561.736404,1406.391290,-9252.574275,1685.410096
561.736732,1036.288319,-9252.574275,1915.238745
561.737059,592.164754,-8956.491898,1608.800546
561.737387,-296.082377,-8808.450710,689.485948
561.737715,-1924.535449,-9474.636058,76.609550
561.738042,-2960.823768,-9770.718434,-383.047749
561.738370,-1554.432478,-8512.368333,-229.828649
561.738697,74.020594,-7698.141797,229.828649
561.739025,1406.391290,-8290.306550,995.924147
561.739352,1110.308913,-8660.409521,995.924147
561.739680,1332.370696,-8068.244768,536.266849
561.740008,-370.102971,-8956.491898,0.000000
561.740335,-1850.514855,-10288.862594,-459.657299
561.740663,-1998.556043,-10436.903782,-306.438199
561.740990,-148.041188,-8956.491898,76.609550
561.741318,1406.391290,-8512.368333,76.609550
561.741645,1036.288319,-8734.430116,1072.533697
561.741973,592.164754,-9252.574275,1149.143247
561.742301,0.000000,-8364.327145,536.266849
561.742628,-1258.350101,-9178.553681,-459.657299
561.742956,-2368.659014,-10214.842000,-536.266849
561.743283,-1258.350101,-9030.512492,-995.924147
561.743611,222.061783,-8290.306550,-306.438199
561.743938,1406.391290,-8586.388927,536.266849
561.744266,1554.432478,-9030.512492,995.924147
561.744594,1554.432478,-8216.285956,1302.362347
561.744921,814.226536,-8586.388927,383.047749
561.745249,-444.123565,-9474.636058,0.000000
561.745576,-370.102971,-9326.594869,306.438199
561.745904,444.123565,-8586.388927,842.705048
561.746232,962.267725,-8290.306550,1685.410096
561.746559,1480.411884,-9252.574275,2221.676944
561.746887,74.020594,-9030.512492,1991.848295
561.747214,-740.205942,-8882.471304,1225.752797
561.747542,-1776.494261,-9622.677246,229.828649
561.747870,-3034.844362,-10288.862594,0.000000
561.748197,-2072.576638,-8734.430116,153.219100
561.748525,-1036.288319,-7920.203579,153.219100
561.748852,-370.102971,-8956.491898,459.657299
561.749180,-592.164754,-9326.594869,612.876398
561.749508,-518.144159,-8734.430116,612.876398
561.749835,-1036.288319,-8142.265362,153.219100
561.750163,-1258.350101,-8882.471304,0.000000
561.750490,-1258.350101,-9252.574275,459.657299
561.750818,444.123565,-8290.306550,1302.362347
561.751146,962.267725,-8438.347739,1838.629195
561.751473,222.061783,-8882.471304,1915.238745
561.751801,-888.247130,-8956.491898,1608.800546
561.752129,-1628.453072,-8882.471304,1149.143247
561.752456,-2294.638420,-9548.656652,153.219100
561.752784,-2442.679609,-10288.862594,0.000000
561.753111,-1332.370696,-9104.533087,76.609550
561.753439,222.061783,-7846.182985,383.047749
561.753767,1332.370696,-8734.430116,689.485948
561.754094,740.205942,-9104.533087,306.438199
561.754422,444.123565,-8808.450710,76.609550
561.754749,0.000000,-8586.388927,-459.657299
561.755077,370.102971,-9400.615463,459.657299
561.755405,296.082377,-9326.594869,229.828649
561.755732,1998.556043,-9474.636058,1838.629195
561.756060,1998.556043,-9400.615463,2604.724693
561.756388,814.226536,-10362.883188,2757.943793
561.756715,-814.226536,-10140.821405,2221.676944
561.757043,-1850.514855,-9474.636058,1072.533697
561.757370,-2442.679609,-9400.615463,-229.828649
561.757698,-2590.720797,-9918.759623,-306.438199
561.758026,-1776.494261,-8586.388927,-153.219100
561.758353,148.041188,-7179.997637,76.609550
561.758681,1110.308913,-7179.997637,0.000000
561.759008,148.041188,-7994.224174,0.000000
561.759336,-888.247130,-8290.306550,-689.485948
561.759664,-1036.288319,-8660.409521,-1225.752797
561.759991,-888.247130,-9178.553681,-689.485948
561.760319,-740.205942,-9030.512492,0.000000
561.760647,1258.350101,-9178.553681,1762.019645
561.760974,2146.597232,-9326.594869,2528.115143
561.761302,1332.370696,-9992.780217,2681.334243
561.761629,-814.226536,-10436.903782,2145.067394
561.761957,-1776.494261,-10436.903782,1225.752797
561.762285,-3034.844362,-10732.986159,-612.876398
561.762612,-3330.926739,-11473.192101,-766.095498
561.762940,-2220.617826,-9918.759623,-842.705048
561.763267,222.061783,-8438.347739,0.000000
561.763595,2072.576638,-7920.203579,459.657299
561.763923,2072.576638,-8364.327145,459.657299
561.764250,1480.411884,-8364.327145,-229.828649
561.764578,518.144159,-8290.306550,-919.314598
561.764905,222.061783,-9474.636058,-689.485948
561.765233,-370.102971,-9326.594869,-306.438199
561.765561,1924.535449,-8586.388927,1072.533697
561.765888,3256.906145,-8956.491898,3064.381992
561.766216,3404.947333,-9844.739029,4749.792088
561.766544,2220.617826,-9770.718434,4826.401637
561.766871,148.041188,-9918.759623,3983.696590
561.767199,-1628.453072,-10510.924376,2451.505594
561.767526,-3404.947333,-10955.047942,1532.190996
561.767854,-4367.215058,-10140.821405,1225.752797
561.768182,-1480.411884,-8438.347739,1378.971896
561.768509,888.247130,-7328.038826,2298.286494
561.768837,1480.411884,-7031.956449,2987.772442
561.769164,1110.308913,-7328.038826,2374.896044
561.769492,740.205942,-7254.018232,1991.848295
561.769820,-1184.329507,-8216.285956,1455.581446
561.770147,-3182.885551,-9474.636058,1225.752797
561.770475,-2886.803174,-9400.615463,2221.676944
561.770803,-1184.329507,-8882.471304,3677.258390
561.771130,0.000000,-9030.512492,4826.401637
561.771458,-592.164754,-9104.533087,5515.887586
561.771785,-1184.329507,-8956.491898,5056.230287
561.772113,-1998.556043,-8882.471304,3830.477490
561.772441,-3627.009116,-9252.574275,2604.724693
561.772768,-4959.379811,-9030.512492,1608.800546
561.773096,-3552.988522,-8068.244768,1072.533697
561.773423,296.082377,-6661.853478,2068.457845
561.773751,3330.926739,-6069.688724,2987.772442
561.774079,4367.215058,-6365.771101,3524.039291
561.774406,4071.132681,-7476.080014,3524.039291
561.774734,2590.720797,-8512.368333,3140.991542
561.775062,518.144159,-9992.780217,2757.943793
561.775389,-1702.473667,-10955.047942,2298.286494
561.775717,-1036.288319,-11029.068536,2757.943793
561.776044,666.185348,-10214.842000,3830.477490
561.776372,2442.679609,-9844.739029,5822.325785
561.776700,2590.720797,-9992.780217,6281.983084
561.777027,1406.391290,-9918.759623,5362.668486
561.777355,-592.164754,-9918.759623,4903.011187
561.777682,-2590.720797,-9400.615463,3524.039291
561.778010,-3108.864956,-9474.636058,2068.457845
561.778338,-3627.009116,-8660.409521,1302.362347
561.778665,-2146.597232,-8290.306550,1608.800546
561.778993,-444.123565,-7254.018232,2374.896044
561.779320,740.205942,-6365.771101,3370.820191
561.779648,222.061783,-7846.182985,2451.505594
561.779976,-2590.720797,-9918.759623,1608.800546
561.780303,-5255.462188,-11177.109724,306.438199
561.780631,-6069.688724,-11251.130318,76.609550
561.780959,-4071.132681,-10436.903782,536.266849
561.781286,-1332.370696,-9918.759623,1685.410096
561.781614,1406.391290,-9918.759623,3140.991542
561.781941,3923.091493,-9104.533087,4443.353888
561.782269,5403.503377,-8364.327145,5362.668486
561.782597,4737.318029,-8956.491898,5515.887586
561.782924,3034.844362,-9992.780217,4903.011187
561.783252,740.205942,-11769.274478,3677.258390
561.783579,814.226536,-11547.212695,3753.867940
561.783907,2220.617826,-10362.883188,4213.525239
561.784235,4219.173869,-9548.656652,4826.401637
561.784562,4589.276840,-9992.780217,5439.278036
561.784890,3849.070898,-10881.027347,5975.544884
561.785218,1702.473667,-10140.821405,5362.668486
561.785545,-222.061783,-9474.636058,4519.963438
561.785873,-666.185348,-9918.759623,3600.648841
561.786200,-1702.473667,-10732.986159,2451.505594
561.786528,-4663.297435,-10658.965565,2757.943793
561.786856,-5329.482782,-10066.800811,2451.505594
561.787183,-5107.421000,-8364.327145,2604.724693
561.787511,-3552.988522,-7105.977043,2757.943793
561.787838,-2294.638420,-6735.874072,2604.724693
561.788166,-3478.967927,-7105.977043,2528.115143
561.788494,-4589.276840,-7402.059420,1378.971896
561.788821,-4811.338623,-7105.977043,995.924147
561.789149,-3034.844362,-6587.832884,1455.581446
561.789477,518.144159,-6809.894666,2987.772442
561.789804,2960.823768,-7402.059420,4443.353888
561.790132,2886.803174,-9030.512492,4903.011187
561.790459,1184.329507,-10214.842000,4903.011187
561.790787,148.041188,-10140.821405,4519.963438
561.791115,888.247130,-9918.759623,4290.134789
561.791442,2294.638420,-9252.574275,4366.744339
561.791770,3627.009116,-10066.800811,4213.525239
561.792097,3256.906145,-10658.965565,4519.963438
561.792425,2220.617826,-10362.883188,4290.134789
561.792753,1924.535449,-9178.553681,4136.915689
561.793080,2664.741391,-8068.244768,4136.915689
561.793408,2368.659014,-7920.203579,3447.429741
561.793736,2516.700203,-8660.409521,3677.258390
561.794063,0.000000,-8808.450710,3370.820191
561.794391,-3256.906145,-9104.533087,2987.772442
561.794718,-4367.215058,-8808.450710,1838.629195
561.795046,-4441.235652,-8364.327145,1608.800546
561.795374,-3701.029710,-8734.430116,1455.581446
561.795701,-1258.350101,-7846.182985,2221.676944
561.796029,-1110.308913,-7624.121203,2757.943793
561.796356,-1480.411884,-7031.956449,3064.381992
561.796684,-2146.597232,-7624.121203,2451.505594
561.797012,-3478.967927,-7994.224174,1302.362347
561.797339,-2590.720797,-8068.244768,383.047749
561.797667,-888.247130,-8142.265362,1072.533697
561.797994,1406.391290,-7476.080014,2298.286494
561.798322,3256.906145,-8142.265362,3830.477490
561.798650,4071.132681,-9030.512492,5439.278036
561.798977,3552.988522,-10807.006753,5132.839837
561.799305,1776.494261,-11843.295072,4443.353888
561.799633,-296.082377,-12583.501014,3600.648841
561.799960,-1258.350101,-12435.459826,2834.553343
561.800288,-444.123565,-11547.212695,3677.258390
561.800615,2072.576638,-10584.944971,4826.401637
561.800943,4367.215058,-9696.697840,5822.325785
561.801271,4071.132681,-9770.718434,6205.373534
561.801598,2294.638420,-9696.697840,5592.497135
561.801926,-1628.453072,-9326.594869,3370.820191
561.802253,-5255.462188,-9918.759623,2374.896044
561.802581,-4663.297435,-9548.656652,1302.362347
561.802909,-3330.926739,-9104.533087,2145.067394
561.803236,-814.226536,-7476.080014,3447.429741
561.803564,1110.308913,-6587.832884,5056.230287
561.803892,1110.308913,-7105.977043,5822.325785
561.804219,-592.164754,-7550.100608,5286.058936
561.804547,-2590.720797,-9104.533087,3983.696590
561.804874,-4441.235652,-10140.821405,2451.505594
561.805202,-5033.400406,-10362.883188,1378.971896
561.805530,-4515.256246,-10510.924376,1685.410096
561.805857,-2590.720797,-9474.636058,2451.505594
561.806185,74.020594,-8586.388927,3524.039291
561.806512,2072.576638,-7994.224174,4213.525239
561.806840,2368.659014,-7920.203579,3677.258390
561.807168,1924.535449,-8586.388927,3294.210641
561.807495,592.164754,-9252.574275,2757.943793
561.807823,-222.061783,-10214.842000,2451.505594
561.808151,-222.061783,-10362.883188,2528.115143
561.808478,370.102971,-10362.883188,2911.162892
561.808806,1110.308913,-9844.739029,3907.087040
561.809133,1110.308913,-9548.656652,4213.525239
561.809461,962.267725,-9178.553681,4290.134789
561.809789,592.164754,-8956.491898,3677.258390
561.810116,962.267725,-8660.409521,3140.991542
561.810444,814.226536,-8364.327145,2681.334243
561.810771,814.226536,-7846.182985,2834.553343
561.811099,1998.556043,-7105.977043,2987.772442
561.811427,1850.514855,-7402.059420,3907.087040
561.811754,1924.535449,-7698.141797,4213.525239
561.812082,1628.453072,-7994.224174,4060.306139
561.812409,0.000000,-9104.533087,3830.477490
561.812737,-1110.308913,-9770.718434,3524.039291
561.813065,-2072.576638,-9918.759623,3370.820191
561.813392,-1998.556043,-9992.780217,2834.553343
561.813720,-1480.411884,-9844.739029,3064.381992
561.814048,-1110.308913,-9104.533087,3294.210641
561.814375,-740.205942,-8882.471304,2911.162892
561.814703,-592.164754,-8438.347739,2911.162892
561.815030,-962.267725,-8142.265362,2604.724693
561.815358,-1258.350101,-8068.244768,2221.676944
561.815686,-1924.535449,-7994.224174,2221.676944
561.816013,-2072.576638,-8142.265362,2374.896044
561.816341,-1258.350101,-8290.306550,2911.162892
561.816668,-740.205942,-8068.244768,2757.943793
561.816996,222.061783,-8660.409521,4366.744339
561.817324,814.226536,-9326.594869,3600.648841
561.817651,74.020594,-9548.656652,3447.429741
561.817979,-222.061783,-10140.821405,3677.258390
561.818307,-962.267725,-9770.718434,3370.820191
561.818634,-888.247130,-9844.739029,3370.820191
561.818962,0.000000,-9548.656652,3294.210641
561.819289,1110.308913,-9030.512492,3447.429741
561.819617,1628.453072,-9252.574275,3064.381992
561.819945,1406.391290,-9548.656652,2911.162892
561.820272,814.226536,-9770.718434,2757.943793
561.820600,148.041188,-10214.842000,2681.334243
561.820927,-518.144159,-10732.986159,2374.896044
561.821255,-592.164754,-10584.944971,2298.286494
561.821583,-370.102971,-10214.842000,2374.896044
561.821910,-518.144159,-9918.759623,2221.676944
561.822238,-296.082377,-9770.718434,2757.943793
561.822566,-1036.288319,-9474.636058,2145.067394
561.822893,-1628.453072,-9400.615463,1838.629195
561.823221,-1406.391290,-9252.574275,1685.410096
561.823548,-1702.473667,-8734.430116,1302.362347
561.823876,-518.144159,-8142.265362,1455.581446
561.824204,222.061783,-7476.080014,1455.581446
561.824531,74.020594,-7698.141797,1302.362347
561.824859,370.102971,-7994.224174,1378.971896
561.825186,0.000000,-8364.327145,1378.971896
561.825514,-444.123565,-8882.471304,1149.143247
561.825842,-222.061783,-9474.636058,1762.019645
561.826169,-296.082377,-9918.759623,1608.800546
561.826497,518.144159,-10510.924376,1685.410096
561.826824,1036.288319,-10288.862594,2068.457845
561.827152,1480.411884,-10362.883188,2145.067394
561.827480,1258.350101,-9844.739029,2374.896044
561.827807,444.123565,-9622.677246,1762.019645
561.828135,0.000000,-9548.656652,1149.143247
561.828463,-592.164754,-9400.615463,995.924147
561.828790,-222.061783,-9104.533087,842.705048
561.829118,-222.061783,-8734.430116,689.485948
561.829445,0.000000,-8734.430116,842.705048
561.829773,148.041188,-8586.388927,842.705048
561.830101,0.000000,-8142.265362,919.314598
561.830428,-592.164754,-8216.285956,536.266849
561.830756,-740.205942,-7920.203579,383.047749
561.831083,-592.164754,-8216.285956,229.828649
561.831411,-740.205942,-7846.182985,306.438199
561.831739,-814.226536,-8364.327145,536.266849
561.832066,-666.185348,-8586.388927,536.266849
561.832394,-222.061783,-8734.430116,919.314598
561.832722,0.000000,-8882.471304,689.485948
561.833049,-222.061783,-8586.388927,1149.143247
561.833377,0.000000,-8734.430116,612.876398
561.833704,148.041188,-8882.471304,383.047749
561.834032,74.020594,-8956.491898,459.657299
561.834360,-222.061783,-8660.409521,766.095498
561.834687,-222.061783,-8956.491898,919.314598
561.835015,0.000000,-9696.697840,1072.533697
561.835342,-222.061783,-9622.677246,1149.143247
561.835670,-296.082377,-9622.677246,1072.533697
561.835998,0.000000,-9326.594869,1149.143247
561.836325,-518.144159,-9104.533087,1225.752797
561.836653,-222.061783,-9178.553681,689.485948
561.836981,-296.082377,-8586.388927,459.657299
561.837308,-444.123565,-8734.430116,919.314598
561.837636,-370.102971,-8808.450710,842.705048
561.837963,-444.123565,-8586.388927,1378.971896
561.838291,-1036.288319,-8808.450710,919.314598
561.838619,-1258.350101,-8734.430116,536.266849
561.838946,-1036.288319,-9178.553681,842.705048
561.839274,-888.247130,-9252.574275,612.876398
561.839601,-666.185348,-9252.574275,842.705048
561.839929,0.000000,-9252.574275,612.876398
561.840257,0.000000,-9474.636058,766.095498
561.840584,0.000000,-9474.636058,612.876398
561.840912,-222.061783,-9696.697840,536.266849
561.841240,0.000000,-9622.677246,459.657299
561.841567,-296.082377,-9918.759623,766.095498
561.841895,-518.144159,-10214.842000,536.266849
561.842222,-296.082377,-10436.903782,766.095498
561.842550,-222.061783,-9770.718434,536.266849
561.842878,74.020594,-9400.615463,842.705048
561.843205,518.144159,-9252.574275,995.924147
561.843533,370.102971,-9178.553681,612.876398
561.843860,222.061783,-9104.533087,612.876398
561.844188,0.000000,-9326.594869,383.047749
561.844516,-222.061783,-9178.553681,536.266849
561.844843,296.082377,-9400.615463,766.095498
561.845170,0.000000,-9252.574275,689.485948
561.845498,0.000000,-9104.533087,689.485948
561.845825,0.000000,-9104.533087,612.876398
561.846153,74.020594,-8956.491898,612.876398
561.846480,0.000000,-8290.306550,459.657299
561.846808,0.000000,-8734.430116,0.000000
561.847135,-222.061783,-8734.430116,459.657299
561.847463,-370.102971,-8956.491898,229.828649
561.847790,-666.185348,-9030.512492,383.047749
561.848118,-666.185348,-8882.471304,0.000000
561.848445,-888.247130,-8956.491898,229.828649
561.848773,-592.164754,-9178.553681,306.438199
561.849100,-592.164754,-8734.430116,306.438199
561.849428,-518.144159,-8438.347739,153.219100
561.849755,-74.020594,-8290.306550,76.609550
561.850083,-296.082377,-8512.368333,766.095498
561.850410,-296.082377,-8290.306550,612.876398
561.850738,-740.205942,-8438.347739,612.876398
561.851065,-740.205942,-8808.450710,842.705048
561.851392,-1036.288319,-9104.533087,766.095498
561.851720,-888.247130,-9030.512492,459.657299
561.852047,-444.123565,-8808.450710,842.705048
561.852375,-666.185348,-8586.388927,689.485948
561.852702,-296.082377,-8586.388927,459.657299
561.853030,0.000000,-9030.512492,229.828649
561.853357,0.000000,-8882.471304,689.485948
561.853685,148.041188,-9104.533087,842.705048
561.854012,-296.082377,-9474.636058,766.095498
561.854340,-592.164754,-9474.636058,689.485948
561.854667,-296.082377,-9844.739029,766.095498
561.854995,-370.102971,-9622.677246,689.485948
561.855322,-222.061783,-9104.533087,842.705048
561.855650,148.041188,-9104.533087,383.047749
561.855977,0.000000,-9326.594869,229.828649
561.856305,-296.082377,-9030.512492,229.828649
561.856632,-370.102971,-9326.594869,842.705048
561.856960,-296.082377,-9030.512492,842.705048
561.857287,-222.061783,-9326.594869,153.219100
561.857615,-592.164754,-9252.574275,459.657299
561.857942,-666.185348,-9178.553681,306.438199
561.858269,-370.102971,-8956.491898,383.047749
561.858597,370.102971,-8660.409521,536.266849
561.858924,-222.061783,-8364.327145,306.438199
561.859252,-148.041188,-9252.574275,306.438199
561.859579,-222.061783,-9400.615463,536.266849
561.859907,-296.082377,-9548.656652,612.876398
561.860234,-296.082377,-9474.636058,842.705048
561.860562,-222.061783,-9548.656652,1225.752797
561.860889,-296.082377,-9918.759623,842.705048
561.861217,-148.041188,-9696.697840,766.095498
561.861544,-296.082377,-9030.512492,612.876398
561.861872,-444.123565,-8882.471304,383.047749
561.862199,-962.267725,-8586.388927,995.924147
561.862527,-1258.350101,-9030.512492,383.047749
561.862854,-1406.391290,-8882.471304,612.876398
561.863182,-1036.288319,-8808.450710,612.876398
561.863509,-962.267725,-8882.471304,919.314598
561.863837,-222.061783,-8808.450710,842.705048
561.864164,0.000000,-8586.388927,612.876398
561.864492,296.082377,-8512.368333,689.485948
561.864819,518.144159,-8364.327145,689.485948
561.865146,370.102971,-8660.409521,383.047749
561.865474,0.000000,-9474.636058,995.924147
561.865801,-222.061783,-9548.656652,919.314598
561.866129,-370.102971,-9770.718434,995.924147
561.866456,0.000000,-10140.821405,1072.533697
561.866784,0.000000,-9474.636058,842.705048
561.867111,592.164754,-9178.553681,689.485948
561.867439,1036.288319,-8364.327145,842.705048
561.867766,666.185348,-8142.265362,76.609550
561.868094,370.102971,-7994.224174,0.000000
561.868421,0.000000,-8364.327145,0.000000
561.868749,-592.164754,-8660.409521,229.828649
561.869076,-444.123565,-9400.615463,76.609550
561.869404,-444.123565,-9474.636058,229.828649
561.869731,-370.102971,-9548.656652,459.657299
561.870059,-370.102971,-9104.533087,0.000000
561.870386,74.020594,-8882.471304,76.609550
561.870714,0.000000,-7846.182985,153.219100
561.871041,444.123565,-8142.265362,0.000000
561.871369,0.000000,-8512.368333,0.000000
561.871696,-222.061783,-8956.491898,229.828649
561.872023,-740.205942,-9400.615463,459.657299
561.872351,-592.164754,-9400.615463,153.219100
561.872678,-740.205942,-9770.718434,536.266849
561.873006,-592.164754,-9474.636058,153.219100
561.873333,-148.041188,-9252.574275,153.219100
561.873661,74.020594,-8882.471304,153.219100
561.873988,518.144159,-8808.450710,153.219100
561.874316,296.082377,-8808.450710,383.047749
561.874643,444.123565,-9252.574275,459.657299
561.874971,0.000000,-9770.718434,1072.533697
561.875298,-222.061783,-10140.821405,1072.533697
561.875626,-740.205942,-10140.821405,1072.533697
561.875953,-592.164754,-9844.739029,766.095498
561.876281,-370.102971,-9548.656652,1072.533697
561.876608,-370.102971,-9030.512492,459.657299
561.876936,-296.082377,-8660.409521,536.266849
561.877263,-370.102971,-8734.430116,612.876398
561.877591,-518.144159,-8882.471304,842.705048
561.877918,-888.247130,-9104.533087,459.657299
561.878246,-740.205942,-9474.636058,766.095498
561.878573,-962.267725,-9474.636058,842.705048
561.878900,-962.267725,-9474.636058,689.485948
561.879228,-370.102971,-9474.636058,1149.143247
561.879555,-370.102971,-8882.471304,612.876398
561.879883,-370.102971,-9030.512492,612.876398
561.880210,-222.061783,-9326.594869,612.876398
561.880538,-518.144159,-9400.615463,612.876398
561.880865,-592.164754,-9400.615463,689.485948
561.881193,-592.164754,-9474.636058,1302.362347
561.881520,-666.185348,-9696.697840,1072.533697
561.881848,-666.185348,-9548.656652,536.266849
561.882175,-370.102971,-9326.594869,536.266849
561.882503,-740.205942,-8734.430116,306.438199
561.882830,0.000000,-8216.285956,1302.362347
561.883158,-222.061783,-8586.388927,0.000000
561.883485,-296.082377,-8660.409521,383.047749
561.883813,-148.041188,-8882.471304,612.876398
561.884140,-222.061783,-8956.491898,612.876398
561.884468,-518.144159,-8956.491898,1302.362347
561.884795,148.041188,-9474.636058,1072.533697
561.885123,-296.082377,-9178.553681,383.047749
561.885450,74.020594,-9178.553681,689.485948
561.885777,0.000000,-9178.553681,383.047749
561.886105,0.000000,-8660.409521,306.438199
561.886432,0.000000,-8734.430116,536.266849
561.886760,0.000000,-8882.471304,612.876398
561.887087,-444.123565,-8956.491898,842.705048
561.887415,-444.123565,-8956.491898,536.266849
561.887742,-222.061783,-8808.450710,459.657299
561.888070,-222.061783,-8438.347739,612.876398
561.888397,-296.082377,-8364.327145,383.047749
561.888725,-222.061783,-8586.388927,459.657299
561.889052,-222.061783,-8734.430116,383.047749
561.889380,0.000000,-8882.471304,689.485948
561.889707,0.000000,-8586.388927,1149.143247
561.890035,74.020594,-9030.512492,612.876398
561.890362,-222.061783,-9400.615463,919.314598
561.890690,0.000000,-9252.574275,919.314598
561.891017,-222.061783,-9252.574275,536.266849
561.891345,-444.123565,-9030.512492,995.924147
561.891672,0.000000,-8956.491898,383.047749
561.892000,-296.082377,-9030.512492,153.219100
561.892327,0.000000,-8882.471304,383.047749
561.892654,-148.041188,-8734.430116,459.657299
561.892982,-296.082377,-8882.471304,306.438199
561.893309,222.061783,-9252.574275,229.828649
561.893637,-518.144159,-9104.533087,306.438199
561.893964,-296.082377,-9104.533087,306.438199
561.894292,0.000000,-9400.615463,459.657299
561.894619,-370.102971,-9622.677246,383.047749
561.894947,-666.185348,-9474.636058,842.705048
561.895274,74.020594,-9474.636058,919.314598
561.895602,74.020594,-9474.636058,383.047749
561.895929,148.041188,-9474.636058,766.095498
561.896257,148.041188,-9474.636058,612.876398
561.896584,148.041188,-9252.574275,459.657299
561.896912,0.000000,-9474.636058,459.657299
561.897239,0.000000,-9326.594869,459.657299
561.897567,0.000000,-9400.615463,306.438199
561.897894,0.000000,-9474.636058,612.876398
561.898222,-370.102971,-9252.574275,383.047749
561.898549,222.061783,-9326.594869,153.219100
561.898876,0.000000,-9400.615463,536.266849
561.899204,0.000000,-9474.636058,919.314598
561.899531,0.000000,-9178.553681,612.876398
561.899859,-148.041188,-9178.553681,689.485948
561.900186,74.020594,-9474.636058,766.095498
561.900514,-296.082377,-9474.636058,612.876398
561.900841,-296.082377,-9400.615463,766.095498
561.901169,-592.164754,-9252.574275,842.705048
561.901496,-740.205942,-9326.594869,766.095498
561.901824,-592.164754,-9326.594869,383.047749
561.902151,-814.226536,-8734.430116,612.876398
561.902479,-592.164754,-8734.430116,459.657299
561.902806,-518.144159,-8586.388927,536.266849
561.903134,-666.185348,-8956.491898,689.485948
561.903461,-962.267725,-8290.306550,766.095498
561.903789,0.000000,-8808.450710,995.924147
561.904116,-222.061783,-8956.491898,612.876398
561.904444,-222.061783,-9178.553681,612.876398
561.904771,0.000000,-9400.615463,612.876398
561.905099,0.000000,-9178.553681,689.485948
561.905426,-370.102971,-8586.388927,842.705048
561.905753,0.000000,-9474.636058,919.314598
561.906081,0.000000,-9474.636058,766.095498
561.906408,-296.082377,-9104.533087,689.485948
561.906736,-222.061783,-9104.533087,766.095498
561.907063,0.000000,-8808.450710,766.095498
561.907391,-148.041188,-9030.512492,383.047749
561.907718,-148.041188,-9104.533087,459.657299
561.908046,0.000000,-8734.430116,76.609550
561.908373,-148.041188,-8660.409521,0.000000
561.908701,0.000000,-8882.471304,1149.143247
561.909028,0.000000,-9104.533087,306.438199
561.909356,-296.082377,-9030.512492,536.266849
561.909683,0.000000,-9178.553681,536.266849
561.910011,0.000000,-9400.615463,612.876398
561.910338,148.041188,-9326.594869,919.314598
561.910666,-370.102971,-9474.636058,612.876398
561.910993,-370.102971,-9326.594869,612.876398
561.911321,-222.061783,-9400.615463,536.266849
561.911648,-518.144159,-9622.677246,689.485948
561.911976,-444.123565,-9104.533087,536.266849
561.912303,-370.102971,-8956.491898,0.000000
561.912630,-592.164754,-9104.533087,306.438199
561.912958,-666.185348,-8882.471304,766.095498
561.913285,-666.185348,-8882.471304,689.485948
561.913613,-740.205942,-8660.409521,612.876398
561.913940,-444.123565,-8586.388927,612.876398
561.914268,-666.185348,-8882.471304,612.876398
561.914595,-666.185348,-8882.471304,842.705048
561.914923,-592.164754,-9178.553681,689.485948
561.915250,-370.102971,-9326.594869,842.705048
561.915578,-370.102971,-9400.615463,612.876398
561.915905,-592.164754,-9104.533087,766.095498
561.916233,-592.164754,-9178.553681,536.266849
561.916560,-740.205942,-8956.491898,612.876398
561.916888,-814.226536,-8808.450710,459.657299
561.917215,-1036.288319,-8734.430116,536.266849
561.917543,-370.102971,-8586.388927,229.828649
561.917870,-666.185348,-8882.471304,383.047749
561.918198,-592.164754,-8882.471304,153.219100
561.918525,-222.061783,-8734.430116,306.438199
561.918853,-370.102971,-8660.409521,383.047749
561.919180,-222.061783,-8734.430116,612.876398
561.919507,0.000000,-9252.574275,459.657299
561.919835,0.000000,-9030.512492,383.047749
561.920162,0.000000,-9326.594869,612.876398
561.920490,0.000000,-9326.594869,612.876398
561.920817,74.020594,-8956.491898,383.047749
561.921145,0.000000,-9252.574275,536.266849
561.921472,-296.082377,-9178.553681,689.485948
561.921800,-370.102971,-8882.471304,766.095498
561.922127,-444.123565,-8956.491898,459.657299
561.922455,0.000000,-8660.409521,0.000000
561.922782,-518.144159,-8660.409521,459.657299
561.923110,-148.041188,-8660.409521,383.047749
561.923437,-222.061783,-8808.450710,459.657299
561.923765,0.000000,-8956.491898,842.705048
561.924092,-148.041188,-9030.512492,689.485948
561.924420,-296.082377,-8808.450710,766.095498
561.924747,0.000000,-9474.636058,766.095498
561.925075,148.041188,-9252.574275,995.924147
561.925402,0.000000,-9400.615463,842.705048
561.925730,0.000000,-9178.553681,689.485948
561.926057,0.000000,-9326.594869,842.705048
561.926384,0.000000,-9326.594869,766.095498
561.926712,0.000000,-9474.636058,842.705048
561.927039,-370.102971,-9326.594869,612.876398
561.927367,-296.082377,-9178.553681,612.876398
561.927694,0.000000,-9104.533087,689.485948
561.928022,0.000000,-9178.553681,153.219100
561.928349,-296.082377,-9178.553681,306.438199
561.928677,-148.041188,-9400.615463,306.438199
561.929004,0.000000,-9104.533087,459.657299
561.929332,444.123565,-9400.615463,-153.219100
561.929659,0.000000,-9622.677246,536.266849
561.929987,222.061783,-9696.697840,689.485948
561.930314,148.041188,-9622.677246,383.047749
561.930642,0.000000,-9622.677246,536.266849
561.930969,0.000000,-9696.697840,919.314598
561.931297,-370.102971,-9326.594869,842.705048
561.931624,0.000000,-9622.677246,689.485948
561.931952,-296.082377,-9326.594869,459.657299
561.932279,-370.102971,-9252.574275,459.657299
561.932607,-370.102971,-8956.491898,919.314598
561.932934,0.000000,-8512.368333,612.876398
561.933261,-296.082377,-8956.491898,383.047749
561.933589,-370.102971,-8882.471304,612.876398
561.933916,-444.123565,-9178.553681,612.876398
561.934244,-444.123565,-9252.574275,536.266849
561.934571,-370.102971,-9030.512492,842.705048
561.934899,-296.082377,-9326.594869,766.095498
561.935226,-592.164754,-9178.553681,689.485948
561.935554,-444.123565,-9326.594869,689.485948
561.935881,-370.102971,-9400.615463,842.705048
561.936209,-444.123565,-9252.574275,612.876398
561.936536,-740.205942,-8882.471304,766.095498
561.936864,-666.185348,-8808.450710,689.485948
561.937191,-740.205942,-8882.471304,536.266849
561.937519,-666.185348,-8586.388927,306.438199
561.937846,-666.185348,-8660.409521,612.876398
561.938174,-814.226536,-8142.265362,612.876398
561.938501,-666.185348,-8586.388927,612.876398
561.938829,-518.144159,-8734.430116,612.876398
561.939156,-296.082377,-8808.450710,536.266849
561.939484,0.000000,-8956.491898,842.705048
561.939811,0.000000,-9030.512492,766.095498
561.940138,-148.041188,-8808.450710,536.266849
561.940466,-222.061783,-9104.533087,612.876398
561.940793,-444.123565,-9030.512492,612.876398
561.941121,-592.164754,-9104.533087,689.485948
561.941448,0.000000,-8734.430116,919.314598
561.941776,-518.144159,-8882.471304,536.266849
561.942103,-370.102971,-8956.491898,536.266849
561.942431,-370.102971,-8660.409521,536.266849
561.942758,-444.123565,-8586.388927,306.438199
561.943086,-296.082377,-8734.430116,459.657299
561.943413,-444.123565,-8660.409521,689.485948
561.943741,-296.082377,-9104.533087,383.047749
561.944068,-296.082377,-9030.512492,536.266849
561.944396,-222.061783,-9030.512492,766.095498
561.944723,-518.144159,-8808.450710,536.266849
561.945051,0.000000,-9030.512492,766.095498
561.945378,-444.123565,-9400.615463,995.924147
561.945706,-518.144159,-9326.594869,612.876398
561.946033,-444.123565,-9104.533087,536.266849
561.946360,-370.102971,-9178.553681,383.047749
561.946688,-296.082377,-9030.512492,842.705048
561.947015,-592.164754,-8956.491898,612.876398
561.947343,-296.082377,-8882.471304,383.047749
561.947670,-592.164754,-8956.491898,459.657299
561.947998,-370.102971,-9252.574275,612.876398
561.948325,-518.144159,-8956.491898,842.705048
561.948653,-444.123565,-8956.491898,842.705048
561.948980,-296.082377,-9030.512492,612.876398
561.949308,0.000000,-9252.574275,459.657299
561.949635,0.000000,-9400.615463,612.876398
561.949963,296.082377,-9252.574275,689.485948
561.950291,0.000000,-9326.594869,995.924147
561.950618,0.000000,-9474.636058,689.485948
561.950946,0.000000,-9548.656652,383.047749
561.951273,0.000000,-9474.636058,229.828649
561.951601,0.000000,-9252.574275,0.000000
561.951928,0.000000,-8882.471304,766.095498
561.952256,0.000000,-9104.533087,383.047749
561.952584,-222.061783,-9252.574275,459.657299
561.952911,0.000000,-9178.553681,306.438199
561.953239,222.061783,-9104.533087,229.828649
561.953566,296.082377,-8882.471304,306.438199
561.953894,148.041188,-9400.615463,536.266849
561.954221,74.020594,-9474.636058,383.047749
561.954549,0.000000,-9252.574275,612.876398
561.954877,0.000000,-9326.594869,612.876398
561.955204,0.000000,-9030.512492,1072.533697
561.955532,74.020594,-9474.636058,459.657299
561.955859,0.000000,-9252.574275,612.876398
561.956187,-296.082377,-9252.574275,689.485948
561.956514,-444.123565,-9178.553681,536.266849
561.956842,-592.164754,-8956.491898,1072.533697
561.957169,-666.185348,-9104.533087,153.219100
561.957497,-666.185348,-8956.491898,383.047749
561.957825,-518.144159,-8882.471304,536.266849
561.958152,-296.082377,-8956.491898,459.657299
561.958480,-592.164754,-8956.491898,536.266849
561.958807,-666.185348,-8290.306550,766.095498
561.959135,0.000000,-9326.594869,766.095498
561.959462,0.000000,-9474.636058,766.095498
561.959790,-370.102971,-9326.594869,766.095498
561.960118,-518.144159,-9326.594869,842.705048
561.960445,-148.041188,-9474.636058,1455.581446
561.960773,-148.041188,-9400.615463,995.924147
561.961100,-222.061783,-9252.574275,536.266849
561.961428,-370.102971,-9252.574275,842.705048
561.961755,-370.102971,-8882.471304,689.485948
561.962083,0.000000,-8808.450710,536.266849
561.962411,-666.185348,-8882.471304,153.219100
561.962738,-592.164754,-9030.512492,536.266849
561.963066,-370.102971,-9104.533087,612.876398
561.963393,-222.061783,-9326.594869,306.438199
561.963721,-296.082377,-9104.533087,689.485948
561.964048,0.000000,-9178.553681,766.095498
561.964376,0.000000,-9252.574275,766.095498
561.964704,0.000000,-9252.574275,459.657299
561.965031,0.000000,-9474.636058,383.047749
561.965359,-148.041188,-9030.512492,383.047749
561.965686,-444.123565,-9252.574275,459.657299
561.966014,-148.041188,-9178.553681,766.095498
561.966341,0.000000,-9252.574275,536.266849
561.966669,0.000000,-9326.594869,612.876398
561.966997,-370.102971,-9178.553681,306.438199
561.967324,-740.205942,-8734.430116,229.828649
561.967652,-740.205942,-9178.553681,459.657299
561.967979,-740.205942,-9104.533087,306.438199
561.968307,-444.123565,-8956.491898,536.266849
561.968634,-296.082377,-9104.533087,536.266849
561.968962,-518.144159,-8660.409521,1225.752797
561.969289,0.000000,-9252.574275,306.438199
561.969617,-148.041188,-9104.533087,536.266849
561.969945,-148.041188,-9252.574275,459.657299
561.970272,-444.123565,-9030.512492,612.876398
561.970600,0.000000,-9104.533087,689.485948
561.970927,-592.164754,-8882.471304,766.095498
561.971255,-666.185348,-9030.512492,842.705048
561.971582,-592.164754,-9030.512492,919.314598
561.971910,-444.123565,-8882.471304,536.266849
561.972238,-370.102971,-8882.471304,229.828649
561.972565,-296.082377,-8290.306550,536.266849
561.972893,-222.061783,-8882.471304,842.705048
561.973220,-444.123565,-8512.368333,459.657299
561.973548,-296.082377,-8734.430116,459.657299
561.973875,-370.102971,-8956.491898,689.485948
561.974203,-296.082377,-8956.491898,995.924147
561.974531,0.000000,-9178.553681,919.314598
561.974858,-148.041188,-9030.512492,689.485948
561.975186,0.000000,-9252.574275,689.485948
561.975513,-444.123565,-9030.512492,383.047749
561.975841,-296.082377,-9252.574275,0.000000
561.976168,-518.144159,-8956.491898,536.266849
561.976496,-222.061783,-8734.430116,842.705048
561.976824,-518.144159,-8734.430116,383.047749
561.977151,-592.164754,-8956.491898,306.438199
561.977479,-370.102971,-8586.388927,153.219100
561.977806,-370.102971,-8734.430116,383.047749
561.978134,-370.102971,-8956.491898,383.047749
561.978461,-296.082377,-8956.491898,459.657299
561.978789,0.000000,-9104.533087,459.657299
561.979117,0.000000,-9104.533087,536.266849
561.979444,-370.102971,-9178.553681,459.657299
561.979772,-370.102971,-9326.594869,689.485948
561.980099,-296.082377,-9474.636058,459.657299
561.980427,-370.102971,-9474.636058,689.485948
561.980754,-296.082377,-9400.615463,612.876398
561.981082,-296.082377,-9474.636058,842.705048
561.981409,-296.082377,-9030.512492,766.095498
561.981737,-296.082377,-9252.574275,459.657299
561.982065,-296.082377,-9252.574275,459.657299
561.982392,-370.102971,-9104.533087,459.657299
561.982720,0.000000,-9104.533087,306.438199
561.983047,-370.102971,-8956.491898,766.095498
561.983375,-370.102971,-9252.574275,306.438199
561.983702,-370.102971,-9400.615463,612.876398
561.984030,-222.061783,-9400.615463,459.657299
561.984358,-296.082377,-9474.636058,-306.438199
561.984685,0.000000,-9326.594869,766.095498
561.985013,0.000000,-9400.615463,459.657299
561.985340,-222.061783,-9474.636058,536.266849
561.985668,0.000000,-9474.636058,153.219100
561.985995,74.020594,-9252.574275,459.657299
561.986323,0.000000,-9326.594869,383.047749
561.986651,0.000000,-9252.574275,306.438199
561.986978,222.061783,-8956.491898,383.047749
561.987306,0.000000,-9030.512492,383.047749
561.987633,0.000000,-9178.553681,383.047749
561.987961,74.020594,-8734.430116,612.876398
561.988288,0.000000,-9030.512492,306.438199
561.988616,74.020594,-9104.533087,612.876398
561.988944,0.000000,-9326.594869,612.876398
561.989271,74.020594,-9400.615463,689.485948
561.989599,0.000000,-9178.553681,536.266849
561.989926,0.000000,-9030.512492,919.314598
561.990254,-296.082377,-9400.615463,612.876398
561.990581,-148.041188,-9474.636058,689.485948
561.990909,-296.082377,-9252.574275,766.095498
561.991237,0.000000,-9030.512492,612.876398
561.991564,-444.123565,-8512.368333,995.924147
561.991892,-592.164754,-8882.471304,536.266849
561.992219,-592.164754,-8660.409521,536.266849
561.992547,-592.164754,-8660.409521,536.266849
561.992874,-518.144159,-8882.471304,459.657299
561.993202,-592.164754,-8290.306550,995.924147
561.993529,-518.144159,-8882.471304,612.876398
561.993857,-518.144159,-8956.491898,766.095498
561.994185,-444.123565,-9030.512492,995.924147
561.994512,-666.185348,-9030.512492,766.095498
561.994840,0.000000,-9326.594869,1608.800546
561.995167,-518.144159,-8956.491898,766.095498
561.995495,-444.123565,-9104.533087,612.876398
561.995822,-518.144159,-9030.512492,459.657299
561.996150,-370.102971,-9030.512492,612.876398
561.996478,-296.082377,-8956.491898,919.314598
561.996805,0.000000,-8364.327145,383.047749
561.997133,-222.061783,-8734.430116,459.657299
561.997460,-592.164754,-8808.450710,536.266849
561.997788,-518.144159,-8808.450710,383.047749
561.998115,-592.164754,-9104.533087,612.876398
561.998443,-518.144159,-8438.347739,689.485948
561.998771,0.000000,-9178.553681,459.657299
561.999098,0.000000,-9326.594869,459.657299
561.999426,-370.102971,-9326.594869,536.266849
561.999753,-444.123565,-9178.553681,459.657299
562.000081,-444.123565,-9622.677246,689.485948
562.000408,-444.123565,-9474.636058,153.219100
562.000736,-370.102971,-9178.553681,306.438199
562.001064,-370.102971,-9252.574275,229.828649
562.001391,-296.082377,-8882.471304,306.438199
562.001719,0.000000,-8808.450710,306.438199
562.002046,-666.185348,-8808.450710,153.219100
562.002374,-592.164754,-9030.512492,306.438199
562.002701,-222.061783,-8956.491898,459.657299
562.003029,0.000000,-9178.553681,306.438199
562.003356,0.000000,-9326.594869,383.047749
562.003684,0.000000,-9104.533087,459.657299
562.004012,0.000000,-9104.533087,689.485948
562.004339,-148.041188,-9104.533087,459.657299
562.004667,-222.061783,-9252.574275,536.266849
562.004994,-444.123565,-8956.491898,612.876398
562.005322,-370.102971,-9326.594869,306.438199
562.005649,-518.144159,-9178.553681,612.876398
562.005977,-444.123565,-9030.512492,383.047749
562.006305,-518.144159,-9030.512492,459.657299
562.006632,-370.102971,-8734.430116,459.657299
562.006960,74.020594,-8734.430116,689.485948
562.007287,-370.102971,-8660.409521,612.876398
562.007615,-222.061783,-9030.512492,459.657299
562.007942,0.000000,-8956.491898,689.485948
562.008270,0.000000,-9030.512492,459.657299
562.008598,0.000000,-8956.491898,689.485948
562.008925,0.000000,-9400.615463,766.095498
562.009253,0.000000,-9474.636058,766.095498
562.009580,0.000000,-9474.636058,919.314598
562.009908,-296.082377,-9474.636058,689.485948
562.010235,-592.164754,-9030.512492,842.705048
562.010563,-148.041188,-9252.574275,689.485948
562.010891,0.000000,-9104.533087,689.485948
562.011218,-444.123565,-8956.491898,459.657299
562.011546,-518.144159,-8882.471304,383.047749
562.011873,-740.205942,-9030.512492,536.266849
562.012201,-296.082377,-8808.450710,306.438199
562.012528,0.000000,-8956.491898,76.609550
562.012856,-296.082377,-9030.512492,306.438199
562.013184,0.000000,-9400.615463,383.047749
562.013511,148.041188,-9400.615463,383.047749
562.013839,0.000000,-9252.574275,689.485948
562.014166,0.000000,-9104.533087,612.876398
562.014494,0.000000,-9696.697840,459.657299
562.014821,-222.061783,-9622.677246,383.047749
562.015149,0.000000,-9474.636058,306.438199
562.015476,444.123565,-8956.491898,153.219100
562.015804,0.000000,-9178.553681,383.047749
562.016132,-444.123565,-9178.553681,459.657299
562.016459,-296.082377,-9326.594869,306.438199
562.016787,-222.061783,-9030.512492,229.828649
562.017114,0.000000,-8808.450710,306.438199
562.017442,-148.041188,-9104.533087,383.047749
562.017769,-444.123565,-9326.594869,306.438199
562.018097,0.000000,-9474.636058,689.485948
562.018425,0.000000,-9400.615463,536.266849
562.018752,74.020594,-9252.574275,153.219100
562.019080,0.000000,-9474.636058,689.485948
562.019407,-148.041188,-9326.594869,536.266849
562.019735,0.000000,-9474.636058,536.266849
562.020062,-74.020594,-9030.512492,536.266849
562.020390,-296.082377,-9104.533087,689.485948
562.020718,-592.164754,-8364.327145,383.047749
562.021045,-444.123565,-8808.450710,689.485948
562.021373,-814.226536,-8734.430116,689.485948
562.021700,-888.247130,-8808.450710,689.485948
562.022028,-814.226536,-8734.430116,689.485948
562.022355,-444.123565,-9104.533087,153.219100
562.022683,-370.102971,-9030.512492,306.438199
562.023011,-370.102971,-9104.533087,995.924147
562.023338,-518.144159,-9252.574275,766.095498
562.023666,-592.164754,-9252.574275,919.314598
562.023993,-666.185348,-9326.594869,842.705048
562.024321,-296.082377,-8882.471304,1072.533697
562.024648,-444.123565,-9178.553681,612.876398
562.024976,-444.123565,-9178.553681,689.485948
562.025304,-444.123565,-8808.450710,536.266849
562.025631,-148.041188,-8438.347739,306.438199
562.025959,-518.144159,-8142.265362,766.095498
562.026286,-592.164754,-8808.450710,459.657299
562.026614,-370.102971,-8586.388927,153.219100
562.026941,-370.102971,-8660.409521,153.219100
562.027269,-370.102971,-8734.430116,383.047749
562.027596,-148.041188,-8364.327145,536.266849
562.027924,0.000000,-8882.471304,459.657299
562.028252,74.020594,-9104.533087,153.219100
562.028579,74.020594,-9252.574275,459.657299
562.028907,74.020594,-9400.615463,536.266849
562.029234,296.082377,-9104.533087,76.609550
562.029562,296.082377,-9400.615463,306.438199
562.029889,74.020594,-9252.574275,612.876398
562.030217,0.000000,-9474.636058,383.047749
562.030545,-370.102971,-9400.615463,383.047749
562.030872,-370.102971,-9178.553681,459.657299
562.031200,-370.102971,-8660.409521,76.609550
562.031527,-296.082377,-8956.491898,306.438199
562.031855,-444.123565,-8882.471304,536.266849
562.032182,-370.102971,-9030.512492,459.657299
562.032510,-444.123565,-8882.471304,689.485948
562.032838,-296.082377,-8586.388927,766.095498
562.033165,0.000000,-9030.512492,919.314598
562.033493,-148.041188,-9104.533087,689.485948
562.033820,-296.082377,-9178.553681,1072.533697
562.034148,-296.082377,-9252.574275,689.485948
562.034475,-518.144159,-9104.533087,1225.752797
562.034803,-518.144159,-9400.615463,842.705048
562.035131,-740.205942,-9104.533087,536.266849
562.035458,-592.164754,-9030.512492,689.485948
562.035786,-740.205942,-8882.471304,536.266849
562.036113,-370.102971,-9030.512492,766.095498
562.036441,-518.144159,-8882.471304,0.000000
562.036768,-444.123565,-8808.450710,459.657299
562.037096,-222.061783,-9178.553681,306.438199
562.037424,-444.123565,-9326.594869,459.657299
562.037751,-222.061783,-9548.656652,689.485948
562.038079,0.000000,-8882.471304,612.876398
562.038406,148.041188,-9252.574275,919.314598
562.038734,222.061783,-9548.656652,689.485948
562.039061,148.041188,-9770.718434,612.876398
562.039389,74.020594,-9474.636058,612.876398
562.039716,0.000000,-9178.553681,536.266849
562.040044,0.000000,-9326.594869,536.266849
562.040372,-222.061783,-9326.594869,459.657299
562.040699,0.000000,-9326.594869,229.828649
562.041027,0.000000,-9104.533087,306.438199
562.041354,296.082377,-9104.533087,383.047749
562.041682,-222.061783,-8734.430116,306.438199
562.042009,0.000000,-8808.450710,0.000000
562.042337,-296.082377,-9178.553681,306.438199
562.042665,0.000000,-9178.553681,229.828649
562.042992,370.102971,-9104.533087,995.924147
562.043320,74.020594,-9178.553681,612.876398
562.043647,0.000000,-9400.615463,536.266849
562.043975,0.000000,-9474.636058,1072.533697
562.044302,0.000000,-9252.574275,689.485948
562.044630,-222.061783,-9326.594869,1072.533697
562.044958,-518.144159,-9178.553681,1225.752797
562.045285,-370.102971,-9104.533087,766.095498
562.045613,-444.123565,-8882.471304,612.876398
562.045940,-222.061783,-9030.512492,766.095498
562.046268,-592.164754,-9104.533087,689.485948
562.046595,-370.102971,-8956.491898,766.095498
562.046923,-666.185348,-8956.491898,383.047749
562.047251,-444.123565,-9030.512492,612.876398
562.047578,-444.123565,-8956.491898,536.266849
562.047906,-370.102971,-8956.491898,842.705048
562.048233,-370.102971,-8956.491898,306.438199
562.048561,-444.123565,-9030.512492,842.705048
562.048888,-370.102971,-9104.533087,766.095498
562.049216,-444.123565,-9178.553681,612.876398
562.049544,-592.164754,-9178.553681,383.047749
562.049871,-518.144159,-9326.594869,689.485948
562.050199,-592.164754,-9030.512492,612.876398
562.050526,-518.144159,-8808.450710,229.828649
562.050854,-962.267725,-8438.347739,306.438199
562.051181,-518.144159,-8956.491898,459.657299
562.051509,0.000000,-9252.574275,842.705048
562.051837,-370.102971,-8882.471304,459.657299
562.052164,-296.082377,-8808.450710,612.876398
562.052492,0.000000,-8882.471304,383.047749
562.052819,0.000000,-9400.615463,383.047749
562.053147,0.000000,-9252.574275,612.876398
562.053474,0.000000,-8956.491898,766.095498
562.053802,148.041188,-9030.512492,383.047749
562.054130,0.000000,-9252.574275,306.438199
562.054457,0.000000,-9400.615463,383.047749
562.054785,0.000000,-8956.491898,459.657299
562.055112,0.000000,-9548.656652,459.657299
562.055440,0.000000,-8956.491898,229.828649
562.055767,-592.164754,-8956.491898,459.657299
562.056095,-666.185348,-8882.471304,459.657299
562.056423,-444.123565,-9030.512492,459.657299
562.056750,-296.082377,-9178.553681,612.876398
562.057078,0.000000,-8956.491898,459.657299
562.057405,0.000000,-8956.491898,459.657299
562.057733,0.000000,-9178.553681,459.657299
562.058060,148.041188,-9104.533087,612.876398
562.058388,0.000000,-8956.491898,766.095498
562.058716,-518.144159,-8956.491898,1149.143247
562.059043,-518.144159,-9252.574275,689.485948
562.059371,-444.123565,-9104.533087,766.095498
562.059698,-444.123565,-9178.553681,689.485948
562.060026,-370.102971,-9178.553681,612.876398
562.060353,-444.123565,-8364.327145,919.314598
562.060681,-296.082377,-8882.471304,459.657299
562.061008,-592.164754,-8808.450710,459.657299
562.061336,-666.185348,-8660.409521,612.876398
562.061664,-666.185348,-8882.471304,306.438199
562.061991,-148.041188,-9252.574275,459.657299
562.062319,-740.205942,-8808.450710,536.266849
562.062646,-740.205942,-8956.491898,689.485948
562.062974,-592.164754,-9178.553681,919.314598
562.063301,-296.082377,-9326.594869,919.314598
562.063629,0.000000,-9474.636058,306.438199
562.063957,-444.123565,-9400.615463,1455.581446
562.064284,-592.164754,-9326.594869,919.314598
562.064612,-518.144159,-9326.594869,536.266849
562.064939,-518.144159,-9326.594869,536.266849
562.065267,0.000000,-9178.553681,766.095498
562.065594,0.000000,-8956.491898,689.485948
562.065922,-296.082377,-9030.512492,383.047749
562.066250,-370.102971,-9178.553681,306.438199
562.066577,-296.082377,-8956.491898,153.219100
562.066905,-148.041188,-9104.533087,612.876398
562.067232,-222.061783,-8586.388927,383.047749
562.067560,74.020594,-9178.553681,459.657299
562.067887,148.041188,-9178.553681,383.047749
562.068215,0.000000,-9326.594869,459.657299
562.068543,222.061783,-9474.636058,229.828649
562.068870,0.000000,-9030.512492,536.266849
562.069198,222.061783,-9474.636058,0.000000
562.069525,222.061783,-9252.574275,306.438199
562.069853,0.000000,-9178.553681,306.438199
562.070180,0.000000,-9178.553681,153.219100
562.070508,0.000000,-9252.574275,612.876398
562.070836,-222.061783,-9104.533087,459.657299
562.071163,-148.041188,-9178.553681,229.828649
562.071491,0.000000,-9326.594869,306.438199
562.071818,-222.061783,-9400.615463,383.047749
562.072146,0.000000,-9104.533087,689.485948
562.072473,74.020594,-9178.553681,1149.143247
562.072801,0.000000,-9252.574275,689.485948
562.073129,148.041188,-9400.615463,306.438199
562.073456,0.000000,-9252.574275,536.266849
562.073784,0.000000,-9400.615463,612.876398
562.074111,0.000000,-9104.533087,1608.800546
562.074439,-444.123565,-9178.553681,536.266849
562.074766,-666.185348,-9178.553681,536.266849
562.075094,-592.164754,-9252.574275,689.485948
562.075422,-592.164754,-8956.491898,612.876398
562.075749,-296.082377,-8882.471304,766.095498
562.076077,-666.185348,-8734.430116,689.485948
562.076404,-592.164754,-8956.491898,842.705048
562.076732,-296.082377,-8882.471304,766.095498
562.077059,-592.164754,-8808.450710,842.705048
562.077387,-222.061783,-8882.471304,995.924147
562.077715,-592.164754,-8586.388927,612.876398
562.078042,-370.102971,-9030.512492,766.095498
562.078370,-518.144159,-9030.512492,842.705048
562.078697,-444.123565,-9400.615463,766.095498
562.079025,-370.102971,-9252.574275,536.266849
562.079352,0.000000,-9326.594869,612.876398
562.079680,-222.061783,-9252.574275,689.485948
562.080008,-592.164754,-9252.574275,536.266849
562.080335,-296.082377,-9178.553681,536.266849
562.080663,-518.144159,-9030.512492,689.485948
562.080990,0.000000,-8956.491898,459.657299
562.081318,-370.102971,-8808.450710,229.828649
562.081645,-296.082377,-8882.471304,383.047749
562.081973,-444.123565,-8956.491898,383.047749
562.082301,-222.061783,-8734.430116,536.266849
562.082628,0.000000,-8438.347739,536.266849
562.082956,0.000000,-8734.430116,536.266849
562.083283,0.000000,-9178.553681,459.657299
562.083611,0.000000,-9400.615463,229.828649
562.083938,-222.061783,-9104.533087,306.438199
562.084266,0.000000,-8882.471304,536.266849
562.084594,-666.185348,-8956.491898,229.828649
562.084921,-444.123565,-9104.533087,689.485948
562.085249,-518.144159,-8956.491898,229.828649
562.085576,-666.185348,-8808.450710,383.047749
562.085904,-518.144159,-8882.471304,536.266849
562.086231,-444.123565,-8882.471304,842.705048
562.086559,-222.061783,-9252.574275,306.438199
562.086887,-296.082377,-8956.491898,689.485948
562.087214,-296.082377,-8956.491898,536.266849
562.087542,-148.041188,-8882.471304,612.876398
562.087869,74.020594,-9178.553681,536.266849
562.088197,0.000000,-9252.574275,612.876398
562.088524,-222.061783,-9474.636058,766.095498
562.088852,-518.144159,-9252.574275,842.705048
562.089180,-740.205942,-9474.636058,766.095498
562.089507,-444.123565,-9252.574275,229.828649
562.089835,-814.226536,-9400.615463,1149.143247
562.090162,-370.102971,-9030.512492,459.657299
562.090490,-296.082377,-8956.491898,766.095498
562.090817,-370.102971,-8956.491898,459.657299
562.091145,-666.185348,-9252.574275,383.047749
562.091473,-518.144159,-8660.409521,612.876398
562.091800,-592.164754,-8808.450710,536.266849
562.092128,-370.102971,-9104.533087,612.876398
562.092455,-222.061783,-9252.574275,612.876398
562.092783,0.000000,-9252.574275,612.876398
562.093110,0.000000,-9104.533087,842.705048
562.093438,74.020594,-9252.574275,612.876398
562.093766,74.020594,-9326.594869,306.438199
562.094093,74.020594,-9252.574275,612.876398
562.094421,74.020594,-9474.636058,612.876398
562.094748,0.000000,-9104.533087,1302.362347
562.095076,592.164754,-9252.574275,383.047749
562.095403,74.020594,-9252.574275,536.266849
562.095731,0.000000,-9178.553681,306.438199
562.096059,-222.061783,-9030.512492,459.657299
562.096386,74.020594,-9400.615463,689.485948
562.096714,222.061783,-9104.533087,689.485948
562.097041,0.000000,-9252.574275,612.876398
562.097369,-222.061783,-9178.553681,459.657299
562.097696,0.000000,-9326.594869,536.266849
562.098024,0.000000,-9474.636058,459.657299
562.098352,148.041188,-9400.615463,995.924147
562.098679,-296.082377,-9474.636058,536.266849
562.099007,-444.123565,-9326.594869,689.485948
562.099334,-370.102971,-9252.574275,612.876398
562.099662,-296.082377,-9104.533087,612.876398
562.099989,-370.102971,-8586.388927,995.924147
562.100317,-370.102971,-9104.533087,459.657299
562.100645,-444.123565,-8956.491898,459.657299
562.100972,-444.123565,-9030.512492,612.876398
562.101300,-666.185348,-9030.512492,612.876398
562.101627,-666.185348,-9178.553681,1378.971896
562.101955,-148.041188,-8882.471304,689.485948
562.102282,-444.123565,-9400.615463,995.924147
562.102610,-148.041188,-9400.615463,995.924147
562.102938,-222.061783,-9400.615463,842.705048
562.103265,-222.061783,-9030.512492,536.266849
562.103593,0.000000,-9474.636058,689.485948
562.103920,-370.102971,-9474.636058,766.095498
562.104248,-296.082377,-9178.553681,842.705048
562.104575,-296.082377,-9178.553681,689.485948
562.104903,-518.144159,-8882.471304,536.266849
562.105231,-518.144159,-8734.430116,1225.752797
562.105558,-592.164754,-9252.574275,459.657299
562.105886,-592.164754,-9030.512492,612.876398
562.106213,-592.164754,-9252.574275,306.438199
562.106541,-444.123565,-9104.533087,459.657299
562.106868,74.020594,-9030.512492,1378.971896
562.107196,74.020594,-9030.512492,76.609550
562.107524,148.041188,-8956.491898,306.438199
562.107851,74.020594,-9178.553681,383.047749
562.108179,0.000000,-9178.553681,459.657299
562.108506,0.000000,-8956.491898,689.485948
562.108834,0.000000,-9030.512492,306.438199
562.109161,-296.082377,-9252.574275,459.657299
562.109489,-222.061783,-9030.512492,383.047749
562.109817,-370.102971,-8808.450710,383.047749
562.110144,-296.082377,-8512.368333,612.876398
562.110472,-74.020594,-8586.388927,459.657299
562.110799,-370.102971,-8734.430116,383.047749
562.111127,-444.123565,-8438.347739,153.219100
562.111454,-518.144159,-8660.409521,153.219100
562.111782,-740.205942,-8734.430116,306.438199
562.112110,-74.020594,-8956.491898,1072.533697
562.112437,-518.144159,-9178.553681,459.657299
562.112765,-370.102971,-9178.553681,919.314598
562.113092,-444.123565,-8956.491898,689.485948
562.113420,-518.144159,-9178.553681,842.705048
562.113747,-370.102971,-9178.553681,536.266849
562.114075,-444.123565,-8956.491898,689.485948
562.114402,-296.082377,-8956.491898,995.924147
562.114730,-370.102971,-8956.491898,766.095498
562.115058,-666.185348,-8882.471304,612.876398
562.115385,-444.123565,-8586.388927,1225.752797
562.115713,-296.082377,-8808.450710,919.314598
562.116040,-296.082377,-8808.450710,842.705048
562.116368,-296.082377,-9104.533087,919.314598
562.116695,-296.082377,-9104.533087,689.485948
562.117023,-592.164754,-9030.512492,612.876398
562.117351,74.020594,-9474.636058,1072.533697
562.117678,0.000000,-9400.615463,689.485948
562.118006,0.000000,-9622.677246,842.705048
562.118333,0.000000,-9622.677246,689.485948
562.118661,-222.061783,-9696.697840,766.095498
562.118988,-296.082377,-9474.636058,306.438199
562.119316,0.000000,-9104.533087,383.047749
562.119644,-296.082377,-9104.533087,229.828649
562.119971,-148.041188,-9030.512492,76.609550
562.120299,0.000000,-8956.491898,76.609550
562.120626,-222.061783,-8364.327145,229.828649
562.120954,0.000000,-9474.636058,153.219100
562.121281,-222.061783,-9252.574275,153.219100
562.121609,0.000000,-9252.574275,612.876398
562.121937,74.020594,-9400.615463,612.876398
562.122264,296.082377,-9400.615463,689.485948
562.122592,518.144159,-9326.594869,536.266849
562.122919,74.020594,-9474.636058,612.876398
562.123247,0.000000,-9474.636058,536.266849
562.123574,0.000000,-9474.636058,383.047749
562.123902,-222.061783,-9400.615463,995.924147
562.124230,-370.102971,-9178.553681,689.485948
562.124557,-222.061783,-9326.594869,689.485948
562.124885,-222.061783,-9252.574275,306.438199
562.125212,-370.102971,-9252.574275,766.095498
562.125540,-592.164754,-8956.491898,536.266849
562.125867,-148.041188,-8882.471304,995.924147
562.126195,-444.123565,-9030.512492,383.047749
562.126523,-592.164754,-8956.491898,612.876398
562.126850,-592.164754,-9030.512492,689.485948
562.127178,-370.102971,-9104.533087,689.485948
562.127505,0.000000,-8956.491898,766.095498
562.127833,-370.102971,-9474.636058,766.095498
562.128160,-740.205942,-8956.491898,689.485948
562.128488,-740.205942,-8734.430116,612.876398
562.128816,-592.164754,-8956.491898,766.095498
562.129143,-592.164754,-8734.430116,536.266849
562.129471,-296.082377,-8734.430116,383.047749
562.129798,-370.102971,-8734.430116,612.876398
562.130126,0.000000,-8808.450710,459.657299
562.130453,-370.102971,-8808.450710,306.438199
562.130781,-222.061783,-8956.491898,536.266849
562.131109,518.144159,-9252.574275,919.314598
562.131436,0.000000,-8956.491898,306.438199
562.131764,74.020594,-9326.594869,383.047749
562.132091,148.041188,-9474.636058,612.876398
562.132419,148.041188,-9474.636058,459.657299
562.132746,296.082377,-9474.636058,0.000000
562.133074,0.000000,-9326.594869,306.438199
562.133402,-148.041188,-9400.615463,612.876398
562.133729,-296.082377,-9030.512492,153.219100
562.134057,-370.102971,-8882.471304,306.438199
562.134384,-444.123565,-8512.368333,153.219100
562.134712,-222.061783,-8734.430116,612.876398
562.135039,-370.102971,-8660.409521,229.828649
562.135367,-444.123565,-8660.409521,383.047749
562.135695,-740.205942,-9030.512492,306.438199
562.136022,-518.144159,-8734.430116,766.095498
562.136350,0.000000,-8882.471304,766.095498
562.136677,-148.041188,-9178.553681,306.438199
562.137005,-148.041188,-9326.594869,536.266849
562.137332,-370.102971,-9178.553681,612.876398
562.137660,-444.123565,-9252.574275,766.095498
562.137988,-296.082377,-9326.594869,689.485948
562.138315,-666.185348,-9326.594869,919.314598
562.138643,-740.205942,-9178.553681,612.876398
562.138970,-592.164754,-9326.594869,689.485948
562.139298,-444.123565,-8808.450710,766.095498
562.139625,-740.205942,-8068.244768,1072.533697
562.139953,-518.144159,-8808.450710,766.095498
562.140281,-666.185348,-8808.450710,536.266849
562.140608,-740.205942,-9030.512492,612.876398
562.140936,-740.205942,-9104.533087,612.876398
562.141263,-370.102971,-9104.533087,612.876398
562.141591,-370.102971,-9252.574275,1378.971896
562.141918,-148.041188,-9400.615463,459.657299
562.142246,-148.041188,-9252.574275,689.485948
562.142574,-148.041188,-9178.553681,842.705048
562.142901,74.020594,-9252.574275,1149.143247
562.143229,-592.164754,-8734.430116,536.266849
562.143556,-592.164754,-9252.574275,536.266849
562.143884,-444.123565,-9400.615463,536.266849
562.144211,-444.123565,-9178.553681,689.485948
562.144539,-296.082377,-9030.512492,536.266849
562.144867,0.000000,-8734.430116,153.219100
562.145194,-222.061783,-8882.471304,459.657299
562.145522,-148.041188,-8956.491898,383.047749
562.145849,-222.061783,-8882.471304,153.219100
562.146177,0.000000,-9030.512492,153.219100
562.146504,-222.061783,-8734.430116,306.438199
562.146832,0.000000,-9474.636058,612.876398
562.147160,0.000000,-9326.594869,536.266849
562.147487,0.000000,-9474.636058,459.657299
562.147815,-148.041188,-9474.636058,459.657299
562.148142,-148.041188,-9326.594869,459.657299
562.148470,0.000000,-9326.594869,153.219100
562.148797,-148.041188,-9104.533087,306.438199
562.149125,-148.041188,-8808.450710,612.876398
562.149452,-222.061783,-8956.491898,766.095498
562.149780,-518.144159,-8734.430116,459.657299
562.150107,-444.123565,-8882.471304,383.047749
562.150435,-296.082377,-8882.471304,459.657299
562.150762,0.000000,-9104.533087,306.438199
562.151090,-222.061783,-8956.491898,612.876398
562.151417,0.000000,-9326.594869,689.485948
562.151745,74.020594,-9104.533087,842.705048
562.152072,0.000000,-9474.636058,612.876398
562.152400,0.000000,-9474.636058,612.876398
562.152727,-148.041188,-9400.615463,612.876398
562.153055,-222.061783,-9326.594869,919.314598
562.153382,74.020594,-9622.677246,766.095498
562.153710,0.000000,-9178.553681,919.314598
562.154037,-296.082377,-9326.594869,766.095498
562.154365,-518.144159,-8956.491898,536.266849
562.154692,-518.144159,-9252.574275,612.876398
562.155019,-444.123565,-9548.656652,842.705048
562.155347,0.000000,-8660.409521,536.266849
562.155674,0.000000,-8882.471304,459.657299
562.156002,-222.061783,-9252.574275,766.095498
562.156329,-370.102971,-9030.512492,766.095498
562.156657,-222.061783,-9104.533087,766.095498
562.156984,0.000000,-8808.450710,919.314598
562.157312,-222.061783,-9474.636058,612.876398
562.157639,-370.102971,-9474.636058,689.485948
562.157967,-296.082377,-9400.615463,536.266849
562.158294,-222.061783,-9474.636058,536.266849
562.158622,-370.102971,-8956.491898,612.876398
562.158949,-296.082377,-9178.553681,459.657299
562.159277,-518.144159,-8956.491898,459.657299
562.159604,-370.102971,-8808.450710,306.438199
562.159932,-592.164754,-8734.430116,459.657299
562.160259,0.000000,-9178.553681,306.438199
562.160587,-296.082377,-8956.491898,459.657299
562.160914,-296.082377,-9104.533087,306.438199
562.161242,0.000000,-9030.512492,383.047749
562.161569,-148.041188,-9252.574275,383.047749
562.161897,0.000000,-9474.636058,153.219100
562.162224,-296.082377,-9252.574275,919.314598
562.162552,-296.082377,-9252.574275,689.485948
562.162879,0.000000,-9400.615463,536.266849
562.163206,-148.041188,-9400.615463,612.876398
562.163534,-222.061783,-9326.594869,995.924147
562.163861,-518.144159,-9104.533087,842.705048
562.164189,-518.144159,-8734.430116,459.657299
562.164516,-592.164754,-8660.409521,306.438199
562.164844,-740.205942,-8734.430116,689.485948
562.165171,-518.144159,-8734.430116,383.047749
562.165499,-814.226536,-7920.203579,842.705048
562.165826,-296.082377,-8808.450710,689.485948
562.166154,-222.061783,-9178.553681,612.876398
562.166481,0.000000,-9252.574275,689.485948
562.166809,0.000000,-9326.594869,842.705048
562.167136,148.041188,-9252.574275,1455.581446
562.167464,222.061783,-9548.656652,459.657299
562.167791,0.000000,-9326.594869,536.266849
562.168119,-222.061783,-9474.636058,536.266849
562.168446,-370.102971,-9326.594869,612.876398
562.168774,-296.082377,-9178.553681,842.705048
562.169101,-518.144159,-8808.450710,612.876398
562.169429,-518.144159,-8734.430116,306.438199
562.169756,-296.082377,-8734.430116,153.219100
562.170084,-444.123565,-8660.409521,153.219100
562.170411,-148.041188,-8808.450710,612.876398
562.170738,0.000000,-8660.409521,536.266849
562.171066,-296.082377,-8808.450710,459.657299
562.171393,0.000000,-9178.553681,383.047749
562.171721,0.000000,-9474.636058,459.657299
562.172048,0.000000,-9326.594869,459.657299
562.172376,296.082377,-9400.615463,1072.533697
562.172703,0.000000,-9474.636058,459.657299
562.173031,-296.082377,-9252.574275,612.876398
562.173358,-444.123565,-9474.636058,689.485948
562.173686,-370.102971,-9252.574275,536.266849
562.174013,-370.102971,-9178.553681,919.314598
562.174341,-222.061783,-9030.512492,766.095498
562.174668,-592.164754,-9104.533087,229.828649
562.174996,-370.102971,-9030.512492,612.876398
562.175323,-222.061783,-8956.491898,383.047749
562.175651,0.000000,-9030.512492,612.876398
562.175978,0.000000,-9104.533087,306.438199
562.176306,0.000000,-9474.636058,536.266849
562.176633,0.000000,-9326.594869,842.705048
562.176961,0.000000,-9252.574275,842.705048
562.177288,-148.041188,-9400.615463,766.095498
562.177616,0.000000,-9178.553681,766.095498
562.177943,0.000000,-9400.615463,842.705048
562.178270,-222.061783,-9252.574275,689.485948
562.178598,-370.102971,-9030.512492,612.876398
562.178925,-444.123565,-9178.553681,459.657299
562.179253,-296.082377,-9104.533087,612.876398
562.179580,-740.205942,-8882.471304,612.876398
562.179908,-444.123565,-9252.574275,459.657299
562.180235,-296.082377,-9252.574275,612.876398
562.180563,-222.061783,-9178.553681,689.485948
562.180890,0.000000,-9474.636058,842.705048
562.181218,0.000000,-9030.512492,536.266849
562.181545,0.000000,-9400.615463,842.705048
562.181873,0.000000,-9400.615463,612.876398
562.182200,0.000000,-9548.656652,612.876398
562.182528,-222.061783,-9474.636058,919.314598
562.182855,-148.041188,-9696.697840,842.705048
562.183183,0.000000,-9178.553681,536.266849
562.183510,-148.041188,-9252.574275,612.876398
562.183838,-444.123565,-8660.409521,459.657299
562.184165,-222.061783,-8956.491898,306.438199
562.184493,-444.123565,-8734.430116,0.000000
562.184820,-740.205942,-8734.430116,536.266849
562.185148,-740.205942,-8808.450710,383.047749
562.185475,-592.164754,-9030.512492,459.657299
562.185802,-518.144159,-9104.533087,536.266849
562.186130,-370.102971,-8882.471304,306.438199
562.186457,-444.123565,-9030.512492,612.876398
562.186785,-592.164754,-9104.533087,383.047749
562.187112,-370.102971,-9252.574275,383.047749
562.187440,-518.144159,-9400.615463,383.047749
562.187767,-296.082377,-9548.656652,153.219100
562.188095,-222.061783,-9326.594869,766.095498
562.188422,-518.144159,-9252.574275,612.876398
562.188750,-444.123565,-9252.574275,612.876398
562.189077,-370.102971,-8956.491898,383.047749
562.189405,0.000000,-8586.388927,459.657299
562.189732,-666.185348,-8734.430116,459.657299
562.190060,-296.082377,-8586.388927,383.047749
562.190387,-518.144159,-8660.409521,306.438199
562.190715,-444.123565,-8808.450710,689.485948
562.191042,-148.041188,-8882.471304,766.095498
562.191370,0.000000,-8734.430116,919.314598
562.191697,74.020594,-9400.615463,612.876398
562.192025,0.000000,-9104.533087,689.485948
562.192352,0.000000,-9030.512492,612.876398
562.192680,-148.041188,-9030.512492,612.876398
562.193007,0.000000,-9104.533087,766.095498
562.193334,-148.041188,-8660.409521,612.876398
562.193662,-518.144159,-8882.471304,459.657299
562.193989,-740.205942,-9104.533087,306.438199
562.194317,-592.164754,-9030.512492,306.438199
562.194644,0.000000,-9252.574275,536.266849
562.194972,0.000000,-8438.347739,306.438199
562.195299,-222.061783,-8734.430116,383.047749
562.195627,-444.123565,-8808.450710,612.876398
562.195954,-444.123565,-8734.430116,459.657299
562.196282,0.000000,-8808.450710,689.485948
562.196609,222.061783,-8882.471304,1072.533697
562.196937,0.000000,-9252.574275,459.657299
562.197264,0.000000,-9252.574275,689.485948
562.197592,-222.061783,-9178.553681,536.266849
562.197919,-222.061783,-9104.533087,689.485948
562.198247,-444.123565,-8660.409521,459.657299
562.198574,-370.102971,-9030.512492,689.485948
562.198902,-518.144159,-9030.512492,383.047749
562.199229,-370.102971,-9030.512492,383.047749
562.199557,-444.123565,-8882.471304,536.266849
562.199884,-370.102971,-9178.553681,383.047749
562.200212,-296.082377,-9252.574275,306.438199
562.200539,0.000000,-9474.636058,536.266849
562.200866,0.000000,-9326.594869,459.657299
562.201194,-148.041188,-9622.677246,383.047749
562.201521,0.000000,-9622.677246,76.609550
562.201849,0.000000,-9474.636058,1225.752797
562.202176,222.061783,-9770.718434,612.876398
562.202504,296.082377,-9844.739029,995.924147
562.202831,74.020594,-9770.718434,919.314598
562.203159,74.020594,-9696.697840,919.314598
562.203486,-296.082377,-9326.594869,766.095498
562.203814,-222.061783,-9252.574275,612.876398
562.204141,-148.041188,-9178.553681,536.266849
562.204469,0.000000,-9326.594869,689.485948
562.204796,-370.102971,-9400.615463,612.876398
562.205124,-444.123565,-8956.491898,1072.533697
562.205451,-444.123565,-8956.491898,536.266849
562.205779,-148.041188,-9030.512492,612.876398
562.206106,-296.082377,-9104.533087,459.657299
562.206434,-518.144159,-9104.533087,459.657299
562.206761,-74.020594,-8956.491898,689.485948
562.207089,-222.061783,-9104.533087,153.219100
562.207416,-518.144159,-9326.594869,459.657299
562.207744,-888.247130,-9400.615463,383.047749
562.208071,-740.205942,-9400.615463,536.266849
562.208399,-370.102971,-9178.553681,766.095498
562.208726,-222.061783,-8882.471304,229.828649
562.209053,-370.102971,-9030.512492,306.438199
562.209381,-222.061783,-9030.512492,459.657299
562.209708,-222.061783,-8882.471304,306.438199
562.210036,-370.102971,-8808.450710,229.828649
562.210363,0.000000,-8734.430116,612.876398
562.210691,-370.102971,-8956.491898,536.266849
562.211018,-222.061783,-9178.553681,459.657299
562.211346,-296.082377,-8956.491898,459.657299
562.211673,0.000000,-8882.471304,612.876398
562.212001,0.000000,-9030.512492,229.828649
562.212328,0.000000,-9178.553681,612.876398
562.212656,-518.144159,-8660.409521,306.438199
562.212983,-222.061783,-8660.409521,383.047749
562.213311,-148.041188,-8734.430116,306.438199
562.213638,0.000000,-8808.450710,229.828649
562.213966,-296.082377,-8660.409521,383.047749
562.214293,0.000000,-9030.512492,612.876398
562.214621,-296.082377,-9252.574275,536.266849
562.214948,-296.082377,-9178.553681,459.657299
562.215276,0.000000,-9178.553681,153.219100
562.215603,0.000000,-8882.471304,383.047749
562.215931,-222.061783,-8956.491898,306.438199
562.216258,0.000000,-9178.553681,229.828649
562.216585,0.000000,-9104.533087,536.266849
562.216913,-148.041188,-9104.533087,536.266849
562.217240,-296.082377,-9104.533087,995.924147
562.217568,0.000000,-9178.553681,459.657299
562.217895,0.000000,-9326.594869,459.657299
562.218223,-296.082377,-9252.574275,536.266849
562.218550,-370.102971,-9178.553681,689.485948
