#time,accel_x,accel_y,accel_z
574.316120,0.000000,-9252.574275,306.438199
574.316447,-222.061783,-9178.553681,459.657299
574.316775,-148.041188,-9104.533087,229.828649
574.317103,-370.102971,-9030.512492,383.047749
574.317430,-222.061783,-9104.533087,766.095498
574.317758,0.000000,-8882.471304,612.876398
574.318086,-222.061783,-9252.574275,459.657299
574.318413,-296.082377,-9030.512492,459.657299
574.318741,-370.102971,-9178.553681,536.266849
574.319069,-222.061783,-8808.450710,766.095498
574.319396,-222.061783,-8734.430116,842.705048
574.319724,-148.041188,-9252.574275,459.657299
574.320052,0.000000,-9252.574275,536.266849
574.320379,-296.082377,-9030.512492,689.485948
574.320707,-444.123565,-9104.533087,689.485948
574.321034,-222.061783,-8808.450710,536.266849
574.321362,-296.082377,-8882.471304,536.266849
574.321690,-148.041188,-9030.512492,459.657299
574.322017,-296.082377,-9104.533087,536.266849
574.322345,-444.123565,-8808.450710,612.876398
574.322673,-148.041188,-8956.491898,306.438199
574.323000,-222.061783,-8808.450710,919.314598
574.323328,-296.082377,-9104.533087,536.266849
574.323656,-296.082377,-9104.533087,612.876398
574.323983,-296.082377,-9030.512492,689.485948
574.324311,-370.102971,-8808.450710,306.438199
574.324639,-444.123565,-8734.430116,153.219100
574.324966,-370.102971,-8956.491898,612.876398
574.325294,-370.102971,-9104.533087,536.266849
574.325622,-814.226536,-9252.574275,306.438199
574.325949,-1110.308913,-9474.636058,0.000000
574.326277,-1480.411884,-9400.615463,-766.095498
574.326605,-1036.288319,-9252.574275,-459.657299
574.326932,-592.164754,-8808.450710,-383.047749
574.327260,-444.123565,-9030.512492,-459.657299
574.327588,-740.205942,-9252.574275,-612.876398
574.327915,-1110.308913,-9252.574275,-383.047749
574.328243,-1258.350101,-8882.471304,-995.924147
574.328571,-1036.288319,-9178.553681,-1378.971896
574.328898,-1036.288319,-9326.594869,-1685.410096
574.329226,-666.185348,-9474.636058,-1455.581446
574.329554,0.000000,-9400.615463,-1149.143247
574.329881,0.000000,-8586.388927,-842.705048
574.330209,-148.041188,-9030.512492,-1378.971896
574.330537,-148.041188,-9326.594869,-1532.190996
574.330864,74.020594,-9326.594869,-1762.019645
574.331192,148.041188,-9252.574275,-1991.848295
574.331520,222.061783,-9030.512492,-1608.800546
574.331847,296.082377,-9474.636058,-1608.800546
574.332175,0.000000,-9474.636058,-1608.800546
574.332503,222.061783,-9326.594869,-1608.800546
574.332830,666.185348,-9104.533087,-1685.410096
574.333158,740.205942,-9400.615463,-1532.190996
574.333486,518.144159,-9400.615463,-1685.410096
574.333813,222.061783,-9548.656652,-1455.581446
574.334141,74.020594,-9252.574275,-1838.629195
574.334469,74.020594,-9400.615463,-1762.019645
574.334796,-222.061783,-9326.594869,-1608.800546
574.335124,-148.041188,-9326.594869,-1378.971896
574.335452,-444.123565,-9178.553681,-1685.410096
574.335779,-592.164754,-8956.491898,-1762.019645
574.336107,-1258.350101,-9178.553681,-1991.848295
574.336435,-1036.288319,-9252.574275,-2451.505594
574.336762,-1554.432478,-8734.430116,-2528.115143
574.337090,-2072.576638,-8956.491898,-2681.334243
574.337418,-2146.597232,-9030.512492,-3294.210641
574.337745,-2368.659014,-9104.533087,-3370.820191
574.338073,-2072.576638,-8586.388927,-3753.867940
574.338401,-2146.597232,-8808.450710,-3907.087040
574.338728,-2072.576638,-8660.409521,-4060.306139
574.339056,-2146.597232,-8956.491898,-4060.306139
574.339384,-1924.535449,-8882.471304,-4366.744339
574.339711,-1554.432478,-8956.491898,-4136.915689
574.340039,-814.226536,-8586.388927,-3830.477490
574.340367,222.061783,-8956.491898,-3600.648841
574.340694,814.226536,-9104.533087,-3140.991542
574.341022,1480.411884,-9030.512492,-2757.943793
574.341350,2368.659014,-9030.512492,-2451.505594
574.341677,2516.700203,-9104.533087,-1225.752797
574.342005,2516.700203,-9474.636058,-1991.848295
574.342333,1776.494261,-9918.759623,-2145.067394
574.342660,814.226536,-10436.903782,-2451.505594
574.342988,-296.082377,-10288.862594,-3064.381992
574.343316,-740.205942,-10955.047942,-3524.039291
574.343643,-1036.288319,-10288.862594,-3983.696590
574.343971,-1998.556043,-10140.821405,-4749.792088
574.344299,-1036.288319,-9104.533087,-4903.011187
574.344626,0.000000,-8216.285956,-4596.572988
574.344954,1406.391290,-7550.100608,-3753.867940
574.345282,2442.679609,-7105.977043,-3064.381992
574.345609,2812.782580,-7328.038826,-2374.896044
574.345937,1850.514855,-7994.224174,-1915.238745
574.346265,592.164754,-9030.512492,-1915.238745
574.346592,-1702.473667,-9992.780217,-2145.067394
574.346920,-3701.029710,-10510.924376,-1532.190996
574.347248,-3997.112087,-11029.068536,-2681.334243
574.347575,-3627.009116,-10436.903782,-2681.334243
574.347903,-2146.597232,-9474.636058,-2528.115143
574.348231,666.185348,-8142.265362,-1838.629195
574.348558,4663.297435,-6587.832884,-842.705048
574.348886,8660.409521,-4737.318029,2068.457845
574.349214,11621.233289,-4811.338623,4136.915689
574.349541,10288.862594,-6883.915261,4903.011187
574.349869,4885.359217,-10510.924376,4903.011187
574.350196,-2220.617826,-13471.748144,3140.991542
574.350524,-8586.388927,-15026.180623,612.876398
574.350852,-11843.295072,-15396.283594,-459.657299
574.351179,-11473.192101,-13841.851115,-1838.629195
574.351507,-10288.862594,-12213.398043,-1685.410096
574.351835,-3182.885551,-8364.327145,-2374.896044
574.352162,-1628.453072,-5995.668130,0.000000
574.352490,-888.247130,-3997.112087,-2911.162892
574.352818,-2590.720797,-4811.338623,-4596.572988
574.353145,-9030.512492,-6735.874072,-7048.078582
574.353473,-11917.315666,-8438.347739,-9193.145976
574.353801,-15544.324782,-8734.430116,-10878.556072
574.354128,-12805.562797,-7920.203579,-10342.289223
574.354456,-7846.182985,-8216.285956,-8503.660028
574.354784,-1480.411884,-6587.832884,-7124.688131
574.355111,2812.782580,-7031.956449,-4903.011187
574.355439,5847.626942,-7105.977043,-4749.792088
574.355767,4219.173869,-9548.656652,-5515.887586
574.356094,2664.741391,-11325.150913,-6205.373534
574.356422,3627.009116,-10955.047942,-6894.859482
574.356750,6365.771101,-10436.903782,-6205.373534
574.357077,12213.398043,-10214.842000,-2987.772442
574.357405,13619.789333,-9474.636058,-1991.848295
574.357733,13323.706956,-10066.800811,-1149.143247
574.358060,13619.789333,-10362.883188,-766.095498
574.358388,12509.480420,-9474.636058,-1915.238745
574.358716,11399.171507,-10140.821405,-3753.867940
574.359043,11917.315666,-11177.109724,-1149.143247
574.359371,8586.388927,-12213.398043,-3140.991542
574.359699,-1480.411884,-15322.262999,-4749.792088
574.360026,-8734.430116,-14878.139434,-7354.516781
574.360354,-11251.130318,-12213.398043,-8733.488677
574.360682,-6957.935855,-6661.853478,-7124.688131
574.361009,-370.102971,-3034.844362,-5439.278036
574.361337,4589.276840,-2146.597232,-2451.505594
574.361665,2960.823768,-1628.453072,-1302.362347
574.361992,888.247130,-3552.988522,-612.876398
574.362320,-3552.988522,-4367.215058,-612.876398
574.362648,-6439.791695,-5921.647536,-2068.457845
574.362975,-5625.565159,-7772.162391,-1225.752797
574.363303,-6291.750507,-9548.656652,536.266849
574.363631,-5921.647536,-9622.677246,2298.286494
574.363958,-3404.947333,-9326.594869,4903.011187
574.364286,-2664.741391,-8142.265362,5362.668486
574.364614,-888.247130,-7698.141797,3983.696590
574.364941,-2072.576638,-10584.944971,2221.676944
574.365269,-4885.359217,-11769.274478,-459.657299
574.365597,-6809.894666,-11473.192101,-1455.581446
574.365924,-4811.338623,-10214.842000,-459.657299
574.366252,-1924.535449,-8216.285956,-229.828649
574.366580,-296.082377,-8142.265362,383.047749
574.366907,222.061783,-9326.594869,612.876398
574.367235,-2072.576638,-9770.718434,306.438199
574.367563,-4589.276840,-8660.409521,153.219100
574.367890,-4589.276840,-8882.471304,-306.438199
574.368218,-3923.091493,-10881.027347,-766.095498
574.368546,-3552.988522,-11769.274478,-1915.238745
574.368873,-3701.029710,-11695.253884,-2068.457845
574.369201,-1850.514855,-9104.533087,-1915.238745
574.369529,-1776.494261,-7031.956449,-2298.286494
574.369856,518.144159,-6587.832884,-2298.286494
574.370184,1184.329507,-7254.018232,-3370.820191
574.370512,2146.597232,-7254.018232,-4903.011187
574.370839,4737.318029,-7846.182985,-4366.744339
574.371167,5847.626942,-7698.141797,-3524.039291
574.371495,4737.318029,-9474.636058,-4290.134789
574.371823,4737.318029,-12805.562797,-3294.210641
574.372150,3552.988522,-14285.974681,-3753.867940
574.372478,2590.720797,-13915.871710,-3983.696590
574.372806,2590.720797,-12953.603985,-3064.381992
574.373134,1554.432478,-12287.418637,-3907.087040
574.373461,1480.411884,-11251.130318,-3677.258390
574.373789,3256.906145,-11325.150913,-2451.505594
574.374117,2368.659014,-9918.759623,-2987.772442
574.374445,1702.473667,-8882.471304,-2528.115143
574.374773,148.041188,-9104.533087,-4366.744339
574.375100,-1998.556043,-8364.327145,-4749.792088
574.375428,-2590.720797,-7402.059420,-5745.716235
574.375756,-1702.473667,-6809.894666,-5515.887586
574.376084,-1702.473667,-5847.626942,-5592.497135
574.376411,666.185348,-4441.235652,-3600.648841
574.376739,2072.576638,-4663.297435,-2068.457845
574.377067,888.247130,-6365.771101,-1608.800546
574.377395,-592.164754,-7846.182985,-1838.629195
574.377723,-1258.350101,-9252.574275,-1915.238745
574.378050,-3256.906145,-9844.739029,-2221.676944
574.378378,-4441.235652,-10362.883188,-2374.896044
574.378706,-4145.153275,-9844.739029,-2298.286494
574.379034,-2738.761985,-8512.368333,-2068.457845
574.379361,148.041188,-7994.224174,-995.924147
574.379689,0.000000,-8734.430116,-1762.019645
574.380017,-1850.514855,-8882.471304,-2298.286494
574.380345,-1480.411884,-8438.347739,-2757.943793
574.380673,-666.185348,-8364.327145,-2757.943793
574.381000,-148.041188,-8586.388927,-2374.896044
574.381328,2368.659014,-8142.265362,-1225.752797
574.381656,4145.153275,-6587.832884,-306.438199
574.381984,4441.235652,-6439.791695,1149.143247
574.382311,2812.782580,-8068.244768,1915.238745
574.382639,814.226536,-8364.327145,1302.362347
574.382967,0.000000,-8586.388927,1378.971896
574.383295,-222.061783,-9548.656652,1225.752797
574.383623,-2072.576638,-9844.739029,1149.143247
574.383950,-962.267725,-9030.512492,1532.190996
574.384278,1554.432478,-7846.182985,1838.629195
574.384606,1850.514855,-8734.430116,1608.800546
574.384934,0.000000,-8734.430116,0.000000
574.385261,-2368.659014,-8586.388927,-1302.362347
574.385589,-2812.782580,-8364.327145,-2451.505594
574.385917,-3552.988522,-9474.636058,-1762.019645
574.386245,-3330.926739,-9844.739029,-1072.533697
574.386573,-1628.453072,-10510.924376,-536.266849
574.386900,0.000000,-11103.089130,689.485948
574.387228,-2146.597232,-11325.150913,383.047749
574.387556,-2664.741391,-11251.130318,229.828649
574.387884,-3923.091493,-10881.027347,-842.705048
574.388211,-2590.720797,-10510.924376,-229.828649
574.388539,-2146.597232,-9844.739029,306.438199
574.388867,-666.185348,-7994.224174,842.705048
574.389195,814.226536,-7698.141797,1608.800546
574.389523,1332.370696,-8364.327145,1762.019645
574.389850,962.267725,-8586.388927,1225.752797
574.390178,888.247130,-8956.491898,153.219100
574.390506,1554.432478,-9326.594869,229.828649
574.390834,1998.556043,-9696.697840,995.924147
574.391161,2590.720797,-9696.697840,1838.629195
574.391489,3182.885551,-9844.739029,2451.505594
574.391817,3849.070898,-10955.047942,3217.601092
574.392145,1554.432478,-11917.315666,2451.505594
574.392473,-740.205942,-11695.253884,995.924147
574.392800,-2368.659014,-11917.315666,229.828649
574.393128,-1554.432478,-11621.233289,229.828649
574.393456,-2146.597232,-10732.986159,-229.828649
574.393784,-1850.514855,-9622.677246,-536.266849
574.394111,-1702.473667,-9918.759623,-459.657299
574.394439,-2738.761985,-9178.553681,-1302.362347
574.394767,-3701.029710,-8142.265362,-2068.457845
574.395095,-4367.215058,-7476.080014,-2451.505594
574.395423,-3182.885551,-7624.121203,-2911.162892
574.395750,-1702.473667,-7698.141797,-2221.676944
574.396078,-148.041188,-5995.668130,-1915.238745
574.396406,740.205942,-6957.935855,-459.657299
574.396734,1480.411884,-7476.080014,76.609550
574.397061,444.123565,-7772.162391,76.609550
574.397389,-148.041188,-8290.306550,-383.047749
574.397717,0.000000,-9030.512492,0.000000
574.398045,1702.473667,-8734.430116,766.095498
574.398373,2072.576638,-8438.347739,919.314598
574.398700,3330.926739,-8882.471304,2604.724693
574.399028,3478.967927,-9474.636058,2145.067394
574.399356,3478.967927,-9326.594869,1608.800546
574.399684,1998.556043,-9400.615463,766.095498
574.400011,2442.679609,-10140.821405,1149.143247
574.400339,3034.844362,-9326.594869,2221.676944
574.400667,3256.906145,-8660.409521,1991.848295
574.400995,2294.638420,-8660.409521,2068.457845
574.401323,1924.535449,-9770.718434,2987.772442
574.401650,-592.164754,-8660.409521,2451.505594
574.401978,-3330.926739,-8142.265362,1915.238745
574.402306,-3627.009116,-8660.409521,1149.143247
574.402634,-3552.988522,-8882.471304,1225.752797
574.402961,-4219.173869,-7698.141797,1149.143247
574.403289,-3701.029710,-7105.977043,1072.533697
574.403617,-3552.988522,-6069.688724,919.314598
574.403945,-3775.050304,-5847.626942,306.438199
574.404273,-4367.215058,-6143.709319,-306.438199
574.404600,-3775.050304,-6661.853478,-536.266849
574.404928,-1776.494261,-7254.018232,-153.219100
574.405256,-1184.329507,-7476.080014,0.000000
574.405584,-814.226536,-8290.306550,459.657299
574.405911,-592.164754,-9770.718434,919.314598
574.406239,-1406.391290,-10658.965565,766.095498
574.406567,-1924.535449,-11029.068536,0.000000
574.406895,-1702.473667,-11547.212695,0.000000
574.407223,444.123565,-11029.068536,229.828649
574.407550,2442.679609,-10732.986159,766.095498
574.407878,2442.679609,-10955.047942,995.924147
574.408206,2738.761985,-11547.212695,1532.190996
574.408534,2220.617826,-11177.109724,1378.971896
574.408861,888.247130,-10066.800811,229.828649
574.409189,1110.308913,-10510.924376,229.828649
574.409517,2146.597232,-11103.089130,459.657299
574.409845,3182.885551,-9918.759623,459.657299
574.410173,3182.885551,-9326.594869,1149.143247
574.410500,3404.947333,-10214.842000,1302.362347
574.410828,1702.473667,-11103.089130,995.924147
574.411156,-1110.308913,-9992.780217,76.609550
574.411484,-1406.391290,-10584.944971,-612.876398
574.411811,-1628.453072,-10807.006753,-612.876398
574.412139,-1184.329507,-10732.986159,-306.438199
574.412467,-1110.308913,-9474.636058,459.657299
574.412795,-962.267725,-9622.677246,383.047749
574.413123,-814.226536,-9770.718434,76.609550
574.413450,-2368.659014,-9178.553681,-689.485948
574.413778,-2886.803174,-9252.574275,-1149.143247
574.414106,-1554.432478,-8882.471304,-383.047749
574.414434,-370.102971,-8290.306550,-306.438199
574.414761,222.061783,-8660.409521,689.485948
574.415089,0.000000,-9844.739029,1225.752797
574.415417,-1258.350101,-9992.780217,1455.581446
574.415745,-2590.720797,-9918.759623,766.095498
574.416073,-3997.112087,-8586.388927,-459.657299
574.416400,-3404.947333,-8882.471304,-153.219100
574.416728,-1036.288319,-8364.327145,229.828649
574.417056,814.226536,-6661.853478,612.876398
574.417384,2368.659014,-6883.915261,1608.800546
574.417711,2738.761985,-7328.038826,2451.505594
574.418039,1036.288319,-7772.162391,1455.581446
574.418367,370.102971,-8216.285956,1455.581446
574.418695,1258.350101,-7624.121203,1378.971896
574.419023,2516.700203,-8438.347739,2221.676944
574.419350,2812.782580,-8290.306550,3217.601092
574.419678,2294.638420,-9474.636058,3447.429741
574.420006,814.226536,-9918.759623,2987.772442
574.420334,-1702.473667,-9252.574275,2451.505594
574.420661,-2516.700203,-8882.471304,612.876398
574.420989,-2812.782580,-8808.450710,459.657299
574.421317,-1924.535449,-7920.203579,0.000000
574.421645,-1110.308913,-7179.997637,-306.438199
574.421973,-592.164754,-6513.812290,0.000000
574.422300,-962.267725,-6661.853478,0.000000
574.422628,-1480.411884,-5995.668130,0.000000
574.422956,-2812.782580,-5995.668130,-1455.581446
574.423284,-2442.679609,-7550.100608,-766.095498
574.423611,-1554.432478,-7550.100608,76.609550
574.423939,-740.205942,-7105.977043,76.609550
574.424267,148.041188,-7772.162391,1072.533697
574.424595,-444.123565,-9622.677246,1378.971896
574.424923,-1998.556043,-10436.903782,1072.533697
574.425250,-3627.009116,-9770.718434,0.000000
574.425578,-3330.926739,-9770.718434,-306.438199
574.425906,-1406.391290,-9548.656652,-689.485948
574.426234,1332.370696,-8882.471304,-842.705048
574.426561,3108.864956,-8882.471304,0.000000
574.426889,4219.173869,-9770.718434,689.485948
574.427217,3404.947333,-10066.800811,383.047749
574.427545,1480.411884,-10584.944971,229.828649
574.427873,1554.432478,-11547.212695,383.047749
574.428200,2442.679609,-11325.150913,1072.533697
574.428528,3034.844362,-11473.192101,1608.800546
574.428856,2146.597232,-11991.336260,1991.848295
574.429184,1036.288319,-12879.583391,2911.162892
574.429511,-518.144159,-12139.377449,1915.238745
574.429839,-3552.988522,-11547.212695,1302.362347
574.430167,-3627.009116,-11769.274478,0.000000
574.430495,-2590.720797,-10140.821405,-995.924147
574.430823,-1924.535449,-8586.388927,-1378.971896
574.431150,0.000000,-7328.038826,-1072.533697
574.431478,370.102971,-6809.894666,-842.705048
574.431806,814.226536,-6809.894666,-383.047749
574.432134,148.041188,-6661.853478,-995.924147
574.432461,-962.267725,-8068.244768,-689.485948
574.432789,-296.082377,-8956.491898,76.609550
574.433117,0.000000,-9548.656652,995.924147
574.433445,296.082377,-9474.636058,1685.410096
574.433773,74.020594,-10955.047942,2604.724693
574.434100,-1332.370696,-11843.295072,2681.334243
574.434428,-3627.009116,-11621.233289,1915.238745
574.434756,-4589.276840,-11177.109724,919.314598
574.435084,-3108.864956,-10288.862594,689.485948
574.435411,-1702.473667,-8438.347739,153.219100
574.435739,814.226536,-7105.977043,-306.438199
574.436067,1110.308913,-6809.894666,0.000000
574.436395,1332.370696,-6143.709319,536.266849
574.436723,444.123565,-5625.565159,229.828649
574.437050,296.082377,-6217.729913,306.438199
574.437378,1258.350101,-6291.750507,612.876398
574.437706,2294.638420,-7402.059420,1608.800546
574.438034,1258.350101,-7254.018232,1685.410096
574.438361,740.205942,-8660.409521,2834.553343
574.438689,-1554.432478,-9622.677246,2757.943793
574.439017,-3182.885551,-9696.697840,1838.629195
574.439345,-4071.132681,-10214.842000,1072.533697
574.439673,-2960.823768,-9252.574275,153.219100
574.440000,-1258.350101,-7920.203579,-766.095498
574.440328,-296.082377,-7105.977043,0.000000
574.440656,1258.350101,-6957.935855,-383.047749
574.440984,1184.329507,-7179.997637,-612.876398
574.441311,518.144159,-6883.915261,-1072.533697
574.441639,0.000000,-7624.121203,-1608.800546
574.441967,370.102971,-9104.533087,-612.876398
574.442295,1776.494261,-9474.636058,153.219100
574.442623,2294.638420,-9844.739029,995.924147
574.442950,2294.638420,-11177.109724,1991.848295
574.443278,962.267725,-12509.480420,1915.238745
574.443606,-1554.432478,-12213.398043,2068.457845
574.443934,-3627.009116,-12065.356855,612.876398
574.444261,-3034.844362,-12065.356855,383.047749
574.444589,-1776.494261,-11177.109724,229.828649
574.444917,-592.164754,-9474.636058,-153.219100
574.445245,1110.308913,-9178.553681,-536.266849
574.445573,1406.391290,-8586.388927,-612.876398
574.445900,1036.288319,-8068.244768,-766.095498
574.446228,148.041188,-8142.265362,-1072.533697
574.446556,888.247130,-8882.471304,-842.705048
574.446884,2294.638420,-8660.409521,76.609550
574.447211,3478.967927,-8882.471304,766.095498
574.447539,3108.864956,-9844.739029,1991.848295
574.447867,1406.391290,-11177.109724,2528.115143
574.448195,-888.247130,-11695.253884,2221.676944
574.448523,-3330.926739,-11695.253884,1225.752797
574.448850,-4071.132681,-12139.377449,536.266849
574.449178,-3034.844362,-11103.089130,536.266849
574.449506,-1776.494261,-9474.636058,0.000000
574.449834,-962.267725,-8808.450710,-612.876398
574.450161,-444.123565,-8290.306550,0.000000
574.450489,-444.123565,-7772.162391,-612.876398
574.450817,-1258.350101,-6661.853478,-1378.971896
574.451145,-222.061783,-7031.956449,-689.485948
574.451473,1406.391290,-7105.977043,153.219100
574.451800,1480.411884,-7105.977043,766.095498
574.452128,2294.638420,-7994.224174,2221.676944
574.452456,1184.329507,-9844.739029,2911.162892
574.452784,-296.082377,-10362.883188,3217.601092
574.453111,-2960.823768,-10658.965565,2145.067394
574.453439,-3330.926739,-11029.068536,1991.848295
574.453767,-3256.906145,-10362.883188,1991.848295
574.454095,-1480.411884,-8586.388927,995.924147
574.454423,-666.185348,-7179.997637,536.266849
574.454750,814.226536,-7105.977043,842.705048
574.455078,814.226536,-7031.956449,76.609550
574.455406,296.082377,-6513.812290,0.000000
574.455734,888.247130,-6735.874072,-459.657299
574.456061,1776.494261,-7402.059420,383.047749
574.456389,2886.803174,-7328.038826,1302.362347
574.456717,2812.782580,-8290.306550,2374.896044
574.457045,2146.597232,-10140.821405,3753.867940
574.457373,74.020594,-10584.944971,3830.477490
574.457700,-2368.659014,-11251.130318,3140.991542
574.458028,-4515.256246,-11991.336260,1991.848295
574.458356,-4219.173869,-11917.315666,1685.410096
574.458684,-2812.782580,-10214.842000,919.314598
574.459011,-1702.473667,-8364.327145,383.047749
574.459339,-666.185348,-7624.121203,-459.657299
574.459667,-888.247130,-7031.956449,-919.314598
574.459995,-962.267725,-6587.832884,-1762.019645
574.460323,-444.123565,-6513.812290,-1915.238745
574.460650,740.205942,-6513.812290,-1378.971896
574.460978,2368.659014,-7698.141797,-536.266849
574.461306,2220.617826,-8586.388927,0.000000
574.461634,1702.473667,-10214.842000,1685.410096
574.461961,296.082377,-11547.212695,1762.019645
574.462289,-1628.453072,-11473.192101,1378.971896
574.462617,-3404.947333,-11843.295072,689.485948
574.462945,-3478.967927,-12065.356855,229.828649
574.463273,-2442.679609,-10732.986159,-306.438199
574.463600,-1406.391290,-9104.533087,-1149.143247
574.463928,74.020594,-8142.265362,-842.705048
574.464256,592.164754,-7698.141797,-1991.848295
574.464584,0.000000,-7328.038826,-2451.505594
574.464911,740.205942,-7254.018232,-2528.115143
574.465239,1702.473667,-7179.997637,-2221.676944
574.465567,4071.132681,-8142.265362,-689.485948
574.465895,4737.318029,-8956.491898,0.000000
574.466223,4663.297435,-10066.800811,1532.190996
574.466550,3330.926739,-11843.295072,2374.896044
574.466878,740.205942,-11917.315666,2298.286494
574.467206,-2146.597232,-12657.521608,1838.629195
574.467534,-3182.885551,-12583.501014,2374.896044
574.467861,-2368.659014,-11473.192101,1149.143247
574.468189,-1850.514855,-9696.697840,459.657299
574.468517,-148.041188,-9104.533087,842.705048
574.468845,0.000000,-8142.265362,229.828649
574.469173,0.000000,-6439.791695,0.000000
574.469500,-444.123565,-5255.462188,-766.095498
574.469828,518.144159,-5699.585753,-995.924147
574.470156,2072.576638,-6735.874072,76.609550
574.470484,2368.659014,-6735.874072,1149.143247
574.470811,2294.638420,-8586.388927,2374.896044
574.471139,814.226536,-10214.842000,3753.867940
574.471467,-1554.432478,-10955.047942,3294.210641
574.471795,-5033.400406,-11843.295072,2681.334243
574.472123,-6365.771101,-12731.542202,2451.505594
574.472450,-6069.688724,-11547.212695,1608.800546
574.472778,-4293.194464,-9252.574275,1225.752797
574.473106,-3034.844362,-7846.182985,612.876398
574.473433,-1924.535449,-7624.121203,383.047749
574.473761,-1998.556043,-6661.853478,-612.876398
574.474088,-2220.617826,-5699.585753,-1685.410096
574.474416,-740.205942,-5255.462188,-1455.581446
574.474743,2220.617826,-5477.523971,-919.314598
574.475071,3256.906145,-6661.853478,76.609550
574.475399,3552.988522,-8216.285956,1378.971896
574.475726,3108.864956,-10510.924376,2604.724693
574.476054,1628.453072,-11251.130318,2987.772442
574.476381,-666.185348,-11325.150913,2451.505594
574.476709,-1924.535449,-12953.603985,2068.457845
574.477036,-1924.535449,-12953.603985,1762.019645
574.477364,0.000000,-11473.192101,1455.581446
574.477692,592.164754,-9548.656652,766.095498
574.478019,2146.597232,-8808.450710,919.314598
574.478347,962.267725,-8734.430116,-153.219100
574.478674,74.020594,-7476.080014,-1532.190996
574.479002,0.000000,-7031.956449,-2604.724693
574.479330,1998.556043,-6661.853478,-2068.457845
574.479657,3256.906145,-6809.894666,-995.924147
574.479985,3997.112087,-7105.977043,-459.657299
574.480312,3701.029710,-9622.677246,1225.752797
574.480640,1776.494261,-10807.006753,2068.457845
574.480967,-1554.432478,-11621.233289,1838.629195
574.481295,-3923.091493,-12879.583391,1149.143247
574.481623,-5107.421000,-12657.521608,1225.752797
574.481950,-3849.070898,-12213.398043,1302.362347
574.482278,-2812.782580,-10214.842000,459.657299
574.482605,-1998.556043,-9696.697840,766.095498
574.482933,-1480.411884,-8438.347739,229.828649
574.483261,-2294.638420,-6587.832884,-1302.362347
574.483588,-2516.700203,-5995.668130,-2451.505594
574.483916,-1332.370696,-5773.606348,-2604.724693
574.484243,1406.391290,-5699.585753,-1915.238745
574.484571,2220.617826,-5477.523971,-1225.752797
574.484898,3182.885551,-6957.935855,1072.533697
574.485226,1998.556043,-9178.553681,1378.971896
574.485554,-518.144159,-10288.862594,1838.629195
574.485881,-2590.720797,-12213.398043,1608.800546
574.486209,-3552.988522,-12879.583391,1608.800546
574.486536,-2146.597232,-11917.315666,1991.848295
574.486864,-1258.350101,-9992.780217,1072.533697
574.487191,0.000000,-9696.697840,1455.581446
574.487519,74.020594,-9104.533087,536.266849
574.487847,-222.061783,-7476.080014,0.000000
574.488174,-222.061783,-5921.647536,-995.924147
574.488502,1332.370696,-5847.626942,-1302.362347
574.488829,3552.988522,-5551.544565,-306.438199
574.489157,5033.400406,-6143.709319,229.828649
574.489485,4959.379811,-7624.121203,1378.971896
574.489812,3627.009116,-9400.615463,2298.286494
574.490140,592.164754,-10584.944971,3064.381992
574.490467,-2294.638420,-11473.192101,2451.505594
574.490795,-2368.659014,-12953.603985,2451.505594
574.491122,-2442.679609,-12287.418637,2298.286494
574.491450,-1850.514855,-10584.944971,1991.848295
574.491778,-1702.473667,-9474.636058,1991.848295
574.492105,-1406.391290,-9030.512492,1225.752797
574.492433,-2516.700203,-7402.059420,153.219100
574.492760,-3330.926739,-6735.874072,-1225.752797
574.493088,-2368.659014,-6661.853478,-1991.848295
574.493416,-370.102971,-6143.709319,-1225.752797
574.493743,1406.391290,-6587.832884,-229.828649
574.494071,1776.494261,-7476.080014,612.876398
574.494398,962.267725,-9770.718434,1838.629195
574.494726,-888.247130,-10807.006753,1991.848295
574.495053,-3330.926739,-11399.171507,1225.752797
574.495381,-3627.009116,-13027.624579,1685.410096
574.495709,-2738.761985,-12065.356855,1991.848295
574.496036,-1776.494261,-11103.089130,1838.629195
574.496364,-740.205942,-10584.944971,1685.410096
574.496691,-296.082377,-9918.759623,1149.143247
574.497019,-222.061783,-9400.615463,766.095498
574.497347,-740.205942,-7402.059420,-689.485948
574.497674,-296.082377,-7402.059420,-1149.143247
574.498002,1776.494261,-7105.977043,-1532.190996
574.498329,3330.926739,-7105.977043,-612.876398
574.498657,4589.276840,-7328.038826,459.657299
574.498984,3034.844362,-9770.718434,689.485948
574.499312,1110.308913,-10807.006753,1225.752797
574.499640,-1702.473667,-11769.274478,842.705048
574.499967,-2294.638420,-12435.459826,1149.143247
574.500295,-1702.473667,-11843.295072,1149.143247
574.500622,-740.205942,-10732.986159,1149.143247
574.500950,0.000000,-10362.883188,1072.533697
574.501277,-592.164754,-10140.821405,842.705048
574.501605,-592.164754,-9030.512492,76.609550
574.501933,-1480.411884,-7476.080014,-919.314598
574.502260,-962.267725,-7402.059420,-1838.629195
574.502588,592.164754,-7550.100608,-1225.752797
574.502915,1776.494261,-7698.141797,-842.705048
574.503243,2220.617826,-6957.935855,-153.219100
574.503571,2294.638420,-8438.347739,919.314598
574.503898,2368.659014,-9474.636058,1838.629195
574.504226,-962.267725,-9770.718434,1149.143247
574.504553,-2516.700203,-11325.150913,919.314598
574.504881,-2368.659014,-10658.965565,1072.533697
574.505208,-962.267725,-9178.553681,1685.410096
574.505536,-592.164754,-8142.265362,1225.752797
574.505864,-370.102971,-8882.471304,1762.019645
574.506191,-1036.288319,-8808.450710,1072.533697
574.506519,-2516.700203,-7328.038826,0.000000
574.506846,-2072.576638,-7031.956449,0.000000
574.507174,-1554.432478,-7031.956449,0.000000
574.507502,1036.288319,-6809.894666,-229.828649
574.507829,1406.391290,-6883.915261,229.828649
574.508157,2220.617826,-7328.038826,842.705048
574.508484,1036.288319,-8438.347739,1302.362347
574.508812,-1776.494261,-9326.594869,689.485948
574.509139,-2220.617826,-9770.718434,459.657299
574.509467,-1924.535449,-10140.821405,995.924147
574.509795,-74.020594,-9548.656652,1225.752797
574.510122,0.000000,-9252.574275,1302.362347
574.510450,222.061783,-9474.636058,1685.410096
574.510777,-148.041188,-9918.759623,995.924147
574.511105,-1554.432478,-8586.388927,306.438199
574.511432,-1998.556043,-8734.430116,-842.705048
574.511760,-1110.308913,-9104.533087,-766.095498
574.512088,666.185348,-8512.368333,-689.485948
574.512415,1628.453072,-7105.977043,-459.657299
574.512743,2516.700203,-9030.512492,0.000000
574.513070,1702.473667,-9992.780217,612.876398
574.513398,370.102971,-9992.780217,459.657299
574.513726,-1036.288319,-10732.986159,0.000000
574.514053,-1406.391290,-11399.171507,536.266849
574.514381,-296.082377,-11473.192101,1072.533697
574.514708,0.000000,-10510.924376,536.266849
574.515036,814.226536,-10658.965565,919.314598
574.515363,1184.329507,-10510.924376,1072.533697
574.515691,0.000000,-9770.718434,612.876398
574.516019,-1110.308913,-9104.533087,153.219100
574.516346,-666.185348,-9770.718434,0.000000
574.516674,962.267725,-9104.533087,459.657299
574.517001,2368.659014,-8438.347739,919.314598
574.517329,1998.556043,-9474.636058,995.924147
574.517657,592.164754,-10288.862594,1991.848295
574.517984,-1036.288319,-11251.130318,1455.581446
574.518312,-3330.926739,-10658.965565,842.705048
574.518639,-3256.906145,-11547.212695,1072.533697
574.518967,-2442.679609,-10955.047942,995.924147
574.519294,-1702.473667,-9844.739029,1072.533697
574.519622,-1258.350101,-9474.636058,995.924147
574.519950,-740.205942,-8956.491898,1378.971896
574.520277,-1406.391290,-8216.285956,766.095498
574.520605,-2368.659014,-7476.080014,0.000000
574.520932,-1850.514855,-7624.121203,-383.047749
574.521260,-296.082377,-7105.977043,76.609550
574.521587,296.082377,-6069.688724,0.000000
574.521915,740.205942,-7031.956449,995.924147
574.522243,0.000000,-8512.368333,1302.362347
574.522570,-592.164754,-8956.491898,1608.800546
574.522898,-2294.638420,-8734.430116,1149.143247
574.523225,-2294.638420,-9770.718434,766.095498
574.523553,-1184.329507,-9918.759623,766.095498
574.523881,74.020594,-8956.491898,689.485948
574.524208,1184.329507,-7994.224174,689.485948
574.524536,2442.679609,-7846.182985,1991.848295
574.524863,1702.473667,-8142.265362,919.314598
574.525191,296.082377,-7254.018232,153.219100
574.525518,0.000000,-7550.100608,0.000000
574.525846,666.185348,-7920.203579,229.828649
574.526174,2072.576638,-7105.977043,1149.143247
574.526501,2220.617826,-7179.997637,766.095498
574.526829,1924.535449,-8734.430116,1838.629195
574.527156,370.102971,-9178.553681,1302.362347
574.527484,-1480.411884,-8882.471304,842.705048
574.527812,-2368.659014,-9252.574275,0.000000
574.528139,-1406.391290,-9252.574275,0.000000
574.528467,-518.144159,-8512.368333,0.000000
574.528794,0.000000,-6957.935855,-459.657299
574.529122,592.164754,-7402.059420,153.219100
574.529449,518.144159,-7105.977043,153.219100
574.529777,-1184.329507,-6661.853478,-306.438199
574.530105,-1480.411884,-7476.080014,-689.485948
574.530432,-740.205942,-7772.162391,-766.095498
574.530760,592.164754,-8142.265362,0.000000
574.531087,592.164754,-8438.347739,459.657299
574.531415,814.226536,-9918.759623,1378.971896
574.531742,-592.164754,-11399.171507,1378.971896
574.532070,-2294.638420,-11325.150913,612.876398
574.532398,-3404.947333,-11843.295072,-153.219100
574.532725,-3182.885551,-11917.315666,-383.047749
574.533053,-1406.391290,-10584.944971,-612.876398
574.533380,518.144159,-9030.512492,-536.266849
574.533708,1184.329507,-9326.594869,-766.095498
574.534036,1776.494261,-9400.615463,-229.828649
574.534363,296.082377,-9104.533087,-689.485948
574.534691,-592.164754,-9178.553681,-995.924147
574.535018,-592.164754,-10066.800811,-1149.143247
574.535346,222.061783,-10066.800811,153.219100
574.535673,1110.308913,-9770.718434,689.485948
574.536001,1998.556043,-11103.089130,1991.848295
574.536329,1036.288319,-11547.212695,2145.067394
574.536656,-222.061783,-11103.089130,1991.848295
574.536984,-1776.494261,-11251.130318,1455.581446
574.537311,-1554.432478,-10881.027347,689.485948
574.537639,74.020594,-10140.821405,612.876398
574.537967,1036.288319,-8586.388927,766.095498
574.538294,2368.659014,-8586.388927,1225.752797
574.538622,2368.659014,-8808.450710,995.924147
574.538949,1554.432478,-8660.409521,1838.629195
574.539277,74.020594,-9252.574275,1149.143247
574.539604,0.000000,-10214.842000,1455.581446
574.539932,444.123565,-10362.883188,2221.676944
574.540260,1110.308913,-9474.636058,2911.162892
574.540587,0.000000,-10436.903782,2834.553343
574.540915,-814.226536,-11473.192101,3447.429741
574.541242,-3182.885551,-10807.006753,2451.505594
574.541570,-5551.544565,-10288.862594,1378.971896
574.541898,-5181.441594,-9696.697840,536.266849
574.542225,-4589.276840,-8586.388927,0.000000
574.542553,-2960.823768,-7105.977043,0.000000
574.542880,-1702.473667,-7105.977043,-153.219100
574.543208,-740.205942,-6883.915261,383.047749
574.543535,-1036.288319,-5773.606348,1072.533697
574.543863,-1554.432478,-5773.606348,-536.266849
574.544191,-962.267725,-6735.874072,-383.047749
574.544518,370.102971,-6735.874072,153.219100
574.544846,1110.308913,-6883.915261,919.314598
574.545173,1628.453072,-8142.265362,2145.067394
574.545501,1258.350101,-9844.739029,2451.505594
574.545828,-370.102971,-10140.821405,2068.457845
574.546156,-2220.617826,-9622.677246,536.266849
574.546484,-2368.659014,-9770.718434,0.000000
574.546811,-1184.329507,-8956.491898,-383.047749
574.547139,888.247130,-7402.059420,-1378.971896
574.547466,2368.659014,-6513.812290,-1302.362347
574.547794,3552.988522,-6883.915261,-536.266849
574.548122,3404.947333,-6513.812290,-689.485948
574.548449,1850.514855,-6587.832884,-1149.143247
574.548777,1702.473667,-8068.244768,-1149.143247
574.549104,1480.411884,-8956.491898,0.000000
574.549432,2368.659014,-9252.574275,1149.143247
574.549759,2590.720797,-9474.636058,1685.410096
574.550087,1258.350101,-11177.109724,2298.286494
574.550415,74.020594,-11547.212695,1532.190996
574.550742,-2886.803174,-10881.027347,766.095498
574.551070,-4219.173869,-10732.986159,-459.657299
574.551397,-3478.967927,-10066.800811,-842.705048
574.551725,-1628.453072,-8438.347739,-1149.143247
574.552053,-740.205942,-7402.059420,-1532.190996
574.552380,740.205942,-7476.080014,-919.314598
574.552708,814.226536,-7328.038826,-1149.143247
574.553035,-518.144159,-7179.997637,-1302.362347
574.553363,-888.247130,-9104.533087,-1225.752797
574.553690,-518.144159,-10214.842000,76.609550
574.554018,740.205942,-10362.883188,1302.362347
574.554346,370.102971,-10436.903782,1378.971896
574.554673,962.267725,-11991.336260,2987.772442
574.555001,-1110.308913,-12805.562797,2528.115143
574.555328,-2886.803174,-12139.377449,1915.238745
574.555656,-4737.318029,-11547.212695,383.047749
574.555983,-3256.906145,-10807.006753,76.609550
574.556311,-814.226536,-9252.574275,306.438199
574.556639,666.185348,-7624.121203,0.000000
574.556966,2738.761985,-7328.038826,306.438199
574.557294,2590.720797,-7105.977043,383.047749
574.557621,1998.556043,-6883.915261,229.828649
574.557949,740.205942,-7624.121203,76.609550
574.558277,1776.494261,-9178.553681,919.314598
574.558604,1554.432478,-9844.739029,2068.457845
574.558932,1628.453072,-10436.903782,2987.772442
574.559259,1036.288319,-11695.253884,3983.696590
574.559587,-740.205942,-12287.418637,3983.696590
574.559914,-2664.741391,-12065.356855,3064.381992
574.560242,-4737.318029,-11325.150913,1838.629195
574.560570,-4441.235652,-10288.862594,1072.533697
574.560897,-3034.844362,-8586.388927,995.924147
574.561225,-2220.617826,-6365.771101,-383.047749
574.561552,-518.144159,-6513.812290,-229.828649
574.561880,0.000000,-5699.585753,-229.828649
574.562208,0.000000,-4737.318029,-612.876398
574.562535,-740.205942,-5625.565159,-919.314598
574.562863,-666.185348,-7772.162391,-229.828649
574.563190,296.082377,-7994.224174,766.095498
574.563518,1184.329507,-8216.285956,1762.019645
574.563845,1258.350101,-10140.821405,2604.724693
574.564173,222.061783,-11399.171507,3294.210641
574.564501,-1628.453072,-11621.233289,3064.381992
574.564828,-3923.091493,-11325.150913,1532.190996
574.565156,-3404.947333,-11029.068536,766.095498
574.565483,-1850.514855,-9326.594869,153.219100
574.565811,0.000000,-7476.080014,0.000000
574.566138,666.185348,-6809.894666,-1149.143247
574.566466,1554.432478,-6957.935855,-1532.190996
574.566794,1776.494261,-6513.812290,-1532.190996
574.567121,814.226536,-6069.688724,-2528.115143
574.567449,1406.391290,-7920.203579,-1608.800546
574.567776,2738.761985,-8438.347739,-383.047749
574.568104,2960.823768,-9252.574275,153.219100
574.568432,2812.782580,-10214.842000,1455.581446
574.568759,2368.659014,-11473.192101,2451.505594
574.569087,370.102971,-11843.295072,2604.724693
574.569414,-3034.844362,-11769.274478,1532.190996
574.569742,-3849.070898,-12213.398043,153.219100
574.570069,-3552.988522,-10881.027347,0.000000
574.570397,-1776.494261,-8364.327145,-919.314598
574.570725,-518.144159,-7550.100608,-1225.752797
574.571052,740.205942,-7254.018232,-766.095498
574.571380,592.164754,-6809.894666,-1762.019645
574.571707,74.020594,-5551.544565,-2298.286494
574.572035,888.247130,-6661.853478,-1991.848295
574.572363,1406.391290,-8290.306550,-612.876398
574.572690,2442.679609,-8734.430116,536.266849
574.573018,1998.556043,-10584.944971,1532.190996
574.573345,962.267725,-12435.459826,2911.162892
574.573673,-666.185348,-12953.603985,3217.601092
574.574000,-2960.823768,-12657.521608,2604.724693
574.574328,-3701.029710,-12805.562797,1991.848295
574.574656,-3330.926739,-11769.274478,1149.143247
574.574983,-2220.617826,-9770.718434,612.876398
574.575311,-814.226536,-7476.080014,76.609550
574.575638,962.267725,-6513.812290,0.000000
574.575966,1554.432478,-6513.812290,0.000000
574.576294,444.123565,-6069.688724,-1302.362347
574.576621,148.041188,-6809.894666,-383.047749
574.576949,1332.370696,-7624.121203,229.828649
574.577276,2294.638420,-7698.141797,1532.190996
574.577604,1924.535449,-9252.574275,2451.505594
574.577932,1036.288319,-11029.068536,3600.648841
574.578259,148.041188,-11325.150913,3524.039291
574.578587,-2368.659014,-10732.986159,3064.381992
574.578914,-3775.050304,-11769.274478,1915.238745
574.579242,-4145.153275,-11621.233289,1685.410096
574.579570,-2812.782580,-9696.697840,1072.533697
574.579897,-1850.514855,-7476.080014,306.438199
574.580225,-444.123565,-7402.059420,-459.657299
574.580552,0.000000,-6587.832884,-689.485948
574.580880,-1332.370696,-6143.709319,-1378.971896
574.581208,-1332.370696,-6661.853478,-1685.410096
574.581535,-222.061783,-7179.997637,-1762.019645
574.581863,962.267725,-7476.080014,0.000000
574.582190,2220.617826,-8068.244768,536.266849
574.582518,1998.556043,-10362.883188,1838.629195
574.582846,814.226536,-11251.130318,2451.505594
574.583173,-1480.411884,-11177.109724,1915.238745
574.583501,-3627.009116,-11251.130318,1455.581446
574.583828,-2738.761985,-11473.192101,842.705048
574.584156,-1924.535449,-10288.862594,153.219100
574.584484,-296.082377,-8438.347739,0.000000
574.584811,814.226536,-7698.141797,-766.095498
574.585139,2072.576638,-7254.018232,-919.314598
574.585466,1628.453072,-6365.771101,-1608.800546
574.585794,962.267725,-6661.853478,-1838.629195
574.586122,2220.617826,-8216.285956,-1378.971896
574.586449,3034.844362,-8142.265362,-689.485948
574.586777,3256.906145,-8216.285956,1072.533697
574.587104,3404.947333,-10436.903782,1838.629195
574.587432,2368.659014,-11917.315666,2604.724693
574.587760,-444.123565,-12287.418637,2528.115143
574.588087,-3108.864956,-12953.603985,1762.019645
574.588415,-3849.070898,-13397.727550,689.485948
574.588742,-3256.906145,-11769.274478,1302.362347
574.589070,-2146.597232,-10436.903782,612.876398
574.589398,-1480.411884,-9400.615463,0.000000
574.589725,-444.123565,-8586.388927,0.000000
574.590053,-740.205942,-7624.121203,-1455.581446
574.590381,-1850.514855,-6883.915261,-1455.581446
574.590708,-666.185348,-7254.018232,-1991.848295
574.591036,518.144159,-7254.018232,-1302.362347
574.591363,1702.473667,-7550.100608,-153.219100
574.591691,2738.761985,-8734.430116,1225.752797
574.592019,2146.597232,-11325.150913,2528.115143
574.592346,74.020594,-11103.089130,2681.334243
574.592674,-2442.679609,-11843.295072,2145.067394
574.593001,-3034.844362,-12805.562797,2068.457845
574.593329,-2738.761985,-11917.315666,1762.019645
574.593657,-1258.350101,-10214.842000,1455.581446
574.593984,-1036.288319,-9104.533087,459.657299
574.594312,592.164754,-7920.203579,536.266849
574.594639,444.123565,-6661.853478,-536.266849
574.594967,-148.041188,-5699.585753,-1532.190996
574.595295,518.144159,-5995.668130,-1685.410096
574.595622,2146.597232,-6069.688724,-995.924147
574.595950,3034.844362,-6291.750507,76.609550
574.596277,3256.906145,-7031.956449,995.924147
574.596605,2664.741391,-9622.677246,2528.115143
574.596933,444.123565,-10288.862594,2451.505594
574.597260,-2368.659014,-10288.862594,2451.505594
574.597588,-3923.091493,-11621.233289,1915.238745
574.597915,-3478.967927,-10955.047942,2145.067394
574.598243,-2220.617826,-9104.533087,1915.238745
574.598571,-814.226536,-7772.162391,1532.190996
574.598898,-296.082377,-7031.956449,842.705048
574.599226,-296.082377,-6291.750507,76.609550
574.599553,-1406.391290,-5033.400406,-1072.533697
574.599881,-1702.473667,-5107.421000,-1915.238745
574.600209,-814.226536,-6217.729913,-1302.362347
574.600536,962.267725,-7105.977043,76.609550
574.600864,1258.350101,-7402.059420,229.828649
574.601191,1924.535449,-8734.430116,1915.238745
574.601519,962.267725,-10436.903782,2681.334243
574.601847,-1924.535449,-11325.150913,2221.676944
574.602174,-3478.967927,-12213.398043,1838.629195
574.602502,-3182.885551,-11769.274478,1532.190996
574.602829,-2590.720797,-10140.821405,995.924147
574.603157,-1480.411884,-8660.409521,459.657299
574.603485,-222.061783,-8290.306550,229.828649
574.603812,-222.061783,-7550.100608,0.000000
574.604140,-296.082377,-6513.812290,-1149.143247
574.604467,-814.226536,-6809.894666,-2068.457845
574.604795,0.000000,-7328.038826,-1991.848295
574.605123,1850.514855,-7772.162391,-1378.971896
574.605450,2812.782580,-7846.182985,-306.438199
574.605778,3330.926739,-9474.636058,1532.190996
574.606105,2220.617826,-12139.377449,2221.676944
574.606433,222.061783,-12287.418637,2374.896044
574.606761,-1776.494261,-12879.583391,1915.238745
574.607088,-2368.659014,-13619.789333,1838.629195
574.607416,-962.267725,-12879.583391,2145.067394
574.607743,-962.267725,-11177.109724,1149.143247
574.608071,0.000000,-10436.903782,995.924147
574.608399,74.020594,-9400.615463,536.266849
574.608726,-370.102971,-8364.327145,-383.047749
574.609054,-1554.432478,-7179.997637,-1838.629195
574.609381,-444.123565,-7254.018232,-1915.238745
574.609709,1036.288319,-7402.059420,-1455.581446
574.610037,2368.659014,-6883.915261,-689.485948
574.610364,2664.741391,-8512.368333,383.047749
574.610692,2368.659014,-9622.677246,1302.362347
574.611019,814.226536,-10807.006753,2374.896044
574.611347,-2294.638420,-11251.130318,1685.410096
574.611675,-2664.741391,-12139.377449,1838.629195
574.612002,-2294.638420,-11991.336260,1991.848295
574.612330,-1850.514855,-10288.862594,1608.800546
574.612657,-1332.370696,-9622.677246,1762.019645
574.612985,-1110.308913,-9104.533087,842.705048
574.613313,-1258.350101,-8290.306550,153.219100
574.613640,-2960.823768,-7031.956449,-1532.190996
574.613968,-1776.494261,-7698.141797,-1762.019645
574.614295,518.144159,-7105.977043,-1838.629195
574.614623,1998.556043,-7031.956449,-612.876398
574.614951,3552.988522,-7772.162391,459.657299
574.615278,2664.741391,-9474.636058,1378.971896
574.615606,1258.350101,-10362.883188,1378.971896
574.615933,-1628.453072,-10362.883188,919.314598
574.616261,-2072.576638,-11399.171507,1149.143247
574.616589,-1924.535449,-11325.150913,1378.971896
574.616916,-1184.329507,-10214.842000,1455.581446
574.617244,-1110.308913,-9474.636058,1072.533697
574.617571,74.020594,-9104.533087,1072.533697
574.617899,0.000000,-7254.018232,766.095498
574.618227,-962.267725,-6291.750507,-612.876398
574.618554,-222.061783,-5921.647536,-689.485948
574.618882,1184.329507,-5995.668130,-919.314598
574.619209,2516.700203,-5403.503377,-229.828649
574.619537,3034.844362,-5551.544565,383.047749
574.619865,3182.885551,-7994.224174,1225.752797
574.620192,1702.473667,-9400.615463,1762.019645
574.620520,-666.185348,-10140.821405,1072.533697
574.620847,-2664.741391,-11843.295072,919.314598
574.621175,-2590.720797,-12139.377449,1455.581446
574.621503,-518.144159,-11399.171507,1838.629195
574.621830,-740.205942,-10066.800811,1532.190996
574.622158,-592.164754,-10140.821405,1378.971896
574.622485,-962.267725,-9030.512492,995.924147
574.622813,-2368.659014,-7402.059420,0.000000
574.623141,-2590.720797,-7179.997637,-1149.143247
574.623468,-1850.514855,-6883.915261,-1072.533697
574.623796,148.041188,-6069.688724,-919.314598
574.624123,592.164754,-6587.832884,-459.657299
574.624451,1332.370696,-7550.100608,766.095498
574.624779,370.102971,-8586.388927,1302.362347
574.625106,-1406.391290,-9548.656652,1225.752797
574.625434,-2738.761985,-11029.068536,919.314598
574.625761,-2294.638420,-11843.295072,1225.752797
574.626089,-1332.370696,-10955.047942,1378.971896
574.626417,-222.061783,-9474.636058,1532.190996
574.626744,518.144159,-9474.636058,1378.971896
574.627072,148.041188,-9474.636058,1302.362347
574.627399,-444.123565,-8586.388927,459.657299
574.627727,-888.247130,-8290.306550,-383.047749
574.628055,-444.123565,-8216.285956,-995.924147
574.628382,1480.411884,-7476.080014,-459.657299
574.628710,1850.514855,-7550.100608,0.000000
574.629037,2368.659014,-9252.574275,536.266849
574.629365,1406.391290,-10436.903782,1378.971896
574.629693,74.020594,-10362.883188,1608.800546
574.630020,-1480.411884,-10658.965565,1762.019645
574.630348,-1850.514855,-11991.336260,1149.143247
574.630675,-888.247130,-11621.233289,1302.362347
574.631003,-962.267725,-10140.821405,919.314598
574.631331,592.164754,-9918.759623,995.924147
574.631658,148.041188,-8734.430116,1072.533697
574.631986,-222.061783,-7402.059420,612.876398
574.632314,-1924.535449,-7328.038826,-306.438199
574.632641,-962.267725,-7550.100608,-383.047749
574.632969,148.041188,-7402.059420,0.000000
574.633296,592.164754,-6513.812290,0.000000
574.633624,1332.370696,-8290.306550,919.314598
574.633952,814.226536,-9918.759623,1225.752797
574.634279,-666.185348,-9992.780217,1302.362347
574.634607,-2738.761985,-10436.903782,383.047749
574.634934,-2368.659014,-11325.150913,306.438199
574.635262,-1110.308913,-10955.047942,76.609550
574.635590,-1184.329507,-9696.697840,383.047749
574.635917,-592.164754,-9770.718434,689.485948
574.636245,0.000000,-9400.615463,689.485948
574.636572,0.000000,-8734.430116,1072.533697
574.636900,-1258.350101,-7920.203579,-459.657299
574.637228,-296.082377,-8512.368333,0.000000
574.637555,592.164754,-8586.388927,229.828649
574.637883,1702.473667,-7550.100608,612.876398
574.638210,1480.411884,-8216.285956,766.095498
574.638538,1554.432478,-9252.574275,1532.190996
574.638866,74.020594,-9622.677246,995.924147
574.639193,-2146.597232,-9400.615463,229.828649
574.639521,-1924.535449,-9844.739029,229.828649
574.639848,-1036.288319,-10288.862594,153.219100
574.640176,296.082377,-9326.594869,919.314598
574.640504,444.123565,-8956.491898,306.438199
574.640831,740.205942,-9474.636058,842.705048
574.641159,222.061783,-9030.512492,536.266849
574.641486,-962.267725,-8290.306550,0.000000
574.641814,-1184.329507,-9104.533087,0.000000
574.642142,-592.164754,-8882.471304,0.000000
574.642469,888.247130,-8068.244768,612.876398
574.642797,1184.329507,-7698.141797,612.876398
574.643124,1554.432478,-9178.553681,1378.971896
574.643452,666.185348,-9622.677246,1225.752797
574.643780,-1480.411884,-9104.533087,1149.143247
574.644107,-2442.679609,-9992.780217,306.438199
574.644435,-2220.617826,-10140.821405,153.219100
574.644762,-518.144159,-8882.471304,459.657299
574.645090,0.000000,-8364.327145,459.657299
574.645418,740.205942,-8438.347739,1455.581446
574.645745,518.144159,-8956.491898,1149.143247
574.646073,-814.226536,-8660.409521,689.485948
574.646400,-1628.453072,-9104.533087,153.219100
574.646728,0.000000,-9178.553681,842.705048
574.647056,666.185348,-8808.450710,1302.362347
574.647383,962.267725,-9178.553681,612.876398
574.647711,444.123565,-9992.780217,1608.800546
574.648038,148.041188,-9622.677246,1838.629195
574.648366,-1480.411884,-9770.718434,995.924147
574.648694,-2590.720797,-10066.800811,76.609550
574.649021,-2072.576638,-10584.944971,306.438199
574.649349,-1110.308913,-9696.697840,459.657299
574.649676,-518.144159,-8512.368333,153.219100
574.650004,814.226536,-9252.574275,919.314598
574.650332,370.102971,-8956.491898,1149.143247
574.650659,0.000000,-8438.347739,536.266849
574.650987,-1480.411884,-8586.388927,-612.876398
574.651314,-370.102971,-9252.574275,0.000000
574.651642,-222.061783,-8586.388927,76.609550
574.651970,1036.288319,-7994.224174,842.705048
574.652297,740.205942,-8660.409521,995.924147
574.652625,814.226536,-9696.697840,1225.752797
574.652952,-888.247130,-9326.594869,689.485948
574.653280,-2738.761985,-9030.512492,-306.438199
574.653608,-2220.617826,-9844.739029,-536.266849
574.653935,-370.102971,-8882.471304,0.000000
574.654263,74.020594,-8438.347739,-459.657299
574.654590,1184.329507,-8882.471304,229.828649
574.654918,666.185348,-9400.615463,306.438199
574.655246,592.164754,-8956.491898,459.657299
574.655573,-592.164754,-8364.327145,0.000000
574.655901,222.061783,-8660.409521,76.609550
574.656228,1776.494261,-8734.430116,459.657299
574.656556,2220.617826,-8216.285956,1225.752797
574.656884,1924.535449,-9030.512492,1685.410096
574.657211,592.164754,-9844.739029,1991.848295
574.657539,-370.102971,-9770.718434,1762.019645
574.657866,-3404.947333,-9918.759623,383.047749
574.658194,-3182.885551,-10436.903782,0.000000
574.658522,-2072.576638,-9474.636058,76.609550
574.658849,-1332.370696,-8068.244768,-153.219100
574.659177,0.000000,-7402.059420,459.657299
574.659504,0.000000,-8586.388927,306.438199
574.659832,-296.082377,-7846.182985,229.828649
574.660160,-1702.473667,-7105.977043,-766.095498
574.660487,-1332.370696,-7846.182985,-459.657299
574.660815,-370.102971,-7772.162391,306.438199
574.661142,666.185348,-8068.244768,995.924147
574.661470,1184.329507,-8734.430116,1608.800546
574.661798,444.123565,-9474.636058,1991.848295
574.662125,-666.185348,-10066.800811,2145.067394
574.662453,-3478.967927,-10140.821405,1072.533697
574.662780,-3404.947333,-10955.047942,459.657299
574.663108,-2738.761985,-10362.883188,0.000000
574.663436,-888.247130,-8660.409521,76.609550
574.663763,518.144159,-8216.285956,0.000000
574.664091,1998.556043,-8512.368333,459.657299
574.664418,1850.514855,-7846.182985,919.314598
574.664746,296.082377,-7402.059420,-229.828649
574.665074,740.205942,-8364.327145,76.609550
574.665401,1406.391290,-8808.450710,919.314598
574.665729,2294.638420,-8512.368333,1991.848295
574.666056,1332.370696,-8882.471304,1991.848295
574.666384,1480.411884,-11103.089130,2911.162892
574.666712,-740.205942,-10955.047942,2451.505594
574.667039,-2516.700203,-10214.842000,1685.410096
574.667367,-3923.091493,-10584.944971,306.438199
574.667694,-3034.844362,-10362.883188,383.047749
574.668022,-1850.514855,-8142.265362,0.000000
574.668350,-962.267725,-7476.080014,-689.485948
574.668677,888.247130,-7846.182985,0.000000
574.669005,518.144159,-7254.018232,0.000000
574.669332,0.000000,-6957.935855,-459.657299
574.669660,-666.185348,-7698.141797,-153.219100
574.669988,74.020594,-8882.471304,0.000000
574.670315,1110.308913,-8586.388927,766.095498
574.670643,888.247130,-9400.615463,1149.143247
574.670970,1036.288319,-10584.944971,2451.505594
574.671298,296.082377,-10732.986159,2987.772442
574.671626,-1480.411884,-10732.986159,2068.457845
574.671953,-2516.700203,-11473.192101,1225.752797
574.672281,-1702.473667,-11843.295072,1532.190996
574.672608,-148.041188,-10066.800811,1532.190996
574.672936,1332.370696,-7920.203579,1762.019645
574.673264,3108.864956,-8586.388927,1915.238745
574.673591,3034.844362,-8290.306550,1915.238745
574.673919,2368.659014,-7772.162391,1915.238745
574.674247,1184.329507,-8586.388927,1685.410096
574.674574,1036.288319,-9104.533087,2145.067394
574.674902,1850.514855,-9326.594869,2911.162892
574.675229,1184.329507,-9548.656652,3064.381992
574.675557,888.247130,-11325.150913,4290.134789
574.675885,-592.164754,-11769.274478,4366.744339
574.676213,-2664.741391,-10955.047942,4213.525239
574.676540,-4293.194464,-10140.821405,2757.943793
574.676868,-4737.318029,-10658.965565,2145.067394
574.677196,-4367.215058,-9326.594869,1762.019645
574.677523,-2960.823768,-7105.977043,1072.533697
574.677851,-1924.535449,-6735.874072,76.609550
574.678179,-2146.597232,-6587.832884,995.924147
574.678506,-2516.700203,-6291.750507,229.828649
574.678834,-2072.576638,-5921.647536,0.000000
574.679162,-444.123565,-6661.853478,919.314598
574.679490,1036.288319,-7328.038826,2221.676944
574.679817,2664.741391,-8290.306550,3294.210641
574.680145,4071.132681,-8956.491898,5132.839837
574.680473,3775.050304,-10362.883188,6665.030833
574.680800,1702.473667,-11325.150913,6665.030833
574.681128,74.020594,-11621.233289,6128.763984
574.681456,-444.123565,-11325.150913,5822.325785
574.681783,-444.123565,-11621.233289,5286.058936
574.682111,-222.061783,-9770.718434,4673.182538
574.682439,2220.617826,-8068.244768,4903.011187
574.682766,3849.070898,-7179.997637,4903.011187
574.683094,2368.659014,-7328.038826,4596.572988
574.683422,592.164754,-7328.038826,3370.820191
574.683749,-1554.432478,-7846.182985,2528.115143
574.684077,-1850.514855,-7920.203579,2068.457845
574.684405,-2442.679609,-8512.368333,1838.629195
574.684732,-2294.638420,-8586.388927,2451.505594
574.685060,-1406.391290,-7994.224174,3524.039291
574.685388,-592.164754,-8808.450710,4903.011187
574.685715,-2368.659014,-8882.471304,4826.401637
574.686043,-4885.359217,-9844.739029,4136.915689
574.686371,-5995.668130,-10510.924376,2757.943793
574.686698,-5477.523971,-9696.697840,2298.286494
574.687026,-4441.235652,-8586.388927,1149.143247
574.687354,-2146.597232,-7550.100608,1762.019645
574.687681,148.041188,-6735.874072,1991.848295
574.688009,2368.659014,-6513.812290,3064.381992
574.688337,2590.720797,-6513.812290,3447.429741
574.688664,2664.741391,-8068.244768,3217.601092
574.688992,1184.329507,-10510.924376,1991.848295
574.689320,-666.185348,-12065.356855,1072.533697
574.689647,-888.247130,-12731.542202,1378.971896
574.689975,518.144159,-12361.439231,2451.505594
574.690303,3330.926739,-11991.336260,4060.306139
574.690630,4071.132681,-11843.295072,5209.449386
574.690958,4367.215058,-11399.171507,5439.278036
574.691286,4589.276840,-10214.842000,6128.763984
574.691614,3775.050304,-9918.759623,4749.792088
574.691941,1924.535449,-9992.780217,4136.915689
574.692269,444.123565,-10510.924376,3140.991542
574.692597,-148.041188,-10214.842000,3447.429741
574.692924,0.000000,-8956.491898,3753.867940
574.693252,592.164754,-8364.327145,4443.353888
574.693580,814.226536,-8142.265362,4673.182538
574.693907,-666.185348,-9326.594869,3600.648841
574.694235,-2590.720797,-9474.636058,2451.505594
574.694563,-3627.009116,-9104.533087,2145.067394
574.694890,-3404.947333,-9326.594869,1838.629195
574.695218,-3478.967927,-9178.553681,2451.505594
574.695546,-3552.988522,-9770.718434,2681.334243
574.695873,-4589.276840,-9992.780217,2451.505594
574.696201,-4441.235652,-9400.615463,2221.676944
574.696529,-3552.988522,-7550.100608,2145.067394
574.696856,-2072.576638,-7328.038826,2528.115143
574.697184,-962.267725,-7328.038826,1915.238745
574.697512,-518.144159,-8068.244768,2681.334243
574.697839,0.000000,-8438.347739,3140.991542
574.698167,1480.411884,-7994.224174,4136.915689
574.698495,3404.947333,-8068.244768,5056.230287
574.698822,4737.318029,-8660.409521,5515.887586
574.699150,3997.112087,-10214.842000,5975.544884
574.699478,2368.659014,-11325.150913,5286.058936
574.699805,888.247130,-11325.150913,5362.668486
574.700133,444.123565,-9992.780217,4903.011187
574.700461,1628.453072,-8956.491898,4290.134789
574.700788,2664.741391,-9326.594869,4290.134789
574.701116,3108.864956,-8882.471304,4136.915689
574.701444,814.226536,-9696.697840,3677.258390
574.701771,-1332.370696,-8290.306550,2911.162892
574.702099,-1628.453072,-7772.162391,2451.505594
574.702427,-1776.494261,-7328.038826,3064.381992
574.702755,-1480.411884,-7698.141797,2528.115143
574.703082,-1776.494261,-7846.182985,2757.943793
574.703410,-3330.926739,-8142.265362,2451.505594
574.703738,-4811.338623,-8142.265362,1838.629195
574.704065,-5255.462188,-7920.203579,1838.629195
574.704393,-4145.153275,-8290.306550,1302.362347
574.704721,-1628.453072,-7994.224174,1455.581446
574.705048,-518.144159,-7402.059420,2145.067394
574.705376,148.041188,-7328.038826,3140.991542
574.705704,296.082377,-7254.018232,3830.477490
574.706031,-296.082377,-8290.306550,2374.896044
574.706359,74.020594,-8808.450710,2221.676944
574.706687,814.226536,-9474.636058,2068.457845
574.707014,2294.638420,-9474.636058,2911.162892
574.707342,3701.029710,-9548.656652,4596.572988
574.707670,4293.194464,-10214.842000,5362.668486
574.707997,3552.988522,-11103.089130,5439.278036
574.708325,2590.720797,-11399.171507,4443.353888
574.708653,1480.411884,-11843.295072,3447.429741
574.708980,0.000000,-11029.068536,3447.429741
574.709308,222.061783,-11177.109724,4903.011187
574.709636,1110.308913,-9992.780217,3600.648841
574.709963,740.205942,-9548.656652,4903.011187
574.710291,2590.720797,-8808.450710,4749.792088
574.710619,518.144159,-9474.636058,4749.792088
574.710946,-2368.659014,-9400.615463,3983.696590
574.711274,-3627.009116,-9474.636058,2145.067394
574.711602,-4737.318029,-9474.636058,2374.896044
574.711929,-3997.112087,-8882.471304,2068.457845
574.712257,-2294.638420,-8290.306550,3064.381992
574.712585,-518.144159,-7550.100608,3140.991542
574.712912,-296.082377,-7328.038826,4519.963438
574.713240,-444.123565,-7846.182985,4443.353888
574.713568,-2368.659014,-8586.388927,3600.648841
574.713895,-2960.823768,-9474.636058,2757.943793
574.714223,-3478.967927,-9992.780217,1991.848295
574.714551,-3627.009116,-9918.759623,1838.629195
574.714879,-2220.617826,-9992.780217,2145.067394
574.715206,-222.061783,-9252.574275,3294.210641
574.715534,1702.473667,-8956.491898,3753.867940
574.715862,2812.782580,-9474.636058,4136.915689
574.716189,1998.556043,-9400.615463,3983.696590
574.716517,1184.329507,-9844.739029,3294.210641
574.716845,814.226536,-10510.924376,2987.772442
574.717172,666.185348,-10510.924376,3294.210641
574.717500,1036.288319,-10214.842000,3983.696590
574.717828,962.267725,-9696.697840,4596.572988
574.718155,962.267725,-9252.574275,4213.525239
574.718483,666.185348,-9474.636058,4519.963438
574.718811,296.082377,-8660.409521,2987.772442
574.719138,-888.247130,-8142.265362,3294.210641
574.719466,1258.350101,-7105.977043,2834.553343
574.719794,1332.370696,-7772.162391,3140.991542
574.720121,1332.370696,-7254.018232,3140.991542
574.720449,2072.576638,-7328.038826,3524.039291
574.720777,1184.329507,-7846.182985,4060.306139
574.721104,888.247130,-8290.306550,3907.087040
574.721432,-148.041188,-9252.574275,4290.134789
574.721760,-1850.514855,-9548.656652,3677.258390
574.722087,-1776.494261,-9844.739029,3677.258390
574.722415,-2368.659014,-9474.636058,3447.429741
574.722743,-2072.576638,-9252.574275,3677.258390
574.723070,-1702.473667,-8438.347739,3294.210641
574.723398,-1628.453072,-8660.409521,2911.162892
574.723726,-1480.411884,-8216.285956,2221.676944
574.724053,-1554.432478,-7846.182985,2298.286494
574.724381,-1332.370696,-7772.162391,2221.676944
574.724709,-1036.288319,-8068.244768,3217.601092
574.725036,-1184.329507,-8438.347739,2987.772442
574.725364,-1110.308913,-8364.327145,2834.553343
574.725692,-740.205942,-8882.471304,3447.429741
574.726019,-370.102971,-9178.553681,3447.429741
574.726347,74.020594,-9844.739029,3524.039291
574.726675,592.164754,-10362.883188,3907.087040
574.727003,444.123565,-10066.800811,3677.258390
574.727330,222.061783,-9844.739029,3447.429741
574.727658,0.000000,-9696.697840,3370.820191
574.727986,592.164754,-9326.594869,3370.820191
574.728313,1184.329507,-8882.471304,2681.334243
574.728641,592.164754,-9104.533087,2834.553343
574.728969,1480.411884,-9178.553681,2451.505594
574.729296,518.144159,-9696.697840,2604.724693
574.729624,296.082377,-10066.800811,2451.505594
574.729952,148.041188,-9992.780217,2298.286494
574.730279,-592.164754,-10362.883188,2451.505594
574.730607,-592.164754,-10436.903782,2068.457845
574.730935,-962.267725,-9992.780217,1838.629195
574.731262,-1332.370696,-9770.718434,1685.410096
574.731590,-1554.432478,-9474.636058,2298.286494
574.731918,-1776.494261,-9474.636058,1532.190996
574.732245,-1776.494261,-9104.533087,1302.362347
574.732573,-1110.308913,-8512.368333,1302.362347
574.732901,-814.226536,-7994.224174,919.314598
574.733228,0.000000,-7846.182985,1455.581446
574.733556,518.144159,-8142.265362,1225.752797
574.733884,0.000000,-8438.347739,995.924147
574.734211,0.000000,-8956.491898,1072.533697
574.734539,-222.061783,-9400.615463,1532.190996
574.734867,74.020594,-9992.780217,1532.190996
574.735194,444.123565,-9992.780217,1608.800546
574.735522,962.267725,-10288.862594,2068.457845
574.735850,1258.350101,-10214.842000,2068.457845
574.736177,1628.453072,-9992.780217,1991.848295
574.736505,1406.391290,-9844.739029,2221.676944
574.736833,1110.308913,-9104.533087,1838.629195
574.737160,0.000000,-9252.574275,1302.362347
574.737488,0.000000,-8808.450710,1149.143247
574.737816,0.000000,-8438.347739,1072.533697
574.738143,-296.082377,-8364.327145,1072.533697
574.738471,-148.041188,-8438.347739,1149.143247
574.738799,-296.082377,-8364.327145,1149.143247
574.739127,-962.267725,-8586.388927,919.314598
574.739454,-888.247130,-8438.347739,536.266849
574.739782,-1554.432478,-8290.306550,306.438199
574.740110,-1480.411884,-7846.182985,383.047749
574.740437,-962.267725,-7994.224174,76.609550
574.740765,-888.247130,-8438.347739,536.266849
574.741093,-814.226536,-8512.368333,995.924147
574.741420,-592.164754,-8660.409521,766.095498
574.741748,-962.267725,-8734.430116,1149.143247
574.742076,-370.102971,-8808.450710,1149.143247
574.742403,-370.102971,-9030.512492,536.266849
574.742731,0.000000,-9178.553681,536.266849
574.743059,74.020594,-9104.533087,842.705048
574.743386,296.082377,-9474.636058,995.924147
574.743714,222.061783,-9252.574275,1455.581446
574.744042,222.061783,-9548.656652,1378.971896
574.744369,74.020594,-9622.677246,1149.143247
574.744697,74.020594,-9622.677246,919.314598
574.745025,0.000000,-9400.615463,766.095498
574.745352,0.000000,-8882.471304,1149.143247
574.745680,74.020594,-9030.512492,612.876398
574.746008,222.061783,-8660.409521,842.705048
574.746335,-370.102971,-8882.471304,919.314598
574.746663,-296.082377,-8586.388927,995.924147
574.746991,-888.247130,-8216.285956,1072.533697
574.747318,-962.267725,-8586.388927,1072.533697
574.747646,-1406.391290,-8808.450710,612.876398
574.747974,-1406.391290,-9178.553681,459.657299
574.748301,-1258.350101,-9252.574275,612.876398
574.748629,-1110.308913,-9326.594869,76.609550
574.748957,-962.267725,-9252.574275,919.314598
574.749284,-518.144159,-9474.636058,459.657299
574.749612,-296.082377,-9326.594869,766.095498
574.749940,-148.041188,-9622.677246,459.657299
574.750267,-296.082377,-9474.636058,306.438199
574.750595,-518.144159,-9252.574275,612.876398
574.750923,-222.061783,-9844.739029,459.657299
574.751251,-296.082377,-9844.739029,612.876398
574.751578,0.000000,-9918.759623,842.705048
574.751906,222.061783,-9918.759623,612.876398
574.752234,666.185348,-9178.553681,689.485948
574.752561,592.164754,-9252.574275,612.876398
574.752889,592.164754,-9178.553681,689.485948
574.753217,592.164754,-9252.574275,459.657299
574.753544,148.041188,-9030.512492,383.047749
574.753872,222.061783,-8660.409521,842.705048
574.754200,222.061783,-9030.512492,612.876398
574.754527,0.000000,-9030.512492,306.438199
574.754855,296.082377,-9252.574275,306.438199
574.755183,0.000000,-9030.512492,229.828649
574.755510,148.041188,-8808.450710,0.000000
574.755838,0.000000,-8734.430116,153.219100
574.756166,-296.082377,-8586.388927,306.438199
574.756493,-592.164754,-8882.471304,76.609550
574.756821,-740.205942,-8660.409521,306.438199
574.757149,-962.267725,-8808.450710,153.219100
574.757476,-962.267725,-8364.327145,153.219100
574.757804,-740.205942,-9326.594869,459.657299
574.758132,-740.205942,-8808.450710,536.266849
574.758459,-518.144159,-8586.388927,306.438199
574.758787,-370.102971,-8438.347739,536.266849
574.759115,-296.082377,-8290.306550,919.314598
574.759442,-444.123565,-8364.327145,536.266849
574.759770,-444.123565,-8586.388927,842.705048
574.760098,-888.247130,-8882.471304,1072.533697
574.760425,-962.267725,-9178.553681,842.705048
574.760753,-1258.350101,-9252.574275,1378.971896
574.761081,-888.247130,-9104.533087,306.438199
574.761408,-370.102971,-9030.512492,919.314598
574.761736,-518.144159,-8882.471304,536.266849
574.762064,-296.082377,-8586.388927,766.095498
574.762391,-222.061783,-9030.512492,306.438199
574.762719,-148.041188,-9030.512492,459.657299
574.763047,-370.102971,-9326.594869,842.705048
574.763375,-592.164754,-9474.636058,842.705048
574.763702,-666.185348,-9548.656652,689.485948
574.764030,-740.205942,-9696.697840,689.485948
574.764358,296.082377,-9622.677246,689.485948
574.764685,-296.082377,-9474.636058,536.266849
574.765013,-222.061783,-9178.553681,536.266849
574.765341,-444.123565,-9178.553681,459.657299
574.765668,-666.185348,-9400.615463,459.657299
574.765996,-592.164754,-9326.594869,1302.362347
574.766324,-148.041188,-9326.594869,383.047749
574.766651,-592.164754,-9400.615463,459.657299
574.766979,-370.102971,-9252.574275,229.828649
574.767307,0.000000,-9326.594869,459.657299
574.767634,0.000000,-8586.388927,153.219100
574.767962,0.000000,-8290.306550,306.438199
574.768290,0.000000,-9104.533087,306.438199
574.768617,0.000000,-9178.553681,229.828649
574.768945,0.000000,-9400.615463,689.485948
574.769273,-148.041188,-9474.636058,842.705048
574.769600,-370.102971,-9770.718434,383.047749
574.769928,-296.082377,-9918.759623,689.485948
574.770256,0.000000,-9622.677246,612.876398
574.770583,0.000000,-8882.471304,383.047749
574.770911,-222.061783,-8660.409521,229.828649
574.771239,-444.123565,-8586.388927,0.000000
574.771566,-962.267725,-8512.368333,383.047749
574.771894,-1184.329507,-8660.409521,306.438199
574.772222,-1258.350101,-8734.430116,459.657299
574.772549,-1184.329507,-8956.491898,842.705048
574.772877,-666.185348,-8882.471304,1225.752797
574.773205,0.000000,-8734.430116,612.876398
574.773532,148.041188,-8512.368333,383.047749
574.773860,444.123565,-8438.347739,459.657299
574.774188,296.082377,-8364.327145,229.828649
574.774515,-148.041188,-8586.388927,842.705048
574.774843,-222.061783,-9548.656652,995.924147
574.775171,-222.061783,-9992.780217,1072.533697
574.775498,-370.102971,-10140.821405,1072.533697
574.775826,-148.041188,-9770.718434,1149.143247
574.776153,296.082377,-9474.636058,689.485948
574.776481,1184.329507,-8808.450710,689.485948
574.776809,1036.288319,-8068.244768,229.828649
574.777136,740.205942,-7920.203579,229.828649
574.777464,296.082377,-8142.265362,383.047749
574.777791,-370.102971,-8290.306550,689.485948
574.778119,-1036.288319,-8660.409521,612.876398
574.778447,-1036.288319,-9400.615463,766.095498
574.778774,-518.144159,-9474.636058,536.266849
574.779102,-444.123565,-9252.574275,689.485948
574.779430,-222.061783,-8882.471304,383.047749
574.779757,148.041188,-8364.327145,919.314598
574.780085,444.123565,-8216.285956,76.609550
574.780412,148.041188,-8438.347739,153.219100
574.780740,-222.061783,-8734.430116,459.657299
574.781068,-592.164754,-9474.636058,612.876398
574.781395,-740.205942,-9548.656652,842.705048
574.781723,-1184.329507,-9844.739029,689.485948
574.782050,-1110.308913,-9918.759623,612.876398
574.782378,-666.185348,-9622.677246,306.438199
574.782706,0.000000,-9326.594869,306.438199
574.783033,296.082377,-9030.512492,459.657299
574.783361,592.164754,-8808.450710,153.219100
574.783688,518.144159,-9104.533087,612.876398
574.784016,148.041188,-9770.718434,689.485948
574.784344,-370.102971,-10140.821405,766.095498
574.784671,-592.164754,-9918.759623,919.314598
574.784999,-740.205942,-9918.759623,766.095498
574.785326,-814.226536,-9548.656652,459.657299
574.785654,-592.164754,-9178.553681,612.876398
574.785982,-444.123565,-8808.450710,536.266849
574.786309,-444.123565,-8586.388927,229.828649
574.786637,-222.061783,-8956.491898,536.266849
574.786965,-592.164754,-9252.574275,842.705048
574.787292,-962.267725,-9474.636058,689.485948
574.787620,-814.226536,-9622.677246,842.705048
574.787947,-592.164754,-9548.656652,842.705048
574.788275,-444.123565,-9474.636058,995.924147
574.788603,-962.267725,-9474.636058,383.047749
574.788930,-444.123565,-9326.594869,383.047749
574.789258,0.000000,-9326.594869,689.485948
574.789585,-222.061783,-9326.594869,842.705048
574.789913,-296.082377,-9474.636058,766.095498
574.790241,-666.185348,-8956.491898,842.705048
574.790568,-296.082377,-9400.615463,995.924147
574.790896,-518.144159,-9474.636058,766.095498
574.791223,-518.144159,-9104.533087,536.266849
574.791551,-592.164754,-8882.471304,536.266849
574.791879,0.000000,-8512.368333,536.266849
574.792206,-222.061783,-8364.327145,153.219100
574.792534,-518.144159,-8290.306550,383.047749
574.792861,-370.102971,-8364.327145,612.876398
574.793189,-444.123565,-8290.306550,383.047749
574.793517,-370.102971,-8660.409521,995.924147
574.793844,-518.144159,-8512.368333,306.438199
574.794172,-444.123565,-8956.491898,842.705048
574.794500,-370.102971,-8808.450710,306.438199
574.794827,-222.061783,-8956.491898,306.438199
574.795155,-296.082377,-8882.471304,459.657299
574.795482,-370.102971,-8808.450710,306.438199
574.795810,-370.102971,-9030.512492,306.438199
574.796138,-444.123565,-9252.574275,536.266849
574.796465,0.000000,-9178.553681,459.657299
574.796793,0.000000,-9030.512492,383.047749
574.797120,222.061783,-8808.450710,306.438199
574.797448,74.020594,-9030.512492,306.438199
574.797776,0.000000,-8956.491898,306.438199
574.798103,0.000000,-8956.491898,689.485948
574.798431,74.020594,-9104.533087,689.485948
574.798758,0.000000,-9178.553681,919.314598
574.799086,0.000000,-9400.615463,919.314598
574.799414,148.041188,-9548.656652,1072.533697
574.799741,148.041188,-9178.553681,842.705048
574.800069,0.000000,-9030.512492,612.876398
574.800396,74.020594,-9474.636058,306.438199
574.800724,0.000000,-8734.430116,766.095498
574.801052,0.000000,-8586.388927,459.657299
574.801379,-222.061783,-8734.430116,229.828649
574.801707,-518.144159,-9252.574275,459.657299
574.802035,-592.164754,-9400.615463,919.314598
574.802362,-814.226536,-8808.450710,459.657299
574.802690,-518.144159,-9104.533087,612.876398
574.803017,-222.061783,-9474.636058,536.266849
574.803345,0.000000,-9326.594869,766.095498
574.803673,0.000000,-9178.553681,306.438199
574.804000,-296.082377,-8956.491898,1149.143247
574.804328,0.000000,-9252.574275,459.657299
574.804655,-592.164754,-9474.636058,612.876398
574.804983,-592.164754,-9474.636058,612.876398
574.805311,-518.144159,-9400.615463,689.485948
574.805638,-370.102971,-9104.533087,842.705048
574.805966,-518.144159,-9178.553681,689.485948
574.806293,0.000000,-8956.491898,459.657299
574.806621,0.000000,-8882.471304,153.219100
574.806949,148.041188,-8734.430116,306.438199
574.807276,74.020594,-9252.574275,306.438199
574.807604,-296.082377,-9104.533087,766.095498
574.807932,-222.061783,-9696.697840,536.266849
574.808259,0.000000,-9844.739029,612.876398
574.808587,0.000000,-9770.718434,842.705048
574.808914,0.000000,-9548.656652,842.705048
574.809242,296.082377,-9252.574275,153.219100
574.809570,74.020594,-9030.512492,306.438199
574.809897,74.020594,-8882.471304,306.438199
574.810225,0.000000,-8734.430116,306.438199
574.810552,-222.061783,-8882.471304,306.438199
574.810880,-370.102971,-8808.450710,536.266849
574.811208,-666.185348,-9104.533087,612.876398
574.811535,-518.144159,-9104.533087,536.266849
574.811863,-296.082377,-9178.553681,689.485948
574.812190,-444.123565,-9178.553681,536.266849
574.812518,148.041188,-8956.491898,689.485948
574.812846,74.020594,-8956.491898,536.266849
574.813173,0.000000,-8882.471304,612.876398
574.813501,148.041188,-9326.594869,766.095498
574.813828,0.000000,-9474.636058,842.705048
574.814156,-222.061783,-9252.574275,1149.143247
574.814484,-518.144159,-9400.615463,995.924147
574.814811,-518.144159,-9326.594869,383.047749
574.815139,-592.164754,-9326.594869,766.095498
574.815467,-518.144159,-8808.450710,306.438199
574.815794,-518.144159,-8660.409521,612.876398
574.816122,-592.164754,-8290.306550,0.000000
574.816449,-296.082377,-8808.450710,306.438199
574.816777,-370.102971,-8660.409521,459.657299
574.817105,-222.061783,-8956.491898,536.266849
574.817432,-222.061783,-9104.533087,766.095498
574.817760,148.041188,-9400.615463,689.485948
574.818087,-148.041188,-8956.491898,612.876398
574.818415,-148.041188,-9178.553681,536.266849
574.818743,-148.041188,-9178.553681,689.485948
574.819070,-222.061783,-9252.574275,689.485948
574.819398,-148.041188,-9548.656652,766.095498
574.819725,-444.123565,-9030.512492,612.876398
574.820053,-740.205942,-9326.594869,536.266849
574.820381,-518.144159,-9252.574275,612.876398
574.820708,-518.144159,-9104.533087,306.438199
574.821036,-444.123565,-8956.491898,612.876398
574.821363,-296.082377,-8660.409521,689.485948
574.821691,-222.061783,-8956.491898,306.438199
574.822019,-296.082377,-9030.512492,306.438199
574.822346,-148.041188,-9474.636058,536.266849
574.822674,-370.102971,-9326.594869,766.095498
574.823002,-444.123565,-9400.615463,612.876398
574.823329,-518.144159,-9252.574275,689.485948
574.823657,-444.123565,-9400.615463,842.705048
574.823984,-592.164754,-9178.553681,919.314598
574.824312,-518.144159,-9030.512492,842.705048
574.824640,-592.164754,-8808.450710,306.438199
574.824967,-814.226536,-8512.368333,536.266849
574.825295,-962.267725,-8512.368333,306.438199
574.825622,-740.205942,-8586.388927,612.876398
574.825950,-592.164754,-8512.368333,383.047749
574.826278,0.000000,-8734.430116,459.657299
574.826605,-296.082377,-8734.430116,919.314598
574.826933,-518.144159,-8734.430116,612.876398
574.827260,-444.123565,-9178.553681,536.266849
574.827588,-222.061783,-9252.574275,766.095498
574.827916,74.020594,-9474.636058,995.924147
574.828243,-370.102971,-9474.636058,1072.533697
574.828571,-296.082377,-9178.553681,612.876398
574.828898,-148.041188,-9252.574275,842.705048
574.829226,-222.061783,-8882.471304,689.485948
574.829554,-518.144159,-8882.471304,459.657299
574.829881,-592.164754,-8512.368333,383.047749
574.830209,-444.123565,-8660.409521,306.438199
574.830537,-444.123565,-8660.409521,306.438199
574.830864,-370.102971,-8734.430116,229.828649
574.831192,0.000000,-8956.491898,459.657299
574.831519,0.000000,-9178.553681,842.705048
574.831847,888.247130,-9326.594869,536.266849
574.832175,74.020594,-9400.615463,689.485948
574.832502,148.041188,-9474.636058,536.266849
574.832830,74.020594,-9474.636058,612.876398
574.833157,0.000000,-9548.656652,766.095498
574.833485,0.000000,-9400.615463,459.657299
574.833813,0.000000,-9400.615463,536.266849
574.834140,-370.102971,-9030.512492,383.047749
574.834468,-296.082377,-8882.471304,459.657299
574.834795,-370.102971,-8512.368333,536.266849
574.835123,148.041188,-8660.409521,536.266849
574.835451,0.000000,-9030.512492,383.047749
574.835778,0.000000,-9178.553681,536.266849
574.836106,0.000000,-9326.594869,459.657299
574.836433,0.000000,-9326.594869,612.876398
574.836761,222.061783,-9844.739029,1149.143247
574.837089,-222.061783,-9326.594869,766.095498
574.837416,0.000000,-9622.677246,766.095498
574.837744,0.000000,-9622.677246,766.095498
574.838072,-370.102971,-9622.677246,842.705048
574.838399,0.000000,-9178.553681,536.266849
574.838727,-222.061783,-9252.574275,766.095498
574.839054,-296.082377,-9030.512492,612.876398
574.839382,-296.082377,-9178.553681,612.876398
574.839710,-148.041188,-9104.533087,689.485948
574.840037,0.000000,-9252.574275,1072.533697
574.840365,0.000000,-9030.512492,689.485948
574.840692,0.000000,-9474.636058,383.047749
574.841020,0.000000,-9326.594869,459.657299
574.841348,0.000000,-9474.636058,536.266849
574.841675,0.000000,-9400.615463,612.876398
574.842003,222.061783,-9400.615463,919.314598
574.842330,0.000000,-9474.636058,459.657299
574.842658,-444.123565,-9548.656652,536.266849
574.842986,-518.144159,-9326.594869,229.828649
574.843313,-592.164754,-9252.574275,612.876398
574.843641,-370.102971,-8808.450710,306.438199
574.843969,-222.061783,-9030.512492,306.438199
574.844296,-296.082377,-8734.430116,459.657299
574.844624,-444.123565,-8882.471304,306.438199
574.844951,-296.082377,-8882.471304,229.828649
574.845279,-74.020594,-8808.450710,536.266849
574.845607,-222.061783,-8956.491898,536.266849
574.845934,0.000000,-9400.615463,612.876398
574.846262,0.000000,-9400.615463,995.924147
574.846589,-370.102971,-9400.615463,689.485948
574.846917,0.000000,-9474.636058,919.314598
574.847245,0.000000,-9400.615463,766.095498
574.847572,-518.144159,-9104.533087,536.266849
574.847900,-592.164754,-9030.512492,612.876398
574.848227,-592.164754,-8660.409521,459.657299
574.848555,-592.164754,-8586.388927,383.047749
574.848883,-296.082377,-8364.327145,842.705048
574.849210,-592.164754,-8364.327145,383.047749
574.849538,-666.185348,-8438.347739,689.485948
574.849865,-740.205942,-8512.368333,689.485948
574.850193,-444.123565,-8660.409521,536.266849
574.850521,-740.205942,-8438.347739,612.876398
574.850848,-592.164754,-8734.430116,842.705048
574.851176,-518.144159,-8956.491898,689.485948
574.851504,-518.144159,-9178.553681,919.314598
574.851831,-592.164754,-9252.574275,919.314598
574.852159,-740.205942,-8956.491898,689.485948
574.852486,-370.102971,-9326.594869,689.485948
574.852814,-740.205942,-8882.471304,612.876398
574.853142,-592.164754,-8882.471304,689.485948
574.853469,-518.144159,-8808.450710,536.266849
574.853797,-370.102971,-8438.347739,689.485948
574.854124,-444.123565,-9030.512492,306.438199
574.854452,-518.144159,-8660.409521,536.266849
574.854780,-740.205942,-8882.471304,459.657299
574.855107,-296.082377,-9030.512492,612.876398
574.855435,-296.082377,-8956.491898,612.876398
574.855762,0.000000,-9030.512492,612.876398
574.856090,-148.041188,-9326.594869,383.047749
574.856418,-222.061783,-9326.594869,306.438199
574.856745,-370.102971,-9326.594869,383.047749
574.857073,-148.041188,-9178.553681,383.047749
574.857400,0.000000,-9030.512492,689.485948
574.857728,-444.123565,-9326.594869,383.047749
574.858056,-370.102971,-9104.533087,229.828649
574.858383,-148.041188,-9252.574275,229.828649
574.858711,0.000000,-9252.574275,306.438199
574.859039,296.082377,-8882.471304,306.438199
574.859366,222.061783,-9030.512492,76.609550
574.859694,148.041188,-9474.636058,536.266849
574.860021,148.041188,-9474.636058,229.828649
574.860349,74.020594,-9474.636058,536.266849
574.860677,74.020594,-9252.574275,459.657299
574.861004,222.061783,-9474.636058,383.047749
574.861332,148.041188,-9474.636058,612.876398
574.861659,0.000000,-9400.615463,766.095498
574.861987,0.000000,-9252.574275,612.876398
574.862315,-222.061783,-9030.512492,383.047749
574.862642,0.000000,-9104.533087,153.219100
574.862970,-444.123565,-8808.450710,229.828649
574.863297,-148.041188,-8808.450710,689.485948
574.863625,-296.082377,-8956.491898,536.266849
574.863953,-222.061783,-9030.512492,689.485948
574.864280,-222.061783,-9400.615463,842.705048
574.864608,-296.082377,-9252.574275,919.314598
574.864935,-148.041188,-9104.533087,689.485948
574.865263,0.000000,-9326.594869,689.485948
574.865591,0.000000,-9474.636058,766.095498
574.865918,-148.041188,-8956.491898,1378.971896
574.866246,0.000000,-9030.512492,689.485948
574.866574,-444.123565,-9326.594869,612.876398
574.866901,-518.144159,-9178.553681,612.876398
574.867229,-518.144159,-9252.574275,536.266849
574.867556,-518.144159,-9178.553681,1149.143247
574.867884,-370.102971,-9030.512492,766.095498
574.868212,-518.144159,-9030.512492,612.876398
574.868539,0.000000,-9104.533087,459.657299
574.868867,0.000000,-9104.533087,306.438199
574.869194,0.000000,-9252.574275,306.438199
574.869522,518.144159,-9030.512492,842.705048
574.869850,0.000000,-9400.615463,612.876398
574.870177,-74.020594,-9252.574275,536.266849
574.870505,-148.041188,-9252.574275,612.876398
574.870832,-370.102971,-9178.553681,612.876398
574.871160,0.000000,-9178.553681,76.609550
574.871488,-296.082377,-9474.636058,766.095498
574.871815,-222.061783,-9178.553681,536.266849
574.872143,-296.082377,-9030.512492,459.657299
574.872470,0.000000,-9030.512492,459.657299
574.872798,0.000000,-9178.553681,612.876398
574.873126,-222.061783,-9252.574275,383.047749
574.873453,-148.041188,-9252.574275,383.047749
574.873781,-296.082377,-9326.594869,612.876398
574.874109,0.000000,-9400.615463,383.047749
574.874436,0.000000,-9252.574275,612.876398
574.874764,-296.082377,-9104.533087,995.924147
574.875091,0.000000,-9252.574275,536.266849
574.875419,-148.041188,-9178.553681,612.876398
574.875747,-518.144159,-9178.553681,536.266849
574.876074,-518.144159,-8956.491898,689.485948
574.876402,-592.164754,-8438.347739,689.485948
574.876729,-444.123565,-8808.450710,536.266849
574.877057,-740.205942,-8734.430116,383.047749
574.877384,-666.185348,-9030.512492,459.657299
574.877712,-296.082377,-8956.491898,612.876398
574.878039,-222.061783,-8956.491898,536.266849
574.878367,-370.102971,-8882.471304,383.047749
574.878694,-518.144159,-8956.491898,689.485948
574.879022,-592.164754,-9104.533087,612.876398
574.879350,-592.164754,-9104.533087,995.924147
574.879677,-444.123565,-9252.574275,1072.533697
574.880005,-444.123565,-9104.533087,842.705048
574.880332,-148.041188,-9178.553681,383.047749
574.880660,-370.102971,-9104.533087,383.047749
574.880987,-666.185348,-8882.471304,459.657299
574.881315,-592.164754,-8882.471304,459.657299
574.881642,-592.164754,-8734.430116,612.876398
574.881970,-666.185348,-8882.471304,383.047749
574.882297,-370.102971,-8956.491898,536.266849
574.882625,-296.082377,-8734.430116,612.876398
574.882953,-370.102971,-8808.450710,612.876398
574.883280,0.000000,-9252.574275,612.876398
574.883608,0.000000,-8808.450710,383.047749
574.883935,0.000000,-9030.512492,459.657299
574.884263,0.000000,-8734.430116,536.266849
574.884590,-222.061783,-9104.533087,459.657299
574.884918,-370.102971,-9178.553681,306.438199
574.885245,-444.123565,-8956.491898,1072.533697
574.885573,-518.144159,-9104.533087,459.657299
574.885900,-444.123565,-9030.512492,383.047749
574.886228,-444.123565,-9104.533087,306.438199
574.886556,-296.082377,-9104.533087,766.095498
574.886883,-888.247130,-9178.553681,459.657299
574.887211,222.061783,-9326.594869,459.657299
574.887538,0.000000,-9030.512492,229.828649
574.887866,0.000000,-9474.636058,383.047749
574.888193,-222.061783,-9326.594869,229.828649
574.888521,0.000000,-8882.471304,536.266849
574.888848,0.000000,-9326.594869,536.266849
574.889176,0.000000,-9326.594869,459.657299
574.889503,0.000000,-9252.574275,306.438199
574.889831,-370.102971,-9178.553681,459.657299
574.890159,296.082377,-8586.388927,459.657299
574.890486,-148.041188,-8512.368333,383.047749
574.890814,-222.061783,-8734.430116,306.438199
574.891141,-222.061783,-9104.533087,612.876398
574.891469,0.000000,-9104.533087,306.438199
574.891796,0.000000,-9252.574275,766.095498
574.892124,0.000000,-8956.491898,459.657299
574.892451,0.000000,-9474.636058,689.485948
574.892779,0.000000,-9474.636058,612.876398
574.893106,-148.041188,-9622.677246,612.876398
574.893434,-148.041188,-9622.677246,842.705048
574.893762,148.041188,-9474.636058,1225.752797
574.894089,-148.041188,-9696.697840,612.876398
574.894417,0.000000,-9548.656652,919.314598
574.894744,0.000000,-9400.615463,689.485948
574.895072,-222.061783,-9252.574275,766.095498
574.895399,-148.041188,-9178.553681,919.314598
574.895727,-148.041188,-9178.553681,459.657299
574.896054,0.000000,-9030.512492,383.047749
574.896382,0.000000,-8956.491898,459.657299
574.896709,0.000000,-9178.553681,689.485948
574.897037,-444.123565,-9104.533087,842.705048
574.897365,0.000000,-9326.594869,919.314598
574.897692,-444.123565,-9104.533087,689.485948
574.898020,-592.164754,-9104.533087,536.266849
574.898347,-370.102971,-9252.574275,459.657299
574.898675,-444.123565,-8882.471304,919.314598
574.899002,-370.102971,-9030.512492,1302.362347
574.899330,-518.144159,-9252.574275,612.876398
574.899657,-444.123565,-9030.512492,536.266849
574.899985,-222.061783,-9104.533087,459.657299
574.900312,0.000000,-9030.512492,459.657299
574.900640,-74.020594,-8586.388927,306.438199
574.900968,0.000000,-9178.553681,459.657299
574.901295,-296.082377,-9178.553681,536.266849
574.901623,-222.061783,-9178.553681,459.657299
574.901950,-222.061783,-9104.533087,766.095498
574.902278,0.000000,-9474.636058,383.047749
574.902605,-444.123565,-9030.512492,689.485948
574.902933,-444.123565,-9104.533087,612.876398
574.903260,-518.144159,-9178.553681,766.095498
574.903588,-592.164754,-8956.491898,459.657299
574.903915,-444.123565,-8808.450710,459.657299
574.904243,0.000000,-8660.409521,153.219100
574.904571,-296.082377,-8660.409521,306.438199
574.904898,-296.082377,-8660.409521,536.266849
574.905226,-148.041188,-8734.430116,306.438199
574.905553,-148.041188,-8734.430116,689.485948
574.905881,0.000000,-9030.512492,612.876398
574.906208,-222.061783,-9178.553681,459.657299
574.906536,-296.082377,-9326.594869,306.438199
574.906863,-296.082377,-9326.594869,459.657299
574.907191,-222.061783,-9252.574275,153.219100
574.907518,74.020594,-8882.471304,229.828649
574.907846,-518.144159,-8956.491898,459.657299
574.908174,-296.082377,-9030.512492,536.266849
574.908501,-666.185348,-8882.471304,536.266849
574.908829,-592.164754,-8808.450710,383.047749
574.909156,-592.164754,-8586.388927,76.609550
574.909484,-592.164754,-8808.450710,229.828649
574.909811,-444.123565,-8734.430116,306.438199
574.910139,-444.123565,-9104.533087,612.876398
574.910466,-518.144159,-8956.491898,536.266849
574.910794,-296.082377,-9178.553681,612.876398
574.911121,-444.123565,-8956.491898,153.219100
574.911449,-370.102971,-9104.533087,689.485948
574.911777,-518.144159,-9178.553681,766.095498
574.912104,-518.144159,-9030.512492,612.876398
574.912432,-518.144159,-8808.450710,995.924147
574.912759,-518.144159,-9252.574275,612.876398
574.913087,-518.144159,-8956.491898,383.047749
574.913414,-666.185348,-8734.430116,306.438199
574.913742,-666.185348,-8808.450710,383.047749
574.914069,-814.226536,-8956.491898,383.047749
574.914397,-888.247130,-8364.327145,459.657299
574.914724,-518.144159,-9178.553681,612.876398
574.915052,-518.144159,-9030.512492,766.095498
574.915380,-296.082377,-9178.553681,919.314598
574.915707,-222.061783,-9326.594869,612.876398
574.916035,222.061783,-9326.594869,995.924147
574.916362,0.000000,-9696.697840,689.485948
574.916690,0.000000,-9030.512492,612.876398
574.917017,0.000000,-9178.553681,536.266849
574.917345,148.041188,-9178.553681,612.876398
574.917672,0.000000,-9178.553681,995.924147
574.918000,-148.041188,-8808.450710,383.047749
574.918327,-222.061783,-8956.491898,153.219100
574.918655,-148.041188,-9252.574275,536.266849
574.918983,0.000000,-9104.533087,383.047749
574.919310,-74.020594,-9326.594869,536.266849
574.919638,0.000000,-9178.553681,766.095498
574.919965,148.041188,-9474.636058,612.876398
574.920293,0.000000,-9400.615463,459.657299
574.920620,0.000000,-9474.636058,459.657299
574.920948,74.020594,-9326.594869,536.266849
574.921275,296.082377,-9326.594869,995.924147
574.921603,222.061783,-9326.594869,459.657299
574.921930,0.000000,-9252.574275,612.876398
574.922258,0.000000,-9326.594869,536.266849
574.922586,-148.041188,-9252.574275,459.657299
574.922913,0.000000,-8808.450710,306.438199
574.923241,-148.041188,-8882.471304,229.828649
574.923568,0.000000,-9030.512492,766.095498
574.923896,-222.061783,-9326.594869,383.047749
574.924223,-222.061783,-9252.574275,766.095498
574.924551,0.000000,-9326.594869,536.266849
574.924878,-222.061783,-9474.636058,1378.971896
574.925206,-222.061783,-9326.594869,689.485948
574.925533,-296.082377,-9400.615463,689.485948
574.925861,-370.102971,-9400.615463,612.876398
574.926189,-296.082377,-9696.697840,1072.533697
574.926516,-148.041188,-9252.574275,766.095498
574.926844,-592.164754,-9030.512492,459.657299
574.927171,-518.144159,-9030.512492,459.657299
574.927499,-518.144159,-8956.491898,459.657299
574.927826,-666.185348,-9178.553681,229.828649
574.928154,-666.185348,-8438.347739,766.095498
574.928481,-296.082377,-8956.491898,306.438199
574.928809,0.000000,-9252.574275,306.438199
574.929136,0.000000,-9252.574275,383.047749
574.929464,0.000000,-9104.533087,612.876398
574.929792,-222.061783,-9326.594869,766.095498
574.930119,222.061783,-9104.533087,536.266849
574.930447,-148.041188,-9400.615463,306.438199
574.930774,-148.041188,-9326.594869,459.657299
574.931102,-296.082377,-9178.553681,612.876398
574.931429,0.000000,-9326.594869,842.705048
574.931757,-296.082377,-8956.491898,689.485948
574.932084,-444.123565,-8956.491898,536.266849
574.932412,-296.082377,-8882.471304,306.438199
574.932739,-222.061783,-8882.471304,306.438199
574.933067,-518.144159,-8586.388927,229.828649
574.933395,-592.164754,-8512.368333,459.657299
574.933722,-370.102971,-8808.450710,306.438199
574.934050,-518.144159,-8808.450710,689.485948
574.934377,-518.144159,-9252.574275,459.657299
574.934705,-518.144159,-9104.533087,689.485948
574.935032,-444.123565,-9104.533087,612.876398
574.935360,-592.164754,-9104.533087,612.876398
574.935687,-518.144159,-8956.491898,536.266849
574.936015,-592.164754,-8734.430116,919.314598
574.936343,-666.185348,-8586.388927,612.876398
574.936670,-444.123565,-8882.471304,612.876398
574.936998,-592.164754,-8734.430116,459.657299
574.937325,-592.164754,-8586.388927,459.657299
574.937653,-740.205942,-8586.388927,612.876398
574.937980,-296.082377,-9104.533087,459.657299
574.938308,0.000000,-9030.512492,1072.533697
574.938635,-296.082377,-8808.450710,919.314598
574.938963,-296.082377,-9252.574275,612.876398
574.939290,0.000000,-9400.615463,536.266849
574.939618,-222.061783,-9400.615463,689.485948
574.939946,0.000000,-9474.636058,842.705048
574.940273,0.000000,-9252.574275,459.657299
574.940601,-296.082377,-9104.533087,612.876398
574.940928,-370.102971,-9178.553681,383.047749
574.941256,-444.123565,-8956.491898,459.657299
574.941583,-370.102971,-9030.512492,383.047749
574.941911,-370.102971,-8734.430116,689.485948
574.942238,0.000000,-9178.553681,306.438199
574.942566,-148.041188,-9104.533087,229.828649
574.942893,0.000000,-9178.553681,612.876398
574.943221,0.000000,-9252.574275,229.828649
574.943549,0.000000,-9104.533087,383.047749
574.943876,222.061783,-9622.677246,459.657299
574.944204,296.082377,-9548.656652,689.485948
574.944531,0.000000,-9474.636058,459.657299
574.944859,-222.061783,-9474.636058,536.266849
574.945186,-592.164754,-9104.533087,536.266849
574.945514,-296.082377,-9252.574275,536.266849
574.945841,-222.061783,-9104.533087,612.876398
574.946169,-444.123565,-9400.615463,536.266849
574.946496,-592.164754,-8956.491898,229.828649
574.946824,-296.082377,-9178.553681,459.657299
574.947152,0.000000,-8660.409521,689.485948
574.947479,0.000000,-8956.491898,536.266849
574.947807,0.000000,-9178.553681,229.828649
574.948134,-296.082377,-9474.636058,689.485948
574.948462,-518.144159,-9326.594869,689.485948
574.948789,-370.102971,-8956.491898,919.314598
574.949117,-888.247130,-9178.553681,842.705048
574.949444,-370.102971,-9400.615463,766.095498
574.949772,-296.082377,-9474.636058,536.266849
574.950099,-444.123565,-9178.553681,689.485948
574.950427,-370.102971,-8956.491898,383.047749
574.950755,-518.144159,-8808.450710,76.609550
574.951082,-296.082377,-8956.491898,383.047749
574.951410,-370.102971,-9030.512492,306.438199
574.951737,-518.144159,-8956.491898,536.266849
574.952065,-444.123565,-9030.512492,612.876398
574.952392,-148.041188,-8734.430116,153.219100
574.952720,148.041188,-9474.636058,153.219100
574.953047,0.000000,-9474.636058,459.657299
574.953375,0.000000,-9326.594869,306.438199
574.953702,148.041188,-9474.636058,383.047749
574.954030,74.020594,-9400.615463,76.609550
574.954358,74.020594,-9252.574275,306.438199
574.954685,0.000000,-8956.491898,536.266849
574.955013,-148.041188,-9030.512492,383.047749
574.955340,0.000000,-9178.553681,612.876398
574.955668,0.000000,-8734.430116,76.609550
574.955995,-222.061783,-8660.409521,612.876398
574.956323,-148.041188,-8660.409521,536.266849
574.956650,-148.041188,-8586.388927,306.438199
574.956978,-148.041188,-8882.471304,536.266849
574.957305,222.061783,-9252.574275,536.266849
574.957633,0.000000,-8956.491898,76.609550
574.957961,0.000000,-9400.615463,766.095498
574.958288,-222.061783,-9400.615463,689.485948
574.958616,-296.082377,-9252.574275,689.485948
574.958943,-296.082377,-9474.636058,842.705048
574.959271,-444.123565,-9178.553681,1149.143247
574.959598,-370.102971,-9104.533087,766.095498
574.959926,-444.123565,-9030.512492,612.876398
574.960253,-666.185348,-8882.471304,383.047749
574.960581,-518.144159,-8808.450710,689.485948
574.960908,-444.123565,-8290.306550,1225.752797
574.961236,-518.144159,-8734.430116,689.485948
574.961564,-518.144159,-9030.512492,689.485948
574.961891,-444.123565,-9252.574275,612.876398
574.962219,-592.164754,-9252.574275,689.485948
574.962546,0.000000,-9030.512492,766.095498
574.962874,-222.061783,-8808.450710,689.485948
574.963201,-518.144159,-9326.594869,766.095498
574.963529,-592.164754,-9326.594869,612.876398
574.963856,-518.144159,-9474.636058,842.705048
574.964184,0.000000,-9104.533087,995.924147
574.964511,-370.102971,-8882.471304,383.047749
574.964839,-444.123565,-8956.491898,536.266849
574.965167,-444.123565,-9178.553681,536.266849
574.965494,-370.102971,-9104.533087,459.657299
574.965822,0.000000,-9326.594869,842.705048
574.966149,-296.082377,-8808.450710,995.924147
574.966477,-296.082377,-9104.533087,842.705048
574.966804,-296.082377,-9104.533087,612.876398
574.967132,0.000000,-9252.574275,229.828649
574.967459,0.000000,-9326.594869,383.047749
574.967787,296.082377,-8956.491898,1149.143247
574.968114,0.000000,-8882.471304,459.657299
574.968442,-370.102971,-9030.512492,459.657299
574.968770,-666.185348,-9104.533087,306.438199
574.969097,-592.164754,-9104.533087,459.657299
574.969425,-370.102971,-8808.450710,0.000000
574.969752,-370.102971,-8438.347739,383.047749
574.970080,-370.102971,-8808.450710,306.438199
574.970407,-296.082377,-8882.471304,76.609550
574.970735,-444.123565,-8882.471304,229.828649
574.971062,-222.061783,-8586.388927,612.876398
574.971390,-148.041188,-8734.430116,229.828649
574.971717,0.000000,-9326.594869,76.609550
574.972045,-148.041188,-9252.574275,383.047749
574.972373,-222.061783,-9178.553681,612.876398
574.972700,-370.102971,-9326.594869,536.266849
574.973028,0.000000,-8956.491898,229.828649
574.973355,-518.144159,-9030.512492,612.876398
574.973683,-296.082377,-8882.471304,536.266849
574.974010,-444.123565,-8734.430116,306.438199
574.974338,-518.144159,-8808.450710,383.047749
574.974665,-296.082377,-9030.512492,842.705048
574.974993,-740.205942,-8586.388927,612.876398
574.975320,-444.123565,-8956.491898,689.485948
574.975648,-444.123565,-9178.553681,842.705048
574.975976,-518.144159,-9326.594869,612.876398
574.976303,-444.123565,-9622.677246,1225.752797
574.976631,0.000000,-9326.594869,612.876398
574.976958,-296.082377,-9104.533087,383.047749
574.977286,-296.082377,-9400.615463,689.485948
574.977613,0.000000,-9474.636058,689.485948
574.977941,-296.082377,-9252.574275,1072.533697
574.978268,-444.123565,-9104.533087,1072.533697
574.978596,-296.082377,-9178.553681,842.705048
574.978923,-296.082377,-9252.574275,612.876398
574.979251,-148.041188,-9326.594869,766.095498
574.979578,0.000000,-9252.574275,383.047749
574.979906,0.000000,-8808.450710,689.485948
574.980233,-296.082377,-9326.594869,689.485948
574.980561,-370.102971,-9252.574275,612.876398
574.980888,-148.041188,-9326.594869,689.485948
574.981216,74.020594,-9474.636058,612.876398
574.981543,148.041188,-9252.574275,919.314598
574.981871,-222.061783,-9252.574275,995.924147
574.982198,0.000000,-9474.636058,612.876398
574.982525,-222.061783,-9178.553681,689.485948
574.982853,-222.061783,-9252.574275,459.657299
574.983180,-148.041188,-9104.533087,612.876398
574.983508,0.000000,-8808.450710,229.828649
574.983835,-222.061783,-9030.512492,536.266849
574.984163,-148.041188,-9104.533087,306.438199
574.984490,0.000000,-9030.512492,459.657299
574.984818,0.000000,-9030.512492,919.314598
574.985145,0.000000,-9178.553681,536.266849
574.985473,-444.123565,-9326.594869,459.657299
574.985800,-370.102971,-9252.574275,612.876398
574.986128,-296.082377,-9400.615463,766.095498
574.986455,-222.061783,-9104.533087,766.095498
574.986783,0.000000,-9104.533087,842.705048
574.987110,-222.061783,-9178.553681,919.314598
574.987438,-592.164754,-9030.512492,689.485948
574.987765,-518.144159,-8882.471304,612.876398
574.988093,-444.123565,-8734.430116,612.876398
574.988420,-518.144159,-8364.327145,919.314598
574.988748,-740.205942,-8734.430116,383.047749
574.989075,-592.164754,-8808.450710,536.266849
574.989403,-592.164754,-8808.450710,459.657299
574.989730,-296.082377,-8660.409521,766.095498
574.990058,-296.082377,-8512.368333,689.485948
574.990385,74.020594,-8956.491898,612.876398
574.990713,0.000000,-8956.491898,383.047749
574.991040,-296.082377,-8660.409521,459.657299
574.991368,-148.041188,-9030.512492,229.828649
574.991695,-296.082377,-8438.347739,689.485948
574.992023,-444.123565,-8882.471304,536.266849
574.992350,-222.061783,-8808.450710,383.047749
574.992678,-296.082377,-8882.471304,383.047749
574.993005,-370.102971,-8660.409521,536.266849
574.993333,-370.102971,-8734.430116,229.828649
574.993660,0.000000,-8808.450710,459.657299
574.993988,-222.061783,-8956.491898,306.438199
574.994315,0.000000,-8956.491898,383.047749
574.994643,0.000000,-9030.512492,383.047749
574.994970,0.000000,-9104.533087,459.657299
574.995298,-222.061783,-9326.594869,842.705048
574.995625,0.000000,-8660.409521,459.657299
574.995953,0.000000,-9178.553681,536.266849
574.996280,-444.123565,-9474.636058,459.657299
574.996607,-518.144159,-9252.574275,459.657299
574.996935,-444.123565,-8808.450710,536.266849
574.997262,74.020594,-8882.471304,536.266849
574.997590,-296.082377,-9030.512492,459.657299
574.997917,-296.082377,-9326.594869,536.266849
574.998245,-592.164754,-9326.594869,383.047749
574.998572,-518.144159,-9326.594869,612.876398
574.998900,-740.205942,-9400.615463,919.314598
574.999227,-518.144159,-9474.636058,612.876398
574.999555,-444.123565,-9474.636058,842.705048
574.999882,-370.102971,-9548.656652,766.095498
575.000210,-296.082377,-9770.718434,766.095498
575.000537,0.000000,-9326.594869,766.095498
575.000865,-370.102971,-9474.636058,689.485948
575.001192,-222.061783,-9400.615463,612.876398
575.001520,-370.102971,-9178.553681,612.876398
575.001847,-444.123565,-9178.553681,689.485948
575.002175,-444.123565,-9252.574275,153.219100
575.002502,-296.082377,-8956.491898,919.314598
575.002830,-222.061783,-9178.553681,612.876398
575.003157,-296.082377,-9474.636058,229.828649
575.003485,-370.102971,-9326.594869,612.876398
575.003812,-370.102971,-9252.574275,995.924147
575.004140,222.061783,-8882.471304,766.095498
575.004467,74.020594,-9474.636058,459.657299
575.004795,148.041188,-9474.636058,306.438199
575.005122,0.000000,-9400.615463,536.266849
575.005450,0.000000,-9326.594869,842.705048
575.005777,148.041188,-9104.533087,383.047749
575.006105,-222.061783,-9104.533087,229.828649
575.006432,-222.061783,-9030.512492,153.219100
575.006760,0.000000,-8808.450710,153.219100
575.007087,0.000000,-8882.471304,76.609550
575.007415,0.000000,-8290.306550,459.657299
575.007742,0.000000,-8882.471304,536.266849
575.008070,0.000000,-9030.512492,459.657299
575.008397,-222.061783,-8956.491898,383.047749
575.008725,0.000000,-9252.574275,459.657299
575.009052,0.000000,-9030.512492,919.314598
575.009380,0.000000,-9178.553681,459.657299
575.009707,0.000000,-9030.512492,536.266849
575.010035,-296.082377,-9030.512492,766.095498
575.010362,-444.123565,-9104.533087,612.876398
575.010689,-592.164754,-8808.450710,995.924147
575.011017,-444.123565,-8586.388927,459.657299
575.011344,-740.205942,-8882.471304,689.485948
575.011672,-592.164754,-8882.471304,612.876398
575.011999,-518.144159,-8734.430116,689.485948
575.012327,-296.082377,-8734.430116,612.876398
575.012654,-518.144159,-8364.327145,1225.752797
575.012982,-592.164754,-9252.574275,995.924147
575.013309,-370.102971,-9104.533087,689.485948
575.013637,-370.102971,-9104.533087,919.314598
575.013964,-148.041188,-9104.533087,689.485948
575.014292,-148.041188,-9104.533087,1149.143247
575.014619,-444.123565,-9474.636058,536.266849
575.014947,-222.061783,-9474.636058,612.876398
575.015274,-666.185348,-9474.636058,536.266849
575.015602,-518.144159,-9104.533087,536.266849
575.015929,-148.041188,-8882.471304,919.314598
575.016257,-296.082377,-8956.491898,0.000000
575.016584,-296.082377,-8734.430116,536.266849
575.016912,-148.041188,-8882.471304,229.828649
575.017239,0.000000,-9030.512492,383.047749
575.017567,148.041188,-8882.471304,459.657299
575.017894,0.000000,-9252.574275,0.000000
575.018222,0.000000,-9252.574275,383.047749
575.018549,74.020594,-9474.636058,0.000000
575.018877,0.000000,-9400.615463,76.609550
575.019204,-148.041188,-9474.636058,306.438199
575.019532,0.000000,-9326.594869,0.000000
575.019859,-444.123565,-9178.553681,383.047749
575.020187,-222.061783,-9252.574275,383.047749
575.020514,-296.082377,-9104.533087,229.828649
575.020842,-222.061783,-9252.574275,459.657299
575.021169,0.000000,-8808.450710,766.095498
575.021497,-148.041188,-8438.347739,689.485948
575.021824,0.000000,-9252.574275,536.266849
575.022152,-148.041188,-9252.574275,766.095498
575.022479,-370.102971,-9326.594869,612.876398
575.022807,-518.144159,-9252.574275,612.876398
575.023134,0.000000,-9104.533087,842.705048
575.023462,-444.123565,-9252.574275,689.485948
575.023789,-814.226536,-9252.574275,689.485948
575.024117,-814.226536,-9178.553681,842.705048
575.024444,-740.205942,-9030.512492,1225.752797
575.024771,-888.247130,-8660.409521,919.314598
575.025099,-1036.288319,-8660.409521,612.876398
575.025426,-814.226536,-8808.450710,536.266849
575.025754,-518.144159,-8734.430116,383.047749
575.026081,-444.123565,-8586.388927,459.657299
575.026409,0.000000,-8734.430116,612.876398
575.026736,-370.102971,-8956.491898,612.876398
575.027064,-296.082377,-9252.574275,536.266849
575.027391,0.000000,-9178.553681,459.657299
575.027719,0.000000,-9030.512492,459.657299
575.028046,370.102971,-9252.574275,689.485948
575.028374,148.041188,-9326.594869,383.047749
575.028701,0.000000,-9326.594869,536.266849
575.029029,0.000000,-9104.533087,459.657299
575.029356,0.000000,-9030.512492,153.219100
575.029684,0.000000,-8734.430116,76.609550
575.030011,0.000000,-9030.512492,306.438199
575.030339,0.000000,-9252.574275,153.219100
575.030666,0.000000,-8956.491898,306.438199
575.030994,0.000000,-9104.533087,153.219100
575.031321,0.000000,-9400.615463,459.657299
575.031649,0.000000,-9178.553681,459.657299
575.031976,222.061783,-9474.636058,306.438199
575.032304,74.020594,-9474.636058,306.438199
575.032631,74.020594,-9548.656652,536.266849
575.032959,-222.061783,-9548.656652,689.485948
575.033286,-518.144159,-8808.450710,766.095498
575.033614,-370.102971,-9400.615463,689.485948
575.033941,-370.102971,-9178.553681,689.485948
575.034269,-740.205942,-9178.553681,459.657299
575.034596,-518.144159,-9030.512492,612.876398
575.034924,-592.164754,-8808.450710,1072.533697
575.035251,-592.164754,-9030.512492,536.266849
575.035579,-518.144159,-9252.574275,919.314598
575.035906,-296.082377,-9326.594869,1072.533697
575.036234,-518.144159,-9474.636058,995.924147
575.036561,-370.102971,-9104.533087,919.314598
575.036889,-222.061783,-9326.594869,1072.533697
575.037216,-370.102971,-9474.636058,995.924147
575.037544,-222.061783,-9474.636058,842.705048
575.037871,-222.061783,-9400.615463,1149.143247
575.038199,-444.123565,-9030.512492,995.924147
575.038526,0.000000,-8956.491898,842.705048
575.038853,-592.164754,-8734.430116,919.314598
575.039181,-296.082377,-9104.533087,536.266849
575.039508,-370.102971,-9030.512492,536.266849
575.039836,-148.041188,-8956.491898,306.438199
575.040163,0.000000,-9178.553681,689.485948
575.040491,-222.061783,-9178.553681,459.657299
575.040818,-222.061783,-9252.574275,306.438199
575.041146,-296.082377,-9252.574275,229.828649
575.041473,0.000000,-9326.594869,536.266849
575.041801,148.041188,-9104.533087,536.266849
575.042128,-148.041188,-9474.636058,459.657299
575.042456,-148.041188,-9252.574275,383.047749
575.042783,0.000000,-9178.553681,76.609550
575.043111,-148.041188,-9178.553681,229.828649
575.043438,-370.102971,-8364.327145,1072.533697
575.043766,-148.041188,-8808.450710,153.219100
575.044093,-296.082377,-8660.409521,153.219100
575.044421,-296.082377,-8734.430116,153.219100
575.044748,-370.102971,-8660.409521,153.219100
575.045076,-222.061783,-8660.409521,383.047749
575.045403,74.020594,-9178.553681,842.705048
575.045731,-296.082377,-8956.491898,536.266849
575.046058,0.000000,-9252.574275,536.266849
575.046386,-222.061783,-9178.553681,612.876398
575.046713,0.000000,-9252.574275,766.095498
575.047041,0.000000,-9474.636058,995.924147
575.047368,-222.061783,-9400.615463,1072.533697
575.047696,-444.123565,-9178.553681,842.705048
575.048023,-518.144159,-9030.512492,459.657299
575.048351,-370.102971,-8734.430116,459.657299
575.048678,-444.123565,-8882.471304,0.000000
575.049006,-148.041188,-8512.368333,842.705048
575.049333,-592.164754,-8734.430116,383.047749
575.049661,-296.082377,-9030.512492,612.876398
575.049988,-592.164754,-9104.533087,536.266849
575.050316,-518.144159,-8882.471304,689.485948
575.050643,0.000000,-8956.491898,919.314598
575.050971,-222.061783,-9178.553681,229.828649
575.051298,-296.082377,-9104.533087,383.047749
575.051626,0.000000,-9030.512492,459.657299
575.051953,-444.123565,-9178.553681,229.828649
575.052281,-518.144159,-8808.450710,689.485948
575.052608,-592.164754,-8956.491898,383.047749
575.052935,-518.144159,-9030.512492,153.219100
575.053263,-444.123565,-9326.594869,306.438199
575.053590,-444.123565,-9178.553681,229.828649
575.053918,-148.041188,-9030.512492,153.219100
575.054245,222.061783,-9178.553681,459.657299
575.054573,148.041188,-9474.636058,383.047749
575.054900,148.041188,-9622.677246,689.485948
575.055228,0.000000,-9474.636058,383.047749
575.055555,222.061783,-9400.615463,842.705048
575.055883,222.061783,-9326.594869,766.095498
575.056210,0.000000,-9474.636058,689.485948
575.056538,-296.082377,-9400.615463,612.876398
575.056865,-370.102971,-9474.636058,689.485948
575.057193,-444.123565,-8956.491898,459.657299
575.057520,-740.205942,-8364.327145,919.314598
575.057848,-444.123565,-9104.533087,689.485948
575.058175,-444.123565,-8734.430116,383.047749
575.058503,-444.123565,-8660.409521,689.485948
575.058830,-370.102971,-9030.512492,612.876398
575.059158,-592.164754,-8956.491898,1455.581446
575.059485,-148.041188,-9326.594869,689.485948
575.059813,-222.061783,-9474.636058,995.924147
575.060140,0.000000,-9400.615463,919.314598
575.060468,-296.082377,-9474.636058,919.314598
575.060795,74.020594,-9400.615463,919.314598
575.061123,-296.082377,-9474.636058,459.657299
575.061450,-222.061783,-9474.636058,842.705048
575.061778,-370.102971,-9178.553681,689.485948
575.062105,-222.061783,-9030.512492,689.485948
575.062433,-222.061783,-9178.553681,536.266849
575.062760,0.000000,-8660.409521,766.095498
575.063088,-296.082377,-8734.430116,612.876398
575.063415,-370.102971,-8660.409521,306.438199
575.063743,-222.061783,-8882.471304,383.047749
575.064070,-296.082377,-8808.450710,536.266849
575.064398,0.000000,-8808.450710,536.266849
575.064725,0.000000,-9104.533087,536.266849
575.065053,74.020594,-9474.636058,612.876398
575.065380,0.000000,-9326.594869,689.485948
575.065708,0.000000,-9400.615463,689.485948
575.066035,148.041188,-9548.656652,842.705048
575.066363,-518.144159,-9400.615463,306.438199
575.066690,-444.123565,-9178.553681,306.438199
575.067017,-592.164754,-9030.512492,306.438199
575.067345,-592.164754,-8956.491898,383.047749
575.067672,-222.061783,-8660.409521,919.314598
575.068000,0.000000,-8808.450710,153.219100
575.068327,-370.102971,-9030.512492,383.047749
575.068655,-444.123565,-8956.491898,459.657299
575.068982,-370.102971,-9104.533087,459.657299
575.069310,0.000000,-9030.512492,229.828649
575.069637,-222.061783,-8660.409521,995.924147
575.069965,0.000000,-9400.615463,459.657299
575.070292,-444.123565,-9030.512492,536.266849
575.070620,-222.061783,-9104.533087,842.705048
575.070947,-370.102971,-9030.512492,1072.533697
575.071275,-296.082377,-9030.512492,306.438199
575.071602,-444.123565,-8956.491898,459.657299
575.071930,-518.144159,-8882.471304,229.828649
575.072257,-592.164754,-8882.471304,459.657299
575.072585,-444.123565,-8734.430116,459.657299
575.072912,0.000000,-9252.574275,459.657299
575.073240,-296.082377,-9178.553681,459.657299
575.073567,-222.061783,-9104.533087,459.657299
575.073895,-222.061783,-9474.636058,459.657299
575.074222,-370.102971,-9326.594869,536.266849
575.074550,0.000000,-9400.615463,383.047749
575.074877,-296.082377,-8956.491898,766.095498
575.075205,-370.102971,-9474.636058,919.314598
575.075532,-666.185348,-9252.574275,689.485948
575.075860,-592.164754,-9178.553681,459.657299
575.076187,-740.205942,-8808.450710,306.438199
575.076515,-592.164754,-8734.430116,842.705048
575.076842,-518.144159,-8808.450710,306.438199
575.077170,-444.123565,-8660.409521,459.657299
575.077497,-740.205942,-8882.471304,536.266849
575.077825,-592.164754,-8882.471304,383.047749
575.078152,-444.123565,-8956.491898,842.705048
575.078480,-296.082377,-9030.512492,536.266849
575.078807,0.000000,-9178.553681,842.705048
575.079135,0.000000,-9400.615463,919.314598
575.079462,-296.082377,-9474.636058,689.485948
575.079790,74.020594,-9326.594869,919.314598
575.080117,-370.102971,-9104.533087,1072.533697
575.080445,-296.082377,-9104.533087,689.485948
575.080772,-370.102971,-9030.512492,689.485948
575.081100,-222.061783,-8882.471304,459.657299
575.081427,-148.041188,-8512.368333,383.047749
575.081754,0.000000,-8808.450710,612.876398
575.082082,-296.082377,-8734.430116,612.876398
575.082409,0.000000,-9178.553681,536.266849
575.082737,0.000000,-9104.533087,536.266849
575.083064,148.041188,-8882.471304,919.314598
575.083392,296.082377,-9178.553681,842.705048
575.083719,370.102971,-9474.636058,459.657299
575.084047,148.041188,-9326.594869,612.876398
575.084374,0.000000,-9178.553681,766.095498
575.084702,0.000000,-9252.574275,689.485948
575.085029,0.000000,-8882.471304,153.219100
575.085357,-518.144159,-9326.594869,459.657299
575.085684,-666.185348,-8882.471304,536.266849
575.086012,-592.164754,-8956.491898,459.657299
575.086339,-518.144159,-8882.471304,459.657299
575.086667,-444.123565,-8956.491898,306.438199
575.086994,-370.102971,-9030.512492,459.657299
575.087322,-296.082377,-9104.533087,306.438199
575.087649,0.000000,-9030.512492,459.657299
575.087977,74.020594,-9104.533087,459.657299
575.088304,444.123565,-9178.553681,153.219100
575.088632,0.000000,-9252.574275,842.705048
575.088959,148.041188,-9548.656652,689.485948
575.089287,-222.061783,-9844.739029,919.314598
575.089614,-444.123565,-9622.677246,842.705048
575.089942,-296.082377,-9622.677246,766.095498
575.090269,-296.082377,-9030.512492,1225.752797
575.090597,0.000000,-9178.553681,919.314598
575.090924,-296.082377,-9030.512492,306.438199
575.091252,0.000000,-8882.471304,536.266849
575.091579,-222.061783,-8808.450710,536.266849
575.091907,-444.123565,-8882.471304,76.609550
575.092234,-518.144159,-8882.471304,306.438199
575.092562,-296.082377,-9252.574275,612.876398
575.092889,0.000000,-9252.574275,459.657299
575.093217,0.000000,-9178.553681,383.047749
575.093544,0.000000,-9400.615463,383.047749
575.093872,-296.082377,-8882.471304,919.314598
575.094199,-222.061783,-9252.574275,459.657299
575.094527,0.000000,-9400.615463,306.438199
575.094854,-296.082377,-9178.553681,229.828649
575.095182,-518.144159,-8808.450710,842.705048
575.095509,-370.102971,-8660.409521,536.266849
575.095837,-444.123565,-9178.553681,306.438199
575.096164,-518.144159,-8956.491898,536.266849
575.096492,-666.185348,-9030.512492,383.047749
575.096819,-444.123565,-9030.512492,306.438199
575.097147,0.000000,-8586.388927,383.047749
575.097474,-296.082377,-8734.430116,459.657299
575.097802,-222.061783,-8882.471304,306.438199
575.098129,-370.102971,-9030.512492,383.047749
575.098457,-444.123565,-9178.553681,536.266849
575.098784,-592.164754,-8956.491898,1302.362347
575.099112,-222.061783,-9104.533087,612.876398
575.099439,-444.123565,-9178.553681,689.485948
575.099766,-444.123565,-9104.533087,459.657299
575.100094,0.000000,-9178.553681,536.266849
575.100421,0.000000,-8808.450710,842.705048
575.100749,-222.061783,-8586.388927,689.485948
575.101076,-444.123565,-8808.450710,689.485948
575.101404,-444.123565,-9030.512492,612.876398
575.101731,-296.082377,-9104.533087,842.705048
575.102059,0.000000,-9252.574275,383.047749
575.102386,-518.144159,-8808.450710,689.485948
575.102714,-296.082377,-9104.533087,612.876398
575.103041,0.000000,-9030.512492,689.485948
575.103369,0.000000,-8734.430116,459.657299
575.103696,-222.061783,-9178.553681,306.438199
575.104024,-370.102971,-8882.471304,306.438199
575.104351,-740.205942,-9030.512492,536.266849
575.104679,0.000000,-9252.574275,459.657299
575.105006,-518.144159,-9252.574275,459.657299
575.105334,-370.102971,-9252.574275,306.438199
575.105661,-592.164754,-9030.512492,76.609550
575.105989,-370.102971,-9030.512492,76.609550
575.106316,0.000000,-9178.553681,229.828649
575.106644,-148.041188,-9178.553681,383.047749
575.106971,-148.041188,-9178.553681,383.047749
575.107299,0.000000,-9400.615463,383.047749
575.107626,74.020594,-9474.636058,306.438199
575.107954,-222.061783,-9326.594869,536.266849
575.108281,0.000000,-9400.615463,612.876398
575.108609,0.000000,-9178.553681,766.095498
575.108936,0.000000,-8956.491898,995.924147
575.109264,0.000000,-9030.512492,995.924147
575.109591,0.000000,-9252.574275,689.485948
575.109919,-444.123565,-9326.594869,612.876398
575.110246,-518.144159,-9326.594869,919.314598
575.110574,-444.123565,-9400.615463,536.266849
575.110901,-296.082377,-9326.594869,1225.752797
575.111229,-518.144159,-9326.594869,842.705048
575.111556,-518.144159,-9326.594869,459.657299
575.111884,-222.061783,-9252.574275,536.266849
575.112211,-370.102971,-9326.594869,612.876398
575.112539,0.000000,-9474.636058,842.705048
575.112866,-592.164754,-9104.533087,842.705048
575.113194,-444.123565,-9400.615463,842.705048
575.113521,-296.082377,-9178.553681,612.876398
575.113849,0.000000,-9326.594869,536.266849
575.114176,-222.061783,-9400.615463,919.314598
575.114504,-222.061783,-8512.368333,0.000000
575.114831,-370.102971,-9104.533087,459.657299
575.115159,-518.144159,-8956.491898,306.438199
575.115486,-296.082377,-9030.512492,612.876398
575.115814,-296.082377,-8808.450710,612.876398
575.116141,-296.082377,-8660.409521,842.705048
575.116469,-222.061783,-9030.512492,229.828649
575.116796,0.000000,-9104.533087,306.438199
575.117124,0.000000,-8808.450710,306.438199
575.117451,0.000000,-8882.471304,459.657299
575.117779,0.000000,-9104.533087,0.000000
575.118106,-370.102971,-9104.533087,383.047749
575.118433,-370.102971,-9030.512492,306.438199
575.118761,-222.061783,-9326.594869,306.438199
575.119088,-148.041188,-9326.594869,612.876398
575.119416,0.000000,-9178.553681,229.828649
575.119743,0.000000,-8956.491898,536.266849
575.120071,0.000000,-9030.512492,383.047749
575.120398,-148.041188,-8808.450710,306.438199
575.120726,-370.102971,-8956.491898,306.438199
575.121053,0.000000,-9400.615463,383.047749
575.121381,-296.082377,-9326.594869,306.438199
575.121708,-296.082377,-9400.615463,612.876398
575.122036,-296.082377,-9326.594869,612.876398
575.122363,-148.041188,-9252.574275,689.485948
575.122691,0.000000,-8882.471304,1149.143247
575.123018,-444.123565,-8586.388927,995.924147
575.123346,0.000000,-8734.430116,459.657299
575.123673,-148.041188,-8956.491898,689.485948
575.124001,-444.123565,-8660.409521,766.095498
575.124328,-444.123565,-8956.491898,842.705048
575.124656,-222.061783,-8808.450710,842.705048
575.124983,-296.082377,-9104.533087,536.266849
575.125311,-222.061783,-9178.553681,842.705048
575.125638,-222.061783,-9030.512492,459.657299
575.125966,0.000000,-8956.491898,689.485948
575.126293,0.000000,-9030.512492,919.314598
575.126621,0.000000,-9030.512492,459.657299
575.126948,0.000000,-9326.594869,612.876398
575.127276,74.020594,-9770.718434,995.924147
575.127603,-444.123565,-9548.656652,842.705048
575.127931,-444.123565,-9696.697840,1149.143247
575.128258,0.000000,-9252.574275,689.485948
575.128586,-444.123565,-9252.574275,689.485948
575.128913,-148.041188,-9178.553681,383.047749
575.129241,0.000000,-9252.574275,306.438199
575.129568,0.000000,-9104.533087,689.485948
575.129896,0.000000,-8660.409521,383.047749
575.130223,-444.123565,-9030.512492,306.438199
575.130551,-592.164754,-9178.553681,536.266849
575.130878,-296.082377,-9474.636058,536.266849
575.131206,-296.082377,-9326.594869,459.657299
575.131533,0.000000,-9030.512492,919.314598
575.131861,518.144159,-8734.430116,1149.143247
575.132188,1036.288319,-8882.471304,1378.971896
575.132516,1110.308913,-8734.430116,1608.800546
575.132843,1110.308913,-9178.553681,1685.410096
575.133171,222.061783,-9030.512492,2068.457845
575.133498,0.000000,-9548.656652,1762.019645
575.133826,-148.041188,-9400.615463,2068.457845
575.134153,74.020594,-9030.512492,2145.067394
575.134481,148.041188,-9030.512492,2298.286494
575.134808,370.102971,-9104.533087,2221.676944
575.135136,0.000000,-8660.409521,2451.505594
575.135463,-370.102971,-8586.388927,2221.676944
575.135791,-370.102971,-8660.409521,2298.286494
575.136118,-370.102971,-8734.430116,2374.896044
575.136445,-666.185348,-8882.471304,1915.238745
575.136773,-592.164754,-8660.409521,2374.896044
575.137100,-296.082377,-8734.430116,2911.162892
575.137428,-740.205942,-8734.430116,2681.334243
575.137755,-814.226536,-8808.450710,2911.162892
575.138083,-888.247130,-9030.512492,2834.553343
575.138410,-444.123565,-9178.553681,3370.820191
575.138738,-592.164754,-9030.512492,2911.162892
575.139065,-962.267725,-8956.491898,2987.772442
575.139393,-814.226536,-8808.450710,3064.381992
575.139720,-666.185348,-8808.450710,3064.381992
575.140048,-518.144159,-8882.471304,2911.162892
575.140375,-370.102971,-8438.347739,2987.772442
575.140703,-370.102971,-8882.471304,2911.162892
575.141030,-296.082377,-8956.491898,2757.943793
575.141358,-296.082377,-9252.574275,2681.334243
575.141685,-296.082377,-9178.553681,3140.991542
575.142013,370.102971,-9178.553681,3140.991542
575.142340,370.102971,-9252.574275,3447.429741
575.142668,222.061783,-9400.615463,3447.429741
575.142995,222.061783,-9400.615463,3524.039291
575.143323,592.164754,-9474.636058,3677.258390
575.143650,1480.411884,-9104.533087,4443.353888
575.143978,1406.391290,-9030.512492,4290.134789
575.144305,1406.391290,-9178.553681,4673.182538
575.144633,1406.391290,-9474.636058,4903.011187
575.144960,1258.350101,-9326.594869,5209.449386
575.145288,1036.288319,-9474.636058,4749.792088
575.145615,518.144159,-9918.759623,4826.401637
575.145943,0.000000,-9770.718434,4903.011187
575.146270,-518.144159,-9918.759623,4903.011187
575.146598,-888.247130,-9548.656652,4826.401637
575.146925,-962.267725,-9104.533087,4673.182538
575.147253,-1332.370696,-9178.553681,4213.525239
575.147580,-1924.535449,-9326.594869,3524.039291
575.147908,-2368.659014,-9030.512492,3064.381992
575.148235,-2294.638420,-9030.512492,3370.820191
575.148563,-1776.494261,-8438.347739,3217.601092
