#time,accel_x,accel_y,accel_z
525.768244,-222.061783,-9252.574275,459.657299
525.768571,-296.082377,-8808.450710,536.266849
525.768899,-296.082377,-9178.553681,919.314598
525.769227,-296.082377,-9178.553681,766.095498
525.769554,-370.102971,-9178.553681,383.047749
525.769882,-148.041188,-9104.533087,536.266849
525.770210,-222.061783,-8956.491898,0.000000
525.770537,0.000000,-9104.533087,612.876398
525.770865,-222.061783,-9030.512492,612.876398
525.771193,-370.102971,-9178.553681,689.485948
525.771520,-296.082377,-9104.533087,459.657299
525.771848,-222.061783,-9030.512492,1149.143247
525.772176,0.000000,-9400.615463,1072.533697
525.772503,-296.082377,-9178.553681,612.876398
525.772831,-370.102971,-9030.512492,689.485948
525.773159,-296.082377,-9104.533087,383.047749
525.773486,-296.082377,-9104.533087,459.657299
525.773814,74.020594,-8660.409521,689.485948
525.774142,0.000000,-9326.594869,536.266849
525.774469,-222.061783,-9030.512492,536.266849
525.774797,-222.061783,-9030.512492,612.876398
525.775125,-148.041188,-9252.574275,766.095498
525.775452,0.000000,-9252.574275,459.657299
525.775780,0.000000,-9178.553681,383.047749
525.776108,-222.061783,-9178.553681,459.657299
525.776435,-444.123565,-9178.553681,536.266849
525.776763,-296.082377,-9326.594869,459.657299
525.777091,-148.041188,-9030.512492,536.266849
525.777419,-148.041188,-9030.512492,536.266849
525.777746,0.000000,-9178.553681,536.266849
525.778074,-296.082377,-9178.553681,229.828649
525.778402,-814.226536,-9400.615463,153.219100
525.778729,-1332.370696,-9474.636058,76.609550
525.779057,-1406.391290,-9474.636058,0.000000
525.779385,-1184.329507,-9178.553681,-459.657299
525.779712,-592.164754,-8882.471304,-536.266849
525.780040,-444.123565,-8956.491898,-459.657299
525.780368,-592.164754,-9178.553681,-459.657299
525.780695,-1036.288319,-9104.533087,-689.485948
525.781023,-1258.350101,-9104.533087,-1149.143247
525.781351,-1258.350101,-9178.553681,-1378.971896
525.781678,-1036.288319,-9252.574275,-1532.190996
525.782006,-592.164754,-9252.574275,-1302.362347
525.782334,0.000000,-8882.471304,-1378.971896
525.782661,74.020594,-9104.533087,-1532.190996
525.782989,0.000000,-9178.553681,-1149.143247
525.783317,-148.041188,-9104.533087,-1455.581446
525.783644,74.020594,-9400.615463,-1608.800546
525.783972,148.041188,-8882.471304,-1225.752797
525.784300,518.144159,-9400.615463,-1685.410096
525.784627,222.061783,-9474.636058,-1608.800546
525.784955,296.082377,-9104.533087,-1455.581446
525.785283,518.144159,-9104.533087,-1455.581446
525.785610,444.123565,-9104.533087,-1532.190996
525.785938,444.123565,-9252.574275,-1915.238745
525.786266,74.020594,-9400.615463,-1915.238745
525.786594,0.000000,-9252.574275,-1915.238745
525.786921,74.020594,-9252.574275,-1762.019645
525.787249,74.020594,-9178.553681,-1762.019645
525.787577,74.020594,-9252.574275,-842.705048
525.787904,-296.082377,-9178.553681,-1991.848295
525.788232,-592.164754,-9252.574275,-2145.067394
525.788560,-740.205942,-8956.491898,-1915.238745
525.788887,-1110.308913,-8956.491898,-2221.676944
525.789215,-1406.391290,-8882.471304,-1762.019645
525.789543,-962.267725,-9326.594869,-2911.162892
525.789870,-1702.473667,-9030.512492,-2987.772442
525.790198,-1924.535449,-8882.471304,-2987.772442
525.790526,-2146.597232,-8882.471304,-3217.601092
525.790853,-1998.556043,-8734.430116,-3370.820191
525.791181,-1924.535449,-9104.533087,-3524.039291
525.791509,-1924.535449,-9030.512492,-4136.915689
525.791836,-1776.494261,-8882.471304,-4213.525239
525.792164,-1406.391290,-9104.533087,-4136.915689
525.792492,-1036.288319,-8882.471304,-4213.525239
525.792819,0.000000,-9104.533087,-3983.696590
525.793147,444.123565,-8734.430116,-3600.648841
525.793475,1184.329507,-9030.512492,-3217.601092
525.793802,1850.514855,-8808.450710,-2604.724693
525.794130,2146.597232,-9104.533087,-2374.896044
525.794458,2368.659014,-9178.553681,-2451.505594
525.794785,1850.514855,-9474.636058,-2145.067394
525.795113,1332.370696,-9992.780217,-2221.676944
525.795441,222.061783,-10288.862594,-2451.505594
525.795768,-888.247130,-10362.883188,-3600.648841
525.796096,-1924.535449,-10214.842000,-3677.258390
525.796424,-1776.494261,-9918.759623,-4596.572988
525.796752,-1702.473667,-9696.697840,-4903.011187
525.797079,-1184.329507,-8512.368333,-4903.011187
525.797407,370.102971,-7994.224174,-4443.353888
525.797735,2072.576638,-7031.956449,-3447.429741
525.798062,3182.885551,-6883.915261,-2298.286494
525.798390,2960.823768,-7328.038826,-2298.286494
525.798718,1628.453072,-8586.388927,-1991.848295
525.799045,0.000000,-9548.656652,-1915.238745
525.799373,-2368.659014,-10510.924376,-2221.676944
525.799701,-3552.988522,-11399.171507,-3140.991542
525.800028,-4219.173869,-11177.109724,-2451.505594
525.800356,-2960.823768,-10362.883188,-2681.334243
525.800684,-1184.329507,-8882.471304,-2451.505594
525.801011,1702.473667,-7402.059420,-1225.752797
525.801339,5847.626942,-5477.523971,919.314598
525.801667,9844.739029,-4737.318029,2221.676944
525.801994,10881.027347,-5403.503377,4136.915689
525.802322,7994.224174,-7846.182985,4213.525239
525.802650,1924.535449,-11473.192101,3600.648841
525.802977,-4885.359217,-13915.871710,1455.581446
525.803305,-9474.636058,-14211.954086,76.609550
525.803633,-11991.336260,-14582.057057,-1378.971896
525.803960,-9548.656652,-12657.521608,-1991.848295
525.804288,-7846.182985,-11103.089130,-1685.410096
525.804616,-1110.308913,-7402.059420,-1072.533697
525.804943,-1258.350101,-5699.585753,-1072.533697
525.805271,-148.041188,-4589.276840,-2757.943793
525.805599,-4293.194464,-6143.709319,-5592.497135
525.805927,-9252.574275,-7550.100608,-7431.126331
525.806254,-13323.706956,-8808.450710,-10035.851024
525.806582,-13915.871710,-8438.347739,-10418.898773
525.806910,-10362.883188,-7846.182985,-9652.803275
525.807237,-6217.729913,-7476.080014,-7967.393179
525.807565,1628.453072,-6883.915261,-5669.106685
525.807893,3182.885551,-7105.977043,-5209.449386
525.808220,6217.729913,-7254.018232,-4366.744339
525.808548,3330.926739,-10066.800811,-5669.106685
525.808876,2442.679609,-10807.006753,-6665.030833
525.809203,3775.050304,-10658.965565,-6971.469032
525.809531,7402.059420,-10658.965565,-5362.668486
525.809859,11473.192101,-9326.594869,-3370.820191
525.810186,12361.439231,-9696.697840,-1608.800546
525.810514,12805.562797,-10140.821405,-1072.533697
525.810842,11769.274478,-9400.615463,-1762.019645
525.811169,12657.521608,-9474.636058,-1302.362347
525.811497,13175.665768,-9992.780217,-1608.800546
525.811825,8882.471304,-10584.944971,-2298.286494
525.812152,4663.297435,-13915.871710,-2987.772442
525.812480,-3701.029710,-14063.912898,-5056.230287
525.812808,-11547.212695,-13989.892304,-7507.735880
525.813135,-8586.388927,-9918.759623,-7660.954980
525.813463,-3256.906145,-5329.482782,-6741.640382
525.813791,888.247130,-2738.761985,-3830.477490
525.814118,4589.276840,-2294.638420,-2451.505594
525.814446,2442.679609,-2664.741391,-995.924147
525.814774,-592.164754,-3552.988522,-689.485948
525.815101,-2664.741391,-4515.256246,-1149.143247
525.815429,-6217.729913,-6439.791695,-919.314598
525.815757,-5921.647536,-8512.368333,-842.705048
525.816085,-5995.668130,-9844.739029,1149.143247
525.816412,-5995.668130,-9992.780217,3294.210641
525.816740,-3849.070898,-9474.636058,4596.572988
525.817068,-1850.514855,-7550.100608,4979.620737
525.817395,-444.123565,-8660.409521,3064.381992
525.817723,-2812.782580,-10732.986159,842.705048
525.818051,-4737.318029,-11473.192101,-842.705048
525.818378,-6513.812290,-11473.192101,-2145.067394
525.818706,-4145.153275,-9252.574275,-1072.533697
525.819034,-1036.288319,-7994.224174,0.000000
525.819361,1406.391290,-8068.244768,459.657299
525.819689,962.267725,-9474.636058,995.924147
525.820017,-1702.473667,-9844.739029,1685.410096
525.820344,-3923.091493,-9622.677246,153.219100
525.820672,-3627.009116,-9770.718434,459.657299
525.821000,-2294.638420,-11621.233289,0.000000
525.821327,-3034.844362,-12139.377449,-842.705048
525.821655,-4293.194464,-11029.068536,-1762.019645
525.821983,-1702.473667,-8808.450710,-459.657299
525.822310,814.226536,-5699.585753,-612.876398
525.822638,1924.535449,-5847.626942,0.000000
525.822966,3182.885551,-6513.812290,-2221.676944
525.823293,3701.029710,-7550.100608,-3370.820191
525.823621,4145.153275,-7624.121203,-2911.162892
525.823949,5699.585753,-8142.265362,-1608.800546
525.824277,4959.379811,-10066.800811,-1378.971896
525.824604,3775.050304,-13397.727550,-1225.752797
525.824932,3034.844362,-15174.221811,-1072.533697
525.825260,1258.350101,-14063.912898,-1302.362347
525.825588,814.226536,-12731.542202,-919.314598
525.825915,0.000000,-12435.459826,-1915.238745
525.826243,-1924.535449,-11843.295072,-2604.724693
525.826571,-518.144159,-11325.150913,-1991.848295
525.826899,1184.329507,-8956.491898,-1762.019645
525.827226,1258.350101,-6735.874072,-2451.505594
525.827554,296.082377,-7254.018232,-1991.848295
525.827882,-1110.308913,-7550.100608,-3064.381992
525.828210,-1554.432478,-7031.956449,-3447.429741
525.828537,-740.205942,-6217.729913,-2681.334243
525.828865,-1480.411884,-6217.729913,-2834.553343
525.829193,-1480.411884,-6069.688724,-1532.190996
525.829521,0.000000,-6809.894666,306.438199
525.829848,1110.308913,-7624.121203,1455.581446
525.830176,962.267725,-8068.244768,1532.190996
525.830504,370.102971,-9918.759623,1991.848295
525.830832,-666.185348,-10658.965565,919.314598
525.831159,-1628.453072,-9474.636058,1149.143247
525.831487,-814.226536,-8586.388927,1762.019645
525.831815,592.164754,-8142.265362,1608.800546
525.832143,888.247130,-8290.306550,2145.067394
525.832470,2368.659014,-7772.162391,2757.943793
525.832798,2146.597232,-8808.450710,2987.772442
525.833126,0.000000,-10066.800811,2451.505594
525.833454,-2442.679609,-10955.047942,1302.362347
525.833781,-4589.276840,-11547.212695,0.000000
525.834109,-5033.400406,-10214.842000,-689.485948
525.834437,-4145.153275,-8882.471304,0.000000
525.834765,-2886.803174,-7105.977043,0.000000
525.835092,-1628.453072,-6513.812290,306.438199
525.835420,148.041188,-5921.647536,995.924147
525.835748,888.247130,-5329.482782,2451.505594
525.836075,-888.247130,-5847.626942,1072.533697
525.836403,-3849.070898,-7105.977043,0.000000
525.836731,-4959.379811,-8734.430116,-689.485948
525.837059,-3997.112087,-9104.533087,-612.876398
525.837386,-1110.308913,-8290.306550,76.609550
525.837714,1406.391290,-8364.327145,536.266849
525.838042,3701.029710,-9104.533087,1991.848295
525.838370,4219.173869,-9030.512492,2298.286494
525.838697,4071.132681,-10288.862594,3064.381992
525.839025,2368.659014,-11769.274478,2145.067394
525.839353,74.020594,-13323.706956,842.705048
525.839681,-1110.308913,-13619.789333,0.000000
525.840008,-888.247130,-12139.377449,-459.657299
525.840336,962.267725,-10658.965565,306.438199
525.840664,2368.659014,-10214.842000,612.876398
525.840992,2960.823768,-10214.842000,2221.676944
525.841319,2516.700203,-8956.491898,1455.581446
525.841647,1776.494261,-8586.388927,1991.848295
525.841975,0.000000,-9104.533087,1225.752797
525.842303,-3701.029710,-10066.800811,-459.657299
525.842630,-3627.009116,-10807.006753,229.828649
525.842958,-3552.988522,-10066.800811,0.000000
525.843286,-2072.576638,-7994.224174,383.047749
525.843614,-1036.288319,-7624.121203,995.924147
525.843941,296.082377,-7402.059420,1225.752797
525.844269,518.144159,-7105.977043,536.266849
525.844597,148.041188,-7254.018232,689.485948
525.844925,-1036.288319,-8882.471304,306.438199
525.845252,-3627.009116,-9770.718434,-919.314598
525.845580,-3997.112087,-11325.150913,-536.266849
525.845908,-2738.761985,-11103.089130,-153.219100
525.846236,-1850.514855,-10214.842000,0.000000
525.846563,-592.164754,-10436.903782,229.828649
525.846891,148.041188,-10066.800811,153.219100
525.847219,740.205942,-9400.615463,459.657299
525.847547,1332.370696,-9252.574275,842.705048
525.847874,1480.411884,-9400.615463,919.314598
525.848202,-148.041188,-10214.842000,-306.438199
525.848530,-740.205942,-10288.862594,-306.438199
525.848858,0.000000,-9104.533087,153.219100
525.849185,1702.473667,-7772.162391,612.876398
525.849513,2738.761985,-6439.791695,1532.190996
525.849841,3552.988522,-6587.832884,1685.410096
525.850169,3478.967927,-6735.874072,1149.143247
525.850496,2516.700203,-6957.935855,1608.800546
525.850824,1036.288319,-7328.038826,919.314598
525.851152,-1184.329507,-9252.574275,229.828649
525.851480,-1702.473667,-9326.594869,0.000000
525.851807,-1110.308913,-9474.636058,0.000000
525.852135,0.000000,-8808.450710,153.219100
525.852463,148.041188,-8290.306550,0.000000
525.852791,296.082377,-8808.450710,766.095498
525.853118,222.061783,-7550.100608,842.705048
525.853446,962.267725,-7550.100608,229.828649
525.853774,-148.041188,-8586.388927,0.000000
525.854102,-2146.597232,-9474.636058,-612.876398
525.854429,-2442.679609,-10066.800811,-383.047749
525.854757,-2516.700203,-9326.594869,459.657299
525.855085,-1628.453072,-8660.409521,612.876398
525.855413,-1184.329507,-8734.430116,1149.143247
525.855740,-814.226536,-8586.388927,1302.362347
525.856068,0.000000,-7772.162391,1378.971896
525.856396,962.267725,-7328.038826,1608.800546
525.856724,296.082377,-8142.265362,1225.752797
525.857051,-888.247130,-9400.615463,1225.752797
525.857379,-1332.370696,-10066.800811,919.314598
525.857707,-1036.288319,-9548.656652,1072.533697
525.858035,0.000000,-9770.718434,1378.971896
525.858362,370.102971,-9030.512492,1225.752797
525.858690,370.102971,-8586.388927,1225.752797
525.859018,1628.453072,-8512.368333,1302.362347
525.859345,2220.617826,-8660.409521,1838.629195
525.859673,1332.370696,-9548.656652,1378.971896
525.860001,-1776.494261,-10955.047942,612.876398
525.860329,-2738.761985,-11843.295072,153.219100
525.860656,-3330.926739,-11621.233289,459.657299
525.860984,-2368.659014,-10436.903782,536.266849
525.861312,-1702.473667,-10066.800811,153.219100
525.861640,-1332.370696,-9548.656652,842.705048
525.861967,444.123565,-8438.347739,919.314598
525.862295,222.061783,-7772.162391,1072.533697
525.862623,-222.061783,-8068.244768,383.047749
525.862951,-1406.391290,-9030.512492,-306.438199
525.863278,-1776.494261,-10066.800811,-383.047749
525.863606,-1554.432478,-9030.512492,-229.828649
525.863934,-666.185348,-8438.347739,0.000000
525.864262,74.020594,-8734.430116,306.438199
525.864589,296.082377,-8882.471304,536.266849
525.864917,1702.473667,-9178.553681,1225.752797
525.865245,2072.576638,-8734.430116,1532.190996
525.865573,1998.556043,-9918.759623,1762.019645
525.865900,0.000000,-11103.089130,536.266849
525.866228,-740.205942,-11695.253884,383.047749
525.866556,-888.247130,-11177.109724,0.000000
525.866884,0.000000,-10658.965565,76.609550
525.867211,370.102971,-9622.677246,306.438199
525.867539,888.247130,-8956.491898,536.266849
525.867867,2220.617826,-8438.347739,842.705048
525.868195,2442.679609,-7772.162391,1072.533697
525.868522,888.247130,-8438.347739,689.485948
525.868850,-370.102971,-9548.656652,0.000000
525.869178,-2368.659014,-10362.883188,-306.438199
525.869506,-1924.535449,-9918.759623,76.609550
525.869833,-1776.494261,-9178.553681,306.438199
525.870161,-1184.329507,-8734.430116,919.314598
525.870489,0.000000,-8290.306550,1149.143247
525.870817,888.247130,-7846.182985,1455.581446
525.871144,1184.329507,-7179.997637,1149.143247
525.871472,296.082377,-7698.141797,459.657299
525.871800,-1554.432478,-9030.512492,-459.657299
525.872128,-1924.535449,-9844.739029,-306.438199
525.872455,-1702.473667,-9474.636058,-689.485948
525.872783,0.000000,-9252.574275,0.000000
525.873111,444.123565,-8438.347739,229.828649
525.873439,1110.308913,-8660.409521,919.314598
525.873766,1332.370696,-9326.594869,1225.752797
525.874094,1258.350101,-8734.430116,1149.143247
525.874422,0.000000,-8808.450710,919.314598
525.874750,-2072.576638,-9844.739029,76.609550
525.875077,-2442.679609,-10510.924376,-229.828649
525.875405,-1924.535449,-9992.780217,76.609550
525.875733,-518.144159,-8512.368333,612.876398
525.876061,370.102971,-7624.121203,919.314598
525.876388,1258.350101,-7105.977043,1378.971896
525.876716,1702.473667,-7031.956449,1685.410096
525.877044,1332.370696,-7624.121203,1378.971896
525.877372,-592.164754,-8216.285956,995.924147
525.877699,-2368.659014,-9548.656652,0.000000
525.878027,-3256.906145,-10362.883188,-306.438199
525.878355,-2590.720797,-10584.944971,76.609550
525.878683,-1776.494261,-10140.821405,459.657299
525.879010,-962.267725,-9252.574275,842.705048
525.879338,74.020594,-8586.388927,689.485948
525.879666,666.185348,-8290.306550,766.095498
525.879994,888.247130,-8068.244768,842.705048
525.880321,444.123565,-8142.265362,76.609550
525.880649,-740.205942,-9326.594869,-689.485948
525.880977,-1110.308913,-10510.924376,-229.828649
525.881304,-1110.308913,-10510.924376,229.828649
525.881632,0.000000,-9844.739029,1149.143247
525.881960,1332.370696,-9474.636058,1685.410096
525.882288,2294.638420,-8882.471304,2145.067394
525.882615,2590.720797,-9030.512492,2757.943793
525.882943,2368.659014,-8882.471304,2374.896044
525.883271,370.102971,-9326.594869,1608.800546
525.883599,-1628.453072,-9992.780217,383.047749
525.883926,-2368.659014,-10214.842000,-306.438199
525.884254,-1850.514855,-9696.697840,383.047749
525.884582,-888.247130,-9030.512492,229.828649
525.884910,222.061783,-8068.244768,76.609550
525.885237,296.082377,-8068.244768,229.828649
525.885565,814.226536,-7772.162391,689.485948
525.885893,444.123565,-7179.997637,612.876398
525.886221,-1036.288319,-8956.491898,-689.485948
525.886548,-3330.926739,-10066.800811,-919.314598
525.886876,-3701.029710,-10584.944971,-766.095498
525.887204,-2812.782580,-10140.821405,0.000000
525.887532,-1184.329507,-9252.574275,306.438199
525.887859,222.061783,-9104.533087,842.705048
525.888187,1036.288319,-7994.224174,1225.752797
525.888515,1998.556043,-7846.182985,2145.067394
525.888843,1924.535449,-7179.997637,1838.629195
525.889170,296.082377,-7994.224174,1455.581446
525.889498,-814.226536,-9474.636058,612.876398
525.889826,-1702.473667,-9992.780217,0.000000
525.890154,-962.267725,-9622.677246,306.438199
525.890481,-370.102971,-9104.533087,229.828649
525.890809,148.041188,-8660.409521,689.485948
525.891137,1110.308913,-8364.327145,766.095498
525.891465,2072.576638,-7920.203579,842.705048
525.891792,2442.679609,-7476.080014,919.314598
525.892120,1776.494261,-8734.430116,766.095498
525.892448,-814.226536,-10214.842000,612.876398
525.892776,-1036.288319,-11399.171507,306.438199
525.893103,-1850.514855,-10732.986159,689.485948
525.893431,-962.267725,-10214.842000,1072.533697
525.893759,-814.226536,-9400.615463,919.314598
525.894087,518.144159,-9178.553681,1532.190996
525.894414,1628.453072,-8586.388927,2298.286494
525.894742,1850.514855,-7994.224174,2221.676944
525.895070,0.000000,-8882.471304,1532.190996
525.895398,-2146.597232,-10658.965565,766.095498
525.895725,-3330.926739,-11029.068536,0.000000
525.896053,-3108.864956,-10436.903782,0.000000
525.896381,-2590.720797,-9474.636058,0.000000
525.896709,-2146.597232,-9104.533087,-689.485948
525.897036,-1258.350101,-8660.409521,-229.828649
525.897364,0.000000,-7476.080014,0.000000
525.897692,370.102971,-7179.997637,0.000000
525.898020,-222.061783,-7994.224174,-612.876398
525.898347,-2294.638420,-9400.615463,-995.924147
525.898675,-2516.700203,-9918.759623,-919.314598
525.899003,-1998.556043,-9474.636058,-459.657299
525.899331,0.000000,-8660.409521,306.438199
525.899658,1110.308913,-7994.224174,995.924147
525.899986,2664.741391,-7846.182985,2145.067394
525.900314,3775.050304,-7328.038826,2604.724693
525.900642,4071.132681,-7698.141797,2911.162892
525.900969,2516.700203,-8364.327145,2451.505594
525.901297,740.205942,-9770.718434,2145.067394
525.901625,-518.144159,-10584.944971,459.657299
525.901953,-518.144159,-10140.821405,612.876398
525.902280,-1110.308913,-9696.697840,612.876398
525.902608,-962.267725,-9252.574275,76.609550
525.902936,-222.061783,-8586.388927,459.657299
525.903264,370.102971,-7550.100608,919.314598
525.903591,296.082377,-7105.977043,229.828649
525.903919,-1184.329507,-8068.244768,-383.047749
525.904247,-3997.112087,-9252.574275,-1532.190996
525.904574,-4663.297435,-9770.718434,-1455.581446
525.904902,-4071.132681,-8586.388927,-1378.971896
525.905230,-2072.576638,-7550.100608,-229.828649
525.905558,-740.205942,-7328.038826,459.657299
525.905885,370.102971,-7179.997637,842.705048
525.906213,1702.473667,-6809.894666,1608.800546
525.906541,1332.370696,-6587.832884,1685.410096
525.906869,148.041188,-8068.244768,1455.581446
525.907196,-1998.556043,-9030.512492,0.000000
525.907524,-1850.514855,-11325.150913,306.438199
525.907852,-1036.288319,-10955.047942,383.047749
525.908180,962.267725,-9992.780217,842.705048
525.908507,1702.473667,-9252.574275,1072.533697
525.908835,2960.823768,-9844.739029,1225.752797
525.909163,2664.741391,-9622.677246,1149.143247
525.909491,2368.659014,-9474.636058,766.095498
525.909818,1036.288319,-10584.944971,76.609550
525.910146,-2146.597232,-11917.315666,-995.924147
525.910474,-2664.741391,-12213.398043,-766.095498
525.910802,-1480.411884,-11547.212695,-383.047749
525.911129,-222.061783,-10214.842000,383.047749
525.911457,1332.370696,-9178.553681,842.705048
525.911785,2220.617826,-8734.430116,1762.019645
525.912113,2220.617826,-8660.409521,2298.286494
525.912440,1332.370696,-8882.471304,1762.019645
525.912768,-222.061783,-9622.677246,1302.362347
525.913096,-2146.597232,-10584.944971,306.438199
525.913424,-2146.597232,-10584.944971,459.657299
525.913751,-1702.473667,-9992.780217,689.485948
525.914079,-444.123565,-9770.718434,1225.752797
525.914407,0.000000,-9104.533087,1302.362347
525.914735,0.000000,-9178.553681,1149.143247
525.915062,370.102971,-8808.450710,612.876398
525.915390,0.000000,-9030.512492,306.438199
525.915718,-2590.720797,-10214.842000,-612.876398
525.916046,-4663.297435,-10881.027347,-1302.362347
525.916373,-3775.050304,-11177.109724,-842.705048
525.916701,-2590.720797,-9844.739029,76.609550
525.917029,-518.144159,-8956.491898,766.095498
525.917357,740.205942,-8512.368333,1225.752797
525.917684,2516.700203,-7550.100608,1608.800546
525.918012,2516.700203,-6957.935855,1991.848295
525.918340,2590.720797,-7254.018232,2451.505594
525.918668,1036.288319,-8068.244768,1532.190996
525.918995,-222.061783,-9030.512492,1685.410096
525.919323,-592.164754,-9252.574275,1762.019645
525.919651,-296.082377,-8586.388927,1608.800546
525.919979,296.082377,-7772.162391,1991.848295
525.920306,222.061783,-7476.080014,995.924147
525.920634,592.164754,-7550.100608,842.705048
525.920962,814.226536,-6957.935855,536.266849
525.921290,592.164754,-7179.997637,153.219100
525.921617,-962.267725,-7920.203579,-919.314598
525.921945,-2664.741391,-9474.636058,-1532.190996
525.922273,-3256.906145,-9178.553681,-2221.676944
525.922601,-2664.741391,-8660.409521,-1225.752797
525.922928,-1554.432478,-7994.224174,-689.485948
525.923256,-740.205942,-7920.203579,-306.438199
525.923584,-222.061783,-8068.244768,459.657299
525.923912,888.247130,-6957.935855,1149.143247
525.924239,1110.308913,-7179.997637,919.314598
525.924567,370.102971,-8364.327145,919.314598
525.924895,-740.205942,-9696.697840,766.095498
525.925223,-740.205942,-10214.842000,919.314598
525.925550,0.000000,-9548.656652,1685.410096
525.925878,222.061783,-8956.491898,1149.143247
525.926206,518.144159,-9326.594869,842.705048
525.926534,740.205942,-8808.450710,612.876398
525.926861,1924.535449,-8216.285956,76.609550
525.927189,2368.659014,-8142.265362,0.000000
525.927517,74.020594,-9104.533087,-995.924147
525.927845,-1850.514855,-11029.068536,-1532.190996
525.928173,-1406.391290,-11251.130318,-1072.533697
525.928500,-370.102971,-11029.068536,-766.095498
525.928828,592.164754,-9844.739029,0.000000
525.929156,1702.473667,-10140.821405,842.705048
525.929484,2294.638420,-9918.759623,1455.581446
525.929812,1998.556043,-9696.697840,2145.067394
525.930139,1702.473667,-9918.759623,2451.505594
525.930467,0.000000,-10807.006753,2068.457845
525.930795,-1110.308913,-11621.233289,1302.362347
525.931123,-1776.494261,-11547.212695,1302.362347
525.931451,-1554.432478,-10807.006753,1532.190996
525.931778,-1184.329507,-9918.759623,1225.752797
525.932106,-1036.288319,-9474.636058,995.924147
525.932434,222.061783,-8512.368333,1915.238745
525.932762,296.082377,-7624.121203,766.095498
525.933090,-444.123565,-7846.182985,536.266849
525.933417,-2368.659014,-9252.574275,-612.876398
525.933745,-4515.256246,-10362.883188,-1149.143247
525.934073,-4219.173869,-9770.718434,-1072.533697
525.934401,-3108.864956,-8882.471304,-383.047749
525.934729,-1702.473667,-9030.512492,153.219100
525.935056,-814.226536,-9474.636058,1149.143247
525.935384,0.000000,-8808.450710,1532.190996
525.935712,740.205942,-7920.203579,2298.286494
525.936040,814.226536,-8216.285956,2298.286494
525.936368,-296.082377,-9326.594869,1762.019645
525.936695,-1480.411884,-10288.862594,689.485948
525.937023,-666.185348,-9622.677246,689.485948
525.937351,444.123565,-8364.327145,1302.362347
525.937679,1406.391290,-7476.080014,1302.362347
525.938006,1998.556043,-7254.018232,1532.190996
525.938334,2812.782580,-7105.977043,1838.629195
525.938662,2664.741391,-6809.894666,1225.752797
525.938990,962.267725,-7402.059420,536.266849
525.939318,-592.164754,-9104.533087,0.000000
525.939645,-3552.988522,-9844.739029,-1225.752797
525.939973,-3478.967927,-9918.759623,-1302.362347
525.940301,-2220.617826,-9326.594869,-842.705048
525.940629,-592.164754,-8808.450710,-229.828649
525.940957,-370.102971,-8586.388927,0.000000
525.941284,1184.329507,-7698.141797,383.047749
525.941612,1184.329507,-7105.977043,0.000000
525.941940,1850.514855,-7179.997637,612.876398
525.942268,666.185348,-8142.265362,0.000000
525.942596,-444.123565,-9178.553681,0.000000
525.942923,0.000000,-9696.697840,383.047749
525.943251,0.000000,-9474.636058,612.876398
525.943579,518.144159,-9252.574275,995.924147
525.943907,592.164754,-9474.636058,842.705048
525.944235,1036.288319,-9178.553681,1149.143247
525.944562,1480.411884,-8586.388927,766.095498
525.944890,1036.288319,-8734.430116,689.485948
525.945218,-370.102971,-9992.780217,153.219100
525.945546,-1776.494261,-10955.047942,-459.657299
525.945874,-1924.535449,-10807.006753,-842.705048
525.946201,-1480.411884,-9474.636058,-459.657299
525.946529,-666.185348,-9326.594869,-459.657299
525.946857,-370.102971,-9178.553681,-229.828649
525.947185,666.185348,-8882.471304,459.657299
525.947512,1628.453072,-8068.244768,1225.752797
525.947840,2590.720797,-8216.285956,2068.457845
525.948168,1258.350101,-9400.615463,1762.019645
525.948496,-518.144159,-10955.047942,1762.019645
525.948824,-1924.535449,-11103.089130,1685.410096
525.949151,-2368.659014,-11029.068536,1608.800546
525.949479,-2368.659014,-10214.842000,1455.581446
525.949807,-2072.576638,-9474.636058,842.705048
525.950135,-518.144159,-8882.471304,1532.190996
525.950463,222.061783,-7698.141797,995.924147
525.950790,296.082377,-7254.018232,689.485948
525.951118,-1110.308913,-9030.512492,0.000000
525.951446,-2960.823768,-10066.800811,-383.047749
525.951774,-3701.029710,-10214.842000,-1378.971896
525.952102,-3552.988522,-9770.718434,-1072.533697
525.952429,-2516.700203,-9696.697840,-1225.752797
525.952757,-1776.494261,-9474.636058,-383.047749
525.953085,592.164754,-8586.388927,459.657299
525.953413,1554.432478,-7179.997637,1685.410096
525.953741,2590.720797,-7698.141797,2145.067394
525.954068,1258.350101,-8882.471304,1838.629195
525.954396,444.123565,-10066.800811,1302.362347
525.954724,518.144159,-10584.944971,1225.752797
525.955052,370.102971,-9770.718434,995.924147
525.955380,444.123565,-9770.718434,1302.362347
525.955707,1406.391290,-9474.636058,1532.190996
525.956035,2886.803174,-8586.388927,1838.629195
525.956363,3404.947333,-7624.121203,1991.848295
525.956691,3330.926739,-8290.306550,1455.581446
525.957019,74.020594,-9252.574275,0.000000
525.957346,-1776.494261,-11029.068536,-536.266849
525.957674,-2664.741391,-10955.047942,-1378.971896
525.958002,-2442.679609,-10362.883188,-1072.533697
525.958330,-1628.453072,-9844.739029,-919.314598
525.958657,-1480.411884,-9178.553681,-612.876398
525.958985,296.082377,-7994.224174,536.266849
525.959313,1258.350101,-7105.977043,536.266849
525.959641,1776.494261,-6883.915261,1149.143247
525.959969,-296.082377,-7476.080014,919.314598
525.960296,-1702.473667,-9400.615463,0.000000
525.960624,-2220.617826,-9696.697840,153.219100
525.960952,-1998.556043,-9474.636058,459.657299
525.961280,-444.123565,-9326.594869,1455.581446
525.961608,666.185348,-9104.533087,1455.581446
525.961935,1924.535449,-8512.368333,1608.800546
525.962263,2442.679609,-7994.224174,2374.896044
525.962591,1406.391290,-7994.224174,1685.410096
525.962919,-1332.370696,-9622.677246,766.095498
525.963247,-2886.803174,-10362.883188,-306.438199
525.963574,-3775.050304,-9918.759623,-1302.362347
525.963902,-2442.679609,-9326.594869,-536.266849
525.964230,-1184.329507,-8438.347739,-383.047749
525.964558,-444.123565,-7920.203579,0.000000
525.964886,518.144159,-7031.956449,383.047749
525.965213,1850.514855,-6513.812290,1608.800546
525.965541,740.205942,-6809.894666,1225.752797
525.965869,-814.226536,-8068.244768,76.609550
525.966197,-2294.638420,-9622.677246,-229.828649
525.966525,-2812.782580,-10066.800811,229.828649
525.966852,-2146.597232,-9400.615463,1149.143247
525.967180,-296.082377,-9030.512492,1225.752797
525.967508,888.247130,-8808.450710,1532.190996
525.967836,2072.576638,-8216.285956,1991.848295
525.968164,2072.576638,-7624.121203,1685.410096
525.968491,888.247130,-7624.121203,995.924147
525.968819,-1258.350101,-9548.656652,-612.876398
525.969147,-2664.741391,-10658.965565,-1608.800546
525.969475,-2146.597232,-10436.903782,-1685.410096
525.969802,-740.205942,-10066.800811,-995.924147
525.970130,666.185348,-9918.759623,0.000000
525.970458,1184.329507,-9326.594869,0.000000
525.970786,2368.659014,-9030.512492,1072.533697
525.971114,2664.741391,-8808.450710,1608.800546
525.971441,2146.597232,-9474.636058,1225.752797
525.971769,-370.102971,-11177.109724,536.266849
525.972097,-1850.514855,-12065.356855,919.314598
525.972425,-2072.576638,-11769.274478,689.485948
525.972753,-888.247130,-10658.965565,1532.190996
525.973080,740.205942,-9474.636058,1685.410096
525.973408,2368.659014,-8586.388927,2145.067394
525.973736,3701.029710,-8438.347739,2757.943793
525.974064,2368.659014,-7254.018232,1762.019645
525.974392,518.144159,-7772.162391,766.095498
525.974719,-1702.473667,-9252.574275,-383.047749
525.975047,-3256.906145,-10288.862594,-1072.533697
525.975375,-3330.926739,-9918.759623,-1149.143247
525.975703,-2146.597232,-9770.718434,0.000000
525.976031,-1480.411884,-9474.636058,0.000000
525.976358,-1110.308913,-9326.594869,842.705048
525.976686,148.041188,-8586.388927,612.876398
525.977014,370.102971,-8068.244768,766.095498
525.977342,74.020594,-8364.327145,612.876398
525.977670,-1850.514855,-9844.739029,153.219100
525.977997,-2960.823768,-10807.006753,0.000000
525.978325,-2960.823768,-10436.903782,459.657299
525.978653,-1702.473667,-9474.636058,1149.143247
525.978981,-296.082377,-8512.368333,1225.752797
525.979308,222.061783,-8290.306550,1302.362347
525.979636,1332.370696,-7920.203579,1991.848295
525.979964,1554.432478,-7105.977043,1762.019645
525.980292,666.185348,-7402.059420,995.924147
525.980620,-444.123565,-9178.553681,-383.047749
525.980947,-1776.494261,-9918.759623,0.000000
525.981275,-1998.556043,-9844.739029,0.000000
525.981603,-1258.350101,-9474.636058,153.219100
525.981931,-888.247130,-9104.533087,0.000000
525.982259,222.061783,-8438.347739,766.095498
525.982586,1110.308913,-7920.203579,689.485948
525.982914,2516.700203,-7105.977043,689.485948
525.983242,1998.556043,-7624.121203,536.266849
525.983570,222.061783,-9178.553681,0.000000
525.983898,-1480.411884,-10510.924376,-306.438199
525.984225,-1998.556043,-9622.677246,306.438199
525.984553,-740.205942,-9622.677246,229.828649
525.984881,0.000000,-9178.553681,612.876398
525.985209,888.247130,-8660.409521,689.485948
525.985537,1924.535449,-7550.100608,919.314598
525.985864,2664.741391,-7179.997637,1072.533697
525.986192,1998.556043,-7772.162391,612.876398
525.986520,148.041188,-9400.615463,-459.657299
525.986848,-1332.370696,-10436.903782,-612.876398
525.987176,-1406.391290,-10436.903782,-766.095498
525.987503,-814.226536,-10436.903782,0.000000
525.987831,0.000000,-9622.677246,0.000000
525.988159,74.020594,-9474.636058,153.219100
525.988487,888.247130,-9030.512492,612.876398
525.988815,1406.391290,-8586.388927,1225.752797
525.989142,518.144159,-8216.285956,1149.143247
525.989470,-444.123565,-9474.636058,689.485948
525.989798,-2146.597232,-10732.986159,153.219100
525.990126,-2146.597232,-10732.986159,536.266849
525.990453,-1554.432478,-9992.780217,766.095498
525.990781,-666.185348,-8586.388927,1149.143247
525.991109,518.144159,-7698.141797,1532.190996
525.991437,2072.576638,-7476.080014,1685.410096
525.991765,1924.535449,-7402.059420,1838.629195
525.992092,814.226536,-7772.162391,1378.971896
525.992420,-1184.329507,-9326.594869,612.876398
525.992748,-2812.782580,-10436.903782,306.438199
525.993076,-2886.803174,-10362.883188,536.266849
525.993404,-2368.659014,-10066.800811,1072.533697
525.993731,-1554.432478,-9770.718434,766.095498
525.994059,-1554.432478,-9400.615463,1149.143247
525.994387,0.000000,-8068.244768,995.924147
525.994715,518.144159,-7031.956449,1838.629195
525.995043,814.226536,-7772.162391,1149.143247
525.995370,-962.267725,-8956.491898,229.828649
525.995698,-2516.700203,-9844.739029,-229.828649
525.996026,-2146.597232,-9918.759623,0.000000
525.996354,-1184.329507,-8586.388927,612.876398
525.996682,-296.082377,-8364.327145,766.095498
525.997009,888.247130,-8438.347739,1532.190996
525.997337,1776.494261,-8216.285956,1685.410096
525.997665,962.267725,-8068.244768,1532.190996
525.997993,0.000000,-8290.306550,1149.143247
525.998321,-2368.659014,-9770.718434,-689.485948
525.998648,-2738.761985,-11103.089130,-612.876398
525.998976,-2146.597232,-10436.903782,-1072.533697
525.999304,-814.226536,-9696.697840,-306.438199
525.999632,666.185348,-8660.409521,0.000000
525.999960,1406.391290,-8660.409521,153.219100
526.000287,1850.514855,-8068.244768,383.047749
526.000615,2294.638420,-8216.285956,306.438199
526.000943,1258.350101,-9326.594869,0.000000
526.001271,-1036.288319,-10436.903782,-1149.143247
526.001598,-2072.576638,-11399.171507,0.000000
526.001926,-2072.576638,-11695.253884,-459.657299
526.002254,-296.082377,-10881.027347,229.828649
526.002582,1110.308913,-9992.780217,536.266849
526.002910,2220.617826,-9178.553681,766.095498
526.003237,2812.782580,-8438.347739,1608.800546
526.003565,2368.659014,-8882.471304,1072.533697
526.003893,370.102971,-9474.636058,306.438199
526.004221,-814.226536,-10362.883188,0.000000
526.004549,-1036.288319,-10732.986159,-306.438199
526.004876,0.000000,-10436.903782,689.485948
526.005204,74.020594,-9696.697840,689.485948
526.005532,370.102971,-9326.594869,766.095498
526.005860,888.247130,-8586.388927,1455.581446
526.006188,1924.535449,-7624.121203,1915.238745
526.006515,1628.453072,-7846.182985,1608.800546
526.006843,74.020594,-8882.471304,1378.971896
526.007171,-2516.700203,-10288.862594,536.266849
526.007499,-3775.050304,-10658.965565,306.438199
526.007827,-3404.947333,-10436.903782,842.705048
526.008154,-1998.556043,-9326.594869,1302.362347
526.008482,-814.226536,-8586.388927,1608.800546
526.008810,0.000000,-8216.285956,1762.019645
526.009138,222.061783,-7402.059420,2221.676944
526.009466,-740.205942,-7550.100608,1302.362347
526.009793,-1554.432478,-7920.203579,842.705048
526.010121,-3330.926739,-8586.388927,-612.876398
526.010449,-2960.823768,-9400.615463,-153.219100
526.010777,-2442.679609,-8660.409521,76.609550
526.011104,-592.164754,-8586.388927,919.314598
526.011432,-518.144159,-7994.224174,1072.533697
526.011760,962.267725,-7328.038826,1225.752797
526.012088,1480.411884,-6883.915261,995.924147
526.012416,2072.576638,-7031.956449,1455.581446
526.012743,592.164754,-8290.306550,766.095498
526.013071,-1258.350101,-9474.636058,306.438199
526.013399,-1702.473667,-10066.800811,842.705048
526.013727,-740.205942,-9770.718434,919.314598
526.014055,0.000000,-9400.615463,689.485948
526.014382,222.061783,-9548.656652,689.485948
526.014710,518.144159,-9326.594869,383.047749
526.015038,1480.411884,-7994.224174,689.485948
526.015366,1924.535449,-6883.915261,919.314598
526.015694,1924.535449,-7698.141797,153.219100
526.016021,296.082377,-9178.553681,-306.438199
526.016349,0.000000,-10214.842000,0.000000
526.016677,-814.226536,-9844.739029,229.828649
526.017005,-814.226536,-9252.574275,0.000000
526.017333,-888.247130,-9326.594869,229.828649
526.017660,-296.082377,-9400.615463,153.219100
526.017988,518.144159,-8364.327145,766.095498
526.018316,1406.391290,-7994.224174,919.314598
526.018644,962.267725,-8068.244768,766.095498
526.018972,-962.267725,-9326.594869,76.609550
526.019299,-1850.514855,-10214.842000,0.000000
526.019627,-1480.411884,-9918.759623,0.000000
526.019955,-888.247130,-9326.594869,153.219100
526.020283,-296.082377,-8956.491898,0.000000
526.020611,222.061783,-8586.388927,919.314598
526.020938,888.247130,-8512.368333,842.705048
526.021266,888.247130,-8142.265362,1072.533697
526.021594,222.061783,-8512.368333,766.095498
526.021922,-1406.391290,-10288.862594,0.000000
526.022249,-2220.617826,-10510.924376,0.000000
526.022577,-1776.494261,-10436.903782,76.609550
526.022905,-888.247130,-9474.636058,229.828649
526.023233,74.020594,-9030.512492,383.047749
526.023561,1036.288319,-8956.491898,1225.752797
526.023888,2146.597232,-7624.121203,1378.971896
526.024216,2442.679609,-8216.285956,2068.457845
526.024544,1184.329507,-9030.512492,1685.410096
526.024872,-1332.370696,-11103.089130,1225.752797
526.025200,-2886.803174,-11843.295072,383.047749
526.025527,-3256.906145,-11325.150913,459.657299
526.025855,-1850.514855,-10584.944971,459.657299
526.026183,-1554.432478,-9252.574275,229.828649
526.026511,-666.185348,-9252.574275,536.266849
526.026839,0.000000,-7994.224174,383.047749
526.027166,370.102971,-7698.141797,766.095498
526.027494,0.000000,-7402.059420,-536.266849
526.027821,-1998.556043,-8882.471304,-1532.190996
526.028149,-2516.700203,-9770.718434,-1378.971896
526.028477,-2368.659014,-10066.800811,-995.924147
526.028804,-1850.514855,-9400.615463,-229.828649
526.029132,-444.123565,-8956.491898,306.438199
526.029459,1406.391290,-9252.574275,1225.752797
526.029787,2516.700203,-8216.285956,1991.848295
526.030114,2738.761985,-8216.285956,2068.457845
526.030442,1110.308913,-9178.553681,1532.190996
526.030770,-888.247130,-11473.192101,689.485948
526.031097,-1850.514855,-10732.986159,383.047749
526.031425,-962.267725,-10214.842000,383.047749
526.031752,518.144159,-9400.615463,536.266849
526.032080,1702.473667,-8808.450710,766.095498
526.032408,2516.700203,-8364.327145,1302.362347
526.032735,3330.926739,-7402.059420,1762.019645
526.033063,2368.659014,-7772.162391,1532.190996
526.033390,740.205942,-8956.491898,919.314598
526.033718,-1406.391290,-10140.821405,0.000000
526.034046,-1702.473667,-10584.944971,612.876398
526.034373,-1480.411884,-10066.800811,459.657299
526.034701,-814.226536,-10066.800811,1455.581446
526.035028,-444.123565,-9548.656652,1685.410096
526.035356,666.185348,-8956.491898,2145.067394
526.035684,1258.350101,-7772.162391,2451.505594
526.036011,1258.350101,-7328.038826,2298.286494
526.036339,-592.164754,-8364.327145,1225.752797
526.036666,-3478.967927,-9696.697840,229.828649
526.036994,-3997.112087,-9474.636058,-383.047749
526.037321,-3108.864956,-8882.471304,-229.828649
526.037649,-1924.535449,-8068.244768,0.000000
526.037977,-1480.411884,-7994.224174,0.000000
526.038304,-962.267725,-8142.265362,0.000000
526.038632,-148.041188,-7920.203579,229.828649
526.038959,-444.123565,-8068.244768,153.219100
526.039287,-1036.288319,-8808.450710,-536.266849
526.039615,-2886.803174,-10140.821405,-1378.971896
526.039942,-2368.659014,-11029.068536,-612.876398
526.040270,-1480.411884,-9992.780217,-383.047749
526.040597,74.020594,-8808.450710,612.876398
526.040925,1850.514855,-8438.347739,612.876398
526.041253,3256.906145,-7550.100608,1685.410096
526.041580,4071.132681,-6957.935855,1685.410096
526.041908,2960.823768,-7328.038826,1915.238745
526.042235,1184.329507,-8586.388927,1225.752797
526.042563,-1184.329507,-10658.965565,459.657299
526.042890,-1776.494261,-11029.068536,689.485948
526.043218,-592.164754,-10288.862594,459.657299
526.043546,222.061783,-9548.656652,612.876398
526.043873,1036.288319,-9030.512492,612.876398
526.044201,1184.329507,-8216.285956,459.657299
526.044528,1628.453072,-6957.935855,766.095498
526.044856,1036.288319,-7328.038826,306.438199
526.045184,-740.205942,-7920.203579,-842.705048
526.045511,-2664.741391,-9622.677246,-1302.362347
526.045839,-3404.947333,-9918.759623,-1455.581446
526.046166,-2590.720797,-9400.615463,0.000000
526.046494,-1184.329507,-9548.656652,459.657299
526.046822,-592.164754,-9104.533087,1149.143247
526.047149,444.123565,-9030.512492,1532.190996
526.047477,1702.473667,-8512.368333,2451.505594
526.047804,1258.350101,-8290.306550,2145.067394
526.048132,74.020594,-9918.759623,2068.457845
526.048460,-1850.514855,-11029.068536,766.095498
526.048787,-2294.638420,-10955.047942,766.095498
526.049115,-1184.329507,-10436.903782,536.266849
526.049442,-370.102971,-9696.697840,459.657299
526.049770,74.020594,-9326.594869,1072.533697
526.050097,592.164754,-9104.533087,536.266849
526.050425,962.267725,-8808.450710,766.095498
526.050753,1110.308913,-8364.327145,536.266849
526.051080,-518.144159,-9548.656652,-383.047749
526.051408,-2220.617826,-10584.944971,-459.657299
526.051735,-2812.782580,-10732.986159,-229.828649
526.052063,-2442.679609,-9992.780217,-229.828649
526.052391,-1184.329507,-9622.677246,689.485948
526.052718,-222.061783,-9178.553681,919.314598
526.053046,888.247130,-8216.285956,1685.410096
526.053373,2368.659014,-7476.080014,1685.410096
526.053701,1628.453072,-7476.080014,1608.800546
526.054029,592.164754,-8512.368333,1302.362347
526.054356,-1110.308913,-10066.800811,536.266849
526.054684,-1406.391290,-9918.759623,229.828649
526.055011,-1258.350101,-9844.739029,153.219100
526.055339,-740.205942,-8808.450710,76.609550
526.055666,-148.041188,-8808.450710,229.828649
526.055994,444.123565,-8290.306550,306.438199
526.056322,1406.391290,-7550.100608,536.266849
526.056649,1406.391290,-7698.141797,0.000000
526.056977,74.020594,-8586.388927,-229.828649
526.057304,-1776.494261,-9844.739029,-689.485948
526.057632,-2146.597232,-10214.842000,-1072.533697
526.057960,-1554.432478,-9622.677246,-306.438199
526.058287,-444.123565,-9030.512492,459.657299
526.058615,370.102971,-7994.224174,612.876398
526.058942,1776.494261,-7920.203579,1378.971896
526.059270,2590.720797,-7328.038826,2068.457845
526.059598,2590.720797,-7476.080014,2145.067394
526.059925,518.144159,-8068.244768,2145.067394
526.060253,-370.102971,-9844.739029,1072.533697
526.060580,-1850.514855,-10732.986159,612.876398
526.060908,-1850.514855,-10436.903782,689.485948
526.061236,-1036.288319,-9326.594869,536.266849
526.061563,-518.144159,-9104.533087,612.876398
526.061891,296.082377,-8512.368333,766.095498
526.062218,296.082377,-7476.080014,612.876398
526.062546,0.000000,-7328.038826,-459.657299
526.062873,-1110.308913,-8364.327145,-919.314598
526.063201,-3256.906145,-9548.656652,-1838.629195
526.063529,-3775.050304,-9178.553681,-1762.019645
526.063856,-2812.782580,-9918.759623,-995.924147
526.064184,-962.267725,-9400.615463,76.609550
526.064511,148.041188,-8734.430116,612.876398
526.064839,1924.535449,-8438.347739,1915.238745
526.065167,2442.679609,-8290.306550,2528.115143
526.065494,2516.700203,-8734.430116,2451.505594
526.065822,666.185348,-9252.574275,1685.410096
526.066149,-962.267725,-10510.924376,1072.533697
526.066477,-814.226536,-10807.006753,919.314598
526.066805,0.000000,-10362.883188,1149.143247
526.067132,1110.308913,-9400.615463,1225.752797
526.067460,888.247130,-9474.636058,766.095498
526.067787,1628.453072,-9104.533087,1225.752797
526.068115,1110.308913,-8290.306550,306.438199
526.068442,592.164754,-8660.409521,306.438199
526.068770,-1702.473667,-9178.553681,-842.705048
526.069098,-3108.864956,-10732.986159,-1302.362347
526.069425,-3849.070898,-10732.986159,-1608.800546
526.069753,-2886.803174,-10362.883188,-919.314598
526.070080,-1406.391290,-9548.656652,0.000000
526.070408,-148.041188,-8882.471304,229.828649
526.070736,1036.288319,-7846.182985,1149.143247
526.071063,1924.535449,-7772.162391,1685.410096
526.071391,1184.329507,-8290.306550,1762.019645
526.071718,74.020594,-8882.471304,1225.752797
526.072046,-740.205942,-9918.759623,1532.190996
526.072374,-666.185348,-10362.883188,1225.752797
526.072701,0.000000,-10214.842000,1378.971896
526.073029,222.061783,-9844.739029,1532.190996
526.073356,0.000000,-9622.677246,1455.581446
526.073684,740.205942,-9030.512492,2145.067394
526.074012,814.226536,-8068.244768,842.705048
526.074339,666.185348,-8290.306550,306.438199
526.074667,-888.247130,-9548.656652,-306.438199
526.074994,-2664.741391,-10362.883188,-919.314598
526.075322,-2960.823768,-10288.862594,-612.876398
526.075649,-2146.597232,-9918.759623,0.000000
526.075977,-1332.370696,-8808.450710,153.219100
526.076305,-296.082377,-8364.327145,306.438199
526.076632,740.205942,-7402.059420,1149.143247
526.076960,1554.432478,-7254.018232,1455.581446
526.077287,1258.350101,-7624.121203,1915.238745
526.077615,0.000000,-8438.347739,1838.629195
526.077943,-592.164754,-9474.636058,1302.362347
526.078270,-370.102971,-9474.636058,1072.533697
526.078598,-296.082377,-9400.615463,1532.190996
526.078925,148.041188,-8808.450710,919.314598
526.079253,-296.082377,-8142.265362,995.924147
526.079581,1036.288319,-7994.224174,995.924147
526.079908,1110.308913,-7624.121203,612.876398
526.080236,962.267725,-7550.100608,459.657299
526.080563,0.000000,-8142.265362,-306.438199
526.080891,-2368.659014,-9474.636058,-1302.362347
526.081218,-2516.700203,-10510.924376,-1149.143247
526.081546,-2516.700203,-10066.800811,-1072.533697
526.081874,-1036.288319,-9178.553681,-536.266849
526.082201,0.000000,-8586.388927,-229.828649
526.082529,1036.288319,-8364.327145,459.657299
526.082856,1924.535449,-8364.327145,1685.410096
526.083184,1554.432478,-8512.368333,1838.629195
526.083512,592.164754,-8808.450710,1302.362347
526.083839,-1184.329507,-9770.718434,995.924147
526.084167,-1258.350101,-10066.800811,612.876398
526.084494,-888.247130,-9474.636058,842.705048
526.084822,0.000000,-9030.512492,1072.533697
526.085150,222.061783,-8808.450710,1149.143247
526.085477,1036.288319,-8290.306550,1072.533697
526.085805,1480.411884,-7772.162391,1149.143247
526.086132,666.185348,-8438.347739,306.438199
526.086460,-1406.391290,-9474.636058,-766.095498
526.086788,-3552.988522,-10658.965565,-1762.019645
526.087115,-3552.988522,-10732.986159,-1685.410096
526.087443,-2960.823768,-9918.759623,-1072.533697
526.087770,-740.205942,-9104.533087,-383.047749
526.088098,444.123565,-8734.430116,153.219100
526.088425,1702.473667,-8290.306550,919.314598
526.088753,1998.556043,-7994.224174,1608.800546
526.089081,1628.453072,-8216.285956,1762.019645
526.089408,-296.082377,-9622.677246,995.924147
526.089736,-1406.391290,-10658.965565,689.485948
526.090063,-1702.473667,-10881.027347,689.485948
526.090391,-1110.308913,-10362.883188,1072.533697
526.090719,0.000000,-9400.615463,1302.362347
526.091046,666.185348,-8808.450710,1455.581446
526.091374,1702.473667,-8438.347739,1608.800546
526.091701,1702.473667,-7920.203579,842.705048
526.092029,1036.288319,-8364.327145,76.609550
526.092357,-1480.411884,-9104.533087,-842.705048
526.092684,-2516.700203,-10436.903782,-1455.581446
526.093012,-2812.782580,-10732.986159,-995.924147
526.093339,-1628.453072,-9918.759623,-383.047749
526.093667,-222.061783,-9696.697840,383.047749
526.093994,666.185348,-9622.677246,1149.143247
526.094322,1480.411884,-9178.553681,1762.019645
526.094650,1406.391290,-8734.430116,1991.848295
526.094977,1258.350101,-9104.533087,1762.019645
526.095305,-444.123565,-9696.697840,1378.971896
526.095632,-1480.411884,-10881.027347,1072.533697
526.095960,-1258.350101,-10658.965565,1225.752797
526.096288,-518.144159,-9696.697840,995.924147
526.096615,222.061783,-9326.594869,1532.190996
526.096943,296.082377,-8882.471304,1455.581446
526.097270,1406.391290,-8734.430116,1915.238745
526.097598,1480.411884,-7994.224174,1225.752797
526.097926,740.205942,-8438.347739,1225.752797
526.098253,-1406.391290,-9992.780217,306.438199
526.098581,-3404.947333,-11029.068536,-306.438199
526.098908,-3182.885551,-10881.027347,-612.876398
526.099236,-2442.679609,-9844.739029,-229.828649
526.099564,-1184.329507,-8956.491898,0.000000
526.099891,0.000000,-8216.285956,76.609550
526.100219,962.267725,-7550.100608,919.314598
526.100546,1332.370696,-7254.018232,919.314598
526.100874,1776.494261,-7328.038826,1455.581446
526.101201,74.020594,-8734.430116,919.314598
526.101529,-962.267725,-9622.677246,766.095498
526.101857,-1184.329507,-9992.780217,919.314598
526.102184,-518.144159,-9622.677246,1225.752797
526.102512,370.102971,-8808.450710,1225.752797
526.102839,814.226536,-8660.409521,1302.362347
526.103167,1702.473667,-7846.182985,1685.410096
526.103495,1998.556043,-7476.080014,1455.581446
526.103822,1332.370696,-7698.141797,766.095498
526.104150,-1036.288319,-8734.430116,-689.485948
526.104477,-2368.659014,-9844.739029,-1149.143247
526.104805,-2738.761985,-9178.553681,-1608.800546
526.105133,-2294.638420,-8216.285956,-1838.629195
526.105460,-1406.391290,-8290.306550,-766.095498
526.105788,-888.247130,-8068.244768,-766.095498
526.106115,370.102971,-7254.018232,76.609550
526.106443,1702.473667,-6883.915261,842.705048
526.106770,1702.473667,-6809.894666,995.924147
526.107098,148.041188,-8586.388927,612.876398
526.107426,-962.267725,-10140.821405,842.705048
526.107753,-1184.329507,-9622.677246,612.876398
526.108081,-740.205942,-9770.718434,995.924147
526.108408,148.041188,-9474.636058,1455.581446
526.108736,370.102971,-9030.512492,1072.533697
526.109064,1554.432478,-8216.285956,1225.752797
526.109391,2516.700203,-7402.059420,1608.800546
526.109719,1924.535449,-7920.203579,995.924147
526.110046,-296.082377,-9252.574275,383.047749
526.110374,-1776.494261,-10288.862594,-536.266849
526.110702,-2516.700203,-10214.842000,-612.876398
526.111029,-2442.679609,-9844.739029,-612.876398
526.111357,-1776.494261,-9844.739029,0.000000
526.111684,-1036.288319,-9252.574275,306.438199
526.112012,0.000000,-7920.203579,995.924147
526.112340,888.247130,-8216.285956,1762.019645
526.112667,888.247130,-8512.368333,1991.848295
526.112995,-1110.308913,-9918.759623,1378.971896
526.113322,-2220.617826,-10732.986159,1072.533697
526.113650,-2294.638420,-10584.944971,766.095498
526.113977,-1554.432478,-9918.759623,1149.143247
526.114305,-592.164754,-9178.553681,1225.752797
526.114633,592.164754,-8734.430116,1455.581446
526.114960,2146.597232,-7920.203579,1455.581446
526.115288,2072.576638,-7550.100608,995.924147
526.115615,1036.288319,-8068.244768,842.705048
526.115943,-1332.370696,-9992.780217,0.000000
526.116271,-2960.823768,-11103.089130,-919.314598
526.116598,-2960.823768,-11547.212695,-1225.752797
526.116926,-3108.864956,-10732.986159,-689.485948
526.117253,-2072.576638,-10140.821405,-76.609550
526.117581,-444.123565,-9696.697840,229.828649
526.117909,1184.329507,-8512.368333,919.314598
526.118236,1776.494261,-7698.141797,1072.533697
526.118564,1406.391290,-8660.409521,2068.457845
526.118891,-1036.288319,-9474.636058,612.876398
526.119219,-2220.617826,-10140.821405,76.609550
526.119546,-1628.453072,-9770.718434,306.438199
526.119874,-592.164754,-9252.574275,1072.533697
526.120202,814.226536,-8882.471304,1608.800546
526.120529,1998.556043,-8364.327145,2068.457845
526.120857,2812.782580,-7772.162391,2451.505594
526.121184,2886.803174,-7698.141797,2374.896044
526.121512,962.267725,-8364.327145,1455.581446
526.121840,-1406.391290,-10140.821405,306.438199
526.122167,-2812.782580,-10955.047942,-153.219100
526.122495,-2442.679609,-10214.842000,-536.266849
526.122822,-1776.494261,-9474.636058,0.000000
526.123150,-296.082377,-8364.327145,0.000000
526.123478,814.226536,-8216.285956,919.314598
526.123805,1998.556043,-6883.915261,1302.362347
526.124133,1776.494261,-6291.750507,1149.143247
526.124460,296.082377,-7920.203579,842.705048
526.124788,-1776.494261,-9030.512492,-383.047749
526.125116,-3182.885551,-10140.821405,-689.485948
526.125443,-1924.535449,-9400.615463,0.000000
526.125771,-592.164754,-8660.409521,919.314598
526.126098,1036.288319,-8216.285956,1302.362347
526.126426,1332.370696,-8142.265362,1532.190996
526.126753,2072.576638,-7698.141797,1838.629195
526.127081,1850.514855,-7772.162391,1455.581446
526.127409,74.020594,-8216.285956,1225.752797
526.127736,-2072.576638,-10140.821405,-995.924147
526.128064,-3330.926739,-10881.027347,-1608.800546
526.128391,-2368.659014,-10955.047942,-1378.971896
526.128719,-1480.411884,-10214.842000,-842.705048
526.129047,0.000000,-9770.718434,-306.438199
526.129374,888.247130,-9030.512492,76.609550
526.129702,2368.659014,-8290.306550,76.609550
526.130030,1776.494261,-8290.306550,459.657299
526.130357,1110.308913,-9030.512492,536.266849
526.130685,-518.144159,-9844.739029,383.047749
526.131013,-1036.288319,-10214.842000,-153.219100
526.131340,-592.164754,-9844.739029,383.047749
526.131668,-148.041188,-9474.636058,612.876398
526.131996,518.144159,-8956.491898,842.705048
526.132323,1554.432478,-8512.368333,1608.800546
526.132651,1924.535449,-7698.141797,1608.800546
526.132979,1924.535449,-7550.100608,1532.190996
526.133306,592.164754,-8512.368333,995.924147
526.133634,-1628.453072,-9844.739029,0.000000
526.133962,-2220.617826,-10584.944971,-383.047749
526.134289,-1702.473667,-9400.615463,-536.266849
526.134617,-1184.329507,-9770.718434,229.828649
526.134945,-962.267725,-9770.718434,459.657299
526.135272,-740.205942,-9178.553681,536.266849
526.135600,370.102971,-8142.265362,995.924147
526.135928,888.247130,-7772.162391,1608.800546
526.136255,-148.041188,-8882.471304,536.266849
526.136583,-1850.514855,-9918.759623,459.657299
526.136911,-2368.659014,-10732.986159,383.047749
526.137238,-2146.597232,-9770.718434,766.095498
526.137566,-1480.411884,-9178.553681,1149.143247
526.137894,0.000000,-9326.594869,1455.581446
526.138221,518.144159,-8438.347739,1685.410096
526.138549,2072.576638,-7698.141797,2298.286494
526.138877,1850.514855,-7624.121203,2298.286494
526.139204,666.185348,-8660.409521,459.657299
526.139532,-1332.370696,-9918.759623,612.876398
526.139860,-1776.494261,-9770.718434,459.657299
526.140187,-1850.514855,-9474.636058,76.609550
526.140515,-1110.308913,-9252.574275,306.438199
526.140842,-518.144159,-9104.533087,459.657299
526.141170,0.000000,-8512.368333,842.705048
526.141498,1110.308913,-7550.100608,1072.533697
526.141825,962.267725,-7476.080014,919.314598
526.142153,-370.102971,-9030.512492,229.828649
526.142481,-2590.720797,-10214.842000,-153.219100
526.142808,-3034.844362,-10288.862594,-383.047749
526.143136,-2072.576638,-9696.697840,-153.219100
526.143464,-1554.432478,-9770.718434,536.266849
526.143791,-444.123565,-9474.636058,766.095498
526.144119,740.205942,-8660.409521,1149.143247
526.144447,2442.679609,-6809.894666,1072.533697
526.144774,2368.659014,-6735.874072,1072.533697
526.145102,1110.308913,-7920.203579,689.485948
526.145430,-962.267725,-9474.636058,153.219100
526.145757,-1850.514855,-9622.677246,-383.047749
526.146085,-1332.370696,-9252.574275,-229.828649
526.146413,-888.247130,-9326.594869,153.219100
526.146740,-666.185348,-9400.615463,229.828649
526.147068,0.000000,-8586.388927,383.047749
526.147396,1480.411884,-7179.997637,766.095498
526.147723,1702.473667,-7476.080014,766.095498
526.148051,888.247130,-8882.471304,306.438199
526.148379,-1036.288319,-9844.739029,0.000000
526.148706,-1998.556043,-10510.924376,-383.047749
526.149034,-1184.329507,-9770.718434,-153.219100
526.149362,-888.247130,-9548.656652,229.828649
526.149689,74.020594,-9474.636058,1225.752797
526.150017,444.123565,-9178.553681,689.485948
526.150345,1776.494261,-7846.182985,1378.971896
526.150672,1480.411884,-7920.203579,1149.143247
526.151000,74.020594,-8882.471304,536.266849
526.151328,-1554.432478,-10066.800811,383.047749
526.151655,-1776.494261,-10066.800811,-766.095498
526.151983,-1110.308913,-9400.615463,0.000000
526.152311,-1036.288319,-9030.512492,0.000000
526.152638,-370.102971,-8734.430116,0.000000
526.152966,148.041188,-8882.471304,689.485948
526.153294,1628.453072,-7550.100608,383.047749
526.153621,1776.494261,-7476.080014,919.314598
526.153949,888.247130,-9030.512492,1072.533697
526.154277,-1702.473667,-10658.965565,306.438199
526.154604,-1998.556043,-11325.150913,459.657299
526.154932,-1258.350101,-10881.027347,612.876398
526.155260,-1332.370696,-10066.800811,612.876398
526.155587,-1036.288319,-9992.780217,612.876398
526.155915,0.000000,-9474.636058,1149.143247
526.156242,814.226536,-7698.141797,1072.533697
526.156570,1480.411884,-7476.080014,1608.800546
526.156898,666.185348,-8068.244768,612.876398
526.157225,-1110.308913,-9918.759623,0.000000
526.157553,-1850.514855,-9918.759623,0.000000
526.157881,-1110.308913,-9844.739029,306.438199
526.158208,-740.205942,-9844.739029,766.095498
526.158536,-888.247130,-9770.718434,919.314598
526.158864,0.000000,-9474.636058,995.924147
526.159191,1406.391290,-8068.244768,1608.800546
526.159519,1850.514855,-7920.203579,1378.971896
526.159847,148.041188,-9326.594869,1072.533697
526.160174,-1628.453072,-10066.800811,0.000000
526.160502,-2516.700203,-10066.800811,-306.438199
526.160830,-1480.411884,-9474.636058,0.000000
526.161157,-444.123565,-9326.594869,383.047749
526.161485,148.041188,-9178.553681,612.876398
526.161813,740.205942,-8216.285956,995.924147
526.162140,1776.494261,-7476.080014,1149.143247
526.162468,740.205942,-7772.162391,919.314598
526.162796,-296.082377,-9104.533087,383.047749
526.163123,-2072.576638,-10510.924376,-229.828649
526.163451,-2220.617826,-10362.883188,229.828649
526.163779,-1554.432478,-9918.759623,229.828649
526.164106,-888.247130,-9696.697840,689.485948
526.164434,0.000000,-9696.697840,1149.143247
526.164762,592.164754,-8438.347739,1455.581446
526.165089,1998.556043,-6883.915261,1378.971896
526.165417,1480.411884,-7105.977043,1225.752797
526.165745,148.041188,-8438.347739,536.266849
526.166072,-2146.597232,-9918.759623,-383.047749
526.166400,-2146.597232,-9770.718434,0.000000
526.166728,-1480.411884,-9252.574275,0.000000
526.167055,0.000000,-9030.512492,536.266849
526.167383,370.102971,-8734.430116,1072.533697
526.167711,1110.308913,-8808.450710,1225.752797
526.168038,1702.473667,-7772.162391,1225.752797
526.168366,814.226536,-7698.141797,919.314598
526.168694,-518.144159,-9252.574275,153.219100
526.169021,-2368.659014,-10066.800811,-229.828649
526.169349,-2664.741391,-10066.800811,-383.047749
526.169677,-1924.535449,-9622.677246,-306.438199
526.170004,-1184.329507,-9252.574275,383.047749
526.170332,0.000000,-8956.491898,689.485948
526.170660,1406.391290,-8290.306550,1149.143247
526.170987,2368.659014,-7179.997637,1225.752797
526.171315,1628.453072,-7846.182985,919.314598
526.171642,0.000000,-9178.553681,459.657299
526.171970,-2072.576638,-9918.759623,306.438199
526.172298,-2146.597232,-10288.862594,0.000000
526.172625,-1184.329507,-9474.636058,229.828649
526.172953,0.000000,-9474.636058,612.876398
526.173281,296.082377,-9474.636058,689.485948
526.173608,1184.329507,-8438.347739,1149.143247
526.173936,2294.638420,-7402.059420,1378.971896
526.174264,962.267725,-8364.327145,842.705048
526.174591,-666.185348,-9548.656652,76.609550
526.174919,-2368.659014,-10732.986159,-229.828649
526.175247,-2146.597232,-10362.883188,-383.047749
526.175574,-1332.370696,-9548.656652,0.000000
526.175902,-1110.308913,-9178.553681,536.266849
526.176230,0.000000,-8882.471304,766.095498
526.176557,962.267725,-8364.327145,1225.752797
526.176885,1776.494261,-7328.038826,995.924147
526.177213,1406.391290,-7846.182985,1302.362347
526.177540,-74.020594,-8586.388927,383.047749
526.177868,-1924.535449,-10288.862594,306.438199
526.178196,-2146.597232,-10140.821405,0.000000
526.178523,-1924.535449,-9992.780217,229.828649
526.178851,-1258.350101,-9918.759623,842.705048
526.179179,-1184.329507,-9622.677246,383.047749
526.179506,-666.185348,-9400.615463,383.047749
526.179834,740.205942,-7920.203579,536.266849
526.180162,1184.329507,-7772.162391,383.047749
526.180489,888.247130,-8660.409521,306.438199
526.180817,-296.082377,-9992.780217,-306.438199
526.181145,-962.267725,-9992.780217,306.438199
526.181472,-666.185348,-9844.739029,536.266849
526.181800,-518.144159,-10288.862594,919.314598
526.182128,-222.061783,-9548.656652,995.924147
526.182455,1554.432478,-8808.450710,1378.971896
526.182783,2738.761985,-7328.038826,1915.238745
526.183111,2516.700203,-7772.162391,2068.457845
526.183438,1258.350101,-9252.574275,1915.238745
526.183766,-888.247130,-9918.759623,919.314598
526.184094,-1554.432478,-10362.883188,459.657299
526.184421,-2146.597232,-9474.636058,306.438199
526.184749,-2146.597232,-10288.862594,306.438199
526.185077,-2146.597232,-9992.780217,0.000000
526.185404,-1258.350101,-8808.450710,306.438199
526.185732,148.041188,-7254.018232,842.705048
526.186060,0.000000,-7328.038826,995.924147
526.186387,-370.102971,-8660.409521,0.000000
526.186715,-2220.617826,-9474.636058,-766.095498
526.187042,-2516.700203,-9326.594869,-689.485948
526.187370,-2294.638420,-9178.553681,-459.657299
526.187698,-1850.514855,-8660.409521,153.219100
526.188025,-666.185348,-8660.409521,689.485948
526.188353,888.247130,-8364.327145,1455.581446
526.188681,2368.659014,-7105.977043,2145.067394
526.189008,2442.679609,-7698.141797,2221.676944
526.189336,1702.473667,-8586.388927,1532.190996
526.189664,-222.061783,-9400.615463,766.095498
526.189991,-592.164754,-10140.821405,383.047749
526.190319,-1332.370696,-9992.780217,229.828649
526.190647,-1110.308913,-10066.800811,76.609550
526.190974,-814.226536,-9474.636058,153.219100
526.191302,888.247130,-8364.327145,306.438199
526.191630,1850.514855,-7328.038826,383.047749
526.191957,1850.514855,-7994.224174,459.657299
526.192285,444.123565,-9104.533087,0.000000
526.192613,-1554.432478,-9992.780217,-689.485948
526.192940,-1628.453072,-9770.718434,-612.876398
526.193268,-1480.411884,-9548.656652,-306.438199
526.193596,-740.205942,-9622.677246,153.219100
526.193923,370.102971,-8734.430116,612.876398
526.194251,1850.514855,-8068.244768,1378.971896
526.194579,3182.885551,-7105.977043,2451.505594
526.194906,1776.494261,-7328.038826,1838.629195
526.195234,0.000000,-9030.512492,1302.362347
526.195562,-1776.494261,-10214.842000,459.657299
526.195889,-1998.556043,-10140.821405,76.609550
526.196217,-1776.494261,-9104.533087,383.047749
526.196545,-666.185348,-8882.471304,306.438199
526.196872,74.020594,-9030.512492,459.657299
526.197200,814.226536,-8512.368333,919.314598
526.197528,1258.350101,-7550.100608,766.095498
526.197855,222.061783,-7772.162391,536.266849
526.198183,-1850.514855,-9696.697840,-536.266849
526.198511,-4293.194464,-11103.089130,-1072.533697
526.198838,-3997.112087,-10584.944971,-919.314598
526.199166,-2738.761985,-10214.842000,-536.266849
526.199494,-666.185348,-9548.656652,536.266849
526.199821,666.185348,-9030.512492,1455.581446
526.200149,1924.535449,-8438.347739,2221.676944
526.200477,2738.761985,-7550.100608,2374.896044
526.200804,1850.514855,-8364.327145,2221.676944
526.201132,-222.061783,-9252.574275,1149.143247
526.201460,-1850.514855,-10658.965565,612.876398
526.201787,-1480.411884,-10436.903782,766.095498
526.202115,-888.247130,-10066.800811,689.485948
526.202442,0.000000,-10362.883188,1532.190996
526.202770,444.123565,-9918.759623,1225.752797
526.203098,1480.411884,-9326.594869,2068.457845
526.203425,1554.432478,-8586.388927,1225.752797
526.203753,444.123565,-9030.512492,306.438199
526.204081,-1406.391290,-10214.842000,-612.876398
526.204408,-3256.906145,-11029.068536,-1225.752797
526.204736,-2738.761985,-9770.718434,-842.705048
526.205064,-1924.535449,-9326.594869,0.000000
526.205391,0.000000,-8882.471304,383.047749
526.205719,888.247130,-8660.409521,1149.143247
526.206047,1628.453072,-7624.121203,1532.190996
526.206374,1776.494261,-7105.977043,1685.410096
526.206702,1036.288319,-7920.203579,1455.581446
526.207030,-962.267725,-9844.739029,1302.362347
526.207357,-2516.700203,-10658.965565,536.266849
526.207685,-1998.556043,-10658.965565,612.876398
526.208013,-1184.329507,-9844.739029,766.095498
526.208340,-370.102971,-8882.471304,842.705048
526.208668,-444.123565,-8734.430116,842.705048
526.208996,592.164754,-8142.265362,612.876398
526.209323,1554.432478,-7105.977043,306.438199
526.209651,740.205942,-7624.121203,-153.219100
526.209979,-592.164754,-8734.430116,-842.705048
526.210306,-1924.535449,-10140.821405,-1072.533697
526.210634,-2294.638420,-9474.636058,-689.485948
526.210962,-1480.411884,-8956.491898,0.000000
526.211289,-222.061783,-9104.533087,459.657299
526.211617,0.000000,-8660.409521,995.924147
526.211945,1258.350101,-8142.265362,2068.457845
526.212272,2072.576638,-7179.997637,2374.896044
526.212600,1628.453072,-7698.141797,2221.676944
526.212928,296.082377,-8734.430116,1378.971896
526.213255,-1184.329507,-9918.759623,842.705048
526.213583,-888.247130,-9326.594869,1072.533697
526.213911,-370.102971,-8512.368333,1072.533697
526.214238,0.000000,-8438.347739,1302.362347
526.214566,0.000000,-8290.306550,383.047749
526.214894,518.144159,-7920.203579,1072.533697
526.215221,1184.329507,-6661.853478,766.095498
526.215549,0.000000,-7254.018232,153.219100
526.215877,-888.247130,-9400.615463,0.000000
526.216204,-2294.638420,-10288.862594,-612.876398
526.216532,-2072.576638,-9770.718434,-229.828649
526.216860,-1110.308913,-8808.450710,536.266849
526.217187,370.102971,-8438.347739,1302.362347
526.217515,444.123565,-8808.450710,1762.019645
526.217842,1628.453072,-8068.244768,2911.162892
526.218170,2072.576638,-7031.956449,2911.162892
526.218498,2072.576638,-7624.121203,3830.477490
526.218825,1406.391290,-9104.533087,3140.991542
526.219153,-518.144159,-10807.006753,2911.162892
526.219481,-962.267725,-10807.006753,3217.601092
526.219808,-740.205942,-10066.800811,3064.381992
526.220136,-666.185348,-9770.718434,2757.943793
526.220464,-1332.370696,-9474.636058,2528.115143
526.220791,-1628.453072,-9474.636058,2145.067394
526.221119,-1110.308913,-8512.368333,1378.971896
526.221447,-962.267725,-7476.080014,919.314598
526.221774,-962.267725,-8734.430116,1072.533697
526.222102,-2960.823768,-9918.759623,306.438199
526.222430,-3627.009116,-10584.944971,306.438199
526.222757,-3627.009116,-10140.821405,306.438199
526.223085,-2220.617826,-9548.656652,1149.143247
526.223413,-1332.370696,-9548.656652,1455.581446
526.223740,-444.123565,-9622.677246,2451.505594
526.224068,814.226536,-9474.636058,2145.067394
526.224396,1924.535449,-8512.368333,3294.210641
526.224723,3404.947333,-8512.368333,4443.353888
526.225051,3552.988522,-9770.718434,4903.011187
526.225379,2368.659014,-11103.089130,4596.572988
526.225706,1628.453072,-10807.006753,4213.525239
526.226034,1406.391290,-10510.924376,4749.792088
526.226362,2220.617826,-9696.697840,4903.011187
526.226689,2368.659014,-9770.718434,4749.792088
526.227017,1258.350101,-10362.883188,4136.915689
526.227345,814.226536,-9844.739029,4519.963438
526.227672,740.205942,-9400.615463,3983.696590
526.228000,1036.288319,-9400.615463,4290.134789
526.228328,370.102971,-10288.862594,4213.525239
526.228655,-1850.514855,-11473.192101,3753.867940
526.228983,-4515.256246,-11769.274478,2834.553343
526.229311,-5847.626942,-9992.780217,2374.896044
526.229638,-5551.544565,-8290.306550,1991.848295
526.229966,-3701.029710,-7402.059420,2145.067394
526.230294,-2738.761985,-7179.997637,2451.505594
526.230622,-3256.906145,-7328.038826,2298.286494
526.230949,-3478.967927,-7105.977043,1608.800546
526.231277,-2590.720797,-6809.894666,2145.067394
526.231605,-296.082377,-6291.750507,2528.115143
526.231932,1628.453072,-6809.894666,3600.648841
526.232260,2220.617826,-8142.265362,4060.306139
526.232588,1332.370696,-9252.574275,4443.353888
526.232915,518.144159,-9104.533087,4213.525239
526.233243,1406.391290,-9326.594869,4596.572988
526.233571,2812.782580,-9326.594869,4903.011187
526.233898,3627.009116,-10658.965565,4979.620737
526.234226,2886.803174,-11103.089130,4903.011187
526.234554,1480.411884,-11843.295072,4136.915689
526.234882,296.082377,-10881.027347,3600.648841
526.235209,1406.391290,-9696.697840,3983.696590
526.235537,2664.741391,-8068.244768,3370.820191
526.235865,2368.659014,-7994.224174,4060.306139
526.236192,2294.638420,-8142.265362,3830.477490
526.236520,-1480.411884,-9326.594869,3370.820191
526.236848,-4589.276840,-8882.471304,2374.896044
526.237175,-5403.503377,-8956.491898,1302.362347
526.237503,-5107.421000,-8956.491898,1378.971896
526.237831,-2294.638420,-7994.224174,1225.752797
526.238158,-740.205942,-7254.018232,2374.896044
526.238486,-666.185348,-6439.791695,2757.943793
526.238814,-1110.308913,-6809.894666,2911.162892
526.239141,-2442.679609,-7624.121203,2145.067394
526.239469,-2960.823768,-8068.244768,612.876398
526.239797,-2220.617826,-8586.388927,766.095498
526.240125,0.000000,-8512.368333,1685.410096
526.240452,2368.659014,-7994.224174,3524.039291
526.240780,4515.256246,-8808.450710,5209.449386
526.241108,4737.318029,-9474.636058,5592.497135
526.241435,3034.844362,-11029.068536,4903.011187
526.241763,888.247130,-11991.336260,3677.258390
526.242091,-1036.288319,-12509.480420,2987.772442
526.242418,-1332.370696,-12287.418637,3217.601092
526.242746,518.144159,-11325.150913,4596.572988
526.243074,3256.906145,-10362.883188,5898.935335
526.243401,5181.441594,-9992.780217,6511.811733
526.243729,3182.885551,-9326.594869,5592.497135
526.244057,-814.226536,-9474.636058,4749.792088
526.244384,-3627.009116,-9178.553681,2911.162892
526.244712,-5551.544565,-10288.862594,2145.067394
526.245040,-4885.359217,-8808.450710,1225.752797
526.245368,-2516.700203,-7920.203579,2298.286494
526.245695,-518.144159,-7031.956449,4213.525239
526.246023,1184.329507,-6365.771101,5515.887586
526.246351,666.185348,-6957.935855,5592.497135
526.246678,-888.247130,-7994.224174,4673.182538
526.247006,-3256.906145,-9252.574275,3140.991542
526.247334,-4885.359217,-10214.842000,1762.019645
526.247661,-5329.482782,-10510.924376,1149.143247
526.247989,-4145.153275,-9474.636058,2145.067394
526.248317,-1258.350101,-9030.512492,3294.210641
526.248644,1554.432478,-8586.388927,3753.867940
526.248972,2886.803174,-8438.347739,4290.134789
526.249300,2664.741391,-8734.430116,3447.429741
526.249628,1702.473667,-9474.636058,3064.381992
526.249955,296.082377,-10214.842000,2221.676944
526.250283,-370.102971,-10658.965565,2221.676944
526.250611,0.000000,-10955.047942,2911.162892
526.250938,592.164754,-10140.821405,3217.601092
526.251266,740.205942,-9474.636058,3830.477490
526.251594,1924.535449,-9400.615463,4903.011187
526.251921,962.267725,-8438.347739,3294.210641
526.252249,148.041188,-8586.388927,3140.991542
526.252577,888.247130,-8438.347739,2451.505594
526.252904,222.061783,-8068.244768,2145.067394
526.253232,888.247130,-7476.080014,2604.724693
526.253560,1702.473667,-7328.038826,3370.820191
526.253887,1776.494261,-7328.038826,3677.258390
526.254215,1702.473667,-7994.224174,3830.477490
526.254543,962.267725,-8734.430116,4060.306139
526.254871,-740.205942,-9474.636058,4136.915689
526.255198,-1702.473667,-9548.656652,3677.258390
526.255526,-2368.659014,-9992.780217,3294.210641
526.255854,-2368.659014,-10214.842000,2911.162892
526.256181,-1998.556043,-10140.821405,3370.820191
526.256509,-1036.288319,-9252.574275,3294.210641
526.256837,-296.082377,-8290.306550,3217.601092
526.257164,-666.185348,-8290.306550,2987.772442
526.257492,-1258.350101,-8068.244768,2451.505594
526.257820,-1702.473667,-8142.265362,2451.505594
526.258147,-1924.535449,-8068.244768,2298.286494
526.258475,-1924.535449,-7846.182985,2987.772442
526.258803,-814.226536,-8364.327145,3294.210641
526.259130,-222.061783,-8512.368333,3524.039291
526.259458,296.082377,-8586.388927,3830.477490
526.259786,518.144159,-9252.574275,3907.087040
526.260114,-222.061783,-9474.636058,3600.648841
526.260441,-740.205942,-9474.636058,3983.696590
526.260769,-740.205942,-9622.677246,3447.429741
526.261097,-518.144159,-9696.697840,3064.381992
526.261424,148.041188,-9548.656652,2911.162892
526.261752,1258.350101,-9252.574275,2834.553343
526.262080,1480.411884,-9030.512492,3370.820191
526.262407,814.226536,-9770.718434,2757.943793
526.262735,444.123565,-10066.800811,2681.334243
526.263063,0.000000,-10436.903782,2298.286494
526.263390,-444.123565,-10584.944971,2145.067394
526.263718,-222.061783,-10288.862594,1838.629195
526.264046,-296.082377,-10214.842000,2298.286494
526.264374,-296.082377,-9770.718434,2374.896044
526.264701,-592.164754,-9770.718434,2298.286494
526.265029,-1036.288319,-9548.656652,1915.238745
526.265357,-1406.391290,-9104.533087,1915.238745
526.265684,-1554.432478,-8586.388927,1378.971896
526.266012,-962.267725,-8142.265362,1149.143247
526.266340,-222.061783,-7846.182985,1072.533697
526.266667,0.000000,-7772.162391,1072.533697
526.266995,444.123565,-7772.162391,1685.410096
526.267323,518.144159,-8068.244768,1838.629195
526.267650,0.000000,-8808.450710,1225.752797
526.267978,-370.102971,-9326.594869,919.314598
526.268306,0.000000,-9992.780217,1455.581446
526.268633,0.000000,-10214.842000,1608.800546
526.268961,518.144159,-10214.842000,1762.019645
526.269289,1110.308913,-10436.903782,1762.019645
526.269617,1110.308913,-10288.862594,2068.457845
526.269944,962.267725,-9770.718434,1915.238745
526.270272,666.185348,-9622.677246,1608.800546
526.270600,-222.061783,-9474.636058,995.924147
526.270927,-296.082377,-9104.533087,766.095498
526.271255,-296.082377,-8586.388927,766.095498
526.271583,-592.164754,-8660.409521,1149.143247
526.271910,-222.061783,-8438.347739,1302.362347
526.272238,-148.041188,-7920.203579,536.266849
526.272566,-814.226536,-7994.224174,689.485948
526.272893,0.000000,-7846.182985,612.876398
526.273221,-444.123565,-7846.182985,536.266849
526.273549,-592.164754,-7920.203579,536.266849
526.273876,-296.082377,-8142.265362,689.485948
526.274204,-444.123565,-8290.306550,919.314598
526.274532,-592.164754,-9030.512492,995.924147
526.274860,-518.144159,-8882.471304,842.705048
526.275187,-296.082377,-9104.533087,995.924147
526.275515,-222.061783,-8808.450710,306.438199
526.275843,-296.082377,-8882.471304,306.438199
526.276170,74.020594,-8956.491898,612.876398
526.276498,0.000000,-8956.491898,536.266849
526.276826,0.000000,-9104.533087,612.876398
526.277153,-444.123565,-9474.636058,842.705048
526.277481,-370.102971,-8956.491898,1378.971896
526.277809,-518.144159,-9548.656652,995.924147
526.278136,-296.082377,-9252.574275,1225.752797
526.278464,-444.123565,-9326.594869,689.485948
526.278792,-444.123565,-8882.471304,689.485948
526.279120,-296.082377,-8586.388927,1302.362347
526.279447,-444.123565,-8586.388927,919.314598
526.279775,-222.061783,-8808.450710,842.705048
526.280103,-444.123565,-8586.388927,995.924147
526.280430,-888.247130,-8660.409521,689.485948
526.280758,-296.082377,-9030.512492,995.924147
526.281086,-740.205942,-8882.471304,1072.533697
526.281413,-888.247130,-9104.533087,612.876398
526.281741,-592.164754,-9400.615463,459.657299
526.282069,-296.082377,-9400.615463,536.266849
526.282396,0.000000,-9474.636058,689.485948
526.282724,0.000000,-8956.491898,919.314598
526.283052,0.000000,-9474.636058,383.047749
526.283379,0.000000,-9548.656652,383.047749
526.283707,-148.041188,-9918.759623,229.828649
526.284035,-592.164754,-9918.759623,536.266849
526.284363,-444.123565,-10436.903782,536.266849
526.284690,-148.041188,-10140.821405,919.314598
526.285018,-370.102971,-9622.677246,612.876398
526.285346,0.000000,-9474.636058,689.485948
526.285673,222.061783,-9252.574275,612.876398
526.286001,222.061783,-8808.450710,612.876398
526.286329,0.000000,-8660.409521,306.438199
526.286656,0.000000,-9030.512492,689.485948
526.286984,0.000000,-9178.553681,612.876398
526.287312,-296.082377,-9252.574275,536.266849
526.287639,0.000000,-9178.553681,536.266849
526.287967,222.061783,-8882.471304,995.924147
526.288295,296.082377,-9178.553681,459.657299
526.288622,148.041188,-9104.533087,536.266849
526.288950,0.000000,-8882.471304,383.047749
526.289278,0.000000,-8882.471304,306.438199
526.289606,0.000000,-9252.574275,383.047749
526.289933,-518.144159,-9104.533087,612.876398
526.290261,-962.267725,-9178.553681,459.657299
526.290589,-592.164754,-9326.594869,536.266849
526.290916,-666.185348,-9178.553681,229.828649
526.291244,-740.205942,-8216.285956,689.485948
526.291572,-518.144159,-8660.409521,459.657299
526.291899,-370.102971,-8586.388927,229.828649
526.292227,-444.123565,-8364.327145,383.047749
526.292555,-370.102971,-8290.306550,229.828649
526.292882,-370.102971,-8586.388927,612.876398
526.293210,-888.247130,-8660.409521,689.485948
526.293538,-888.247130,-8956.491898,689.485948
526.293866,-1036.288319,-9030.512492,536.266849
526.294193,-592.164754,-9326.594869,612.876398
526.294521,-740.205942,-8734.430116,0.000000
526.294849,-740.205942,-8364.327145,919.314598
526.295176,-296.082377,-8512.368333,612.876398
526.295504,-148.041188,-8660.409521,459.657299
526.295832,-296.082377,-9252.574275,459.657299
526.296159,-370.102971,-9252.574275,766.095498
526.296487,-444.123565,-8956.491898,995.924147
526.296815,-370.102971,-9474.636058,536.266849
526.297142,-370.102971,-9622.677246,612.876398
526.297470,-222.061783,-9400.615463,612.876398
526.297798,74.020594,-9326.594869,459.657299
526.298125,-148.041188,-8734.430116,536.266849
526.298453,0.000000,-8882.471304,306.438199
526.298781,-444.123565,-9030.512492,459.657299
526.299109,-444.123565,-9178.553681,536.266849
526.299436,-296.082377,-9252.574275,612.876398
526.299764,-592.164754,-8956.491898,459.657299
526.300092,-370.102971,-9030.512492,459.657299
526.300419,0.000000,-8882.471304,383.047749
526.300747,-444.123565,-9030.512492,153.219100
526.301075,-222.061783,-8586.388927,383.047749
526.301402,-666.185348,-8586.388927,153.219100
526.301730,-518.144159,-8808.450710,383.047749
526.302058,-666.185348,-9474.636058,689.485948
526.302385,-592.164754,-9548.656652,1149.143247
526.302713,-444.123565,-9844.739029,536.266849
526.303041,-370.102971,-9548.656652,766.095498
526.303368,-148.041188,-9326.594869,689.485948
526.303696,-444.123565,-8956.491898,536.266849
526.304024,-666.185348,-8808.450710,306.438199
526.304352,-962.267725,-8734.430116,459.657299
526.304679,-1184.329507,-8956.491898,306.438199
526.305007,-1554.432478,-9030.512492,919.314598
526.305335,-666.185348,-9326.594869,689.485948
526.305662,-814.226536,-8956.491898,689.485948
526.305990,-296.082377,-8956.491898,842.705048
526.306318,0.000000,-8586.388927,536.266849
526.306645,148.041188,-8438.347739,306.438199
526.306973,370.102971,-8734.430116,153.219100
526.307301,74.020594,-8882.471304,383.047749
526.307628,-148.041188,-9400.615463,995.924147
526.307956,-518.144159,-9992.780217,766.095498
526.308284,-1110.308913,-9844.739029,842.705048
526.308611,148.041188,-9992.780217,1149.143247
526.308939,74.020594,-9400.615463,689.485948
526.309267,444.123565,-8956.491898,459.657299
526.309595,592.164754,-8586.388927,459.657299
526.309922,592.164754,-8068.244768,383.047749
526.310250,518.144159,-7698.141797,536.266849
526.310578,0.000000,-8216.285956,153.219100
526.310905,-518.144159,-9178.553681,689.485948
526.311233,-814.226536,-9400.615463,612.876398
526.311561,-444.123565,-9548.656652,995.924147
526.311888,0.000000,-8882.471304,1149.143247
526.312216,222.061783,-8956.491898,536.266849
526.312544,296.082377,-8734.430116,383.047749
526.312871,222.061783,-8142.265362,76.609550
526.313199,74.020594,-8142.265362,306.438199
526.313527,74.020594,-8364.327145,612.876398
526.313855,0.000000,-9030.512492,306.438199
526.314182,-592.164754,-9474.636058,459.657299
526.314510,-666.185348,-9474.636058,536.266849
526.314838,-740.205942,-9252.574275,383.047749
526.315165,-222.061783,-9104.533087,766.095498
526.315493,0.000000,-9104.533087,0.000000
526.315821,222.061783,-9030.512492,0.000000
526.316148,148.041188,-8956.491898,0.000000
526.316476,148.041188,-9104.533087,306.438199
526.316804,74.020594,-9474.636058,383.047749
526.317131,148.041188,-9992.780217,306.438199
526.317459,0.000000,-10066.800811,766.095498
526.317787,0.000000,-9844.739029,766.095498
526.318114,0.000000,-9696.697840,306.438199
526.318442,148.041188,-9474.636058,76.609550
526.318770,0.000000,-8512.368333,0.000000
526.319098,-148.041188,-9252.574275,306.438199
526.319425,-444.123565,-9178.553681,383.047749
526.319753,-592.164754,-9326.594869,612.876398
526.320081,-592.164754,-9474.636058,689.485948
526.320408,-370.102971,-9326.594869,919.314598
526.320736,-666.185348,-9474.636058,612.876398
526.321064,-370.102971,-9326.594869,536.266849
526.321391,-296.082377,-9104.533087,383.047749
526.321719,-592.164754,-9252.574275,459.657299
526.322047,-592.164754,-9400.615463,919.314598
526.322374,-518.144159,-9548.656652,689.485948
526.322702,-814.226536,-9696.697840,842.705048
526.323030,-518.144159,-10066.800811,842.705048
526.323357,-592.164754,-9622.677246,1149.143247
526.323685,-592.164754,-9400.615463,919.314598
526.324013,-740.205942,-8586.388927,612.876398
526.324341,-592.164754,-9104.533087,383.047749
526.324668,-814.226536,-9030.512492,383.047749
526.324996,-888.247130,-8660.409521,306.438199
526.325324,-1036.288319,-8660.409521,842.705048
526.325651,-370.102971,-9104.533087,1378.971896
526.325979,-592.164754,-8586.388927,689.485948
526.326307,-518.144159,-8586.388927,612.876398
526.326634,-592.164754,-8364.327145,459.657299
526.326962,-370.102971,-8364.327145,153.219100
526.327290,-296.082377,-8290.306550,76.609550
526.327617,-296.082377,-8512.368333,229.828649
526.327945,-222.061783,-9030.512492,383.047749
526.328273,-148.041188,-9252.574275,459.657299
526.328601,-148.041188,-9178.553681,612.876398
526.328928,0.000000,-9252.574275,766.095498
526.329256,74.020594,-9030.512492,306.438199
526.329584,370.102971,-9030.512492,306.438199
526.329911,74.020594,-8734.430116,306.438199
526.330239,0.000000,-8882.471304,459.657299
526.330567,0.000000,-8956.491898,229.828649
526.330894,0.000000,-9474.636058,766.095498
526.331222,-296.082377,-9104.533087,1072.533697
526.331550,-148.041188,-9326.594869,689.485948
526.331877,-148.041188,-9178.553681,842.705048
526.332205,0.000000,-8586.388927,459.657299
526.332533,222.061783,-8586.388927,153.219100
526.332861,148.041188,-8216.285956,383.047749
526.333188,0.000000,-8586.388927,306.438199
526.333516,-370.102971,-8882.471304,229.828649
526.333844,-592.164754,-9178.553681,383.047749
526.334171,-592.164754,-9104.533087,536.266849
526.334499,-444.123565,-8956.491898,1072.533697
526.334827,-370.102971,-9178.553681,689.485948
526.335154,-148.041188,-9104.533087,842.705048
526.335482,0.000000,-9252.574275,459.657299
526.335810,0.000000,-8882.471304,766.095498
526.336137,0.000000,-8882.471304,459.657299
526.336465,-370.102971,-9474.636058,383.047749
526.336793,-518.144159,-9844.739029,689.485948
526.337121,-296.082377,-9770.718434,995.924147
526.337448,-296.082377,-9844.739029,919.314598
526.337776,0.000000,-9030.512492,1072.533697
526.338104,0.000000,-9326.594869,536.266849
526.338431,0.000000,-8956.491898,229.828649
526.338759,0.000000,-8660.409521,153.219100
526.339087,0.000000,-8660.409521,76.609550
526.339414,0.000000,-9104.533087,766.095498
526.339742,-370.102971,-9178.553681,766.095498
526.340070,-296.082377,-9622.677246,842.705048
526.340398,-296.082377,-9548.656652,766.095498
526.340725,0.000000,-9474.636058,689.485948
526.341053,0.000000,-9252.574275,0.000000
526.341381,0.000000,-8808.450710,459.657299
526.341708,0.000000,-8882.471304,383.047749
526.342036,74.020594,-9178.553681,306.438199
526.342364,0.000000,-9474.636058,459.657299
526.342691,-222.061783,-9474.636058,459.657299
526.343019,-222.061783,-9400.615463,919.314598
526.343347,0.000000,-9622.677246,689.485948
526.343674,-370.102971,-9326.594869,383.047749
526.344002,-370.102971,-9104.533087,383.047749
526.344330,-296.082377,-8808.450710,306.438199
526.344658,0.000000,-8808.450710,229.828649
526.344985,-370.102971,-8660.409521,612.876398
526.345313,-370.102971,-9030.512492,459.657299
526.345641,-592.164754,-9252.574275,536.266849
526.345968,-444.123565,-9178.553681,1072.533697
526.346296,-370.102971,-9104.533087,1302.362347
526.346624,0.000000,-8808.450710,766.095498
526.346951,-296.082377,-9030.512492,689.485948
526.347279,-148.041188,-8734.430116,383.047749
526.347607,-222.061783,-8808.450710,689.485948
526.347934,-222.061783,-8660.409521,919.314598
526.348262,-296.082377,-8882.471304,919.314598
526.348590,-296.082377,-9474.636058,612.876398
526.348918,-444.123565,-9252.574275,612.876398
526.349245,-444.123565,-9400.615463,689.485948
526.349573,-444.123565,-9178.553681,766.095498
526.349901,-592.164754,-8956.491898,612.876398
526.350228,-222.061783,-8808.450710,459.657299
526.350556,0.000000,-8438.347739,459.657299
526.350884,0.000000,-8734.430116,766.095498
526.351211,-222.061783,-8808.450710,536.266849
526.351539,-148.041188,-8660.409521,612.876398
526.351867,-148.041188,-9104.533087,612.876398
526.352195,-222.061783,-9400.615463,536.266849
526.352522,-222.061783,-9326.594869,612.876398
526.352850,-222.061783,-9474.636058,459.657299
526.353178,0.000000,-9474.636058,459.657299
526.353505,74.020594,-9030.512492,383.047749
526.353833,-296.082377,-9178.553681,536.266849
526.354161,-222.061783,-9252.574275,459.657299
526.354488,-148.041188,-9400.615463,536.266849
526.354816,-296.082377,-9030.512492,766.095498
526.355144,-814.226536,-8882.471304,536.266849
526.355471,-740.205942,-9400.615463,153.219100
526.355799,-814.226536,-9474.636058,536.266849
526.356127,-962.267725,-9030.512492,459.657299
526.356455,-962.267725,-9178.553681,229.828649
526.356782,-740.205942,-8882.471304,612.876398
526.357110,-814.226536,-8956.491898,229.828649
526.357438,-518.144159,-8882.471304,536.266849
526.357765,-518.144159,-8956.491898,766.095498
526.358093,-518.144159,-9104.533087,612.876398
526.358421,-518.144159,-8956.491898,459.657299
526.358748,-444.123565,-9326.594869,612.876398
526.359076,-222.061783,-9178.553681,995.924147
526.359404,-296.082377,-9178.553681,612.876398
526.359731,-296.082377,-8808.450710,612.876398
526.360059,0.000000,-8734.430116,1455.581446
526.360387,0.000000,-8956.491898,229.828649
526.360715,-296.082377,-9030.512492,689.485948
526.361042,-370.102971,-8956.491898,459.657299
526.361370,-666.185348,-8956.491898,459.657299
526.361698,-370.102971,-9104.533087,1302.362347
526.362025,-370.102971,-8660.409521,306.438199
526.362353,-518.144159,-8882.471304,766.095498
526.362681,-370.102971,-8808.450710,459.657299
526.363008,-518.144159,-8660.409521,306.438199
526.363336,-444.123565,-8660.409521,536.266849
526.363664,-148.041188,-8586.388927,383.047749
526.363992,-592.164754,-8882.471304,612.876398
526.364319,-666.185348,-8882.471304,383.047749
526.364647,-666.185348,-9178.553681,306.438199
526.364975,-222.061783,-8882.471304,689.485948
526.365302,0.000000,-8734.430116,842.705048
526.365630,0.000000,-9178.553681,306.438199
526.365958,0.000000,-9030.512492,612.876398
526.366285,-148.041188,-8882.471304,536.266849
526.366613,-296.082377,-8956.491898,459.657299
526.366941,-148.041188,-8660.409521,1225.752797
526.367268,148.041188,-8956.491898,153.219100
526.367596,0.000000,-9178.553681,612.876398
526.367924,0.000000,-9030.512492,536.266849
526.368252,74.020594,-9104.533087,459.657299
526.368579,0.000000,-8808.450710,306.438199
526.368907,222.061783,-9252.574275,842.705048
526.369235,-222.061783,-9030.512492,612.876398
526.369562,74.020594,-9400.615463,306.438199
526.369890,0.000000,-9474.636058,536.266849
526.370218,-296.082377,-9622.677246,689.485948
526.370545,0.000000,-9918.759623,995.924147
526.370873,296.082377,-9696.697840,459.657299
526.371201,-148.041188,-9474.636058,459.657299
526.371528,0.000000,-9252.574275,459.657299
526.371856,-148.041188,-9474.636058,306.438199
526.372184,-666.185348,-9178.553681,536.266849
526.372512,-370.102971,-9474.636058,459.657299
526.372839,-296.082377,-9474.636058,612.876398
526.373167,0.000000,-9548.656652,689.485948
526.373495,-296.082377,-9400.615463,919.314598
526.373822,0.000000,-9326.594869,919.314598
526.374150,-148.041188,-9104.533087,536.266849
526.374478,-296.082377,-9474.636058,383.047749
526.374805,-222.061783,-9326.594869,536.266849
526.375133,-296.082377,-9400.615463,612.876398
526.375461,0.000000,-9548.656652,1149.143247
526.375789,-370.102971,-9178.553681,1149.143247
526.376116,-74.020594,-9844.739029,766.095498
526.376444,0.000000,-9474.636058,842.705048
526.376772,0.000000,-9474.636058,766.095498
526.377099,0.000000,-9252.574275,612.876398
526.377427,74.020594,-9104.533087,1149.143247
526.377755,-444.123565,-8956.491898,383.047749
526.378082,-518.144159,-9474.636058,612.876398
526.378410,-666.185348,-9104.533087,536.266849
526.378738,-518.144159,-9252.574275,842.705048
526.379065,-740.205942,-8956.491898,766.095498
526.379393,-296.082377,-8586.388927,383.047749
526.379721,-666.185348,-8808.450710,536.266849
526.380049,-296.082377,-8734.430116,229.828649
526.380376,-370.102971,-8512.368333,383.047749
526.380704,-296.082377,-8586.388927,612.876398
526.381032,-222.061783,-8512.368333,229.828649
526.381359,-296.082377,-9030.512492,383.047749
526.381687,-518.144159,-8956.491898,536.266849
526.382015,-296.082377,-8956.491898,459.657299
526.382342,0.000000,-8956.491898,536.266849
526.382670,-74.020594,-8586.388927,536.266849
526.382998,0.000000,-8660.409521,306.438199
526.383325,-148.041188,-8956.491898,306.438199
526.383653,-444.123565,-8956.491898,306.438199
526.383981,-518.144159,-8882.471304,229.828649
526.384309,-370.102971,-8660.409521,153.219100
526.384636,-370.102971,-9030.512492,689.485948
526.384964,-518.144159,-8956.491898,612.876398
526.385292,-296.082377,-8808.450710,459.657299
526.385619,-296.082377,-8660.409521,306.438199
526.385947,0.000000,-8734.430116,306.438199
526.386275,0.000000,-8364.327145,612.876398
526.386602,-666.185348,-8734.430116,459.657299
526.386930,-518.144159,-9030.512492,459.657299
526.387258,-888.247130,-8808.450710,842.705048
526.387586,-592.164754,-8808.450710,76.609550
526.387913,-518.144159,-8956.491898,766.095498
526.388241,-370.102971,-9104.533087,689.485948
526.388569,-222.061783,-8734.430116,383.047749
526.388896,0.000000,-8808.450710,383.047749
526.389224,-296.082377,-9030.512492,459.657299
526.389552,74.020594,-8956.491898,689.485948
526.389879,-370.102971,-9326.594869,536.266849
526.390207,-370.102971,-9474.636058,919.314598
526.390535,-370.102971,-9474.636058,612.876398
526.390862,-518.144159,-9474.636058,612.876398
526.391190,-148.041188,-9400.615463,766.095498
526.391518,0.000000,-9178.553681,536.266849
526.391846,74.020594,-9104.533087,612.876398
526.392173,0.000000,-8956.491898,459.657299
526.392501,-296.082377,-9104.533087,689.485948
526.392829,-222.061783,-9104.533087,1302.362347
526.393156,-148.041188,-9400.615463,612.876398
526.393484,-592.164754,-9474.636058,536.266849
526.393812,-222.061783,-9474.636058,612.876398
526.394139,0.000000,-9474.636058,459.657299
526.394467,148.041188,-9474.636058,1072.533697
526.394795,148.041188,-9104.533087,612.876398
526.395122,0.000000,-9104.533087,536.266849
526.395450,74.020594,-9326.594869,536.266849
526.395778,0.000000,-9400.615463,612.876398
526.396106,-296.082377,-9696.697840,612.876398
526.396433,0.000000,-9474.636058,1225.752797
526.396761,-296.082377,-9474.636058,612.876398
526.397089,-222.061783,-9400.615463,536.266849
526.397416,-148.041188,-9104.533087,536.266849
526.397744,0.000000,-8882.471304,612.876398
526.398072,0.000000,-8882.471304,689.485948
526.398399,74.020594,-9030.512492,459.657299
526.398727,-296.082377,-9178.553681,459.657299
526.399055,-148.041188,-9104.533087,919.314598
526.399383,-296.082377,-9178.553681,689.485948
526.399710,0.000000,-8956.491898,842.705048
526.400038,0.000000,-9178.553681,459.657299
526.400366,0.000000,-9104.533087,306.438199
526.400693,0.000000,-8882.471304,536.266849
526.401021,0.000000,-8956.491898,229.828649
526.401349,0.000000,-8882.471304,306.438199
526.401676,0.000000,-8956.491898,459.657299
526.402004,-222.061783,-9252.574275,459.657299
526.402332,-222.061783,-9178.553681,459.657299
526.402659,-74.020594,-9252.574275,536.266849
526.402987,-148.041188,-9252.574275,383.047749
526.403315,-370.102971,-8734.430116,995.924147
526.403643,0.000000,-8734.430116,229.828649
526.403970,-222.061783,-8660.409521,153.219100
526.404298,-370.102971,-8956.491898,306.438199
526.404626,-296.082377,-9252.574275,383.047749
526.404953,-148.041188,-9030.512492,919.314598
526.405281,370.102971,-9252.574275,459.657299
526.405609,0.000000,-9104.533087,536.266849
526.405936,-148.041188,-9178.553681,459.657299
526.406264,-148.041188,-9104.533087,612.876398
526.406592,222.061783,-8808.450710,536.266849
526.406919,0.000000,-9252.574275,383.047749
526.407247,-296.082377,-9178.553681,459.657299
526.407575,-444.123565,-9326.594869,459.657299
526.407903,-444.123565,-9326.594869,919.314598
526.408230,-370.102971,-9326.594869,1378.971896
526.408558,-370.102971,-9178.553681,1225.752797
526.408886,-296.082377,-9252.574275,689.485948
526.409213,-592.164754,-9030.512492,536.266849
526.409541,-444.123565,-9030.512492,383.047749
526.409869,-740.205942,-8882.471304,536.266849
526.410196,-592.164754,-8882.471304,1149.143247
526.410524,-592.164754,-9178.553681,689.485948
526.410852,-518.144159,-9252.574275,766.095498
526.411179,-592.164754,-9252.574275,689.485948
526.411507,-518.144159,-9326.594869,612.876398
526.411835,-370.102971,-9030.512492,383.047749
526.412163,-148.041188,-9252.574275,306.438199
526.412490,-148.041188,-9252.574275,536.266849
526.412818,-222.061783,-9104.533087,459.657299
526.413146,-370.102971,-9252.574275,536.266849
526.413473,0.000000,-9178.553681,459.657299
526.413801,-370.102971,-9474.636058,766.095498
526.414129,-592.164754,-9252.574275,689.485948
526.414456,-296.082377,-9030.512492,306.438199
526.414784,0.000000,-9104.533087,76.609550
526.415112,-148.041188,-9104.533087,459.657299
526.415440,0.000000,-8808.450710,76.609550
526.415767,-296.082377,-8882.471304,306.438199
526.416095,-592.164754,-8956.491898,459.657299
526.416423,-444.123565,-9030.512492,383.047749
526.416750,-592.164754,-9252.574275,536.266849
526.417078,-296.082377,-8808.450710,919.314598
526.417406,0.000000,-8956.491898,536.266849
526.417733,0.000000,-9030.512492,536.266849
526.418061,-296.082377,-8882.471304,536.266849
526.418389,-148.041188,-8808.450710,612.876398
526.418716,-370.102971,-8808.450710,919.314598
526.419044,-148.041188,-8512.368333,536.266849
526.419372,-296.082377,-8956.491898,536.266849
526.419700,-370.102971,-8956.491898,689.485948
526.420027,-296.082377,-9030.512492,842.705048
526.420355,-222.061783,-8734.430116,842.705048
526.420683,-74.020594,-8512.368333,842.705048
526.421010,-592.164754,-8808.450710,689.485948
526.421338,-370.102971,-8956.491898,459.657299
526.421666,-592.164754,-8734.430116,459.657299
526.421993,-370.102971,-8808.450710,612.876398
526.422321,-888.247130,-8882.471304,1072.533697
526.422649,-518.144159,-9104.533087,842.705048
526.422976,-370.102971,-9326.594869,612.876398
526.423304,-444.123565,-9178.553681,689.485948
526.423632,-222.061783,-9400.615463,536.266849
526.423960,-444.123565,-8956.491898,919.314598
526.424287,0.000000,-9030.512492,536.266849
526.424615,0.000000,-9030.512492,612.876398
526.424943,0.000000,-9104.533087,306.438199
526.425270,-222.061783,-9400.615463,383.047749
526.425598,-222.061783,-9474.636058,153.219100
526.425926,0.000000,-9474.636058,919.314598
526.426253,-222.061783,-9400.615463,306.438199
526.426581,-148.041188,-9548.656652,76.609550
526.426909,-148.041188,-9326.594869,459.657299
526.427237,0.000000,-9104.533087,995.924147
526.427564,0.000000,-9178.553681,612.876398
526.427892,-148.041188,-9178.553681,383.047749
526.428220,0.000000,-9400.615463,459.657299
526.428547,-222.061783,-9474.636058,459.657299
526.428875,0.000000,-9474.636058,536.266849
526.429203,0.000000,-9252.574275,612.876398
526.429530,-148.041188,-9474.636058,536.266849
526.429858,-296.082377,-9474.636058,459.657299
526.430186,0.000000,-9400.615463,459.657299
526.430513,-370.102971,-9030.512492,612.876398
526.430841,-222.061783,-8956.491898,919.314598
526.431169,0.000000,-9400.615463,229.828649
526.431496,-370.102971,-9326.594869,689.485948
526.431824,-370.102971,-9252.574275,612.876398
526.432152,-148.041188,-9178.553681,842.705048
526.432479,-444.123565,-9178.553681,919.314598
526.432807,-444.123565,-9030.512492,383.047749
526.433135,-444.123565,-9030.512492,536.266849
526.433462,-444.123565,-9178.553681,536.266849
526.433790,-296.082377,-8956.491898,536.266849
526.434118,-222.061783,-9030.512492,842.705048
526.434445,-222.061783,-9326.594869,1149.143247
526.434773,-148.041188,-9178.553681,536.266849
526.435101,-222.061783,-9178.553681,459.657299
526.435428,-148.041188,-9030.512492,612.876398
526.435756,0.000000,-9030.512492,536.266849
526.436084,0.000000,-8512.368333,919.314598
526.436411,0.000000,-9104.533087,383.047749
526.436739,-222.061783,-9104.533087,459.657299
526.437067,-296.082377,-9178.553681,153.219100
526.437394,-370.102971,-8956.491898,459.657299
526.437722,0.000000,-9178.553681,383.047749
526.438050,-592.164754,-8512.368333,306.438199
526.438377,-222.061783,-8882.471304,306.438199
526.438705,-296.082377,-8660.409521,229.828649
526.439033,0.000000,-8586.388927,306.438199
526.439360,0.000000,-9104.533087,612.876398
526.439688,-296.082377,-8290.306550,229.828649
526.440016,-296.082377,-9178.553681,536.266849
526.440343,-444.123565,-9030.512492,612.876398
526.440671,-296.082377,-8956.491898,612.876398
526.440999,-148.041188,-8882.471304,383.047749
526.441326,-148.041188,-8956.491898,1149.143247
526.441654,-370.102971,-8956.491898,459.657299
526.441982,-222.061783,-8956.491898,383.047749
526.442309,-296.082377,-8734.430116,536.266849
526.442637,-444.123565,-8882.471304,612.876398
526.442965,-518.144159,-8808.450710,612.876398
526.443292,-518.144159,-9252.574275,689.485948
526.443620,-592.164754,-9030.512492,842.705048
526.443948,-592.164754,-8808.450710,919.314598
526.444276,-666.185348,-9030.512492,766.095498
526.444603,-370.102971,-8882.471304,689.485948
526.444931,-370.102971,-8364.327145,459.657299
526.445259,-592.164754,-8734.430116,459.657299
526.445586,-592.164754,-8660.409521,383.047749
526.445914,-592.164754,-9252.574275,689.485948
526.446242,-370.102971,-9326.594869,459.657299
526.446569,-740.205942,-9178.553681,1302.362347
526.446897,-296.082377,-9400.615463,842.705048
526.447225,-222.061783,-9252.574275,842.705048
526.447552,0.000000,-9104.533087,383.047749
526.447880,74.020594,-9252.574275,459.657299
526.448208,148.041188,-9178.553681,459.657299
526.448535,-222.061783,-9326.594869,612.876398
526.448863,-296.082377,-9474.636058,383.047749
526.449191,-518.144159,-9474.636058,612.876398
526.449518,-444.123565,-9474.636058,689.485948
526.449846,-444.123565,-9178.553681,842.705048
526.450174,-148.041188,-9104.533087,383.047749
526.450501,0.000000,-9252.574275,459.657299
526.450829,0.000000,-8956.491898,229.828649
526.451157,-148.041188,-9104.533087,536.266849
526.451484,-370.102971,-8956.491898,383.047749
526.451812,0.000000,-9400.615463,306.438199
526.452140,-592.164754,-9326.594869,689.485948
526.452467,-444.123565,-9474.636058,766.095498
526.452795,-296.082377,-9474.636058,689.485948
526.453123,148.041188,-9030.512492,766.095498
526.453450,296.082377,-9400.615463,612.876398
526.453778,0.000000,-9178.553681,459.657299
526.454106,0.000000,-9178.553681,612.876398
526.454433,0.000000,-9030.512492,459.657299
526.454761,74.020594,-9178.553681,919.314598
526.455089,-222.061783,-9030.512492,612.876398
526.455416,-666.185348,-9400.615463,766.095498
526.455744,-370.102971,-9252.574275,459.657299
526.456072,-148.041188,-8882.471304,612.876398
526.456399,-296.082377,-8808.450710,536.266849
526.456727,74.020594,-9030.512492,612.876398
526.457055,0.000000,-8808.450710,536.266849
526.457382,0.000000,-8734.430116,229.828649
526.457710,0.000000,-8956.491898,459.657299
526.458038,-296.082377,-9326.594869,536.266849
526.458365,-592.164754,-9400.615463,919.314598
526.458693,0.000000,-9474.636058,306.438199
526.459021,148.041188,-9400.615463,306.438199
526.459348,222.061783,-9178.553681,306.438199
526.459676,148.041188,-9252.574275,0.000000
526.460004,296.082377,-9178.553681,689.485948
526.460331,148.041188,-8808.450710,459.657299
526.460659,0.000000,-9252.574275,383.047749
526.460987,-296.082377,-9474.636058,383.047749
526.461314,-296.082377,-9474.636058,383.047749
526.461642,-296.082377,-9252.574275,153.219100
526.461970,-444.123565,-8660.409521,-383.047749
526.462297,0.000000,-8882.471304,383.047749
526.462625,-148.041188,-8734.430116,153.219100
526.462953,-222.061783,-8660.409521,153.219100
526.463280,-370.102971,-8660.409521,306.438199
526.463608,148.041188,-9104.533087,766.095498
526.463936,0.000000,-9104.533087,612.876398
526.464263,-370.102971,-9030.512492,842.705048
526.464591,-148.041188,-9400.615463,842.705048
526.464919,-370.102971,-9178.553681,842.705048
526.465246,74.020594,-9252.574275,1072.533697
526.465574,-296.082377,-9178.553681,383.047749
526.465902,-444.123565,-9030.512492,612.876398
526.466229,-296.082377,-9326.594869,536.266849
526.466557,-444.123565,-9252.574275,842.705048
526.466885,-370.102971,-9252.574275,995.924147
526.467212,-444.123565,-9474.636058,919.314598
526.467540,-444.123565,-9178.553681,842.705048
526.467868,-296.082377,-9178.553681,689.485948
526.468195,-296.082377,-8882.471304,766.095498
526.468523,-370.102971,-8956.491898,536.266849
526.468851,-666.185348,-8882.471304,306.438199
526.469178,-444.123565,-8956.491898,383.047749
526.469506,-592.164754,-8882.471304,689.485948
526.469834,-444.123565,-9252.574275,689.485948
526.470161,-444.123565,-9104.533087,842.705048
526.470489,0.000000,-9474.636058,153.219100
526.470817,-296.082377,-8734.430116,459.657299
526.471144,-222.061783,-8734.430116,153.219100
526.471472,-222.061783,-8956.491898,459.657299
526.471800,-296.082377,-9104.533087,612.876398
526.472127,0.000000,-9474.636058,842.705048
526.472455,-444.123565,-9104.533087,1072.533697
526.472783,-370.102971,-9474.636058,689.485948
526.473110,-370.102971,-9474.636058,766.095498
526.473438,-296.082377,-9104.533087,689.485948
526.473766,74.020594,-8882.471304,536.266849
526.474093,0.000000,-8808.450710,612.876398
526.474421,-148.041188,-8734.430116,229.828649
526.474749,-296.082377,-9104.533087,459.657299
526.475076,-370.102971,-9178.553681,459.657299
526.475404,-296.082377,-9326.594869,612.876398
526.475732,-296.082377,-9030.512492,842.705048
526.476059,0.000000,-9252.574275,612.876398
526.476387,0.000000,-9178.553681,459.657299
526.476715,0.000000,-8956.491898,459.657299
526.477042,-296.082377,-8956.491898,612.876398
526.477370,0.000000,-9474.636058,536.266849
526.477698,0.000000,-9104.533087,229.828649
526.478025,-296.082377,-9178.553681,536.266849
526.478353,-592.164754,-9474.636058,536.266849
526.478681,-444.123565,-9400.615463,536.266849
526.479008,-148.041188,-9622.677246,842.705048
526.479336,0.000000,-8808.450710,459.657299
526.479664,-222.061783,-8956.491898,306.438199
526.479991,0.000000,-8660.409521,76.609550
526.480319,0.000000,-8734.430116,229.828649
526.480647,0.000000,-9178.553681,536.266849
526.480974,-148.041188,-9030.512492,459.657299
526.481302,-148.041188,-9400.615463,536.266849
526.481630,0.000000,-9474.636058,766.095498
526.481957,0.000000,-9474.636058,612.876398
526.482285,0.000000,-9178.553681,383.047749
526.482613,296.082377,-9104.533087,689.485948
526.482940,0.000000,-9178.553681,459.657299
526.483268,74.020594,-9326.594869,536.266849
526.483596,0.000000,-9104.533087,459.657299
526.483923,-148.041188,-9326.594869,306.438199
526.484251,-148.041188,-9252.574275,689.485948
526.484579,-370.102971,-9474.636058,383.047749
526.484906,-518.144159,-9252.574275,229.828649
526.485234,-370.102971,-9104.533087,459.657299
526.485562,0.000000,-8956.491898,306.438199
526.485889,-222.061783,-8882.471304,0.000000
526.486217,-222.061783,-8734.430116,1149.143247
526.486545,-222.061783,-9178.553681,459.657299
526.486872,-444.123565,-9252.574275,459.657299
526.487200,-518.144159,-9474.636058,842.705048
526.487528,-296.082377,-9474.636058,995.924147
526.487855,0.000000,-9326.594869,766.095498
526.488183,-296.082377,-9474.636058,612.876398
526.488511,-222.061783,-9030.512492,612.876398
526.488838,0.000000,-9326.594869,766.095498
526.489166,0.000000,-9326.594869,919.314598
526.489494,0.000000,-9178.553681,842.705048
526.489821,-148.041188,-9326.594869,536.266849
526.490149,-296.082377,-9252.574275,919.314598
526.490477,-370.102971,-9400.615463,1072.533697
526.490804,-370.102971,-9252.574275,995.924147
526.491132,-222.061783,-8734.430116,842.705048
526.491460,-370.102971,-8660.409521,842.705048
526.491787,-222.061783,-8734.430116,766.095498
526.492115,-296.082377,-8882.471304,383.047749
526.492443,-370.102971,-8956.491898,536.266849
526.492770,-370.102971,-9178.553681,229.828649
526.493098,-296.082377,-9030.512492,1072.533697
526.493426,-370.102971,-9326.594869,842.705048
526.493754,-370.102971,-9400.615463,689.485948
526.494081,-296.082377,-9178.553681,459.657299
526.494409,-148.041188,-8956.491898,689.485948
526.494737,222.061783,-8956.491898,0.000000
526.495064,74.020594,-9030.512492,766.095498
526.495392,0.000000,-9030.512492,459.657299
526.495720,0.000000,-9178.553681,536.266849
526.496047,-296.082377,-9030.512492,536.266849
526.496375,-370.102971,-9104.533087,689.485948
526.496703,-370.102971,-8882.471304,306.438199
526.497030,-444.123565,-9030.512492,536.266849
526.497358,-222.061783,-8956.491898,306.438199
526.497686,-296.082377,-8808.450710,459.657299
526.498013,-222.061783,-8438.347739,612.876398
526.498341,-592.164754,-8586.388927,383.047749
526.498669,-666.185348,-8956.491898,459.657299
526.498996,-444.123565,-8956.491898,536.266849
526.499324,-518.144159,-9030.512492,689.485948
526.499652,-740.205942,-8808.450710,689.485948
526.499979,-518.144159,-9178.553681,383.047749
526.500307,-444.123565,-8956.491898,383.047749
526.500635,-296.082377,-9030.512492,689.485948
526.500962,-444.123565,-8882.471304,306.438199
526.501290,-370.102971,-9104.533087,612.876398
526.501618,-666.185348,-8956.491898,76.609550
526.501945,-296.082377,-9178.553681,612.876398
526.502273,-592.164754,-9104.533087,689.485948
526.502601,-592.164754,-8956.491898,536.266849
526.502928,-592.164754,-8882.471304,612.876398
526.503256,148.041188,-8808.450710,842.705048
526.503584,-222.061783,-8956.491898,536.266849
526.503911,-370.102971,-8882.471304,306.438199
526.504239,-444.123565,-8586.388927,306.438199
526.504567,-296.082377,-8956.491898,459.657299
526.504894,0.000000,-9400.615463,842.705048
526.505222,0.000000,-9178.553681,459.657299
526.505550,0.000000,-9178.553681,612.876398
526.505877,0.000000,-9178.553681,383.047749
526.506205,74.020594,-9178.553681,383.047749
526.506533,74.020594,-9326.594869,612.876398
526.506860,148.041188,-8956.491898,689.485948
526.507188,0.000000,-9178.553681,76.609550
526.507516,-444.123565,-9326.594869,612.876398
526.507843,-296.082377,-9252.574275,612.876398
526.508171,-370.102971,-9400.615463,536.266849
526.508499,-370.102971,-9104.533087,459.657299
526.508826,-296.082377,-9326.594869,383.047749
526.509154,-296.082377,-9030.512492,689.485948
526.509482,-222.061783,-8956.491898,306.438199
526.509809,-444.123565,-9104.533087,229.828649
526.510137,-296.082377,-9252.574275,306.438199
526.510465,-740.205942,-8956.491898,766.095498
526.510792,-444.123565,-9252.574275,459.657299
526.511120,-444.123565,-9326.594869,842.705048
526.511448,-370.102971,-9326.594869,919.314598
526.511775,-370.102971,-9400.615463,689.485948
526.512103,0.000000,-9326.594869,1149.143247
526.512431,-148.041188,-9252.574275,459.657299
526.512758,-296.082377,-9104.533087,689.485948
526.513086,0.000000,-9252.574275,995.924147
526.513414,-148.041188,-9178.553681,1149.143247
526.513741,-296.082377,-9178.553681,1072.533697
526.514069,-518.144159,-9252.574275,612.876398
526.514397,-740.205942,-9326.594869,766.095498
526.514724,-518.144159,-9400.615463,842.705048
526.515052,-370.102971,-9252.574275,536.266849
526.515380,-518.144159,-8734.430116,689.485948
526.515707,-148.041188,-8586.388927,612.876398
526.516035,0.000000,-9178.553681,306.438199
526.516363,0.000000,-9030.512492,459.657299
526.516690,-148.041188,-9474.636058,612.876398
526.517018,-666.185348,-9326.594869,689.485948
526.517346,0.000000,-9474.636058,689.485948
526.517673,-74.020594,-9400.615463,612.876398
526.518001,0.000000,-9178.553681,612.876398
526.518329,0.000000,-9104.533087,153.219100
526.518656,518.144159,-8956.491898,383.047749
526.518984,370.102971,-8956.491898,383.047749
526.519312,0.000000,-9252.574275,459.657299
526.519639,-222.061783,-9326.594869,306.438199
526.519967,-296.082377,-9326.594869,383.047749
526.520295,-370.102971,-8956.491898,383.047749
526.520622,-370.102971,-8586.388927,536.266849
526.520950,-370.102971,-9104.533087,459.657299
526.521278,-370.102971,-8660.409521,459.657299
526.521605,-370.102971,-8660.409521,229.828649
526.521933,-518.144159,-8660.409521,383.047749
526.522261,-148.041188,-8586.388927,612.876398
526.522588,-444.123565,-8882.471304,536.266849
526.522916,-370.102971,-9104.533087,536.266849
526.523244,-296.082377,-9474.636058,536.266849
526.523571,-370.102971,-9104.533087,536.266849
526.523899,-518.144159,-8734.430116,842.705048
526.524227,0.000000,-9104.533087,383.047749
526.524554,-148.041188,-9178.553681,459.657299
526.524882,-370.102971,-9030.512492,536.266849
526.525210,-444.123565,-8586.388927,383.047749
526.525537,-222.061783,-9400.615463,536.266849
526.525865,-148.041188,-9030.512492,689.485948
526.526193,-518.144159,-9104.533087,536.266849
526.526520,-592.164754,-9030.512492,612.876398
526.526848,-370.102971,-8660.409521,229.828649
526.527176,-666.185348,-8734.430116,306.438199
526.527503,-296.082377,-8734.430116,153.219100
526.527831,-444.123565,-8734.430116,536.266849
526.528159,-296.082377,-8882.471304,459.657299
526.528486,-296.082377,-9104.533087,612.876398
526.528814,-444.123565,-9326.594869,995.924147
526.529141,-370.102971,-9178.553681,1072.533697
526.529469,-444.123565,-9104.533087,612.876398
526.529796,0.000000,-9030.512492,612.876398
526.530124,0.000000,-9326.594869,612.876398
526.530451,-296.082377,-9252.574275,766.095498
526.530779,0.000000,-9252.574275,995.924147
526.531106,-592.164754,-8808.450710,612.876398
526.531434,-370.102971,-9252.574275,766.095498
526.531761,-740.205942,-9252.574275,536.266849
526.532089,-518.144159,-9252.574275,689.485948
526.532416,-222.061783,-9178.553681,689.485948
526.532744,0.000000,-8882.471304,383.047749
526.533071,-296.082377,-8734.430116,766.095498
526.533399,-222.061783,-8956.491898,612.876398
526.533726,-370.102971,-9104.533087,306.438199
526.534054,-296.082377,-9178.553681,459.657299
526.534381,-592.164754,-9030.512492,536.266849
526.534709,0.000000,-9474.636058,766.095498
526.535036,0.000000,-9474.636058,383.047749
526.535364,74.020594,-9474.636058,536.266849
526.535691,74.020594,-9400.615463,459.657299
526.536019,296.082377,-9548.656652,-153.219100
526.536346,222.061783,-9400.615463,0.000000
526.536674,0.000000,-9326.594869,306.438199
526.537001,-222.061783,-9474.636058,306.438199
526.537329,0.000000,-9400.615463,306.438199
526.537656,-222.061783,-9400.615463,536.266849
526.537984,-296.082377,-8956.491898,229.828649
526.538311,-370.102971,-9400.615463,689.485948
526.538639,0.000000,-9104.533087,0.000000
526.538966,0.000000,-8882.471304,383.047749
526.539294,0.000000,-8808.450710,383.047749
526.539621,0.000000,-9178.553681,842.705048
526.539949,-370.102971,-9252.574275,306.438199
526.540276,-296.082377,-9252.574275,689.485948
526.540604,-148.041188,-9400.615463,459.657299
526.540931,-444.123565,-9474.636058,766.095498
526.541259,0.000000,-8956.491898,689.485948
526.541586,0.000000,-8808.450710,612.876398
526.541914,0.000000,-8956.491898,383.047749
526.542241,0.000000,-9030.512492,459.657299
526.542569,-148.041188,-9252.574275,383.047749
526.542896,-222.061783,-9104.533087,306.438199
526.543224,0.000000,-9400.615463,689.485948
526.543551,-296.082377,-9400.615463,689.485948
526.543879,-148.041188,-9474.636058,689.485948
526.544206,-444.123565,-9030.512492,766.095498
526.544534,0.000000,-8882.471304,536.266849
526.544861,-444.123565,-8512.368333,76.609550
526.545189,-370.102971,-8660.409521,306.438199
526.545516,-370.102971,-9030.512492,612.876398
526.545844,-296.082377,-9030.512492,612.876398
526.546171,-518.144159,-9104.533087,459.657299
526.546499,-296.082377,-9030.512492,919.314598
526.546826,-222.061783,-9030.512492,689.485948
526.547154,0.000000,-9030.512492,536.266849
526.547481,0.000000,-8660.409521,306.438199
526.547809,-148.041188,-9104.533087,536.266849
526.548136,-740.205942,-9030.512492,689.485948
526.548464,0.000000,-9474.636058,153.219100
526.548791,-222.061783,-9252.574275,306.438199
526.549119,-222.061783,-9326.594869,612.876398
526.549446,0.000000,-9326.594869,689.485948
526.549774,-296.082377,-9104.533087,459.657299
526.550101,-370.102971,-9030.512492,306.438199
526.550429,-222.061783,-9030.512492,229.828649
526.550756,-296.082377,-8808.450710,383.047749
526.551084,-370.102971,-8956.491898,459.657299
526.551411,-1036.288319,-9030.512492,536.266849
526.551739,0.000000,-9030.512492,612.876398
526.552066,-444.123565,-9326.594869,842.705048
526.552394,-444.123565,-9030.512492,612.876398
526.552721,-148.041188,-9030.512492,766.095498
526.553049,0.000000,-8956.491898,459.657299
526.553376,-296.082377,-8364.327145,612.876398
526.553704,0.000000,-9178.553681,689.485948
526.554031,-370.102971,-9326.594869,842.705048
526.554359,-370.102971,-9252.574275,536.266849
526.554686,-296.082377,-9326.594869,612.876398
526.555014,-296.082377,-9326.594869,1378.971896
526.555341,-518.144159,-9252.574275,612.876398
526.555669,-148.041188,-9178.553681,459.657299
526.555996,0.000000,-9030.512492,383.047749
526.556324,-222.061783,-8438.347739,306.438199
526.556651,-444.123565,-8586.388927,459.657299
526.556979,-296.082377,-8882.471304,536.266849
526.557306,-370.102971,-9104.533087,383.047749
526.557634,-370.102971,-9030.512492,383.047749
526.557961,-518.144159,-9326.594869,459.657299
526.558289,-222.061783,-9252.574275,612.876398
526.558616,0.000000,-9104.533087,306.438199
526.558944,0.000000,-9104.533087,383.047749
526.559271,0.000000,-9030.512492,76.609550
526.559599,0.000000,-9326.594869,383.047749
526.559926,-148.041188,-9252.574275,229.828649
526.560254,222.061783,-9326.594869,689.485948
526.560581,-222.061783,-9104.533087,689.485948
526.560909,0.000000,-9400.615463,766.095498
526.561236,-296.082377,-9400.615463,689.485948
526.561564,-296.082377,-9178.553681,536.266849
526.561891,0.000000,-9030.512492,459.657299
526.562219,-296.082377,-8734.430116,689.485948
526.562546,-296.082377,-8808.450710,306.438199
526.562874,-444.123565,-8956.491898,536.266849
526.563201,-518.144159,-8956.491898,689.485948
526.563529,-370.102971,-9178.553681,383.047749
526.563856,-370.102971,-9104.533087,919.314598
526.564184,-518.144159,-9178.553681,919.314598
526.564511,-592.164754,-9252.574275,766.095498
526.564839,-444.123565,-8956.491898,689.485948
526.565166,-148.041188,-8438.347739,689.485948
526.565494,222.061783,-8808.450710,459.657299
526.565821,0.000000,-9252.574275,689.485948
526.566149,0.000000,-9400.615463,766.095498
526.566476,-296.082377,-9178.553681,612.876398
526.566804,-222.061783,-9252.574275,459.657299
526.567131,-592.164754,-9326.594869,766.095498
526.567459,-518.144159,-9252.574275,383.047749
526.567786,-370.102971,-9252.574275,383.047749
526.568114,0.000000,-9178.553681,383.047749
526.568441,-222.061783,-8882.471304,459.657299
526.568769,0.000000,-9178.553681,0.000000
526.569096,74.020594,-9326.594869,689.485948
526.569424,0.000000,-9252.574275,383.047749
526.569751,-222.061783,-9252.574275,459.657299
526.570079,0.000000,-9252.574275,459.657299
526.570406,-222.061783,-8882.471304,459.657299
526.570734,0.000000,-9030.512492,536.266849
526.571061,-296.082377,-9474.636058,459.657299
526.571389,0.000000,-9252.574275,459.657299
526.571716,-370.102971,-9400.615463,612.876398
526.572044,-148.041188,-9400.615463,383.047749
526.572371,-148.041188,-9178.553681,842.705048
526.572699,-370.102971,-9326.594869,689.485948
526.573026,-518.144159,-9474.636058,612.876398
526.573354,-666.185348,-9252.574275,612.876398
526.573681,-592.164754,-9030.512492,612.876398
526.574009,-666.185348,-8734.430116,612.876398
526.574336,-444.123565,-9178.553681,459.657299
526.574664,-370.102971,-9178.553681,612.876398
526.574991,-518.144159,-8956.491898,689.485948
526.575319,-370.102971,-8808.450710,612.876398
526.575646,-222.061783,-8956.491898,0.000000
526.575974,-592.164754,-8956.491898,229.828649
526.576301,-518.144159,-8956.491898,766.095498
526.576629,-444.123565,-8882.471304,689.485948
526.576956,-296.082377,-9252.574275,536.266849
526.577284,-740.205942,-9178.553681,536.266849
526.577611,-222.061783,-9104.533087,536.266849
526.577939,-222.061783,-8808.450710,536.266849
526.578266,-370.102971,-8956.491898,766.095498
526.578594,-370.102971,-8882.471304,612.876398
526.578921,-370.102971,-9030.512492,306.438199
526.579249,0.000000,-8956.491898,612.876398
526.579576,0.000000,-8882.471304,229.828649
526.579904,0.000000,-8808.450710,76.609550
526.580231,-370.102971,-9030.512492,306.438199
526.580559,-370.102971,-8882.471304,229.828649
526.580886,-444.123565,-8660.409521,306.438199
526.581214,-148.041188,-8956.491898,306.438199
526.581541,-148.041188,-9252.574275,306.438199
526.581869,0.000000,-9030.512492,229.828649
526.582196,-148.041188,-9030.512492,536.266849
526.582524,74.020594,-8808.450710,306.438199
526.582851,148.041188,-8660.409521,459.657299
526.583179,74.020594,-8956.491898,536.266849
526.583506,-222.061783,-9104.533087,306.438199
526.583834,-296.082377,-8808.450710,459.657299
526.584161,-444.123565,-8882.471304,995.924147
526.584489,-148.041188,-9178.553681,766.095498
526.584816,-296.082377,-9030.512492,842.705048
526.585144,-444.123565,-8882.471304,766.095498
526.585471,-296.082377,-8956.491898,536.266849
526.585799,-370.102971,-8734.430116,459.657299
526.586126,-592.164754,-8438.347739,766.095498
526.586454,-444.123565,-9252.574275,689.485948
526.586781,-518.144159,-9178.553681,842.705048
526.587109,-592.164754,-9474.636058,766.095498
526.587436,-814.226536,-9252.574275,842.705048
526.587764,-518.144159,-9104.533087,1072.533697
526.588091,-666.185348,-9474.636058,919.314598
526.588419,-148.041188,-9326.594869,689.485948
526.588746,-296.082377,-9252.574275,536.266849
526.589074,0.000000,-9252.574275,689.485948
526.589401,0.000000,-9474.636058,153.219100
526.589729,-444.123565,-8734.430116,919.314598
526.590056,-592.164754,-9622.677246,536.266849
526.590384,-444.123565,-9548.656652,459.657299
526.590711,-222.061783,-9474.636058,689.485948
526.591039,0.000000,-9474.636058,536.266849
526.591366,444.123565,-8956.491898,689.485948
526.591694,0.000000,-9030.512492,383.047749
526.592021,0.000000,-9178.553681,306.438199
526.592349,-148.041188,-9030.512492,229.828649
526.592676,-370.102971,-9104.533087,842.705048
526.593004,0.000000,-8956.491898,0.000000
526.593331,-518.144159,-9400.615463,459.657299
526.593659,-370.102971,-9548.656652,612.876398
526.593986,-222.061783,-9178.553681,689.485948
526.594314,0.000000,-9030.512492,459.657299
526.594641,148.041188,-8734.430116,919.314598
526.594969,74.020594,-8882.471304,689.485948
526.595296,74.020594,-9178.553681,306.438199
526.595624,-222.061783,-9178.553681,459.657299
526.595951,-370.102971,-9326.594869,612.876398
526.596279,-444.123565,-9252.574275,612.876398
526.596606,0.000000,-9474.636058,842.705048
526.596934,-222.061783,-9178.553681,612.876398
526.597261,-370.102971,-8956.491898,612.876398
526.597589,-370.102971,-8734.430116,536.266849
526.597916,0.000000,-8660.409521,612.876398
526.598244,0.000000,-8512.368333,153.219100
526.598571,-370.102971,-8660.409521,612.876398
526.598899,-518.144159,-8734.430116,689.485948
526.599226,-592.164754,-9400.615463,919.314598
526.599554,-444.123565,-9178.553681,842.705048
526.599881,0.000000,-8956.491898,919.314598
526.600209,0.000000,-9104.533087,612.876398
526.600536,0.000000,-9178.553681,842.705048
526.600864,0.000000,-9030.512492,689.485948
526.601191,-148.041188,-9030.512492,689.485948
526.601519,-222.061783,-8882.471304,919.314598
