#time,accel_x,accel_y,accel_z
435.964438,-370.102971,-8586.388927,689.485948
435.964766,0.000000,-9030.512492,536.266849
435.965094,-148.041188,-9030.512492,612.876398
435.965422,-222.061783,-9474.636058,306.438199
435.965750,-296.082377,-9252.574275,1072.533697
435.966078,222.061783,-9326.594869,383.047749
435.966406,-148.041188,-9030.512492,383.047749
435.966734,-370.102971,-8956.491898,612.876398
435.967062,0.000000,-9326.594869,842.705048
435.967390,-222.061783,-9326.594869,689.485948
435.967718,0.000000,-9104.533087,459.657299
435.968046,-222.061783,-9178.553681,1149.143247
435.968373,-444.123565,-9104.533087,383.047749
435.968701,-296.082377,-9400.615463,536.266849
435.969029,-370.102971,-8956.491898,689.485948
435.969357,0.000000,-9030.512492,306.438199
435.969685,-296.082377,-8956.491898,842.705048
435.970013,-222.061783,-9104.533087,459.657299
435.970341,-370.102971,-8956.491898,689.485948
435.970669,-296.082377,-8956.491898,306.438199
435.970997,-370.102971,-8882.471304,1225.752797
435.971325,-296.082377,-9030.512492,383.047749
435.971653,-222.061783,-9252.574275,536.266849
435.971981,-222.061783,-9104.533087,536.266849
435.972309,-222.061783,-9030.512492,919.314598
435.972637,-222.061783,-9030.512492,689.485948
435.972965,0.000000,-9104.533087,536.266849
435.973293,-444.123565,-9104.533087,153.219100
435.973621,-962.267725,-9400.615463,0.000000
435.973949,-1258.350101,-9474.636058,0.000000
435.974277,-1332.370696,-9326.594869,-383.047749
435.974605,-962.267725,-9178.553681,0.000000
435.974933,-666.185348,-8882.471304,-306.438199
435.975261,-444.123565,-8808.450710,-459.657299
435.975589,-740.205942,-9030.512492,-919.314598
435.975917,-1110.308913,-9178.553681,-919.314598
435.976245,-1406.391290,-8660.409521,-1149.143247
435.976573,-1184.329507,-9178.553681,-1455.581446
435.976901,-962.267725,-9252.574275,-1608.800546
435.977229,-740.205942,-9400.615463,-1378.971896
435.977557,-370.102971,-9252.574275,-1378.971896
435.977885,0.000000,-9030.512492,-1149.143247
435.978213,296.082377,-9030.512492,-1455.581446
435.978541,0.000000,-9326.594869,-1762.019645
435.978869,0.000000,-9252.574275,-1685.410096
435.979197,222.061783,-9252.574275,-1915.238745
435.979525,148.041188,-9400.615463,-1838.629195
435.979853,592.164754,-9474.636058,-1991.848295
435.980181,148.041188,-9326.594869,-1608.800546
435.980509,296.082377,-9252.574275,-1915.238745
435.980837,370.102971,-9400.615463,-1838.629195
435.981165,296.082377,-9400.615463,-1991.848295
435.981493,148.041188,-8956.491898,-1838.629195
435.981821,148.041188,-9252.574275,-1838.629195
435.982149,74.020594,-9252.574275,-1762.019645
435.982477,148.041188,-9104.533087,-1608.800546
435.982805,74.020594,-9178.553681,-1685.410096
435.983132,-518.144159,-8882.471304,-919.314598
435.983460,0.000000,-9104.533087,-2068.457845
435.983788,-740.205942,-9104.533087,-2068.457845
435.984116,-1184.329507,-9104.533087,-2068.457845
435.984444,-1184.329507,-9104.533087,-2298.286494
435.984772,-814.226536,-9474.636058,-2145.067394
435.985100,-1332.370696,-9030.512492,-2528.115143
435.985428,-1998.556043,-8956.491898,-2528.115143
435.985756,-1998.556043,-9030.512492,-3370.820191
435.986084,-2146.597232,-9104.533087,-3370.820191
435.986412,-1850.514855,-9104.533087,-3524.039291
435.986740,-1628.453072,-8660.409521,-3907.087040
435.987068,-1480.411884,-8808.450710,-3830.477490
435.987396,-1628.453072,-8734.430116,-3983.696590
435.987724,-1184.329507,-8808.450710,-3830.477490
435.988052,-592.164754,-9030.512492,-3600.648841
435.988380,296.082377,-8956.491898,-3524.039291
435.988708,666.185348,-8808.450710,-2911.162892
435.989036,1258.350101,-9178.553681,-2757.943793
435.989364,1776.494261,-9030.512492,-2451.505594
435.989692,2072.576638,-9178.553681,-2068.457845
435.990020,1924.535449,-9252.574275,-1991.848295
435.990348,1406.391290,-9992.780217,-1991.848295
435.990676,370.102971,-10288.862594,-2604.724693
435.991004,-814.226536,-10140.821405,-3064.381992
435.991332,-1480.411884,-10214.842000,-3677.258390
435.991660,-1776.494261,-9844.739029,-4596.572988
435.991988,-2368.659014,-9548.656652,-4826.401637
435.992316,-1184.329507,-9030.512492,-5056.230287
435.992644,0.000000,-8068.244768,-4443.353888
435.992972,1480.411884,-7254.018232,-3600.648841
435.993300,2738.761985,-7254.018232,-3064.381992
435.993628,3404.947333,-7254.018232,-1991.848295
435.993956,1776.494261,-8142.265362,-1991.848295
435.994284,296.082377,-9252.574275,-1915.238745
435.994612,-1998.556043,-10584.944971,-2374.896044
435.994940,-3404.947333,-11103.089130,-2451.505594
435.995268,-3997.112087,-10658.965565,-2834.553343
435.995596,-2294.638420,-9918.759623,-1915.238745
435.995924,1702.473667,-8216.285956,-995.924147
435.996252,6735.874072,-6143.709319,919.314598
435.996580,9992.780217,-5255.462188,2911.162892
435.996908,9918.759623,-6661.853478,3064.381992
435.997236,6439.791695,-8142.265362,3677.258390
435.997564,592.164754,-11103.089130,2145.067394
435.997892,-5329.482782,-12805.562797,229.828649
435.998219,-9030.512492,-13989.892304,-1455.581446
435.998547,-10658.965565,-13915.871710,-2604.724693
435.998875,-10436.903782,-12731.542202,-3447.429741
435.999203,-8956.491898,-10510.924376,-3677.258390
435.999531,-2516.700203,-7328.038826,-2451.505594
435.999859,-1480.411884,-4811.338623,-2298.286494
436.000187,1998.556043,-3775.050304,-2604.724693
436.000515,962.267725,-5551.544565,-2834.553343
436.000843,-3256.906145,-6735.874072,-4366.744339
436.001171,-7994.224174,-8956.491898,-5592.497135
436.001499,-10362.883188,-9844.739029,-6128.763984
436.001827,-10140.821405,-10066.800811,-5975.544884
436.002155,-7031.956449,-9104.533087,-5286.058936
436.002483,296.082377,-8290.306550,-2604.724693
436.002811,5847.626942,-6661.853478,-1302.362347
436.003139,8882.471304,-6365.771101,-306.438199
436.003467,9770.718434,-8512.368333,229.828649
436.003795,5403.503377,-10510.924376,-1302.362347
436.004123,1480.411884,-11621.233289,-3983.696590
436.004451,1554.432478,-12509.480420,-4136.915689
436.004779,3034.844362,-10584.944971,-3830.477490
436.005107,9178.553681,-8068.244768,-536.266849
436.005435,13915.871710,-8290.306550,2757.943793
436.005763,14359.995275,-8364.327145,3600.648841
436.006091,10140.821405,-9178.553681,3140.991542
436.006419,6143.709319,-11547.212695,1762.019645
436.006747,-148.041188,-12879.583391,-612.876398
436.007075,-3330.926739,-12361.439231,-2068.457845
436.007403,-3701.029710,-12583.501014,-1378.971896
436.007731,-4145.153275,-10584.944971,-1072.533697
436.008059,-2960.823768,-8882.471304,306.438199
436.008387,-1776.494261,-6513.812290,1302.362347
436.008715,-4071.132681,-4885.359217,0.000000
436.009043,-4737.318029,-3478.967927,-919.314598
436.009371,-4663.297435,-3923.091493,-1915.238745
436.009699,-3552.988522,-4737.318029,-1072.533697
436.010027,-740.205942,-4589.276840,1302.362347
436.010355,222.061783,-5625.565159,2528.115143
436.010683,-444.123565,-7254.018232,5056.230287
436.011011,-2738.761985,-9548.656652,5209.449386
436.011339,-6661.853478,-11621.233289,4443.353888
436.011667,-8512.368333,-11325.150913,3140.991542
436.011995,-6957.935855,-11251.130318,2604.724693
436.012323,-3849.070898,-10881.027347,3294.210641
436.012651,-148.041188,-9992.780217,3370.820191
436.012978,1258.350101,-9844.739029,3907.087040
436.013306,1184.329507,-9992.780217,3294.210641
436.013634,-222.061783,-9918.759623,1991.848295
436.013962,-1628.453072,-9474.636058,919.314598
436.014290,-1258.350101,-8586.388927,0.000000
436.014618,666.185348,-7920.203579,1302.362347
436.014946,2368.659014,-8290.306550,2681.334243
436.015274,2738.761985,-8882.471304,4060.306139
436.015602,814.226536,-10214.842000,4290.134789
436.015930,-2368.659014,-11769.274478,2221.676944
436.016258,-4959.379811,-12805.562797,1608.800546
436.016586,-4589.276840,-11029.068536,-536.266849
436.016914,-3108.864956,-10658.965565,76.609550
436.017242,666.185348,-8216.285956,0.000000
436.017570,3775.050304,-6587.832884,1302.362347
436.017898,3330.926739,-7031.956449,1762.019645
436.018226,2590.720797,-7105.977043,229.828649
436.018554,370.102971,-9326.594869,-1608.800546
436.018882,-1258.350101,-10510.924376,-2834.553343
436.019210,148.041188,-11177.109724,-2987.772442
436.019538,1406.391290,-11325.150913,-1532.190996
436.019865,4071.132681,-10732.986159,76.609550
436.020193,4737.318029,-10658.965565,1762.019645
436.020520,2664.741391,-11473.192101,2068.457845
436.020848,-1258.350101,-11177.109724,0.000000
436.021175,-3701.029710,-11917.315666,-1378.971896
436.021503,-5181.441594,-11029.068536,-3370.820191
436.021830,-3478.967927,-9474.636058,-3140.991542
436.022158,592.164754,-8068.244768,-1225.752797
436.022485,3775.050304,-6513.812290,0.000000
436.022813,4441.235652,-5773.606348,1149.143247
436.023140,1998.556043,-6439.791695,0.000000
436.023468,-1184.329507,-7402.059420,-1532.190996
436.023796,-3552.988522,-7328.038826,-3370.820191
436.024123,-2294.638420,-7698.141797,-2987.772442
436.024451,592.164754,-7624.121203,-1608.800546
436.024778,3478.967927,-7698.141797,1762.019645
436.025106,4145.153275,-8364.327145,3217.601092
436.025433,2590.720797,-9252.574275,3294.210641
436.025761,-444.123565,-10214.842000,1838.629195
436.026088,-3108.864956,-10584.944971,-306.438199
436.026416,-4219.173869,-9622.677246,-1455.581446
436.026743,-1850.514855,-9178.553681,-1378.971896
436.027071,1406.391290,-7846.182985,459.657299
436.027398,3478.967927,-7328.038826,2451.505594
436.027726,3256.906145,-7476.080014,3600.648841
436.028054,1258.350101,-8660.409521,3064.381992
436.028381,-1702.473667,-8882.471304,689.485948
436.028709,-3330.926739,-9252.574275,-612.876398
436.029036,-2516.700203,-8512.368333,-842.705048
436.029364,-370.102971,-7994.224174,612.876398
436.029691,1480.411884,-6957.935855,2834.553343
436.030019,1702.473667,-7105.977043,4673.182538
436.030346,-814.226536,-8068.244768,4213.525239
436.030674,-4071.132681,-9104.533087,2451.505594
436.031001,-6661.853478,-9400.615463,-229.828649
436.031329,-6291.750507,-9400.615463,-1149.143247
436.031656,-4219.173869,-8512.368333,-842.705048
436.031984,-666.185348,-7698.141797,306.438199
436.032311,1850.514855,-7402.059420,1685.410096
436.032639,1776.494261,-7846.182985,2221.676944
436.032967,0.000000,-9252.574275,1532.190996
436.033294,-1924.535449,-10288.862594,0.000000
436.033622,-3330.926739,-11103.089130,-1532.190996
436.033949,-1850.514855,-11251.130318,-766.095498
436.034277,888.247130,-10436.903782,536.266849
436.034604,3404.947333,-9992.780217,2528.115143
436.034932,4737.318029,-10140.821405,3753.867940
436.035259,2368.659014,-10140.821405,3830.477490
436.035587,-370.102971,-11177.109724,1991.848295
436.035914,-2590.720797,-11399.171507,76.609550
436.036242,-1998.556043,-10658.965565,-766.095498
436.036569,-222.061783,-9696.697840,306.438199
436.036897,2812.782580,-8586.388927,1302.362347
436.037225,4441.235652,-8068.244768,2604.724693
436.037552,3404.947333,-8364.327145,2987.772442
436.037880,962.267725,-9252.574275,1302.362347
436.038207,-1628.453072,-10288.862594,-306.438199
436.038535,-2442.679609,-11177.109724,-1378.971896
436.038862,-1850.514855,-10807.006753,-1455.581446
436.039190,0.000000,-10066.800811,0.000000
436.039517,1258.350101,-9400.615463,1915.238745
436.039845,1184.329507,-9474.636058,2834.553343
436.040172,-1036.288319,-9252.574275,1685.410096
436.040500,-3478.967927,-10362.883188,0.000000
436.040827,-5477.523971,-10732.986159,-2068.457845
436.041155,-5625.565159,-10288.862594,-3294.210641
436.041482,-3108.864956,-9326.594869,-2451.505594
436.041810,296.082377,-7772.162391,-229.828649
436.042138,1480.411884,-7105.977043,1149.143247
436.042465,1628.453072,-7179.997637,1225.752797
436.042793,370.102971,-8290.306550,0.000000
436.043120,-1924.535449,-8882.471304,-1532.190996
436.043448,-2072.576638,-8956.491898,-2298.286494
436.043775,-370.102971,-8882.471304,-1532.190996
436.044103,2220.617826,-8290.306550,0.000000
436.044430,4737.318029,-7994.224174,2451.505594
436.044758,5033.400406,-8216.285956,3600.648841
436.045085,3108.864956,-8586.388927,2987.772442
436.045413,740.205942,-9400.615463,1455.581446
436.045740,-1406.391290,-9400.615463,-612.876398
436.046068,-1554.432478,-9474.636058,-1225.752797
436.046396,962.267725,-8734.430116,-383.047749
436.046723,3478.967927,-7550.100608,1455.581446
436.047051,4367.215058,-7550.100608,2068.457845
436.047378,3034.844362,-7846.182985,3294.210641
436.047706,370.102971,-8808.450710,1378.971896
436.048033,-2590.720797,-9474.636058,-612.876398
436.048361,-3256.906145,-9474.636058,-1455.581446
436.048688,-2664.741391,-9326.594869,-1685.410096
436.049016,-592.164754,-7772.162391,689.485948
436.049343,962.267725,-7624.121203,2451.505594
436.049671,222.061783,-7624.121203,3447.429741
436.049998,-1850.514855,-7994.224174,2528.115143
436.050326,-4071.132681,-8512.368333,995.924147
436.050653,-5921.647536,-9178.553681,-842.705048
436.050981,-5625.565159,-9474.636058,-1532.190996
436.051309,-3701.029710,-8660.409521,-919.314598
436.051636,-518.144159,-7550.100608,842.705048
436.051964,1258.350101,-7254.018232,2451.505594
436.052291,592.164754,-7772.162391,2451.505594
436.052619,-888.247130,-9104.533087,612.876398
436.052946,-2590.720797,-10140.821405,-1225.752797
436.053274,-2738.761985,-10436.903782,-1991.848295
436.053601,-1406.391290,-10362.883188,-1072.533697
436.053929,1406.391290,-9770.718434,1072.533697
436.054256,3552.988522,-9918.759623,2911.162892
436.054584,3404.947333,-10436.903782,3524.039291
436.054911,1702.473667,-10807.006753,2834.553343
436.055239,-740.205942,-11251.130318,1072.533697
436.055567,-1998.556043,-11029.068536,-766.095498
436.055894,-1628.453072,-11103.089130,-689.485948
436.056222,148.041188,-10140.821405,-383.047749
436.056549,2368.659014,-8882.471304,1762.019645
436.056877,4293.194464,-8142.265362,2681.334243
436.057204,2738.761985,-8438.347739,2298.286494
436.057532,814.226536,-9474.636058,1532.190996
436.057859,-1554.432478,-9696.697840,-1072.533697
436.058187,-2442.679609,-10066.800811,-1762.019645
436.058514,-1110.308913,-9548.656652,-1225.752797
436.058842,518.144159,-9104.533087,536.266849
436.059169,2146.597232,-9178.553681,2374.896044
436.059497,1850.514855,-9400.615463,2834.553343
436.059825,-444.123565,-9696.697840,1915.238745
436.060152,-2960.823768,-10436.903782,0.000000
436.060480,-4663.297435,-10881.027347,-1762.019645
436.060807,-4219.173869,-10288.862594,-1608.800546
436.061135,-2368.659014,-8808.450710,-1225.752797
436.061462,592.164754,-7624.121203,995.924147
436.061790,1924.535449,-7179.997637,1838.629195
436.062117,1036.288319,-7328.038826,1685.410096
436.062445,-592.164754,-8216.285956,76.609550
436.062772,-2516.700203,-8882.471304,-1915.238745
436.063100,-2738.761985,-9178.553681,-2221.676944
436.063427,-1110.308913,-8808.450710,-842.705048
436.063755,1628.453072,-8364.327145,1149.143247
436.064082,3182.885551,-7846.182985,3064.381992
436.064410,2886.803174,-7994.224174,3753.867940
436.064738,888.247130,-9252.574275,2374.896044
436.065065,-1998.556043,-9696.697840,0.000000
436.065393,-3182.885551,-9918.759623,-1072.533697
436.065720,-1924.535449,-9696.697840,-1149.143247
436.066048,518.144159,-7920.203579,0.000000
436.066375,2960.823768,-7105.977043,1302.362347
436.066703,4589.276840,-7402.059420,2681.334243
436.067030,2960.823768,-7550.100608,2451.505594
436.067358,370.102971,-8290.306550,919.314598
436.067685,-1258.350101,-9104.533087,-766.095498
436.068013,-1924.535449,-9548.656652,-1532.190996
436.068340,-1036.288319,-9252.574275,-459.657299
436.068668,740.205942,-8660.409521,1302.362347
436.068996,2220.617826,-8438.347739,2987.772442
436.069323,1258.350101,-8956.491898,2987.772442
436.069651,-1554.432478,-9104.533087,1532.190996
436.069978,-3923.091493,-9844.739029,-306.438199
436.070306,-4885.359217,-9770.718434,-2145.067394
436.070633,-4515.256246,-9104.533087,-2374.896044
436.070961,-2072.576638,-7772.162391,-1072.533697
436.071288,1258.350101,-6809.894666,1225.752797
436.071616,1924.535449,-7105.977043,1685.410096
436.071943,74.020594,-7920.203579,1149.143247
436.072271,-2368.659014,-8882.471304,-612.876398
436.072598,-4219.173869,-9918.759623,-2145.067394
436.072926,-3701.029710,-9770.718434,-1838.629195
436.073253,-962.267725,-10214.842000,-689.485948
436.073581,1702.473667,-9474.636058,1225.752797
436.073909,3627.009116,-9622.677246,3064.381992
436.074236,2960.823768,-9992.780217,3370.820191
436.074564,222.061783,-10140.821405,1838.629195
436.074891,-1628.453072,-11251.130318,0.000000
436.075219,-2368.659014,-11473.192101,-1762.019645
436.075546,-1480.411884,-10732.986159,-842.705048
436.075874,1850.514855,-9474.636058,229.828649
436.076201,4441.235652,-8364.327145,2068.457845
436.076529,4885.359217,-8438.347739,3140.991542
436.076856,2590.720797,-8882.471304,2145.067394
436.077184,296.082377,-9474.636058,612.876398
436.077511,-1702.473667,-10214.842000,-689.485948
436.077839,-1628.453072,-10436.903782,-842.705048
436.078167,-370.102971,-9548.656652,766.095498
436.078494,1554.432478,-9400.615463,2374.896044
436.078822,2146.597232,-9030.512492,3600.648841
436.079149,444.123565,-9474.636058,3217.601092
436.079477,-1998.556043,-9622.677246,1685.410096
436.079804,-4589.276840,-9696.697840,0.000000
436.080132,-5181.441594,-9844.739029,-1762.019645
436.080459,-3923.091493,-9252.574275,-1532.190996
436.080787,-1406.391290,-8142.265362,153.219100
436.081114,888.247130,-7402.059420,1838.629195
436.081442,1332.370696,-7105.977043,2604.724693
436.081769,-592.164754,-8068.244768,1225.752797
436.082097,-2664.741391,-8586.388927,-612.876398
436.082424,-3775.050304,-9474.636058,-1608.800546
436.082752,-2886.803174,-9548.656652,-1532.190996
436.083080,-518.144159,-8586.388927,0.000000
436.083407,3034.844362,-8142.265362,2298.286494
436.083735,3627.009116,-7994.224174,3753.867940
436.084062,2442.679609,-8586.388927,3447.429741
436.084390,-296.082377,-9474.636058,1685.410096
436.084717,-2738.761985,-9770.718434,-536.266849
436.085045,-2146.597232,-9844.739029,-1302.362347
436.085372,-814.226536,-9030.512492,-612.876398
436.085700,1850.514855,-8068.244768,995.924147
436.086027,4219.173869,-7328.038826,2604.724693
436.086355,3923.091493,-7328.038826,2987.772442
436.086682,1332.370696,-7550.100608,1532.190996
436.087010,-1110.308913,-8438.347739,-229.828649
436.087338,-2220.617826,-9844.739029,-1302.362347
436.087665,-2368.659014,-9844.739029,-1532.190996
436.087993,-592.164754,-9104.533087,0.000000
436.088320,1776.494261,-8882.471304,1762.019645
436.088648,2146.597232,-8882.471304,3217.601092
436.088975,0.000000,-8734.430116,2757.943793
436.089303,-2442.679609,-9252.574275,383.047749
436.089630,-4515.256246,-9770.718434,-1838.629195
436.089958,-4441.235652,-9548.656652,-2298.286494
436.090285,-2886.803174,-8512.368333,-1378.971896
436.090613,296.082377,-7402.059420,0.000000
436.090940,2294.638420,-7105.977043,1532.190996
436.091268,2442.679609,-7476.080014,2145.067394
436.091595,148.041188,-8512.368333,919.314598
436.091923,-1998.556043,-9622.677246,-766.095498
436.092251,-2960.823768,-10140.821405,-2068.457845
436.092578,-2146.597232,-10288.862594,-1455.581446
436.092906,666.185348,-9696.697840,383.047749
436.093233,3182.885551,-9400.615463,2451.505594
436.093561,3404.947333,-9400.615463,3524.039291
436.093888,1628.453072,-9918.759623,2451.505594
436.094216,-1036.288319,-10510.924376,536.266849
436.094543,-3330.926739,-10658.965565,-1838.629195
436.094871,-2664.741391,-10510.924376,-1991.848295
436.095198,0.000000,-9326.594869,-1608.800546
436.095526,2590.720797,-8290.306550,459.657299
436.095853,3775.050304,-7994.224174,2145.067394
436.096181,3034.844362,-8142.265362,2451.505594
436.096509,592.164754,-9030.512492,766.095498
436.096836,-2368.659014,-10140.821405,-919.314598
436.097164,-3108.864956,-11029.068536,-2145.067394
436.097491,-2220.617826,-10436.903782,-1532.190996
436.097819,0.000000,-9622.677246,383.047749
436.098146,2368.659014,-9030.512492,2298.286494
436.098474,2220.617826,-8956.491898,3370.820191
436.098801,592.164754,-8882.471304,2681.334243
436.099129,-1850.514855,-9992.780217,536.266849
436.099456,-3849.070898,-10362.883188,-1762.019645
436.099784,-3256.906145,-10436.903782,-2145.067394
436.100111,-962.267725,-9474.636058,-1149.143247
436.100439,2886.803174,-7846.182985,1225.752797
436.100766,3849.070898,-7624.121203,2681.334243
436.101094,2516.700203,-8216.285956,2834.553343
436.101422,148.041188,-9400.615463,1149.143247
436.101749,-1998.556043,-10140.821405,-229.828649
436.102077,-2368.659014,-10584.944971,-1455.581446
436.102404,-1258.350101,-10288.862594,0.000000
436.102732,518.144159,-9474.636058,1532.190996
436.103059,2738.761985,-8956.491898,3447.429741
436.103387,1850.514855,-9030.512492,3983.696590
436.103714,0.000000,-9104.533087,2911.162892
436.104042,-2738.761985,-9030.512492,689.485948
436.104369,-4515.256246,-9474.636058,-1225.752797
436.104697,-3404.947333,-9400.615463,-1685.410096
436.105024,-1554.432478,-8068.244768,0.000000
436.105352,1036.288319,-7105.977043,1378.971896
436.105680,2368.659014,-7105.977043,2911.162892
436.106007,1332.370696,-7772.162391,2451.505594
436.106335,-1036.288319,-8364.327145,612.876398
436.106662,-3108.864956,-9178.553681,-995.924147
436.106990,-3627.009116,-9474.636058,-1685.410096
436.107317,-1850.514855,-9548.656652,-1225.752797
436.107645,0.000000,-8438.347739,995.924147
436.107972,1850.514855,-8216.285956,2757.943793
436.108300,1110.308913,-8364.327145,3064.381992
436.108627,-370.102971,-9104.533087,1838.629195
436.108955,-2960.823768,-9104.533087,0.000000
436.109282,-3849.070898,-9548.656652,-1378.971896
436.109610,-2812.782580,-9030.512492,-1991.848295
436.109937,148.041188,-8142.265362,-766.095498
436.110265,3108.864956,-7105.977043,842.705048
436.110593,3997.112087,-6883.915261,2145.067394
436.110920,2886.803174,-7624.121203,1991.848295
436.111248,518.144159,-8364.327145,0.000000
436.111575,-1554.432478,-9474.636058,-1455.581446
436.111903,-1332.370696,-10140.821405,-1608.800546
436.112230,74.020594,-9844.739029,-766.095498
436.112558,2368.659014,-9252.574275,1455.581446
436.112885,3627.009116,-9030.512492,2757.943793
436.113213,2220.617826,-9474.636058,3217.601092
436.113540,0.000000,-10066.800811,1225.752797
436.113868,-2664.741391,-10584.944971,-766.095498
436.114195,-3627.009116,-10732.986159,-1991.848295
436.114523,-2516.700203,-10140.821405,-2068.457845
436.114851,-222.061783,-9326.594869,-919.314598
436.115178,2072.576638,-8438.347739,689.485948
436.115506,2516.700203,-8216.285956,1915.238745
436.115833,740.205942,-8512.368333,766.095498
436.116161,-1258.350101,-9474.636058,76.609550
436.116488,-3627.009116,-10140.821405,-2221.676944
436.116816,-3256.906145,-10066.800811,-1991.848295
436.117143,-962.267725,-9844.739029,-612.876398
436.117471,1406.391290,-8956.491898,1608.800546
436.117798,3108.864956,-8438.347739,3983.696590
436.118126,2146.597232,-9252.574275,3677.258390
436.118453,148.041188,-9548.656652,2451.505594
436.118781,-2146.597232,-10066.800811,383.047749
436.119108,-2812.782580,-10510.924376,-383.047749
436.119436,-1480.411884,-10214.842000,-306.438199
436.119764,888.247130,-9400.615463,995.924147
436.120091,2664.741391,-8364.327145,2757.943793
436.120419,2812.782580,-8660.409521,3370.820191
436.120746,666.185348,-9178.553681,2221.676944
436.121074,-1850.514855,-9770.718434,766.095498
436.121401,-2516.700203,-9474.636058,-612.876398
436.121728,-1924.535449,-10066.800811,-459.657299
436.122056,-370.102971,-9400.615463,383.047749
436.122383,1258.350101,-8512.368333,2374.896044
436.122711,2368.659014,-8290.306550,3753.867940
436.123038,740.205942,-8882.471304,4443.353888
436.123365,-2220.617826,-9326.594869,1685.410096
436.123693,-4367.215058,-9548.656652,-153.219100
436.124020,-4737.318029,-9474.636058,-1532.190996
436.124348,-3775.050304,-8808.450710,-1302.362347
436.124675,-962.267725,-7550.100608,76.609550
436.125002,1184.329507,-6957.935855,1838.629195
436.125330,1406.391290,-6661.853478,1991.848295
436.125657,0.000000,-7179.997637,536.266849
436.125985,-2368.659014,-7920.203579,-1455.581446
436.126312,-3404.947333,-8734.430116,-2604.724693
436.126639,-2664.741391,-8586.388927,-2834.553343
436.126967,-370.102971,-8438.347739,-995.924147
436.127294,2294.638420,-7846.182985,1072.533697
436.127622,3775.050304,-8142.265362,2834.553343
436.127949,2590.720797,-8216.285956,2604.724693
436.128276,518.144159,-9474.636058,1455.581446
436.128604,-2368.659014,-10140.821405,-1072.533697
436.128931,-2442.679609,-10955.047942,-1915.238745
436.129259,-1184.329507,-9770.718434,-1532.190996
436.129586,1554.432478,-8808.450710,153.219100
436.129913,4293.194464,-7550.100608,2298.286494
436.130241,3923.091493,-8142.265362,2221.676944
436.130568,2294.638420,-8512.368333,1072.533697
436.130896,-296.082377,-9030.512492,-459.657299
436.131223,-1480.411884,-9696.697840,-2221.676944
436.131550,-1184.329507,-9400.615463,-1608.800546
436.131878,962.267725,-8882.471304,-536.266849
436.132205,2886.803174,-8512.368333,1838.629195
436.132533,3478.967927,-8586.388927,3294.210641
436.132860,1406.391290,-9400.615463,3140.991542
436.133187,-1554.432478,-9030.512492,1378.971896
436.133515,-3775.050304,-10436.903782,-536.266849
436.133842,-4589.276840,-10955.047942,-1762.019645
436.134170,-3552.988522,-10214.842000,-1378.971896
436.134497,-1110.308913,-8882.471304,76.609550
436.134824,1184.329507,-7994.224174,2145.067394
436.135152,1184.329507,-8290.306550,2451.505594
436.135479,-592.164754,-8734.430116,1149.143247
436.135807,-3108.864956,-9474.636058,-919.314598
436.136134,-4293.194464,-9918.759623,-2374.896044
436.136461,-3256.906145,-9770.718434,-1991.848295
436.136789,-518.144159,-8956.491898,383.047749
436.137116,1776.494261,-8586.388927,2068.457845
436.137444,2812.782580,-8882.471304,3524.039291
436.137771,1332.370696,-9622.677246,3294.210641
436.138098,-1258.350101,-10288.862594,1685.410096
436.138426,-3256.906145,-10658.965565,536.266849
436.138753,-2738.761985,-11029.068536,-536.266849
436.139081,-1036.288319,-10362.883188,0.000000
436.139408,1998.556043,-9030.512492,1608.800546
436.139735,3701.029710,-7994.224174,2911.162892
436.140063,3330.926739,-8068.244768,4060.306139
436.140390,1702.473667,-8956.491898,1991.848295
436.140718,-814.226536,-9400.615463,76.609550
436.141045,-1110.308913,-9622.677246,-612.876398
436.141372,0.000000,-9770.718434,-229.828649
436.141700,1406.391290,-9326.594869,1378.971896
436.142027,2960.823768,-9252.574275,3140.991542
436.142355,2220.617826,-9252.574275,4060.306139
436.142682,0.000000,-9696.697840,3447.429741
436.143009,-2960.823768,-10288.862594,1149.143247
436.143337,-5107.421000,-10288.862594,-612.876398
436.143664,-4367.215058,-10140.821405,-1455.581446
436.143992,-3108.864956,-8660.409521,-842.705048
436.144319,-740.205942,-7402.059420,842.705048
436.144646,370.102971,-6735.874072,1608.800546
436.144974,-296.082377,-6809.894666,1225.752797
436.145301,-2516.700203,-7105.977043,-536.266849
436.145629,-4663.297435,-7772.162391,-2604.724693
436.145956,-4737.318029,-8512.368333,-3524.039291
436.146284,-2960.823768,-8364.327145,-2451.505594
436.146611,0.000000,-8068.244768,-306.438199
436.146938,2664.741391,-7550.100608,2068.457845
436.147266,3108.864956,-8290.306550,2757.943793
436.147593,1110.308913,-9326.594869,1608.800546
436.147921,-1406.391290,-10214.842000,0.000000
436.148248,-2886.803174,-10658.965565,-1915.238745
436.148575,-1998.556043,-10140.821405,-1915.238745
436.148903,1332.370696,-8956.491898,-842.705048
436.149230,4663.297435,-7994.224174,842.705048
436.149558,6069.688724,-7476.080014,2528.115143
436.149885,5107.421000,-7772.162391,2757.943793
436.150212,3256.906145,-8586.388927,1225.752797
436.150540,962.267725,-8956.491898,-1149.143247
436.150867,0.000000,-9548.656652,-1149.143247
436.151195,1480.411884,-9474.636058,-383.047749
436.151522,2960.823768,-9326.594869,1762.019645
436.151849,4071.132681,-9104.533087,3447.429741
436.152177,2738.761985,-8808.450710,3830.477490
436.152504,296.082377,-9548.656652,3064.381992
436.152832,-2812.782580,-9770.718434,536.266849
436.153159,-5107.421000,-10214.842000,-1225.752797
436.153486,-4959.379811,-9844.739029,-1532.190996
436.153814,-3108.864956,-8882.471304,-919.314598
436.154141,-1406.391290,-7550.100608,612.876398
436.154469,-222.061783,-7179.997637,1532.190996
436.154796,-1258.350101,-7698.141797,1532.190996
436.155123,-3552.988522,-8142.265362,-153.219100
436.155451,-5181.441594,-8808.450710,-1608.800546
436.155778,-5847.626942,-9770.718434,-2374.896044
436.156106,-4293.194464,-9474.636058,-1378.971896
436.156433,-1258.350101,-8956.491898,306.438199
436.156760,1110.308913,-8586.388927,2298.286494
436.157088,1184.329507,-8882.471304,3064.381992
436.157415,-1036.288319,-9696.697840,2374.896044
436.157743,-3034.844362,-10510.924376,0.000000
436.158070,-4071.132681,-10807.006753,-1532.190996
436.158397,-2294.638420,-9992.780217,-1378.971896
436.158725,962.267725,-9178.553681,153.219100
436.159052,4515.256246,-7846.182985,1685.410096
436.159380,5921.647536,-7402.059420,3294.210641
436.159707,5033.400406,-8068.244768,3370.820191
436.160034,2886.803174,-9104.533087,1838.629195
436.160362,1184.329507,-9844.739029,229.828649
436.160689,0.000000,-10658.965565,-766.095498
436.161017,2368.659014,-10955.047942,1149.143247
436.161344,3182.885551,-9474.636058,2374.896044
436.161671,3627.009116,-9770.718434,4596.572988
436.161999,814.226536,-9548.656652,3140.991542
436.162326,-74.020594,-11251.130318,2757.943793
436.162654,-2442.679609,-11029.068536,153.219100
436.162981,-5329.482782,-9696.697840,-2221.676944
436.163308,-4293.194464,-10436.903782,-2145.067394
436.163636,-3701.029710,-9178.553681,-1608.800546
436.163963,1332.370696,-7328.038826,1608.800546
436.164291,-592.164754,-7846.182985,229.828649
436.164618,-740.205942,-8290.306550,842.705048
436.164945,-5107.421000,-8216.285956,-2145.067394
436.165273,-4145.153275,-9474.636058,-2298.286494
436.165600,-4811.338623,-9178.553681,-3140.991542
436.165928,-2368.659014,-9030.512492,-1072.533697
436.166255,-370.102971,-8660.409521,536.266849
436.166582,2294.638420,-8808.450710,2374.896044
436.166910,888.247130,-8660.409521,2451.505594
436.167237,592.164754,-10288.862594,1532.190996
436.167565,-1998.556043,-10214.842000,-842.705048
436.167892,-1480.411884,-11325.150913,-1378.971896
436.168219,-370.102971,-10362.883188,-1149.143247
436.168547,2516.700203,-9178.553681,306.438199
436.168874,4885.359217,-8364.327145,2451.505594
436.169202,5181.441594,-8512.368333,3064.381992
436.169529,3404.947333,-8660.409521,2145.067394
436.169856,888.247130,-9400.615463,-306.438199
436.170184,-222.061783,-9918.759623,-612.876398
436.170511,740.205942,-9992.780217,-919.314598
436.170839,1554.432478,-10362.883188,459.657299
436.171166,2886.803174,-8660.409521,2681.334243
436.171493,3256.906145,-9178.553681,3753.867940
436.171821,1036.288319,-9400.615463,3830.477490
436.172148,-2146.597232,-9474.636058,1608.800546
436.172476,-3552.988522,-9178.553681,0.000000
436.172803,-4589.276840,-9178.553681,-842.705048
436.173130,-3552.988522,-8364.327145,-842.705048
436.173458,-1110.308913,-7624.121203,383.047749
436.173785,0.000000,-7031.956449,1762.019645
436.174113,296.082377,-6957.935855,1991.848295
436.174440,-2072.576638,-7624.121203,1302.362347
436.174767,-4515.256246,-7920.203579,-766.095498
436.175095,-5403.503377,-9030.512492,-2604.724693
436.175422,-4737.318029,-9474.636058,-2374.896044
436.175750,-2368.659014,-8956.491898,-842.705048
436.176077,444.123565,-8364.327145,1302.362347
436.176404,1776.494261,-8512.368333,2834.553343
436.176732,740.205942,-9104.533087,2068.457845
436.177059,-1406.391290,-9622.677246,612.876398
436.177387,-2960.823768,-10066.800811,-1225.752797
436.177714,-2886.803174,-10288.862594,-2068.457845
436.178041,-814.226536,-9696.697840,-1302.362347
436.178369,2590.720797,-8216.285956,459.657299
436.178696,5329.482782,-7698.141797,2451.505594
436.179024,5477.523971,-7624.121203,2604.724693
436.179351,3997.112087,-8586.388927,1685.410096
436.179678,1110.308913,-9030.512492,76.609550
436.180006,-222.061783,-10066.800811,-1149.143247
436.180333,1776.494261,-9770.718434,-306.438199
436.180661,3256.906145,-9548.656652,689.485948
436.180988,4367.215058,-9030.512492,3294.210641
436.181316,4589.276840,-9474.636058,3753.867940
436.181643,2368.659014,-9474.636058,3830.477490
436.181970,-1332.370696,-9992.780217,1608.800546
436.182298,-2738.761985,-10140.821405,-306.438199
436.182625,-3923.091493,-10510.924376,-1225.752797
436.182953,-2960.823768,-9622.677246,-995.924147
436.183280,-1258.350101,-8290.306550,995.924147
436.183607,0.000000,-7772.162391,2145.067394
436.183935,-814.226536,-7328.038826,1991.848295
436.184262,-2812.782580,-8068.244768,306.438199
436.184590,-5107.421000,-8586.388927,-1608.800546
436.184917,-5921.647536,-8734.430116,-2528.115143
436.185244,-5181.441594,-9030.512492,-2374.896044
436.185572,-2664.741391,-8290.306550,-689.485948
436.185899,0.000000,-7772.162391,1302.362347
436.186227,666.185348,-8216.285956,2451.505594
436.186554,-370.102971,-8512.368333,2451.505594
436.186881,-2442.679609,-9770.718434,229.828649
436.187209,-4071.132681,-10214.842000,-1608.800546
436.187536,-3627.009116,-10436.903782,-2221.676944
436.187864,-962.267725,-9474.636058,-1302.362347
436.188191,2590.720797,-8512.368333,842.705048
436.188518,5699.585753,-8068.244768,2451.505594
436.188846,5033.400406,-8364.327145,2604.724693
436.189173,2886.803174,-8808.450710,1072.533697
436.189501,1258.350101,-9844.739029,-229.828649
436.189828,592.164754,-9844.739029,-1762.019645
436.190155,592.164754,-9696.697840,-229.828649
436.190483,3997.112087,-9770.718434,1072.533697
436.190810,5255.462188,-9326.594869,3447.429741
436.191138,3997.112087,-9252.574275,4519.963438
436.191465,2220.617826,-9844.739029,3600.648841
436.191792,-740.205942,-9918.759623,1685.410096
436.192120,-3034.844362,-10510.924376,-536.266849
436.192447,-2664.741391,-10066.800811,-995.924147
436.192775,-2220.617826,-9178.553681,0.000000
436.193102,0.000000,-7846.182985,1302.362347
436.193429,1110.308913,-7254.018232,2451.505594
436.193757,-370.102971,-7254.018232,1991.848295
436.194084,-2516.700203,-7920.203579,76.609550
436.194412,-5033.400406,-8364.327145,-1991.848295
436.194739,-5847.626942,-8882.471304,-3064.381992
436.195066,-4737.318029,-8882.471304,-2068.457845
436.195394,-2146.597232,-8438.347739,-536.266849
436.195721,0.000000,-8290.306550,1455.581446
436.196049,0.000000,-9030.512492,2451.505594
436.196376,-1850.514855,-9770.718434,1455.581446
436.196703,-4219.173869,-10510.924376,-612.876398
436.197031,-4885.359217,-10732.986159,-2145.067394
436.197358,-3775.050304,-10362.883188,-2528.115143
436.197686,-666.185348,-9326.594869,-919.314598
436.198013,3182.885551,-8438.347739,1072.533697
436.198340,5403.503377,-8068.244768,2681.334243
436.198668,5477.523971,-8364.327145,2911.162892
436.198995,2886.803174,-9252.574275,1149.143247
436.199323,1036.288319,-9770.718434,-229.828649
436.199650,962.267725,-9918.759623,-612.876398
436.199977,2368.659014,-9844.739029,153.219100
436.200305,4145.153275,-9474.636058,1762.019645
436.200632,5551.544565,-9326.594869,4290.134789
436.200960,4811.338623,-9474.636058,4903.011187
436.201287,1332.370696,-9918.759623,3294.210641
436.201614,-592.164754,-10510.924376,1685.410096
436.201942,-2294.638420,-10732.986159,-229.828649
436.202269,-2886.803174,-10362.883188,-766.095498
436.202597,-1110.308913,-9326.594869,536.266849
436.202924,74.020594,-8290.306550,1838.629195
436.203251,148.041188,-7772.162391,2604.724693
436.203579,-962.267725,-7846.182985,2068.457845
436.203906,-3404.947333,-8438.347739,-229.828649
436.204234,-5403.503377,-8512.368333,-1838.629195
436.204561,-6291.750507,-8882.471304,-2298.286494
436.204888,-4811.338623,-8438.347739,-1608.800546
436.205216,-2294.638420,-7698.141797,153.219100
436.205543,0.000000,-7846.182985,1838.629195
436.205871,-1110.308913,-7624.121203,2374.896044
436.206198,-2738.761985,-8882.471304,919.314598
436.206525,-4663.297435,-9474.636058,-689.485948
436.206853,-4959.379811,-9622.677246,-2221.676944
436.207180,-3108.864956,-9252.574275,-2451.505594
436.207508,222.061783,-7994.224174,-536.266849
436.207835,3775.050304,-7550.100608,1302.362347
436.208162,5255.462188,-7624.121203,2451.505594
436.208490,4071.132681,-8216.285956,2145.067394
436.208817,2146.597232,-9474.636058,919.314598
436.209145,518.144159,-9548.656652,-536.266849
436.209472,592.164754,-10362.883188,-1072.533697
436.209799,2368.659014,-9992.780217,306.438199
436.210127,5107.421000,-9622.677246,2987.772442
436.210454,5477.523971,-9400.615463,3830.477490
436.210782,4367.215058,-9474.636058,4596.572988
436.211109,1850.514855,-9178.553681,2681.334243
436.211436,-1036.288319,-10362.883188,842.705048
436.211764,-2146.597232,-10066.800811,-766.095498
436.212091,-1776.494261,-9474.636058,-995.924147
436.212419,-962.267725,-8290.306550,383.047749
436.212746,814.226536,-7846.182985,1608.800546
436.213073,370.102971,-7179.997637,2068.457845
436.213401,-1184.329507,-7624.121203,919.314598
436.213728,-3182.885551,-8364.327145,-842.705048
436.214056,-5329.482782,-8660.409521,-2757.943793
436.214383,-5181.441594,-8808.450710,-2145.067394
436.214710,-4145.153275,-8438.347739,-1915.238745
436.215038,-1702.473667,-7920.203579,306.438199
436.215365,0.000000,-8142.265362,1608.800546
436.215693,-1184.329507,-8660.409521,1762.019645
436.216020,-2960.823768,-8808.450710,153.219100
436.216347,-5107.421000,-10214.842000,-1838.629195
436.216675,-5107.421000,-10436.903782,-3140.991542
436.217002,-2886.803174,-9992.780217,-2451.505594
436.217330,888.247130,-9030.512492,-1072.533697
436.217657,4663.297435,-8142.265362,1378.971896
436.217985,5181.441594,-8364.327145,2298.286494
436.218312,3923.091493,-9548.656652,1685.410096
436.218639,1554.432478,-10066.800811,229.828649
436.218967,222.061783,-10955.047942,-1149.143247
436.219294,888.247130,-10955.047942,-689.485948
436.219622,3701.029710,-10584.944971,919.314598
436.219949,5773.606348,-9696.697840,3217.601092
436.220276,5699.585753,-9622.677246,4366.744339
436.220604,4071.132681,-9770.718434,4519.963438
436.220931,1554.432478,-9326.594869,2145.067394
436.221259,-1036.288319,-10510.924376,842.705048
436.221586,-2294.638420,-9918.759623,-766.095498
436.221913,-1184.329507,-9622.677246,-383.047749
436.222241,0.000000,-8512.368333,1225.752797
436.222568,1776.494261,-7624.121203,2604.724693
436.222895,1110.308913,-7698.141797,3983.696590
436.223223,-1406.391290,-8290.306550,1838.629195
436.223550,-4145.153275,-8882.471304,0.000000
436.223878,-6069.688724,-9326.594869,-1608.800546
436.224205,-5477.523971,-9474.636058,-1685.410096
436.224532,-3997.112087,-8734.430116,0.000000
436.224860,-1258.350101,-8216.285956,1685.410096
436.225187,-1036.288319,-8068.244768,2681.334243
436.225514,-2368.659014,-8586.388927,2221.676944
436.225842,-4145.153275,-9252.574275,306.438199
436.226169,-5477.523971,-9326.594869,-1149.143247
436.226497,-5329.482782,-9326.594869,-2298.286494
436.226824,-3034.844362,-8882.471304,-1762.019645
436.227151,666.185348,-7550.100608,76.609550
436.227479,3627.009116,-7402.059420,1762.019645
436.227806,3997.112087,-7698.141797,2451.505594
436.228133,2738.761985,-8586.388927,2298.286494
436.228461,1036.288319,-9474.636058,306.438199
436.228788,518.144159,-9992.780217,-536.266849
436.229115,1554.432478,-10436.903782,-536.266849
436.229443,3478.967927,-9918.759623,1225.752797
436.229770,5329.482782,-9622.677246,3753.867940
436.230098,5921.647536,-9770.718434,5132.839837
436.230425,4145.153275,-9474.636058,3753.867940
436.230752,370.102971,-9844.739029,2374.896044
436.231080,-444.123565,-10288.862594,0.000000
436.231407,-1628.453072,-10214.842000,-459.657299
436.231734,-1184.329507,-9178.553681,-536.266849
436.232062,1036.288319,-8068.244768,612.876398
436.232389,1480.411884,-7772.162391,2145.067394
436.232716,222.061783,-7624.121203,1838.629195
436.233044,-1702.473667,-8512.368333,766.095498
436.233371,-4737.318029,-8512.368333,-1532.190996
436.233699,-5625.565159,-8956.491898,-2681.334243
436.234026,-5403.503377,-9326.594869,-2221.676944
436.234353,-3923.091493,-8290.306550,-842.705048
436.234681,-1184.329507,-7698.141797,842.705048
436.235008,-888.247130,-7402.059420,1838.629195
436.235335,-2886.803174,-8216.285956,612.876398
436.235663,-4441.235652,-8956.491898,-1302.362347
436.235990,-5625.565159,-9770.718434,-2987.772442
436.236318,-4885.359217,-9696.697840,-3217.601092
436.236645,-1628.453072,-9178.553681,-2528.115143
436.236972,2072.576638,-8438.347739,-536.266849
436.237300,4589.276840,-8438.347739,1685.410096
436.237627,4441.235652,-8808.450710,2068.457845
436.237954,3034.844362,-9474.636058,919.314598
436.238282,1184.329507,-10288.862594,-766.095498
436.238609,518.144159,-10881.027347,-1455.581446
436.238936,1998.556043,-10955.047942,-689.485948
436.239264,4441.235652,-10066.800811,1302.362347
436.239591,6069.688724,-9548.656652,3217.601092
436.239919,6291.750507,-10140.821405,4673.182538
436.240246,4145.153275,-9770.718434,3677.258390
436.240573,0.000000,-10362.883188,1915.238745
436.240901,-1036.288319,-10436.903782,-612.876398
436.241228,-1554.432478,-10066.800811,-612.876398
436.241555,-740.205942,-9696.697840,76.609550
436.241883,666.185348,-8512.368333,1838.629195
436.242210,1258.350101,-8216.285956,3217.601092
436.242538,-296.082377,-8142.265362,2681.334243
436.242865,-2368.659014,-8660.409521,919.314598
436.243192,-4811.338623,-9104.533087,-842.705048
436.243520,-5477.523971,-9474.636058,-1608.800546
436.243847,-4219.173869,-9326.594869,-919.314598
436.244174,-2664.741391,-8364.327145,229.828649
436.244502,-888.247130,-8068.244768,2298.286494
436.244829,-1480.411884,-8660.409521,2757.943793
436.245156,-3627.009116,-9104.533087,1685.410096
436.245484,-5403.503377,-9252.574275,-459.657299
436.245811,-6291.750507,-10140.821405,-2221.676944
436.246139,-4737.318029,-9918.759623,-2221.676944
436.246466,-1554.432478,-9104.533087,-459.657299
436.246793,2442.679609,-7994.224174,1455.581446
436.247121,4515.256246,-8068.244768,2298.286494
436.247448,3478.967927,-8660.409521,1991.848295
436.247775,1406.391290,-9326.594869,612.876398
436.248103,0.000000,-9992.780217,-995.924147
436.248430,370.102971,-10140.821405,-1225.752797
436.248758,2886.803174,-9400.615463,0.000000
436.249085,4811.338623,-9030.512492,1838.629195
436.249412,6365.771101,-8882.471304,4443.353888
436.249740,5995.668130,-9400.615463,5132.839837
436.250067,3182.885551,-9252.574275,3140.991542
436.250394,-444.123565,-9474.636058,1991.848295
436.250722,-814.226536,-9992.780217,0.000000
436.251049,-1702.473667,-10140.821405,-229.828649
436.251376,-370.102971,-9030.512492,766.095498
436.251704,1406.391290,-7846.182985,1838.629195
436.252031,1184.329507,-7920.203579,3677.258390
436.252359,-444.123565,-7846.182985,1838.629195
436.252686,-2738.761985,-8068.244768,76.609550
436.253013,-4663.297435,-8956.491898,-1455.581446
436.253341,-4811.338623,-8734.430116,-2221.676944
436.253668,-3923.091493,-8216.285956,-1378.971896
436.253995,-1628.453072,-7476.080014,459.657299
436.254323,-666.185348,-7031.956449,1991.848295
436.254650,-1554.432478,-7624.121203,2681.334243
436.254978,-3997.112087,-8068.244768,689.485948
436.255305,-5477.523971,-9104.533087,-1149.143247
436.255632,-5699.585753,-9696.697840,-2298.286494
436.255960,-4737.318029,-8660.409521,-2221.676944
436.256287,-1628.453072,-8142.265362,-842.705048
436.256614,2072.576638,-7328.038826,842.705048
436.256942,3478.967927,-7624.121203,2068.457845
436.257269,3034.844362,-8142.265362,1225.752797
436.257596,592.164754,-9326.594869,0.000000
436.257924,-666.185348,-10140.821405,-1838.629195
436.258251,0.000000,-10510.924376,-2221.676944
436.258579,2072.576638,-9992.780217,-919.314598
436.258906,5181.441594,-9326.594869,1991.848295
436.259233,6957.935855,-9474.636058,3064.381992
436.259561,5551.544565,-9474.636058,3524.039291
436.259888,1702.473667,-9992.780217,1915.238745
436.260215,370.102971,-11103.089130,76.609550
436.260543,-1110.308913,-10658.965565,-842.705048
436.260870,-1480.411884,-9622.677246,-1225.752797
436.261197,1332.370696,-9548.656652,153.219100
436.261525,2960.823768,-8216.285956,1991.848295
436.261852,2442.679609,-8586.388927,2911.162892
436.262180,1332.370696,-8734.430116,1915.238745
436.262507,-1480.411884,-9252.574275,153.219100
436.262834,-2886.803174,-9622.677246,-1608.800546
436.263162,-2960.823768,-9474.636058,-1991.848295
436.263489,-2590.720797,-9548.656652,-612.876398
436.263816,-222.061783,-8956.491898,1225.752797
436.264144,0.000000,-8956.491898,2834.553343
436.264471,-1702.473667,-9178.553681,2298.286494
436.264799,-4367.215058,-9696.697840,383.047749
436.265126,-6291.750507,-10214.842000,-1762.019645
436.265453,-6809.894666,-9844.739029,-3064.381992
436.265781,-4367.215058,-8956.491898,-2451.505594
436.266108,-888.247130,-7994.224174,-536.266849
436.266435,1924.535449,-7254.018232,1455.581446
436.266763,2590.720797,-7698.141797,2374.896044
436.267090,1406.391290,-8512.368333,1685.410096
436.267417,-592.164754,-9400.615463,76.609550
436.267745,-1554.432478,-9844.739029,-1149.143247
436.268072,-296.082377,-9696.697840,-459.657299
436.268400,2220.617826,-9104.533087,995.924147
436.268727,5255.462188,-8956.491898,3600.648841
436.269054,5625.565159,-9178.553681,4979.620737
436.269382,2738.761985,-9326.594869,5209.449386
436.269709,888.247130,-9918.759623,3524.039291
436.270036,-1332.370696,-9918.759623,459.657299
436.270364,-2960.823768,-9770.718434,-306.438199
436.270691,-518.144159,-9104.533087,-153.219100
436.271019,1406.391290,-8586.388927,1762.019645
436.271346,2146.597232,-8068.244768,2911.162892
436.271673,1702.473667,-7550.100608,2987.772442
436.272001,-518.144159,-8364.327145,2068.457845
436.272328,-2886.803174,-9030.512492,-229.828649
436.272655,-4367.215058,-9326.594869,-842.705048
436.272983,-3923.091493,-9030.512492,-1608.800546
436.273310,-2368.659014,-8808.450710,-229.828649
436.273637,-148.041188,-7994.224174,1608.800546
436.273965,-444.123565,-7698.141797,2681.334243
436.274292,-1628.453072,-8068.244768,2374.896044
436.274620,-3330.926739,-8512.368333,383.047749
436.274947,-5033.400406,-8734.430116,-1608.800546
436.275274,-5033.400406,-9178.553681,-2528.115143
436.275602,-2812.782580,-8734.430116,-1685.410096
436.275929,0.000000,-7994.224174,0.000000
436.276256,2812.782580,-7846.182985,1149.143247
436.276584,2516.700203,-8216.285956,1532.190996
436.276911,888.247130,-9178.553681,536.266849
436.277239,-888.247130,-10362.883188,-1149.143247
436.277566,-1258.350101,-11029.068536,-2298.286494
436.277893,444.123565,-10658.965565,-1608.800546
436.278221,2738.761985,-9918.759623,383.047749
436.278548,4959.379811,-9548.656652,2145.067394
436.278875,5255.462188,-9696.697840,3600.648841
436.279203,3849.070898,-9844.739029,2757.943793
436.279530,296.082377,-10436.903782,1378.971896
436.279857,-518.144159,-10362.883188,-306.438199
436.280185,-1406.391290,-10955.047942,-1378.971896
436.280512,-592.164754,-9770.718434,-766.095498
436.280840,2368.659014,-9030.512492,1302.362347
436.281167,3478.967927,-7920.203579,2298.286494
436.281494,2442.679609,-8068.244768,2451.505594
436.281822,592.164754,-8734.430116,1378.971896
436.282149,-2294.638420,-9252.574275,-306.438199
436.282476,-3330.926739,-9548.656652,-1838.629195
436.282804,-2812.782580,-9474.636058,-1532.190996
436.283131,-1628.453072,-8882.471304,229.828649
436.283459,518.144159,-8142.265362,2298.286494
436.283786,0.000000,-8438.347739,2834.553343
436.284113,-2072.576638,-8956.491898,2145.067394
436.284441,-3923.091493,-9474.636058,76.609550
436.284768,-6217.729913,-9622.677246,-1915.238745
436.285095,-5847.626942,-9622.677246,-2068.457845
436.285423,-3034.844362,-8660.409521,-1302.362347
436.285750,-518.144159,-7624.121203,306.438199
436.286077,1850.514855,-7698.141797,2298.286494
436.286405,1036.288319,-7994.224174,1532.190996
436.286732,-296.082377,-8734.430116,459.657299
436.287060,-2072.576638,-9400.615463,-1072.533697
436.287387,-1776.494261,-9696.697840,-1991.848295
436.287714,0.000000,-9178.553681,-1225.752797
436.288042,3182.885551,-8586.388927,1072.533697
436.288369,5255.462188,-8364.327145,3677.258390
436.288696,4737.318029,-8586.388927,4213.525239
436.289024,2738.761985,-8956.491898,3524.039291
436.289351,888.247130,-9474.636058,1608.800546
436.289678,-1850.514855,-10140.821405,-383.047749
436.290006,-1480.411884,-9844.739029,-766.095498
436.290333,74.020594,-8808.450710,306.438199
436.290661,1998.556043,-8586.388927,1991.848295
436.290988,3182.885551,-8142.265362,2834.553343
436.291315,1998.556043,-8438.347739,2604.724693
436.291643,-444.123565,-9326.594869,1455.581446
436.291970,-2368.659014,-9622.677246,-612.876398
436.292297,-3404.947333,-9844.739029,-1915.238745
436.292625,-2886.803174,-9844.739029,-1455.581446
436.292952,-666.185348,-8512.368333,229.828649
436.293280,814.226536,-8216.285956,2451.505594
436.293607,444.123565,-7994.224174,2911.162892
436.293934,-2072.576638,-9030.512492,1455.581446
436.294262,-4367.215058,-9548.656652,-383.047749
436.294589,-5403.503377,-9474.636058,-1991.848295
436.294916,-4145.153275,-9770.718434,-2221.676944
436.295244,-1776.494261,-8586.388927,-536.266849
436.295571,1258.350101,-8216.285956,766.095498
436.295898,2220.617826,-8068.244768,2374.896044
436.296226,1628.453072,-8586.388927,1838.629195
436.296553,-444.123565,-9400.615463,0.000000
436.296881,-1480.411884,-9400.615463,-1532.190996
436.297208,-666.185348,-10510.924376,-1378.971896
436.297535,666.185348,-9918.759623,-842.705048
436.297863,3552.988522,-9326.594869,1378.971896
436.298190,5107.421000,-9326.594869,3370.820191
436.298517,3923.091493,-9770.718434,3370.820191
436.298845,962.267725,-9918.759623,1991.848295
436.299172,-1406.391290,-10584.944971,842.705048
436.299500,-2146.597232,-10510.924376,-1608.800546
436.299827,-2220.617826,-10658.965565,-1378.971896
436.300154,0.000000,-8956.491898,-229.828649
436.300482,2294.638420,-7920.203579,2451.505594
436.300809,2368.659014,-7846.182985,2834.553343
436.301136,962.267725,-7624.121203,2145.067394
436.301464,-814.226536,-8142.265362,842.705048
436.301791,-3256.906145,-8586.388927,-1225.752797
436.302118,-3627.009116,-9104.533087,-1302.362347
436.302446,-1924.535449,-8660.409521,-842.705048
436.302773,0.000000,-8068.244768,995.924147
436.303101,888.247130,-8068.244768,2911.162892
436.303428,222.061783,-8216.285956,2987.772442
436.303755,-2368.659014,-8290.306550,1685.410096
436.304083,-3997.112087,-9696.697840,-383.047749
436.304410,-4811.338623,-9770.718434,-1915.238745
436.304737,-3552.988522,-9178.553681,-1608.800546
436.305065,-666.185348,-8290.306550,229.828649
436.305392,2220.617826,-7476.080014,2451.505594
436.305720,2886.803174,-8216.285956,3217.601092
436.306047,1184.329507,-8512.368333,1915.238745
436.306374,-666.185348,-9400.615463,536.266849
436.306702,-2146.597232,-9770.718434,-995.924147
436.307029,-1628.453072,-9918.759623,-995.924147
436.307356,592.164754,-8956.491898,383.047749
436.307684,2960.823768,-8438.347739,2145.067394
436.308011,4293.194464,-8512.368333,3677.258390
436.308338,2516.700203,-8882.471304,3140.991542
436.308666,0.000000,-9252.574275,1991.848295
436.308993,-2294.638420,-9548.656652,-229.828649
436.309321,-3108.864956,-10066.800811,-1532.190996
436.309648,-2516.700203,-9400.615463,-1762.019645
436.309975,296.082377,-8364.327145,0.000000
436.310303,2368.659014,-7846.182985,1608.800546
436.310630,2220.617826,-7179.997637,2298.286494
436.310957,1110.308913,-8068.244768,1378.971896
436.311285,-1406.391290,-9104.533087,-306.438199
436.311612,-3108.864956,-10066.800811,-2221.676944
436.311940,-3182.885551,-10066.800811,-2374.896044
436.312267,-1850.514855,-9474.636058,-1378.971896
436.312594,1036.288319,-8660.409521,612.876398
436.312922,1998.556043,-8808.450710,2451.505594
436.313249,1036.288319,-9178.553681,2221.676944
436.313576,-1480.411884,-9622.677246,766.095498
436.313904,-3404.947333,-10140.821405,-1608.800546
436.314231,-3701.029710,-10066.800811,-2681.334243
436.314558,-2072.576638,-9548.656652,-2068.457845
436.314886,888.247130,-8512.368333,-459.657299
436.315213,3404.947333,-8142.265362,1302.362347
436.315541,3330.926739,-8734.430116,2221.676944
436.315868,1406.391290,-8956.491898,842.705048
436.316195,-1110.308913,-9770.718434,-383.047749
436.316523,-2146.597232,-10658.965565,-1991.848295
436.316850,-1554.432478,-11029.068536,-1838.629195
436.317177,518.144159,-9918.759623,-306.438199
436.317505,2738.761985,-9178.553681,2068.457845
436.317832,3627.009116,-9474.636058,3140.991542
436.318159,1850.514855,-9548.656652,2681.334243
436.318487,-1258.350101,-10140.821405,995.924147
436.318814,-2812.782580,-10584.944971,-1149.143247
436.319142,-3404.947333,-10214.842000,-1838.629195
436.319469,-1628.453072,-9622.677246,-1072.533697
436.319796,740.205942,-8438.347739,229.828649
436.320124,2664.741391,-8290.306550,2451.505594
436.320451,2738.761985,-8438.347739,2911.162892
436.320778,1110.308913,-8808.450710,1685.410096
436.321106,-1480.411884,-9326.594869,0.000000
436.321433,-2516.700203,-10362.883188,-1225.752797
436.321761,-2664.741391,-10288.862594,-766.095498
436.322088,-296.082377,-9844.739029,689.485948
436.322415,1628.453072,-8956.491898,2681.334243
436.322743,2220.617826,-8586.388927,4136.915689
436.323070,296.082377,-8956.491898,3294.210641
436.323397,-1924.535449,-9696.697840,1838.629195
436.323725,-3330.926739,-9474.636058,0.000000
436.324052,-2886.803174,-9548.656652,-766.095498
436.324380,-1258.350101,-8882.471304,0.000000
436.324707,1036.288319,-7994.224174,1991.848295
436.325034,2220.617826,-7994.224174,2681.334243
436.325362,888.247130,-7920.203579,3064.381992
436.325689,-740.205942,-8512.368333,1608.800546
436.326016,-2368.659014,-8956.491898,383.047749
436.326344,-2442.679609,-9178.553681,-612.876398
436.326671,-1628.453072,-9252.574275,-689.485948
436.326999,370.102971,-8512.368333,1225.752797
436.327326,1998.556043,-8364.327145,2604.724693
436.327653,1258.350101,-8808.450710,3600.648841
436.327981,-592.164754,-8956.491898,2221.676944
436.328308,-3034.844362,-9104.533087,229.828649
436.328635,-4515.256246,-9400.615463,-1532.190996
436.328963,-3552.988522,-9474.636058,-1915.238745
436.329290,-1554.432478,-8290.306550,-1302.362347
436.329618,1480.411884,-6957.935855,306.438199
436.329945,2886.803174,-6957.935855,2145.067394
436.330272,2072.576638,-7328.038826,1532.190996
436.330600,0.000000,-8660.409521,229.828649
436.330927,-1998.556043,-9252.574275,-1915.238745
436.331254,-2146.597232,-9918.759623,-2604.724693
436.331582,-1332.370696,-9474.636058,-1378.971896
436.331909,888.247130,-8882.471304,306.438199
436.332237,2812.782580,-8734.430116,2451.505594
436.332564,2664.741391,-8808.450710,3217.601092
436.332891,1110.308913,-9326.594869,2298.286494
436.333219,-1480.411884,-9400.615463,383.047749
436.333546,-2442.679609,-10214.842000,-1532.190996
436.333873,-2220.617826,-9992.780217,-2068.457845
436.334201,-370.102971,-8956.491898,-1072.533697
436.334528,2368.659014,-8068.244768,689.485948
436.334856,3182.885551,-7772.162391,2604.724693
436.335183,2220.617826,-8586.388927,1762.019645
436.335510,-148.041188,-9104.533087,153.219100
436.335838,-2368.659014,-9770.718434,-1838.629195
436.336165,-2738.761985,-10362.883188,-2528.115143
436.336492,-1184.329507,-9474.636058,-1532.190996
436.336820,666.185348,-8956.491898,229.828649
436.337147,2442.679609,-9104.533087,2528.115143
436.337475,1702.473667,-9252.574275,3064.381992
436.337802,0.000000,-9696.697840,2068.457845
436.338129,-2368.659014,-10362.883188,-306.438199
436.338457,-3997.112087,-10362.883188,-1302.362347
436.338784,-3182.885551,-10066.800811,-1838.629195
436.339112,-1258.350101,-9104.533087,-919.314598
436.339439,1998.556043,-8142.265362,1225.752797
436.339766,2590.720797,-8068.244768,2604.724693
436.340094,2146.597232,-8364.327145,2451.505594
436.340421,-222.061783,-9326.594869,536.266849
436.340748,-2516.700203,-9622.677246,-1378.971896
436.341076,-2738.761985,-10362.883188,-1991.848295
436.341403,-1332.370696,-9844.739029,-842.705048
436.341731,1110.308913,-9178.553681,1608.800546
436.342058,2738.761985,-9252.574275,3370.820191
436.342385,2220.617826,-9252.574275,4060.306139
436.342713,370.102971,-9844.739029,2681.334243
436.343040,-2220.617826,-9844.739029,306.438199
436.343367,-2886.803174,-9696.697840,-842.705048
436.343695,-1998.556043,-9474.636058,-1072.533697
436.344022,-592.164754,-8512.368333,229.828649
436.344350,1702.473667,-7550.100608,2068.457845
436.344677,2294.638420,-7550.100608,2987.772442
436.345004,666.185348,-7846.182985,2145.067394
436.345332,-1184.329507,-8290.306550,689.485948
436.345659,-2960.823768,-8734.430116,-919.314598
436.345986,-2590.720797,-9030.512492,-1532.190996
436.346314,-888.247130,-8882.471304,0.000000
436.346641,1258.350101,-7994.224174,1685.410096
436.346969,1850.514855,-8290.306550,3753.867940
436.347296,1480.411884,-8512.368333,3600.648841
436.347623,-1036.288319,-9104.533087,2221.676944
436.347951,-3108.864956,-9252.574275,0.000000
436.348278,-3923.091493,-9548.656652,-1532.190996
436.348605,-3256.906145,-9326.594869,-1455.581446
436.348933,-814.226536,-8586.388927,76.609550
436.349260,1554.432478,-7920.203579,1685.410096
436.349588,2294.638420,-7846.182985,2834.553343
436.349915,888.247130,-8142.265362,1532.190996
436.350242,-962.267725,-8734.430116,536.266849
436.350570,-2590.720797,-9770.718434,-1915.238745
436.350897,-2664.741391,-9918.759623,-2221.676944
436.351224,-666.185348,-9474.636058,-995.924147
436.351552,1924.535449,-9030.512492,1072.533697
436.351879,2886.803174,-8586.388927,3064.381992
436.352207,2590.720797,-9326.594869,2757.943793
436.352534,444.123565,-9548.656652,1149.143247
436.352861,-2072.576638,-10066.800811,-536.266849
436.353189,-2516.700203,-10362.883188,-2068.457845
436.353516,-1924.535449,-9992.780217,-1838.629195
436.353844,296.082377,-8438.347739,229.828649
436.354171,2960.823768,-8586.388927,1608.800546
436.354498,3108.864956,-8660.409521,2374.896044
436.354826,1406.391290,-8808.450710,1608.800546
436.355153,-370.102971,-9474.636058,-153.219100
436.355480,-1776.494261,-10066.800811,-1149.143247
436.355808,-1628.453072,-9844.739029,-1685.410096
436.356135,370.102971,-9548.656652,-229.828649
436.356463,2442.679609,-9104.533087,1915.238745
436.356790,3034.844362,-9400.615463,3600.648841
436.357117,1258.350101,-9474.636058,3600.648841
436.357445,-1184.329507,-10288.862594,2221.676944
436.357772,-3627.009116,-10732.986159,-383.047749
436.358099,-4515.256246,-10881.027347,-1685.410096
436.358427,-3478.967927,-10140.821405,-1072.533697
436.358754,-814.226536,-8734.430116,383.047749
436.359082,1702.473667,-7920.203579,2374.896044
436.359409,1480.411884,-7550.100608,2451.505594
436.359736,148.041188,-8068.244768,1455.581446
436.360064,-2368.659014,-8956.491898,-536.266849
436.360391,-3552.988522,-9622.677246,-2068.457845
436.360718,-3034.844362,-9326.594869,-1991.848295
436.361046,-1628.453072,-8586.388927,-1149.143247
436.361373,1332.370696,-8364.327145,1302.362347
436.361701,1998.556043,-8660.409521,2911.162892
436.362028,888.247130,-8660.409521,2604.724693
436.362355,-370.102971,-8734.430116,842.705048
436.362683,-2664.741391,-9696.697840,-842.705048
436.363010,-2812.782580,-9474.636058,-2145.067394
436.363337,-1110.308913,-9252.574275,-1608.800546
436.363665,1332.370696,-7994.224174,383.047749
436.363992,3849.070898,-7698.141797,2451.505594
436.364320,3701.029710,-7994.224174,2604.724693
436.364647,1628.453072,-8512.368333,1455.581446
436.364974,-296.082377,-9474.636058,76.609550
436.365302,-962.267725,-9918.759623,-1225.752797
436.365629,-666.185348,-9696.697840,-766.095498
436.365957,1924.535449,-9474.636058,612.876398
436.366284,3108.864956,-9030.512492,2911.162892
436.366611,2590.720797,-9400.615463,3907.087040
436.366939,666.185348,-9474.636058,3294.210641
436.367266,-2072.576638,-10066.800811,1072.533697
436.367593,-3256.906145,-10214.842000,-383.047749
436.367921,-3627.009116,-10214.842000,-1608.800546
436.368248,-2294.638420,-9252.574275,-919.314598
436.368576,74.020594,-8142.265362,842.705048
436.368903,1480.411884,-7772.162391,2298.286494
436.369230,1332.370696,-7920.203579,1762.019645
436.369558,-1332.370696,-7994.224174,1378.971896
436.369885,-3034.844362,-8956.491898,-536.266849
436.370212,-3997.112087,-9622.677246,-1991.848295
436.370540,-3182.885551,-9696.697840,-1608.800546
436.370867,-888.247130,-8808.450710,229.828649
436.371195,1480.411884,-8512.368333,2451.505594
436.371522,1702.473667,-9104.533087,3140.991542
436.371849,370.102971,-9548.656652,2528.115143
436.372177,-1406.391290,-9992.780217,689.485948
436.372504,-2886.803174,-10288.862594,-1225.752797
436.372831,-1850.514855,-9992.780217,-1302.362347
436.373159,-148.041188,-9252.574275,-689.485948
436.373486,2590.720797,-8512.368333,1225.752797
436.373814,3552.988522,-8438.347739,2681.334243
436.374141,3182.885551,-8808.450710,2604.724693
436.374468,1406.391290,-9548.656652,995.924147
436.374796,-814.226536,-10288.862594,0.000000
436.375123,-1036.288319,-10658.965565,-1072.533697
436.375450,-222.061783,-10510.924376,-536.266849
436.375778,1998.556043,-9474.636058,1302.362347
436.376105,3034.844362,-9252.574275,3447.429741
436.376433,2220.617826,-9400.615463,3677.258390
436.376760,-222.061783,-9400.615463,2374.896044
436.377087,-2442.679609,-9548.656652,459.657299
436.377415,-4145.153275,-9474.636058,-1378.971896
436.377742,-3627.009116,-9474.636058,-1685.410096
436.378069,-1628.453072,-7920.203579,-995.924147
436.378397,592.164754,-7105.977043,536.266849
436.378724,1480.411884,-7179.997637,2068.457845
436.379052,740.205942,-7476.080014,1838.629195
436.379379,-1776.494261,-7994.224174,153.219100
436.379706,-3627.009116,-8808.450710,-1378.971896
436.380034,-4737.318029,-9474.636058,-2911.162892
436.380361,-3256.906145,-9548.656652,-1991.848295
436.380689,-592.164754,-8882.471304,0.000000
436.381016,1924.535449,-8438.347739,1838.629195
436.381343,2220.617826,-8364.327145,2757.943793
436.381671,666.185348,-8734.430116,1608.800546
436.381998,-1480.411884,-9326.594869,-229.828649
436.382325,-2960.823768,-9844.739029,-2145.067394
436.382653,-2072.576638,-9770.718434,-2145.067394
436.382980,222.061783,-8290.306550,-919.314598
436.383308,3256.906145,-7920.203579,1225.752797
436.383635,4441.235652,-7698.141797,2528.115143
436.383962,3627.009116,-8068.244768,2528.115143
436.384290,1554.432478,-8438.347739,1149.143247
436.384617,-370.102971,-9030.512492,-766.095498
436.384944,-296.082377,-9474.636058,-612.876398
436.385272,1036.288319,-9252.574275,0.000000
436.385599,2368.659014,-8882.471304,1915.238745
436.385927,3182.885551,-9178.553681,3524.039291
436.386254,1924.535449,-9104.533087,3983.696590
436.386581,-888.247130,-9992.780217,2451.505594
436.386909,-3330.926739,-9474.636058,229.828649
436.387236,-4885.359217,-10140.821405,-1685.410096
436.387563,-4367.215058,-9770.718434,-1532.190996
436.387891,-1924.535449,-8290.306550,-306.438199
436.388218,740.205942,-7624.121203,1225.752797
436.388546,1258.350101,-7254.018232,2298.286494
436.388873,0.000000,-7994.224174,1685.410096
436.389200,-2516.700203,-8734.430116,0.000000
436.389528,-4663.297435,-9326.594869,-2221.676944
436.389855,-4367.215058,-9474.636058,-1991.848295
436.390182,-2664.741391,-9252.574275,-1455.581446
436.390510,0.000000,-8956.491898,689.485948
436.390837,1924.535449,-8882.471304,2834.553343
436.391165,1554.432478,-9400.615463,2757.943793
436.391492,-222.061783,-9770.718434,1532.190996
436.391819,-2516.700203,-10288.862594,-612.876398
436.392147,-3034.844362,-10658.965565,-1762.019645
436.392474,-1332.370696,-10362.883188,-1838.629195
436.392801,1554.432478,-9252.574275,0.000000
436.393129,4219.173869,-8956.491898,1838.629195
436.393456,4885.359217,-8956.491898,3370.820191
436.393784,3923.091493,-9474.636058,2681.334243
436.394111,1702.473667,-9992.780217,1149.143247
436.394438,-296.082377,-10584.944971,-612.876398
436.394766,-148.041188,-11103.089130,-383.047749
436.395093,1776.494261,-9918.759623,1302.362347
436.395421,2812.782580,-9844.739029,2834.553343
436.395748,3034.844362,-9622.677246,4519.963438
436.396075,1702.473667,-9770.718434,4213.525239
436.396403,-1480.411884,-9844.739029,2374.896044
436.396730,-3182.885551,-9474.636058,383.047749
436.397057,-4219.173869,-9696.697840,-1378.971896
436.397385,-3849.070898,-8660.409521,-1225.752797
436.397712,-1406.391290,-7920.203579,76.609550
436.398040,0.000000,-7179.997637,1608.800546
436.398367,0.000000,-6957.935855,2145.067394
436.398694,-1332.370696,-7624.121203,1762.019645
436.399022,-4441.235652,-8290.306550,-766.095498
436.399349,-5847.626942,-9252.574275,-2451.505594
436.399676,-5477.523971,-9252.574275,-2604.724693
436.400004,-2886.803174,-8364.327145,-1302.362347
436.400331,222.061783,-8068.244768,1378.971896
436.400659,1628.453072,-7624.121203,2757.943793
436.400986,1258.350101,-8290.306550,2451.505594
436.401313,0.000000,-9104.533087,1225.752797
436.401641,-1406.391290,-9474.636058,-766.095498
436.401968,-1924.535449,-9696.697840,-2298.286494
436.402295,0.000000,-9548.656652,-1302.362347
436.402623,2812.782580,-8512.368333,153.219100
436.402950,4737.318029,-7920.203579,1991.848295
436.403278,5403.503377,-8216.285956,2681.334243
436.403605,3775.050304,-8290.306550,2528.115143
436.403932,1776.494261,-9326.594869,0.000000
436.404260,-666.185348,-10066.800811,-1378.971896
436.404587,296.082377,-10066.800811,-1532.190996
436.404914,1628.453072,-9474.636058,383.047749
436.405242,2590.720797,-8808.450710,2298.286494
436.405569,3034.844362,-8734.430116,3370.820191
436.405897,1332.370696,-8512.368333,2911.162892
436.406224,-1702.473667,-9326.594869,919.314598
436.406551,-3330.926739,-9252.574275,-1072.533697
436.406879,-4515.256246,-9474.636058,-1838.629195
436.407206,-3627.009116,-9178.553681,-1608.800546
436.407534,-1480.411884,-7920.203579,-383.047749
436.407861,0.000000,-7772.162391,1532.190996
436.408188,74.020594,-7476.080014,1762.019645
436.408516,-1702.473667,-8290.306550,306.438199
436.408843,-3478.967927,-8882.471304,-919.314598
436.409170,-4737.318029,-9622.677246,-2528.115143
436.409498,-4515.256246,-9696.697840,-2451.505594
436.409825,-2072.576638,-9326.594869,-1149.143247
436.410153,962.267725,-8734.430116,1455.581446
436.410480,2072.576638,-8882.471304,2681.334243
436.410807,1332.370696,-9400.615463,3140.991542
436.411135,-370.102971,-10288.862594,1149.143247
436.411462,-2368.659014,-10881.027347,-612.876398
436.411789,-1998.556043,-10658.965565,-1532.190996
436.412117,-148.041188,-10140.821405,-842.705048
436.412444,3108.864956,-8808.450710,1685.410096
436.412772,5107.421000,-8956.491898,2911.162892
436.413099,4737.318029,-8882.471304,3140.991542
436.413426,2294.638420,-9252.574275,1149.143247
436.413754,296.082377,-9992.780217,459.657299
436.414081,444.123565,-9696.697840,-612.876398
436.414408,370.102971,-10881.027347,-459.657299
436.414736,1998.556043,-9622.677246,1302.362347
436.415063,3256.906145,-9696.697840,3524.039291
436.415391,1998.556043,-9622.677246,4673.182538
436.415718,-222.061783,-9474.636058,3294.210641
436.416045,-2146.597232,-9918.759623,1915.238745
436.416373,-4441.235652,-10140.821405,-229.828649
436.416700,-4515.256246,-9844.739029,-766.095498
436.417027,-3627.009116,-8660.409521,-229.828649
436.417355,-1554.432478,-7254.018232,995.924147
436.417682,-222.061783,-7031.956449,2374.896044
436.418010,-888.247130,-6957.935855,2145.067394
436.418337,-2886.803174,-7476.080014,383.047749
436.418664,-4663.297435,-7846.182985,-1455.581446
436.418992,-5477.523971,-8512.368333,-2604.724693
436.419319,-3701.029710,-8734.430116,-1608.800546
436.419646,-1480.411884,-7772.162391,-383.047749
436.419974,888.247130,-7846.182985,2221.676944
436.420301,1702.473667,-7920.203579,2911.162892
436.420629,592.164754,-8734.430116,2221.676944
436.420956,-1480.411884,-9104.533087,766.095498
436.421283,-2738.761985,-10066.800811,-1608.800546
436.421611,-2072.576638,-10288.862594,-2145.067394
436.421938,296.082377,-9326.594869,-1072.533697
436.422266,3552.988522,-8438.347739,842.705048
436.422593,5403.503377,-8142.265362,1991.848295
436.422921,4811.338623,-8142.265362,2451.505594
436.423248,2664.741391,-9178.553681,919.314598
436.423576,1258.350101,-9770.718434,0.000000
436.423904,592.164754,-9844.739029,-1762.019645
436.424231,0.000000,-9770.718434,-689.485948
436.424559,3108.864956,-9326.594869,995.924147
436.424886,3775.050304,-9474.636058,2834.553343
436.425214,2886.803174,-9252.574275,3524.039291
436.425542,1184.329507,-9474.636058,2451.505594
436.425869,-1702.473667,-9844.739029,842.705048
436.426197,-2738.761985,-10214.842000,-1302.362347
436.426524,-3627.009116,-9918.759623,-1762.019645
436.426852,-2368.659014,-8956.491898,-919.314598
436.427179,0.000000,-7846.182985,919.314598
436.427507,296.082377,-7624.121203,2221.676944
436.427835,-518.144159,-7254.018232,1149.143247
436.428162,-2812.782580,-8068.244768,153.219100
436.428490,-4737.318029,-9252.574275,-1685.410096
436.428817,-5625.565159,-9474.636058,-2834.553343
436.429145,-4219.173869,-9548.656652,-2145.067394
436.429473,-1480.411884,-8808.450710,-306.438199
436.429800,592.164754,-8808.450710,2145.067394
436.430128,888.247130,-9326.594869,2681.334243
436.430455,-888.247130,-10140.821405,1838.629195
436.430783,-2886.803174,-10881.027347,-229.828649
436.431111,-3701.029710,-11029.068536,-1991.848295
436.431438,-2516.700203,-10362.883188,-2221.676944
436.431766,518.144159,-9548.656652,-995.924147
436.432093,3552.988522,-8956.491898,1378.971896
436.432421,5255.462188,-8586.388927,2911.162892
436.432748,4367.215058,-8660.409521,2298.286494
436.433076,2590.720797,-8882.471304,1072.533697
436.433404,1184.329507,-9622.677246,-1149.143247
436.433731,0.000000,-10510.924376,-536.266849
436.434059,2294.638420,-10066.800811,0.000000
436.434386,3701.029710,-10066.800811,2374.896044
436.434714,3923.091493,-9622.677246,4366.744339
436.435042,3034.844362,-10066.800811,4136.915689
436.435369,444.123565,-9918.759623,3217.601092
436.435697,-1998.556043,-9992.780217,842.705048
436.436024,-2812.782580,-9770.718434,-536.266849
436.436352,-2516.700203,-9252.574275,-229.828649
436.436679,-1036.288319,-8660.409521,612.876398
436.437007,296.082377,-7698.141797,2145.067394
436.437335,-148.041188,-7328.038826,2451.505594
436.437662,-1924.535449,-7772.162391,1762.019645
436.437990,-4367.215058,-8438.347739,-153.219100
436.438317,-6069.688724,-8512.368333,-1991.848295
436.438645,-5847.626942,-8808.450710,-2374.896044
436.438973,-3923.091493,-8216.285956,-1225.752797
436.439300,-1036.288319,-7624.121203,536.266849
436.439628,592.164754,-7698.141797,2374.896044
436.439955,-222.061783,-7920.203579,2757.943793
436.440283,-1628.453072,-8660.409521,919.314598
436.440610,-3552.988522,-9030.512492,-995.924147
436.440938,-3775.050304,-9474.636058,-2451.505594
436.441266,-2220.617826,-9030.512492,-1991.848295
436.441593,1406.391290,-8142.265362,-536.266849
436.441921,4589.276840,-7624.121203,1762.019645
436.442248,5181.441594,-7624.121203,2911.162892
436.442576,4293.194464,-8068.244768,2145.067394
436.442904,2516.700203,-8956.491898,536.266849
436.443231,888.247130,-9548.656652,-1762.019645
436.443559,1036.288319,-9622.677246,-1685.410096
436.443886,1776.494261,-9770.718434,76.609550
436.444214,4145.153275,-9178.553681,2221.676944
436.444541,4515.256246,-9474.636058,3983.696590
436.444869,1998.556043,-9474.636058,3677.258390
436.445197,74.020594,-9918.759623,2068.457845
436.445524,-2368.659014,-9770.718434,0.000000
436.445852,-3404.947333,-10214.842000,-1608.800546
436.446179,-2442.679609,-9474.636058,-1225.752797
436.446507,-1110.308913,-8364.327145,153.219100
436.446835,666.185348,-7476.080014,1685.410096
436.447162,814.226536,-7402.059420,2221.676944
436.447490,-2220.617826,-7920.203579,842.705048
436.447817,-3552.988522,-8290.306550,-766.095498
436.448145,-5255.462188,-9178.553681,-2298.286494
436.448473,-5181.441594,-9548.656652,-2298.286494
436.448800,-2886.803174,-9030.512492,-1225.752797
436.449128,-148.041188,-8956.491898,1072.533697
436.449455,814.226536,-9178.553681,2451.505594
436.449783,370.102971,-9400.615463,2681.334243
436.450110,-1184.329507,-9696.697840,1225.752797
436.450438,-2886.803174,-10658.965565,-842.705048
436.450766,-3182.885551,-11177.109724,-2145.067394
436.451093,-1776.494261,-10214.842000,-1762.019645
436.451421,1554.432478,-9622.677246,229.828649
436.451748,3997.112087,-9178.553681,2068.457845
436.452076,4441.235652,-9104.533087,3217.601092
436.452404,3108.864956,-9474.636058,1838.629195
436.452731,1110.308913,-9992.780217,0.000000
436.453059,-518.144159,-10362.883188,-1455.581446
436.453386,370.102971,-10584.944971,-383.047749
436.453714,2442.679609,-9474.636058,919.314598
436.454041,2664.741391,-9252.574275,3140.991542
436.454369,3775.050304,-9252.574275,4136.915689
436.454697,2072.576638,-9326.594869,4136.915689
436.455024,-814.226536,-9474.636058,2374.896044
436.455352,-1998.556043,-9326.594869,229.828649
436.455679,-3034.844362,-9400.615463,-536.266849
436.456007,-2516.700203,-8882.471304,-306.438199
436.456335,-592.164754,-7698.141797,1149.143247
436.456662,222.061783,-7402.059420,2451.505594
436.456990,-518.144159,-6957.935855,2145.067394
436.457317,-2368.659014,-7476.080014,995.924147
436.457645,-4663.297435,-8364.327145,-842.705048
436.457972,-5477.523971,-8660.409521,-2374.896044
436.458300,-4663.297435,-8660.409521,-2145.067394
436.458628,-2442.679609,-7994.224174,-536.266849
436.458955,518.144159,-7772.162391,2068.457845
436.459283,518.144159,-7624.121203,2604.724693
436.459610,-592.164754,-8438.347739,2145.067394
436.459938,-2516.700203,-9104.533087,0.000000
436.460266,-3997.112087,-9548.656652,-2145.067394
436.460593,-3108.864956,-9326.594869,-2451.505594
436.460921,-814.226536,-8216.285956,-1838.629195
436.461248,2368.659014,-7402.059420,0.000000
436.461576,4737.318029,-7550.100608,1762.019645
436.461903,4515.256246,-8068.244768,2374.896044
436.462231,2664.741391,-8438.347739,766.095498
436.462559,592.164754,-9474.636058,-536.266849
436.462886,148.041188,-10140.821405,-1915.238745
436.463214,1184.329507,-10066.800811,-995.924147
436.463541,2664.741391,-9326.594869,76.609550
436.463869,4811.338623,-9326.594869,2834.553343
436.464197,4811.338623,-8956.491898,3907.087040
436.464524,2368.659014,-9696.697840,2987.772442
436.464852,0.000000,-10214.842000,1149.143247
436.465179,-1998.556043,-10436.903782,-459.657299
436.465507,-2960.823768,-10881.027347,-995.924147
436.465834,-1628.453072,-9844.739029,-766.095498
436.466162,0.000000,-9104.533087,1302.362347
436.466490,888.247130,-8512.368333,2374.896044
436.466817,74.020594,-8290.306550,2374.896044
436.467145,-2294.638420,-8586.388927,536.266849
436.467472,-4293.194464,-8808.450710,-1302.362347
436.467800,-5329.482782,-9252.574275,-2374.896044
436.468128,-4515.256246,-9400.615463,-2374.896044
436.468455,-2368.659014,-8734.430116,-536.266849
436.468783,-148.041188,-8660.409521,1532.190996
436.469110,74.020594,-8734.430116,2604.724693
436.469438,-1184.329507,-9030.512492,1838.629195
436.469766,-2886.803174,-9918.759623,0.000000
436.470093,-4219.173869,-10732.986159,-1455.581446
436.470421,-3627.009116,-10732.986159,-1915.238745
436.470748,-1036.288319,-9992.780217,-1072.533697
436.471076,2294.638420,-8956.491898,1072.533697
436.471403,4367.215058,-9030.512492,2451.505594
436.471731,3701.029710,-9326.594869,2451.505594
436.472059,2294.638420,-10140.821405,1378.971896
436.472386,888.247130,-10510.924376,-536.266849
436.472714,888.247130,-10732.986159,-1149.143247
436.473041,2664.741391,-10510.924376,76.609550
436.473369,3330.926739,-9696.697840,1762.019645
436.473697,4885.359217,-9622.677246,3600.648841
436.474024,4071.132681,-9622.677246,4366.744339
436.474352,1480.411884,-9918.759623,3677.258390
436.474679,-370.102971,-10214.842000,1608.800546
436.475007,-2294.638420,-10510.924376,76.609550
436.475334,-2368.659014,-10362.883188,0.000000
436.475662,-1036.288319,-9178.553681,766.095498
436.475990,0.000000,-7772.162391,2221.676944
436.476317,222.061783,-7476.080014,2681.334243
436.476645,-1110.308913,-7624.121203,2221.676944
436.476972,-3330.926739,-7920.203579,229.828649
436.477300,-4959.379811,-8438.347739,-1532.190996
436.477628,-5181.441594,-8364.327145,-2374.896044
436.477955,-3849.070898,-8142.265362,-919.314598
436.478283,-1480.411884,-7624.121203,536.266849
436.478610,-222.061783,-7698.141797,2221.676944
436.478938,-814.226536,-8290.306550,2451.505594
436.479265,-2442.679609,-9178.553681,919.314598
436.479593,-4441.235652,-9696.697840,-459.657299
436.479921,-4367.215058,-9548.656652,-2221.676944
436.480248,-2516.700203,-9178.553681,-2374.896044
436.480576,592.164754,-8438.347739,-689.485948
436.480903,3849.070898,-7846.182985,995.924147
436.481231,4885.359217,-7698.141797,2374.896044
436.481559,3997.112087,-8068.244768,1608.800546
436.481886,1776.494261,-8438.347739,0.000000
436.482214,814.226536,-9252.574275,-1608.800546
436.482541,1332.370696,-9622.677246,-1915.238745
436.482869,3108.864956,-8808.450710,-536.266849
436.483196,5181.441594,-9326.594869,2451.505594
436.483524,5625.565159,-9178.553681,3370.820191
436.483852,3330.926739,-9696.697840,3600.648841
436.484179,1406.391290,-9844.739029,1991.848295
436.484507,-1554.432478,-10140.821405,0.000000
436.484834,-2294.638420,-10288.862594,-1455.581446
436.485162,-1702.473667,-9770.718434,-1378.971896
436.485490,-148.041188,-8956.491898,306.438199
436.485817,1332.370696,-7772.162391,1532.190996
436.486145,962.267725,-7624.121203,2068.457845
436.486472,-1110.308913,-7624.121203,1455.581446
436.486800,-3404.947333,-8142.265362,-1072.533697
436.487128,-5033.400406,-8586.388927,-2374.896044
436.487455,-4515.256246,-8660.409521,-2451.505594
436.487783,-2960.823768,-8586.388927,-919.314598
436.488110,-1036.288319,-7920.203579,612.876398
436.488438,0.000000,-8068.244768,2911.162892
436.488765,-1258.350101,-9252.574275,2451.505594
436.489093,-3404.947333,-9548.656652,842.705048
436.489421,-5033.400406,-10066.800811,-919.314598
436.489748,-4959.379811,-10362.883188,-1685.410096
436.490076,-2738.761985,-9696.697840,-1915.238745
436.490403,666.185348,-8734.430116,0.000000
436.490731,3256.906145,-8142.265362,1915.238745
436.491059,3923.091493,-8142.265362,2604.724693
436.491386,3182.885551,-8734.430116,2068.457845
436.491714,1480.411884,-9844.739029,536.266849
436.492041,0.000000,-10214.842000,-919.314598
436.492369,370.102971,-10881.027347,-766.095498
436.492696,2146.597232,-9992.780217,842.705048
436.493024,4071.132681,-10066.800811,3370.820191
436.493352,4071.132681,-9622.677246,4060.306139
436.493679,1850.514855,-9696.697840,4366.744339
436.494007,296.082377,-9622.677246,2604.724693
436.494334,-1924.535449,-10214.842000,459.657299
436.494662,-2442.679609,-9992.780217,-689.485948
436.494990,-1332.370696,-9400.615463,-689.485948
436.495317,0.000000,-8290.306550,1378.971896
436.495645,1258.350101,-7402.059420,2451.505594
436.495972,888.247130,-7994.224174,2834.553343
436.496300,-1332.370696,-8290.306550,1378.971896
436.496627,-3330.926739,-8216.285956,-459.657299
436.496955,-4367.215058,-9104.533087,-1302.362347
436.497283,-3701.029710,-9252.574275,-1838.629195
436.497610,-2294.638420,-8808.450710,153.219100
436.497938,-148.041188,-8660.409521,1685.410096
436.498265,148.041188,-8438.347739,2757.943793
436.498593,-296.082377,-8512.368333,2681.334243
436.498921,-2368.659014,-9178.553681,612.876398
436.499248,-3997.112087,-9548.656652,-1378.971896
436.499576,-3627.009116,-9844.739029,-2068.457845
436.499903,-2146.597232,-9252.574275,-1762.019645
436.500231,444.123565,-8142.265362,229.828649
436.500558,2886.803174,-8068.244768,1838.629195
436.500886,2886.803174,-8364.327145,1991.848295
436.501214,1554.432478,-8586.388927,842.705048
436.501541,-444.123565,-9474.636058,-689.485948
436.501869,-666.185348,-9992.780217,-1991.848295
436.502196,-222.061783,-9696.697840,-1455.581446
436.502524,1480.411884,-9104.533087,0.000000
436.502852,3701.029710,-9104.533087,2604.724693
436.503179,4367.215058,-8808.450710,3447.429741
436.503507,1998.556043,-9104.533087,3217.601092
436.503834,444.123565,-9178.553681,1072.533697
436.504162,-1776.494261,-9770.718434,-612.876398
436.504489,-1924.535449,-10066.800811,-1149.143247
436.504817,-814.226536,-9252.574275,-459.657299
436.505145,888.247130,-8660.409521,995.924147
436.505472,2368.659014,-7994.224174,2451.505594
436.505800,1628.453072,-7994.224174,2221.676944
436.506127,-518.144159,-8216.285956,1149.143247
436.506455,-2442.679609,-8512.368333,-766.095498
436.506783,-3256.906145,-9252.574275,-1685.410096
436.507110,-3701.029710,-8956.491898,-1378.971896
436.507438,-1850.514855,-8290.306550,0.000000
436.507765,0.000000,-8068.244768,1685.410096
436.508093,-222.061783,-8438.347739,2681.334243
436.508421,-1628.453072,-8956.491898,1991.848295
436.508748,-3552.988522,-9474.636058,-1072.533697
436.509076,-5107.421000,-9696.697840,-2068.457845
436.509403,-4663.297435,-9770.718434,-2451.505594
436.509731,-2590.720797,-9178.553681,-1302.362347
436.510058,518.144159,-8142.265362,229.828649
436.510386,2664.741391,-7994.224174,1762.019645
436.510714,2886.803174,-8808.450710,2451.505594
436.511041,1184.329507,-9030.512492,383.047749
436.511369,-814.226536,-9622.677246,-1225.752797
436.511696,-740.205942,-10066.800811,-1915.238745
436.512024,518.144159,-9992.780217,-919.314598
436.512352,3330.926739,-9474.636058,1378.971896
436.512679,4959.379811,-9474.636058,3370.820191
436.513007,4737.318029,-9918.759623,4366.744339
436.513334,2960.823768,-10066.800811,3217.601092
436.513662,0.000000,-10362.883188,1685.410096
436.513989,-962.267725,-10066.800811,-306.438199
436.514317,-1554.432478,-10436.903782,-306.438199
436.514645,-444.123565,-9844.739029,383.047749
436.514972,1628.453072,-8734.430116,1915.238745
436.515300,1776.494261,-8364.327145,3217.601092
436.515627,1036.288319,-8216.285956,2757.943793
436.515955,-962.267725,-8290.306550,1225.752797
436.516283,-2960.823768,-8808.450710,-612.876398
436.516610,-3701.029710,-9400.615463,-1532.190996
436.516938,-3627.009116,-9326.594869,-1149.143247
436.517265,-1702.473667,-8438.347739,612.876398
436.517593,-444.123565,-8068.244768,2757.943793
436.517920,-592.164754,-8586.388927,2911.162892
436.518248,-2368.659014,-8956.491898,1838.629195
436.518576,-4737.318029,-9326.594869,0.000000
436.518903,-5477.523971,-9474.636058,-1608.800546
436.519231,-4367.215058,-9622.677246,-1838.629195
436.519558,-2368.659014,-8660.409521,-766.095498
436.519886,1036.288319,-7698.141797,536.266849
436.520214,2664.741391,-7846.182985,1838.629195
436.520541,2146.597232,-8142.265362,1225.752797
436.520869,592.164754,-8808.450710,-536.266849
436.521196,-740.205942,-9474.636058,-1608.800546
436.521524,-370.102971,-9918.759623,-2221.676944
436.521851,1406.391290,-9622.677246,-919.314598
436.522179,3775.050304,-9030.512492,1149.143247
436.522507,5255.462188,-9252.574275,2987.772442
436.522834,4737.318029,-9696.697840,3370.820191
436.523162,2738.761985,-10140.821405,2834.553343
436.523489,370.102971,-10214.842000,229.828649
436.523817,-1554.432478,-10584.944971,-612.876398
436.524145,-592.164754,-9992.780217,-995.924147
436.524472,666.185348,-9104.533087,459.657299
436.524800,2590.720797,-8142.265362,1762.019645
436.525127,2812.782580,-7920.203579,2911.162892
436.525455,888.247130,-8142.265362,1838.629195
436.525782,-1036.288319,-8438.347739,229.828649
436.526110,-3108.864956,-8882.471304,-1072.533697
436.526437,-3923.091493,-9400.615463,-1838.629195
436.526765,-2812.782580,-9252.574275,-766.095498
436.527093,-962.267725,-8512.368333,1149.143247
436.527420,-296.082377,-8290.306550,2528.115143
436.527748,-740.205942,-8808.450710,2298.286494
436.528075,-3404.947333,-9030.512492,1225.752797
436.528403,-5477.523971,-9400.615463,-612.876398
436.528730,-5847.626942,-9622.677246,-2298.286494
436.529058,-4811.338623,-9400.615463,-2298.286494
436.529385,-1850.514855,-8290.306550,-919.314598
436.529713,1184.329507,-7846.182985,1302.362347
436.530041,2294.638420,-7698.141797,1915.238745
436.530368,1776.494261,-8512.368333,1378.971896
436.530696,0.000000,-8808.450710,-229.828649
436.531023,-1036.288319,-9844.739029,-1302.362347
436.531351,-592.164754,-9770.718434,-1149.143247
436.531678,1258.350101,-10214.842000,0.000000
436.532006,3923.091493,-9474.636058,2145.067394
436.532333,4737.318029,-9696.697840,3447.429741
436.532661,3849.070898,-9696.697840,3753.867940
436.532989,1924.535449,-9770.718434,2681.334243
436.533316,-444.123565,-10955.047942,0.000000
436.533644,-1110.308913,-10436.903782,-1149.143247
436.533971,-518.144159,-8882.471304,-766.095498
436.534299,1110.308913,-8660.409521,459.657299
436.534626,3256.906145,-7846.182985,2145.067394
436.534954,2886.803174,-8512.368333,1838.629195
436.535281,370.102971,-7994.224174,1378.971896
436.535609,-1332.370696,-8438.347739,0.000000
436.535937,-2886.803174,-9474.636058,-1225.752797
436.536264,-3775.050304,-9770.718434,-1378.971896
436.536592,-1850.514855,-9104.533087,76.609550
436.536919,-666.185348,-8734.430116,1762.019645
436.537247,0.000000,-8882.471304,2987.772442
436.537574,-1258.350101,-8882.471304,2451.505594
436.537902,-3478.967927,-9400.615463,689.485948
436.538229,-4737.318029,-9400.615463,-995.924147
436.538557,-4885.359217,-9474.636058,-2298.286494
436.538885,-3256.906145,-8734.430116,-1838.629195
436.539212,-518.144159,-7476.080014,0.000000
436.539540,2146.597232,-7550.100608,1685.410096
436.539867,2220.617826,-7772.162391,2298.286494
436.540195,888.247130,-8438.347739,1378.971896
436.540522,-518.144159,-9326.594869,0.000000
436.540850,-1332.370696,-10288.862594,-995.924147
436.541177,-888.247130,-10436.903782,-536.266849
436.541505,962.267725,-9770.718434,995.924147
436.541833,3256.906145,-9770.718434,3064.381992
436.542160,3627.009116,-9770.718434,3983.696590
436.542488,1702.473667,-9622.677246,3064.381992
436.542815,222.061783,-9770.718434,2221.676944
436.543143,-1184.329507,-9548.656652,-153.219100
436.543470,-2072.576638,-9992.780217,-995.924147
436.543798,-518.144159,-9030.512492,-842.705048
436.544125,1110.308913,-8512.368333,1072.533697
436.544453,2220.617826,-8216.285956,2221.676944
436.544781,1924.535449,-8142.265362,2374.896044
436.545108,74.020594,-8808.450710,1378.971896
436.545436,-2146.597232,-9104.533087,-229.828649
436.545763,-3034.844362,-10066.800811,-1149.143247
436.546091,-3108.864956,-9770.718434,-1302.362347
436.546418,-2072.576638,-9178.553681,229.828649
436.546746,592.164754,-9104.533087,1762.019645
436.547073,222.061783,-8808.450710,2604.724693
436.547401,-814.226536,-8882.471304,2145.067394
436.547729,-2516.700203,-9178.553681,76.609550
436.548056,-3997.112087,-9178.553681,-1378.971896
436.548384,-4071.132681,-8956.491898,-2451.505594
436.548711,-1702.473667,-7624.121203,-1455.581446
436.549039,814.226536,-7254.018232,76.609550
436.549366,2960.823768,-7550.100608,1532.190996
436.549694,2738.761985,-8068.244768,1915.238745
436.550021,666.185348,-8660.409521,536.266849
436.550349,-740.205942,-9918.759623,-689.485948
436.550677,-1924.535449,-10066.800811,-1915.238745
436.551004,-740.205942,-10140.821405,-1072.533697
436.551332,1258.350101,-9696.697840,459.657299
436.551659,3478.967927,-9474.636058,2451.505594
436.551987,3108.864956,-9104.533087,3370.820191
436.552314,2146.597232,-9474.636058,2604.724693
436.552642,-592.164754,-9548.656652,383.047749
436.552969,-2886.803174,-9918.759623,-1225.752797
436.553297,-2368.659014,-9474.636058,-2451.505594
436.553625,-666.185348,-8660.409521,-689.485948
436.553952,1702.473667,-8068.244768,383.047749
436.554280,2886.803174,-7772.162391,1838.629195
436.554607,2146.597232,-8142.265362,2451.505594
436.554935,518.144159,-8586.388927,1072.533697
436.555262,-1702.473667,-9400.615463,0.000000
436.555590,-3034.844362,-9474.636058,-995.924147
436.555917,-2516.700203,-9696.697840,-766.095498
436.556245,-370.102971,-9104.533087,689.485948
436.556573,1406.391290,-8660.409521,2757.943793
436.556900,1258.350101,-8364.327145,3140.991542
436.557228,-444.123565,-8586.388927,2757.943793
436.557555,-2294.638420,-9326.594869,383.047749
436.557883,-4071.132681,-9622.677246,-1072.533697
436.558210,-3923.091493,-9474.636058,-1762.019645
436.558538,-1850.514855,-8586.388927,-383.047749
436.558865,518.144159,-7846.182985,1302.362347
436.559193,2072.576638,-8512.368333,2451.505594
436.559521,888.247130,-9104.533087,2374.896044
436.559848,-592.164754,-9400.615463,1072.533697
436.560176,-2368.659014,-9918.759623,-306.438199
436.560503,-2294.638420,-9844.739029,-1225.752797
436.560831,-888.247130,-9474.636058,-229.828649
436.561158,1184.329507,-8956.491898,995.924147
436.561486,2886.803174,-8734.430116,2987.772442
436.561813,2664.741391,-9104.533087,3753.867940
436.562141,888.247130,-9030.512492,2451.505594
436.562469,-1628.453072,-9548.656652,1072.533697
436.562796,-2590.720797,-9918.759623,-995.924147
436.563124,-2886.803174,-10066.800811,-1302.362347
436.563451,-740.205942,-9104.533087,0.000000
436.563779,1776.494261,-8438.347739,1455.581446
436.564106,2368.659014,-8142.265362,2987.772442
436.564434,1776.494261,-8216.285956,2298.286494
436.564761,0.000000,-9326.594869,842.705048
436.565089,-1924.535449,-9770.718434,-995.924147
436.565417,-2368.659014,-9844.739029,-1608.800546
436.565744,-1850.514855,-9326.594869,-612.876398
436.566072,592.164754,-8956.491898,766.095498
436.566399,1924.535449,-9030.512492,2451.505594
436.566727,1110.308913,-8808.450710,2681.334243
436.567054,-740.205942,-9252.574275,1608.800546
436.567382,-2738.761985,-9548.656652,-383.047749
436.567709,-3552.988522,-9622.677246,-2298.286494
436.568037,-3108.864956,-9474.636058,-1991.848295
436.568365,-592.164754,-8586.388927,-536.266849
436.568692,1702.473667,-7772.162391,1149.143247
436.569020,2368.659014,-7698.141797,2068.457845
436.569347,1776.494261,-7994.224174,2145.067394
436.569675,-296.082377,-8882.471304,383.047749
436.570002,-1998.556043,-9622.677246,-1149.143247
436.570330,-1924.535449,-9844.739029,-1685.410096
436.570657,-370.102971,-9844.739029,-766.095498
436.570985,2294.638420,-9030.512492,1302.362347
436.571313,2590.720797,-9030.512492,2987.772442
436.571640,2146.597232,-9400.615463,3064.381992
436.571968,666.185348,-9548.656652,1991.848295
436.572295,-1924.535449,-10066.800811,229.828649
436.572623,-2516.700203,-10214.842000,-1225.752797
436.572950,-2294.638420,-9622.677246,-1149.143247
436.573278,-148.041188,-8882.471304,0.000000
436.573605,2072.576638,-8216.285956,1378.971896
436.573933,2220.617826,-8216.285956,2298.286494
436.574261,666.185348,-8068.244768,1762.019645
436.574588,-888.247130,-8512.368333,76.609550
436.574916,-2738.761985,-9474.636058,-1685.410096
436.575243,-3256.906145,-9474.636058,-1915.238745
436.575571,-1850.514855,-8956.491898,-919.314598
436.575898,814.226536,-8438.347739,1072.533697
436.576226,1924.535449,-8290.306550,2221.676944
436.576553,1036.288319,-8438.347739,3064.381992
436.576881,-666.185348,-9030.512492,1762.019645
436.577209,-2738.761985,-9474.636058,-229.828649
436.577536,-3552.988522,-9844.739029,-1532.190996
436.577864,-2220.617826,-9770.718434,-1532.190996
436.578191,0.000000,-8660.409521,229.828649
436.578519,2368.659014,-8364.327145,1685.410096
436.578846,2812.782580,-8734.430116,2451.505594
436.579174,1258.350101,-9178.553681,1915.238745
436.579501,-666.185348,-9622.677246,-306.438199
436.579829,-1776.494261,-9696.697840,-536.266849
436.580157,-1332.370696,-9844.739029,-1532.190996
436.580484,370.102971,-9474.636058,0.000000
436.580812,2738.761985,-8808.450710,1838.629195
436.581139,2812.782580,-9178.553681,3447.429741
436.581467,1110.308913,-9178.553681,3370.820191
436.581794,-888.247130,-9548.656652,1915.238745
436.582122,-3108.864956,-9844.739029,-306.438199
436.582449,-3552.988522,-9844.739029,-1378.971896
436.582777,-2516.700203,-9400.615463,-1225.752797
436.583105,-370.102971,-8364.327145,1072.533697
436.583432,1702.473667,-7994.224174,1838.629195
436.583760,1702.473667,-8290.306550,2298.286494
436.584087,0.000000,-8364.327145,1072.533697
436.584415,-2220.617826,-8882.471304,-383.047749
436.584742,-2960.823768,-9252.574275,-1915.238745
436.585070,-2738.761985,-9474.636058,-1762.019645
436.585397,-666.185348,-9104.533087,0.000000
436.585725,1776.494261,-9030.512492,1685.410096
436.586053,2146.597232,-9400.615463,2987.772442
436.586380,888.247130,-9474.636058,2451.505594
436.586708,-1184.329507,-10066.800811,1991.848295
436.587035,-2886.803174,-10510.924376,-612.876398
436.587363,-3256.906145,-10510.924376,-1608.800546
436.587690,-1554.432478,-9918.759623,-919.314598
436.588018,1258.350101,-8290.306550,306.438199
436.588345,3034.844362,-8142.265362,2221.676944
436.588673,2960.823768,-8068.244768,2528.115143
436.589001,1184.329507,-8438.347739,1455.581446
436.589328,-1110.308913,-9104.533087,0.000000
436.589656,-1998.556043,-9400.615463,-1225.752797
436.589983,-888.247130,-9548.656652,-1072.533697
436.590311,518.144159,-9178.553681,612.876398
436.590638,2368.659014,-8956.491898,2298.286494
436.590966,2146.597232,-8956.491898,3524.039291
436.591293,666.185348,-9400.615463,2834.553343
436.591621,-1554.432478,-9474.636058,1149.143247
436.591949,-3627.009116,-9400.615463,-459.657299
436.592276,-3404.947333,-9770.718434,-1762.019645
436.592604,-2368.659014,-8956.491898,-1225.752797
436.592931,148.041188,-8068.244768,383.047749
436.593259,1998.556043,-8068.244768,1991.848295
436.593586,1554.432478,-7550.100608,2068.457845
436.593914,-148.041188,-8290.306550,842.705048
436.594241,-2072.576638,-9104.533087,-459.657299
436.594569,-2960.823768,-9548.656652,-1608.800546
436.594897,-2146.597232,-9474.636058,-1302.362347
436.595224,-222.061783,-8734.430116,153.219100
436.595552,2072.576638,-8808.450710,2068.457845
436.595879,2220.617826,-8956.491898,3064.381992
436.596207,814.226536,-8734.430116,2451.505594
436.596534,-1110.308913,-9474.636058,689.485948
436.596862,-2294.638420,-9918.759623,-306.438199
436.597189,-2368.659014,-9770.718434,-1762.019645
436.597517,-962.267725,-9104.533087,-766.095498
436.597845,1628.453072,-8216.285956,383.047749
436.598172,3034.844362,-8216.285956,2221.676944
436.598500,2442.679609,-8290.306550,1991.848295
436.598827,740.205942,-8734.430116,1302.362347
436.599155,-962.267725,-9474.636058,-383.047749
436.599482,-1702.473667,-9918.759623,-1149.143247
436.599810,-592.164754,-9918.759623,-766.095498
436.600137,1332.370696,-9326.594869,842.705048
436.600465,2442.679609,-8956.491898,3140.991542
436.600793,1998.556043,-9400.615463,3447.429741
436.601120,296.082377,-9104.533087,2221.676944
436.601448,-1924.535449,-9400.615463,612.876398
436.601775,-3108.864956,-9474.636058,-995.924147
436.602103,-3256.906145,-9178.553681,-1378.971896
436.602430,-1998.556043,-8438.347739,-995.924147
436.602758,444.123565,-7846.182985,842.705048
436.603085,1332.370696,-7698.141797,1838.629195
436.603413,666.185348,-7994.224174,1915.238745
436.603741,-888.247130,-8364.327145,153.219100
436.604068,-2886.803174,-8882.471304,-1072.533697
436.604396,-3330.926739,-9474.636058,-1915.238745
436.604723,-2368.659014,-9548.656652,-1302.362347
436.605051,0.000000,-9178.553681,229.828649
436.605378,1628.453072,-8882.471304,2374.896044
436.605706,2220.617826,-9104.533087,2911.162892
436.606033,0.000000,-9696.697840,1991.848295
436.606361,-1998.556043,-10288.862594,76.609550
436.606689,-3182.885551,-10288.862594,-1532.190996
436.607016,-2368.659014,-10066.800811,-2068.457845
436.607344,0.000000,-9030.512492,-612.876398
436.607671,2368.659014,-8216.285956,1455.581446
436.607999,3627.009116,-8216.285956,2374.896044
436.608326,2664.741391,-8586.388927,2145.067394
436.608654,592.164754,-8882.471304,842.705048
436.608981,-1406.391290,-9252.574275,-459.657299
436.609309,-962.267725,-9770.718434,-1302.362347
436.609637,-148.041188,-9696.697840,-459.657299
436.609964,1776.494261,-9326.594869,1302.362347
436.610292,2516.700203,-9326.594869,3064.381992
436.610619,1850.514855,-9400.615463,4519.963438
436.610947,0.000000,-9918.759623,2451.505594
436.611274,-2368.659014,-9696.697840,306.438199
436.611602,-3552.988522,-10066.800811,-1072.533697
436.611929,-3404.947333,-9918.759623,-1455.581446
436.612257,-1258.350101,-8660.409521,0.000000
436.612585,592.164754,-7624.121203,612.876398
436.612912,1332.370696,-7846.182985,2068.457845
436.613240,370.102971,-7772.162391,1455.581446
436.613567,-1628.453072,-8512.368333,0.000000
436.613895,-3256.906145,-9844.739029,-1608.800546
436.614222,-3330.926739,-9474.636058,-2451.505594
436.614550,-2368.659014,-9474.636058,-995.924147
436.614877,222.061783,-9030.512492,612.876398
436.615205,1776.494261,-8808.450710,2298.286494
436.615533,2220.617826,-9104.533087,2911.162892
436.615860,148.041188,-9178.553681,2068.457845
436.616188,-1480.411884,-9548.656652,459.657299
436.616515,-2368.659014,-10066.800811,-1378.971896
436.616843,-1850.514855,-9770.718434,-1455.581446
436.617170,370.102971,-8882.471304,0.000000
436.617498,3034.844362,-7698.141797,1532.190996
436.617825,3775.050304,-7846.182985,2681.334243
436.618153,2886.803174,-8290.306550,2374.896044
436.618481,444.123565,-8956.491898,995.924147
436.618808,-444.123565,-9474.636058,-689.485948
436.619136,-888.247130,-9474.636058,-1149.143247
436.619463,518.144159,-9178.553681,306.438199
436.619791,1998.556043,-8734.430116,1838.629195
436.620118,2516.700203,-8956.491898,3294.210641
436.620446,1110.308913,-9104.533087,3753.867940
436.620773,-814.226536,-9178.553681,2451.505594
436.621101,-3256.906145,-9474.636058,153.219100
436.621429,-4293.194464,-9696.697840,-766.095498
436.621756,-3775.050304,-9474.636058,-1225.752797
436.622081,-1850.514855,-8438.347739,0.000000
436.622409,0.000000,-7698.141797,1378.971896
436.622736,444.123565,-7476.080014,2757.943793
436.623064,-370.102971,-7698.141797,1225.752797
436.623391,-2812.782580,-8290.306550,-689.485948
436.623719,-4145.153275,-9030.512492,-2068.457845
436.624046,-3701.029710,-9400.615463,-2451.505594
436.624374,-1480.411884,-8956.491898,-995.924147
436.624701,1332.370696,-8808.450710,919.314598
436.625029,2294.638420,-9104.533087,2451.505594
436.625356,1924.535449,-9474.636058,2528.115143
436.625684,-148.041188,-9992.780217,1149.143247
436.626011,-1924.535449,-10140.821405,0.000000
436.626339,-2664.741391,-10658.965565,-1378.971896
436.626666,-962.267725,-10214.842000,-1225.752797
436.626994,1924.535449,-9400.615463,0.000000
436.627321,4071.132681,-8882.471304,1838.629195
436.627649,4367.215058,-8734.430116,2528.115143
436.627976,3108.864956,-8512.368333,2068.457845
436.628304,518.144159,-9474.636058,306.438199
436.628631,-222.061783,-9918.759623,-995.924147
436.628959,-222.061783,-9992.780217,-536.266849
436.629286,740.205942,-9696.697840,689.485948
436.629614,2368.659014,-9622.677246,2451.505594
436.629941,2516.700203,-9548.656652,3524.039291
436.630269,222.061783,-9548.656652,3370.820191
436.630596,-1480.411884,-9770.718434,1762.019645
436.630924,-3849.070898,-9844.739029,-306.438199
436.631251,-4293.194464,-9474.636058,-1762.019645
436.631579,-3849.070898,-8512.368333,-1072.533697
436.631906,-1258.350101,-7772.162391,76.609550
436.632234,148.041188,-7254.018232,1455.581446
436.632561,222.061783,-7402.059420,1608.800546
436.632889,-1702.473667,-7328.038826,689.485948
436.633216,-3404.947333,-8216.285956,-536.266849
436.633544,-4589.276840,-9178.553681,-2068.457845
436.633871,-3997.112087,-9400.615463,-2145.067394
436.634199,-1184.329507,-8808.450710,-383.047749
436.634526,1406.391290,-8364.327145,1685.410096
436.634854,1998.556043,-8956.491898,2987.772442
436.635181,888.247130,-9178.553681,2068.457845
436.635509,-1258.350101,-9548.656652,612.876398
436.635836,-2516.700203,-10066.800811,-1072.533697
436.636164,-2368.659014,-9918.759623,-2068.457845
436.636491,222.061783,-8956.491898,-1225.752797
436.636819,2960.823768,-7846.182985,459.657299
436.637146,5329.482782,-7698.141797,2298.286494
436.637474,4737.318029,-7772.162391,2987.772442
436.637801,2886.803174,-8216.285956,1378.971896
436.638129,814.226536,-9030.512492,383.047749
436.638456,666.185348,-9622.677246,-766.095498
436.638784,296.082377,-10362.883188,-383.047749
436.639111,1628.453072,-9548.656652,1378.971896
436.639439,2812.782580,-9622.677246,2987.772442
436.639766,2442.679609,-9696.697840,3983.696590
436.640094,-222.061783,-9622.677246,3217.601092
436.640421,-2442.679609,-9770.718434,1455.581446
436.640749,-4589.276840,-9918.759623,-842.705048
436.641076,-4737.318029,-9474.636058,-1838.629195
436.641404,-3404.947333,-8512.368333,-1072.533697
436.641731,-740.205942,-6957.935855,459.657299
436.642059,444.123565,-7179.997637,1532.190996
436.642386,-370.102971,-7105.977043,1378.971896
436.642714,-2294.638420,-7772.162391,76.609550
436.643041,-4219.173869,-8290.306550,-1532.190996
436.643369,-4737.318029,-9030.512492,-2374.896044
436.643696,-3627.009116,-9326.594869,-1915.238745
436.644024,-888.247130,-9400.615463,0.000000
436.644351,1406.391290,-9326.594869,2298.286494
436.644679,1998.556043,-9548.656652,2911.162892
436.645006,666.185348,-10066.800811,2757.943793
436.645334,-518.144159,-10140.821405,766.095498
436.645661,-2368.659014,-10362.883188,-842.705048
436.645989,-1406.391290,-10362.883188,-1455.581446
436.646316,666.185348,-9474.636058,-842.705048
436.646644,3256.906145,-8586.388927,995.924147
436.646971,5255.462188,-8586.388927,2528.115143
436.647299,4219.173869,-9104.533087,2911.162892
436.647626,2516.700203,-9696.697840,2068.457845
436.647954,370.102971,-10362.883188,0.000000
436.648281,-1554.432478,-10807.006753,-459.657299
436.648609,0.000000,-10214.842000,0.000000
436.648936,1184.329507,-10140.821405,1608.800546
436.649264,2294.638420,-9918.759623,2987.772442
436.649591,1776.494261,-9622.677246,3524.039291
436.649919,-444.123565,-9696.697840,2834.553343
436.650246,-2368.659014,-9474.636058,919.314598
436.650574,-4071.132681,-9400.615463,-1072.533697
436.650901,-4737.318029,-9030.512492,-1915.238745
436.651229,-2442.679609,-8142.265362,-1225.752797
436.651556,-518.144159,-7550.100608,459.657299
436.651884,370.102971,-7031.956449,1608.800546
436.652211,-296.082377,-7476.080014,1838.629195
436.652539,-2294.638420,-8364.327145,76.609550
436.652866,-3997.112087,-9252.574275,-1378.971896
436.653194,-4737.318029,-9622.677246,-2145.067394
436.653521,-2812.782580,-9770.718434,-1378.971896
436.653849,-518.144159,-9030.512492,459.657299
436.654176,1776.494261,-8882.471304,2068.457845
436.654504,2146.597232,-9326.594869,2834.553343
436.654831,518.144159,-9548.656652,1685.410096
436.655159,-1480.411884,-9844.739029,0.000000
436.655486,-2590.720797,-9918.759623,-1532.190996
436.655814,-1850.514855,-9474.636058,-1838.629195
436.656141,1036.288319,-8586.388927,-766.095498
436.656469,3997.112087,-7846.182985,1072.533697
436.656796,5329.482782,-7994.224174,2528.115143
436.657124,3552.988522,-8142.265362,2221.676944
436.657451,2072.576638,-8808.450710,1532.190996
436.657779,592.164754,-9400.615463,0.000000
436.658106,-740.205942,-9918.759623,-766.095498
436.658434,962.267725,-9918.759623,0.000000
436.658761,2368.659014,-9178.553681,1991.848295
436.659089,2738.761985,-9252.574275,3983.696590
436.659416,2072.576638,-9178.553681,3677.258390
436.659744,-148.041188,-9622.677246,2528.115143
436.660071,-2886.803174,-9696.697840,536.266849
436.660399,-3701.029710,-9992.780217,-1072.533697
436.660726,-3552.988522,-9178.553681,-1762.019645
436.661054,-2146.597232,-8216.285956,-689.485948
436.661381,0.000000,-7846.182985,1072.533697
436.661709,0.000000,-7402.059420,1762.019645
436.662036,-1110.308913,-7624.121203,1302.362347
436.662364,-3034.844362,-8068.244768,-306.438199
436.662691,-4663.297435,-8808.450710,-1838.629195
436.663019,-5181.441594,-9252.574275,-2374.896044
436.663347,-3701.029710,-9178.553681,-1378.971896
436.663674,-740.205942,-8808.450710,689.485948
436.664002,1110.308913,-8956.491898,2374.896044
436.664329,740.205942,-9030.512492,2451.505594
436.664657,-666.185348,-9326.594869,1608.800546
436.664984,-2442.679609,-9770.718434,-536.266849
436.665312,-2886.803174,-9844.739029,-1915.238745
436.665639,-962.267725,-9252.574275,-1991.848295
436.665967,1776.494261,-8734.430116,-306.438199
436.666294,4811.338623,-7846.182985,1455.581446
436.666622,5477.523971,-8290.306550,2757.943793
436.666949,4219.173869,-8734.430116,2374.896044
436.667277,1850.514855,-9474.636058,612.876398
436.667604,0.000000,-9770.718434,0.000000
436.667932,962.267725,-10658.965565,-766.095498
436.668259,1406.391290,-10881.027347,612.876398
436.668587,2812.782580,-9992.780217,2757.943793
436.668914,3330.926739,-10140.821405,3983.696590
436.669242,1998.556043,-9992.780217,3830.477490
436.669569,-740.205942,-9474.636058,2374.896044
436.669897,-2738.761985,-9622.677246,459.657299
436.670224,-3997.112087,-9474.636058,-1072.533697
436.670552,-3108.864956,-8956.491898,-1072.533697
436.670879,-1406.391290,-7920.203579,0.000000
436.671207,518.144159,-6957.935855,1455.581446
436.671534,0.000000,-7179.997637,2374.896044
436.671862,-1480.411884,-7550.100608,1302.362347
436.672189,-3701.029710,-8216.285956,-229.828649
436.672517,-5329.482782,-8512.368333,-1532.190996
436.672844,-4885.359217,-9178.553681,-1608.800546
436.673172,-3330.926739,-9326.594869,-459.657299
436.673499,-296.082377,-8956.491898,1225.752797
436.673827,888.247130,-8808.450710,2451.505594
436.674154,296.082377,-9326.594869,2451.505594
436.674482,-1406.391290,-9844.739029,1532.190996
436.674809,-3330.926739,-10436.903782,-1225.752797
436.675137,-2960.823768,-10436.903782,-2221.676944
436.675464,-740.205942,-9400.615463,-2145.067394
436.675792,2516.700203,-8216.285956,-306.438199
436.676119,4959.379811,-7846.182985,1225.752797
436.676447,5477.523971,-7994.224174,2374.896044
436.676774,3923.091493,-8586.388927,1991.848295
436.677102,1110.308913,-9326.594869,229.828649
436.677429,0.000000,-10214.842000,0.000000
436.677757,370.102971,-9918.759623,-766.095498
436.678084,740.205942,-9548.656652,766.095498
436.678412,3627.009116,-9178.553681,2528.115143
436.678739,3182.885551,-9252.574275,3983.696590
436.679067,1702.473667,-9474.636058,3753.867940
436.679394,0.000000,-9770.718434,2145.067394
436.679722,-2368.659014,-9992.780217,0.000000
436.680049,-3701.029710,-9400.615463,-1225.752797
436.680377,-2960.823768,-9326.594869,-995.924147
436.680704,-1480.411884,-8216.285956,76.609550
436.681032,222.061783,-7698.141797,1378.971896
436.681359,222.061783,-7328.038826,2451.505594
436.681687,-1850.514855,-7920.203579,612.876398
436.682014,-4293.194464,-8586.388927,-995.924147
436.682342,-5773.606348,-9400.615463,-2298.286494
436.682669,-5403.503377,-9474.636058,-2451.505594
436.682997,-3552.988522,-8882.471304,-1149.143247
436.683324,-518.144159,-8216.285956,1149.143247
436.683652,592.164754,-8734.430116,2221.676944
436.683979,0.000000,-8956.491898,1915.238745
436.684307,-1850.514855,-9326.594869,76.609550
436.684634,-2886.803174,-10362.883188,-1455.581446
436.684962,-3108.864956,-9696.697840,-2604.724693
436.685289,-296.082377,-9400.615463,-1838.629195
436.685617,3108.864956,-8512.368333,0.000000
436.685944,5847.626942,-8290.306550,2068.457845
436.686272,6069.688724,-8586.388927,2757.943793
436.686599,4367.215058,-8956.491898,1378.971896
436.686927,2294.638420,-10066.800811,612.876398
436.687254,1480.411884,-10658.965565,-612.876398
436.687582,888.247130,-11103.089130,-153.219100
436.687909,3478.967927,-10436.903782,1072.533697
436.688237,4441.235652,-9992.780217,3294.210641
436.688564,3552.988522,-9918.759623,4290.134789
436.688892,2442.679609,-10362.883188,3677.258390
436.689219,-518.144159,-9622.677246,1915.238745
436.689547,-2960.823768,-10140.821405,-153.219100
436.689874,-2812.782580,-9992.780217,-1225.752797
436.690202,-2960.823768,-8882.471304,-1072.533697
436.690529,-1036.288319,-7920.203579,536.266849
436.690857,0.000000,-7179.997637,1838.629195
436.691184,-1332.370696,-7254.018232,2145.067394
436.691512,-2590.720797,-7920.203579,1149.143247
436.691839,-5107.421000,-8660.409521,-383.047749
436.692167,-6291.750507,-8586.388927,-2145.067394
436.692494,-5403.503377,-8734.430116,-1608.800546
436.692822,-3034.844362,-8586.388927,-153.219100
436.693149,-666.185348,-8364.327145,1532.190996
436.693477,74.020594,-7994.224174,3064.381992
436.693804,-740.205942,-9104.533087,2145.067394
436.694132,-2590.720797,-9548.656652,306.438199
436.694459,-3404.947333,-10584.944971,-1378.971896
436.694787,-2664.741391,-10288.862594,-1991.848295
436.695114,222.061783,-9548.656652,-995.924147
436.695442,2590.720797,-8068.244768,306.438199
436.695769,5033.400406,-8290.306550,2298.286494
436.696097,4737.318029,-8660.409521,2298.286494
436.696424,3108.864956,-9104.533087,995.924147
436.696752,1258.350101,-9844.739029,-229.828649
436.697079,0.000000,-9696.697840,-2068.457845
436.697407,740.205942,-10140.821405,-459.657299
436.697734,3923.091493,-9400.615463,1072.533697
436.698062,3775.050304,-9326.594869,2911.162892
436.698389,4219.173869,-9030.512492,3983.696590
436.698717,1924.535449,-9178.553681,3524.039291
436.699044,-1036.288319,-9770.718434,1302.362347
436.699372,-2368.659014,-9770.718434,-536.266849
436.699699,-2516.700203,-9918.759623,-842.705048
436.700027,-1480.411884,-8808.450710,-612.876398
436.700354,518.144159,-7920.203579,1378.971896
436.700682,740.205942,-7698.141797,1991.848295
436.701009,-148.041188,-7402.059420,1991.848295
436.701337,-1628.453072,-8068.244768,612.876398
436.701664,-3849.070898,-8290.306550,-1072.533697
436.701992,-4293.194464,-9030.512492,-2221.676944
436.702319,-3330.926739,-9030.512492,-1225.752797
436.702647,-1110.308913,-8586.388927,612.876398
436.702974,962.267725,-8364.327145,2528.115143
436.703302,518.144159,-8808.450710,3294.210641
436.703629,-666.185348,-9474.636058,2528.115143
436.703957,-3034.844362,-9844.739029,1302.362347
436.704284,-3849.070898,-10140.821405,-536.266849
436.704612,-3256.906145,-9622.677246,-995.924147
436.704939,-296.082377,-8882.471304,306.438199
436.705267,3108.864956,-8142.265362,2298.286494
436.705594,5181.441594,-7994.224174,4213.525239
436.705922,4589.276840,-8068.244768,3830.477490
436.706249,2294.638420,-9104.533087,2451.505594
436.706577,-296.082377,-9992.780217,842.705048
436.706904,-1480.411884,-10510.924376,0.000000
436.707232,-1998.556043,-10288.862594,689.485948
436.707559,1776.494261,-9622.677246,2374.896044
436.707887,4071.132681,-8364.327145,4826.401637
436.708214,4145.153275,-8586.388927,5975.544884
436.708542,2960.823768,-8956.491898,5362.668486
436.708869,888.247130,-9400.615463,4366.744339
436.709197,-2294.638420,-10362.883188,1685.410096
436.709524,-3404.947333,-10510.924376,1302.362347
436.709852,-3701.029710,-10140.821405,1455.581446
436.710179,-1702.473667,-8882.471304,2987.772442
436.710507,1258.350101,-7328.038826,5286.058936
436.710834,2812.782580,-6513.812290,5975.544884
436.711162,1628.453072,-7105.977043,5132.839837
436.711489,-518.144159,-8142.265362,3983.696590
436.711817,-4441.235652,-9844.739029,1991.848295
436.712144,-6513.812290,-10732.986159,1225.752797
436.712472,-6809.894666,-10288.862594,1072.533697
436.712799,-4811.338623,-9400.615463,2604.724693
436.713127,-1184.329507,-7994.224174,4060.306139
436.713454,2294.638420,-7179.997637,5745.716235
436.713782,2960.823768,-7105.977043,5745.716235
436.714109,1554.432478,-7698.141797,5286.058936
436.714437,-1110.308913,-9918.759623,3294.210641
436.714764,-3997.112087,-11029.068536,1455.581446
436.715092,-4811.338623,-11473.192101,1225.752797
436.715419,-3627.009116,-10807.006753,1991.848295
436.715747,-592.164754,-9474.636058,2681.334243
436.716074,2960.823768,-8290.306550,4290.134789
436.716402,4367.215058,-7698.141797,4443.353888
436.716729,4515.256246,-7920.203579,4673.182538
436.717057,3034.844362,-8882.471304,3064.381992
436.717384,74.020594,-9622.677246,2681.334243
436.717712,-592.164754,-9918.759623,2374.896044
436.718039,-814.226536,-10436.903782,2528.115143
436.718367,296.082377,-10140.821405,3294.210641
436.718694,1258.350101,-9622.677246,3753.867940
436.719022,1406.391290,-9548.656652,3907.087040
436.719349,666.185348,-9030.512492,4060.306139
436.719677,-592.164754,-9400.615463,2528.115143
436.720004,-1628.453072,-9400.615463,2145.067394
436.720332,-1628.453072,-8956.491898,1608.800546
436.720659,-370.102971,-8512.368333,1685.410096
436.720987,1258.350101,-7920.203579,2145.067394
436.721314,2442.679609,-7476.080014,3064.381992
436.721642,2294.638420,-8142.265362,3753.867940
436.721969,1258.350101,-8956.491898,3983.696590
436.722297,-814.226536,-9770.718434,4213.525239
436.722624,-2294.638420,-10140.821405,3907.087040
436.722952,-2664.741391,-9548.656652,3447.429741
436.723279,-2368.659014,-9696.697840,3140.991542
436.723607,-962.267725,-9474.636058,3447.429741
436.723934,222.061783,-9252.574275,3677.258390
436.724262,370.102971,-8586.388927,3983.696590
436.724589,222.061783,-8512.368333,3907.087040
436.724917,-518.144159,-8438.347739,3524.039291
436.725245,-1110.308913,-8068.244768,3370.820191
436.725572,-1110.308913,-7994.224174,2757.943793
436.725900,-888.247130,-7698.141797,2528.115143
436.726227,0.000000,-7920.203579,3370.820191
436.726555,518.144159,-8438.347739,3677.258390
436.726882,444.123565,-9252.574275,4443.353888
436.727210,0.000000,-9992.780217,4903.011187
436.727537,-962.267725,-10584.944971,4366.744339
436.727865,-1628.453072,-10140.821405,3907.087040
436.728192,-1480.411884,-9992.780217,3217.601092
436.728520,-1332.370696,-9104.533087,2834.553343
436.728847,-740.205942,-8586.388927,2757.943793
436.729175,0.000000,-8438.347739,2911.162892
436.729502,740.205942,-8216.285956,3140.991542
436.729830,222.061783,-8364.327145,2681.334243
436.730158,-370.102971,-8956.491898,2681.334243
436.730485,-518.144159,-9252.574275,2145.067394
436.730813,-888.247130,-9400.615463,1685.410096
436.731140,-740.205942,-9252.574275,1685.410096
436.731468,-222.061783,-9178.553681,1838.629195
436.731795,-666.185348,-9474.636058,2451.505594
436.732123,-592.164754,-9992.780217,2451.505594
436.732450,-888.247130,-10140.821405,2298.286494
436.732778,-1110.308913,-10066.800811,2068.457845
436.733105,-814.226536,-9622.677246,1762.019645
436.733433,0.000000,-9178.553681,1225.752797
436.733760,518.144159,-8734.430116,1149.143247
436.734088,1036.288319,-8512.368333,1532.190996
436.734415,1406.391290,-8364.327145,1685.410096
436.734743,1036.288319,-8586.388927,689.485948
436.735070,1110.308913,-8956.491898,1072.533697
436.735398,444.123565,-9548.656652,1072.533697
436.735726,444.123565,-9918.759623,919.314598
436.736053,296.082377,-10140.821405,1072.533697
436.736381,444.123565,-10066.800811,1455.581446
436.736708,962.267725,-10214.842000,1838.629195
436.737036,666.185348,-9770.718434,1991.848295
436.737363,370.102971,-9474.636058,1685.410096
436.737691,-296.082377,-9178.553681,1302.362347
436.738018,-666.185348,-8660.409521,1072.533697
436.738346,-962.267725,-9252.574275,459.657299
436.738673,-1480.411884,-8956.491898,459.657299
436.739001,-1110.308913,-8882.471304,612.876398
436.739328,-1184.329507,-8808.450710,766.095498
436.739656,-740.205942,-8808.450710,1072.533697
436.739983,-740.205942,-8142.265362,612.876398
436.740311,-888.247130,-8364.327145,153.219100
436.740638,-740.205942,-8290.306550,76.609550
436.740966,-962.267725,-8586.388927,306.438199
436.741294,-888.247130,-8882.471304,536.266849
436.741621,-296.082377,-9326.594869,1225.752797
436.741949,0.000000,-9104.533087,1608.800546
436.742276,148.041188,-9030.512492,1302.362347
436.742604,296.082377,-9030.512492,1225.752797
436.742931,444.123565,-8882.471304,1072.533697
436.743259,666.185348,-8660.409521,919.314598
436.743586,666.185348,-8586.388927,612.876398
436.743914,444.123565,-8734.430116,995.924147
436.744241,370.102971,-8808.450710,1149.143247
436.744569,296.082377,-9030.512492,1378.971896
436.744896,148.041188,-9252.574275,1378.971896
436.745224,0.000000,-9104.533087,1302.362347
436.745551,0.000000,-9252.574275,919.314598
436.745879,-518.144159,-9400.615463,919.314598
436.746207,-814.226536,-9030.512492,689.485948
436.746534,-592.164754,-8734.430116,842.705048
436.746862,-518.144159,-8734.430116,842.705048
436.747189,-1184.329507,-8660.409521,842.705048
436.747517,-1110.308913,-8882.471304,689.485948
436.747844,-1110.308913,-8660.409521,612.876398
436.748172,-1480.411884,-8808.450710,229.828649
436.748499,-1406.391290,-9030.512492,689.485948
436.748827,-888.247130,-9252.574275,459.657299
436.749154,-962.267725,-8734.430116,459.657299
436.749482,-370.102971,-8808.450710,766.095498
436.749809,0.000000,-8956.491898,766.095498
436.750137,518.144159,-9252.574275,766.095498
436.750464,74.020594,-9252.574275,689.485948
436.750792,0.000000,-9696.697840,612.876398
436.751119,0.000000,-9992.780217,766.095498
436.751447,-296.082377,-10140.821405,612.876398
436.751775,0.000000,-10066.800811,1149.143247
436.752102,148.041188,-9844.739029,919.314598
436.752430,740.205942,-9548.656652,612.876398
436.752757,888.247130,-9548.656652,612.876398
436.753085,592.164754,-9400.615463,383.047749
436.753412,370.102971,-9474.636058,306.438199
436.753740,-444.123565,-8734.430116,995.924147
436.754067,0.000000,-9400.615463,689.485948
436.754395,-518.144159,-9474.636058,536.266849
436.754722,-592.164754,-9474.636058,459.657299
436.755050,-296.082377,-9252.574275,536.266849
436.755377,-370.102971,-8956.491898,459.657299
436.755705,0.000000,-8438.347739,612.876398
436.756032,-222.061783,-8734.430116,153.219100
436.756360,-296.082377,-8660.409521,383.047749
436.756688,-444.123565,-8808.450710,76.609550
436.757015,-148.041188,-8882.471304,612.876398
436.757343,-592.164754,-8956.491898,153.219100
436.757670,-962.267725,-9252.574275,306.438199
436.757998,-962.267725,-9030.512492,306.438199
436.758325,-888.247130,-9400.615463,459.657299
436.758653,-518.144159,-9030.512492,536.266849
436.758980,-370.102971,-8438.347739,995.924147
436.759308,-222.061783,-8734.430116,536.266849
436.759635,0.000000,-8734.430116,536.266849
436.759963,-444.123565,-8808.450710,229.828649
436.760290,-666.185348,-8956.491898,689.485948
436.760618,-592.164754,-9178.553681,1072.533697
436.760945,-962.267725,-9548.656652,995.924147
436.761273,-962.267725,-9474.636058,842.705048
436.761600,-740.205942,-9030.512492,842.705048
436.761928,-222.061783,-8956.491898,612.876398
436.762256,0.000000,-8364.327145,1072.533697
436.762583,0.000000,-7920.203579,229.828649
436.762911,-370.102971,-8364.327145,459.657299
436.763238,-666.185348,-8586.388927,612.876398
436.763566,-962.267725,-9104.533087,842.705048
436.763893,-740.205942,-9400.615463,306.438199
436.764221,-518.144159,-9548.656652,766.095498
436.764548,-592.164754,-9030.512492,689.485948
436.764876,-296.082377,-9178.553681,919.314598
436.765203,222.061783,-8956.491898,689.485948
436.765531,222.061783,-8660.409521,612.876398
436.765858,296.082377,-8512.368333,459.657299
436.766186,-222.061783,-8734.430116,459.657299
436.766513,-370.102971,-9326.594869,766.095498
436.766841,-592.164754,-9696.697840,1072.533697
436.767168,-592.164754,-9548.656652,689.485948
436.767496,-296.082377,-9104.533087,919.314598
436.767824,0.000000,-9178.553681,919.314598
436.768151,-222.061783,-8882.471304,383.047749
436.768479,0.000000,-8586.388927,153.219100
436.768806,-296.082377,-8512.368333,153.219100
436.769134,-222.061783,-8512.368333,306.438199
436.769461,-814.226536,-8734.430116,229.828649
436.769789,-888.247130,-9400.615463,383.047749
436.770116,-666.185348,-9696.697840,612.876398
436.770444,-592.164754,-9400.615463,612.876398
436.770771,-296.082377,-9252.574275,612.876398
436.771099,0.000000,-9030.512492,689.485948
436.771426,0.000000,-8882.471304,76.609550
436.771754,222.061783,-8808.450710,76.609550
436.772081,74.020594,-9178.553681,459.657299
436.772409,74.020594,-9548.656652,536.266849
436.772737,444.123565,-9992.780217,842.705048
436.773064,74.020594,-9992.780217,919.314598
436.773392,444.123565,-9770.718434,995.924147
436.773719,592.164754,-9622.677246,766.095498
436.774047,666.185348,-9104.533087,459.657299
436.774374,666.185348,-8364.327145,306.438199
436.774702,370.102971,-8438.347739,229.828649
436.775029,74.020594,-8586.388927,459.657299
436.775357,0.000000,-9104.533087,612.876398
436.775684,-148.041188,-9252.574275,536.266849
436.776012,0.000000,-9252.574275,842.705048
436.776339,148.041188,-8956.491898,459.657299
436.776667,0.000000,-9030.512492,459.657299
436.776994,74.020594,-8734.430116,153.219100
436.777322,0.000000,-8586.388927,459.657299
436.777649,0.000000,-8142.265362,306.438199
436.777977,-148.041188,-8808.450710,536.266849
436.778305,-444.123565,-9252.574275,536.266849
436.778632,-222.061783,-9696.697840,689.485948
436.778960,-296.082377,-9548.656652,689.485948
436.779287,-296.082377,-9474.636058,612.876398
