#time,accel_x,accel_y,accel_z
267.226740,-370.102971,-8808.450710,842.705048
267.227067,-222.061783,-9030.512492,766.095498
267.227394,-222.061783,-9178.553681,766.095498
267.227722,-296.082377,-9104.533087,689.485948
267.228049,-74.020594,-9178.553681,919.314598
267.228377,0.000000,-8882.471304,842.705048
267.228704,-222.061783,-9252.574275,459.657299
267.229031,-370.102971,-9030.512492,383.047749
267.229359,-518.144159,-8956.491898,766.095498
267.229686,-148.041188,-9104.533087,459.657299
267.230014,0.000000,-8956.491898,842.705048
267.230341,0.000000,-9104.533087,229.828649
267.230668,-370.102971,-9178.553681,459.657299
267.230996,0.000000,-9326.594869,306.438199
267.231323,-370.102971,-8956.491898,536.266849
267.231651,-444.123565,-9030.512492,919.314598
267.231978,-148.041188,-8956.491898,612.876398
267.232305,0.000000,-9030.512492,383.047749
267.232633,-370.102971,-9178.553681,459.657299
267.232960,-222.061783,-9252.574275,536.266849
267.233288,-296.082377,-9474.636058,153.219100
267.233615,-592.164754,-9030.512492,766.095498
267.233942,-222.061783,-9326.594869,689.485948
267.234270,-222.061783,-9252.574275,689.485948
267.234597,-296.082377,-9104.533087,766.095498
267.234925,-222.061783,-9474.636058,766.095498
267.235252,-296.082377,-8808.450710,1072.533697
267.235579,-222.061783,-9252.574275,459.657299
267.235907,-518.144159,-9252.574275,612.876398
267.236234,-962.267725,-9474.636058,0.000000
267.236562,-1480.411884,-9474.636058,-153.219100
267.236889,-1702.473667,-9474.636058,76.609550
267.237216,-888.247130,-9030.512492,-383.047749
267.237544,-370.102971,-9104.533087,-383.047749
267.237871,-518.144159,-9104.533087,-459.657299
267.238199,-814.226536,-9178.553681,-612.876398
267.238526,-1184.329507,-9104.533087,-383.047749
267.238853,-1036.288319,-8808.450710,-1532.190996
267.239181,-1258.350101,-9030.512492,-1302.362347
267.239508,-814.226536,-9104.533087,-1455.581446
267.239836,-444.123565,-9400.615463,-1225.752797
267.240163,0.000000,-9178.553681,-689.485948
267.240490,148.041188,-8956.491898,-1072.533697
267.240818,148.041188,-9252.574275,-1072.533697
267.241145,0.000000,-9326.594869,-1378.971896
267.241473,148.041188,-9252.574275,-1532.190996
267.241800,370.102971,-9104.533087,-1302.362347
267.242127,740.205942,-9030.512492,-842.705048
267.242455,740.205942,-9252.574275,-842.705048
267.242782,740.205942,-9474.636058,-1072.533697
267.243110,740.205942,-9548.656652,-689.485948
267.243437,740.205942,-9400.615463,-919.314598
267.243764,444.123565,-9178.553681,306.438199
267.244092,518.144159,-9622.677246,-1225.752797
267.244419,0.000000,-9474.636058,-1072.533697
267.244747,296.082377,-9178.553681,-1072.533697
267.245074,148.041188,-9104.533087,-536.266849
267.245401,222.061783,-8882.471304,-383.047749
267.245729,-222.061783,-8956.491898,-842.705048
267.246056,-518.144159,-9104.533087,-689.485948
267.246384,-1036.288319,-9030.512492,-689.485948
267.246711,-1110.308913,-8734.430116,-919.314598
267.247038,-1258.350101,-8808.450710,-1302.362347
267.247366,-888.247130,-9252.574275,-766.095498
267.247693,-1184.329507,-8882.471304,-766.095498
267.248021,-1332.370696,-8956.491898,-995.924147
267.248348,-1258.350101,-9030.512492,-1072.533697
267.248675,-1406.391290,-8882.471304,-1072.533697
267.249003,-1110.308913,-9178.553681,-1149.143247
267.249330,-1258.350101,-9030.512492,-1532.190996
267.249658,-1332.370696,-9030.512492,-1149.143247
267.249985,-1110.308913,-9030.512492,-1072.533697
267.250312,-1036.288319,-8956.491898,-919.314598
267.250640,-518.144159,-8808.450710,-1838.629195
267.250967,0.000000,-9030.512492,-612.876398
267.251295,148.041188,-9252.574275,-689.485948
267.251622,370.102971,-9104.533087,-153.219100
267.251949,296.082377,-9030.512492,-306.438199
267.252277,962.267725,-9400.615463,-153.219100
267.252604,962.267725,-9252.574275,76.609550
267.252932,888.247130,-9030.512492,0.000000
267.253259,962.267725,-9252.574275,383.047749
267.253586,1036.288319,-9474.636058,383.047749
267.253914,814.226536,-9104.533087,612.876398
267.254241,1258.350101,-8882.471304,383.047749
267.254569,1036.288319,-9030.512492,612.876398
267.254896,666.185348,-9104.533087,766.095498
267.255223,222.061783,-9326.594869,612.876398
267.255551,0.000000,-9474.636058,919.314598
267.255878,148.041188,-9474.636058,612.876398
267.256206,-518.144159,-9030.512492,612.876398
267.256533,-888.247130,-9326.594869,612.876398
267.256860,-1628.453072,-9178.553681,383.047749
267.257188,-2072.576638,-9326.594869,306.438199
267.257515,-1924.535449,-9178.553681,229.828649
267.257843,-2516.700203,-9104.533087,-612.876398
267.258170,-2294.638420,-8956.491898,-383.047749
267.258497,-2294.638420,-8956.491898,0.000000
267.258825,-1850.514855,-8586.388927,0.000000
267.259152,-1258.350101,-8438.347739,153.219100
267.259480,-1036.288319,-8512.368333,306.438199
267.259807,-962.267725,-8734.430116,153.219100
267.260134,-888.247130,-9104.533087,0.000000
267.260462,-666.185348,-9474.636058,229.828649
267.260789,-74.020594,-8956.491898,842.705048
267.261117,888.247130,-8808.450710,1072.533697
267.261444,1332.370696,-8956.491898,1225.752797
267.261771,2220.617826,-9400.615463,1608.800546
267.262099,2368.659014,-9252.574275,1915.238745
267.262426,2442.679609,-9252.574275,1991.848295
267.262754,2368.659014,-9474.636058,1991.848295
267.263081,1776.494261,-9474.636058,1915.238745
267.263408,1110.308913,-9918.759623,1762.019645
267.263736,592.164754,-9918.759623,1991.848295
267.264063,592.164754,-9622.677246,1378.971896
267.264391,74.020594,-9696.697840,1302.362347
267.264718,-518.144159,-9474.636058,1302.362347
267.265045,-1258.350101,-9326.594869,842.705048
267.265373,-1998.556043,-9104.533087,153.219100
267.265700,-1776.494261,-8734.430116,76.609550
267.266028,-2072.576638,-9178.553681,0.000000
267.266355,-2368.659014,-8142.265362,-229.828649
267.266682,-2220.617826,-8290.306550,0.000000
267.267010,-2146.597232,-8068.244768,0.000000
267.267337,-1850.514855,-7994.224174,0.000000
267.267665,-1850.514855,-8142.265362,0.000000
267.267992,-1850.514855,-8068.244768,-383.047749
267.268319,-1480.411884,-8660.409521,153.219100
267.268647,-1332.370696,-8808.450710,0.000000
267.268974,-740.205942,-9030.512492,76.609550
267.269302,370.102971,-9252.574275,536.266849
267.269629,1332.370696,-9178.553681,995.924147
267.269956,1776.494261,-9400.615463,1072.533697
267.270284,1628.453072,-9400.615463,995.924147
267.270611,1850.514855,-9770.718434,995.924147
267.270939,1628.453072,-9770.718434,995.924147
267.271266,1628.453072,-10140.821405,1455.581446
267.271593,1036.288319,-9770.718434,1149.143247
267.271921,592.164754,-9992.780217,76.609550
267.272248,296.082377,-9918.759623,689.485948
267.272576,296.082377,-9696.697840,306.438199
267.272903,-666.185348,-9548.656652,76.609550
267.273230,-444.123565,-9178.553681,229.828649
267.273558,-888.247130,-9104.533087,-383.047749
267.273885,-1406.391290,-8734.430116,-612.876398
267.274213,-1332.370696,-8364.327145,-536.266849
267.274540,-962.267725,-8290.306550,-536.266849
267.274867,-962.267725,-7846.182985,-383.047749
267.275195,-592.164754,-7994.224174,-383.047749
267.275522,-888.247130,-8142.265362,-153.219100
267.275850,-296.082377,-8512.368333,-306.438199
267.276177,-222.061783,-8660.409521,229.828649
267.276504,0.000000,-8882.471304,0.000000
267.276832,74.020594,-9104.533087,689.485948
267.277159,444.123565,-9326.594869,383.047749
267.277487,518.144159,-9400.615463,766.095498
267.277814,1110.308913,-9548.656652,1149.143247
267.278141,1036.288319,-9696.697840,1302.362347
267.278469,1036.288319,-9696.697840,1532.190996
267.278796,888.247130,-10140.821405,1455.581446
267.279124,370.102971,-9696.697840,1149.143247
267.279451,0.000000,-9918.759623,1072.533697
267.279778,-296.082377,-9622.677246,1149.143247
267.280106,-962.267725,-9400.615463,1608.800546
267.280433,-962.267725,-9474.636058,1072.533697
267.280761,-1480.411884,-9104.533087,306.438199
267.281088,-2072.576638,-8882.471304,536.266849
267.281415,-1776.494261,-8512.368333,76.609550
267.281743,-2220.617826,-8290.306550,-536.266849
267.282071,-1554.432478,-8216.285956,0.000000
267.282398,-1480.411884,-7994.224174,0.000000
267.282726,-1554.432478,-8216.285956,0.000000
267.283054,-1480.411884,-8142.265362,0.000000
267.283382,-1036.288319,-8068.244768,153.219100
267.283709,-1184.329507,-8216.285956,229.828649
267.284037,-296.082377,-8882.471304,306.438199
267.284365,148.041188,-8882.471304,306.438199
267.284692,592.164754,-9178.553681,689.485948
267.285020,1110.308913,-9252.574275,1378.971896
267.285348,1554.432478,-9178.553681,1149.143247
267.285676,1480.411884,-9548.656652,1072.533697
267.286003,1554.432478,-9770.718434,1149.143247
267.286331,1184.329507,-9918.759623,1455.581446
267.286659,1110.308913,-9696.697840,1378.971896
267.286986,1110.308913,-10066.800811,1455.581446
267.287314,370.102971,-9844.739029,1149.143247
267.287642,0.000000,-9770.718434,766.095498
267.287969,-444.123565,-9622.677246,536.266849
267.288297,-1184.329507,-9326.594869,153.219100
267.288625,-1480.411884,-8882.471304,612.876398
267.288953,-1184.329507,-8068.244768,0.000000
267.289280,-1924.535449,-8364.327145,-229.828649
267.289608,-1554.432478,-8438.347739,-383.047749
267.289936,-1406.391290,-8364.327145,-306.438199
267.290263,-1258.350101,-7698.141797,0.000000
267.290591,-666.185348,-8068.244768,-153.219100
267.290919,-888.247130,-8438.347739,0.000000
267.291247,-740.205942,-8660.409521,229.828649
267.291574,0.000000,-8956.491898,536.266849
267.291902,0.000000,-9030.512492,766.095498
267.292230,518.144159,-8882.471304,1378.971896
267.292557,592.164754,-9400.615463,1149.143247
267.292885,888.247130,-9326.594869,1532.190996
267.293213,1258.350101,-9548.656652,1532.190996
267.293541,1480.411884,-9474.636058,1838.629195
267.293868,1110.308913,-9622.677246,1915.238745
267.294196,962.267725,-9992.780217,1608.800546
267.294524,444.123565,-9770.718434,1608.800546
267.294851,0.000000,-9696.697840,1302.362347
267.295179,-296.082377,-9622.677246,1149.143247
267.295507,-148.041188,-9474.636058,612.876398
267.295834,-814.226536,-9252.574275,459.657299
267.296162,-1480.411884,-9178.553681,459.657299
267.296490,-1480.411884,-8882.471304,612.876398
267.296818,-1776.494261,-8586.388927,459.657299
267.297145,-1554.432478,-8438.347739,0.000000
267.297473,-1702.473667,-8216.285956,229.828649
267.297801,-1554.432478,-8290.306550,153.219100
267.298128,-1554.432478,-8290.306550,76.609550
267.298456,-1184.329507,-8586.388927,229.828649
267.298784,-1184.329507,-8660.409521,689.485948
267.299112,-1184.329507,-9030.512492,229.828649
267.299439,-370.102971,-9252.574275,306.438199
267.299767,0.000000,-9326.594869,536.266849
267.300095,518.144159,-9326.594869,689.485948
267.300422,888.247130,-9918.759623,1608.800546
267.300750,1258.350101,-9474.636058,1225.752797
267.301078,1332.370696,-9770.718434,995.924147
267.301405,1258.350101,-9696.697840,1149.143247
267.301733,1184.329507,-9844.739029,1072.533697
267.302061,814.226536,-9770.718434,1072.533697
267.302389,888.247130,-9474.636058,995.924147
267.302716,222.061783,-9918.759623,842.705048
267.303044,0.000000,-9770.718434,612.876398
267.303372,-370.102971,-9474.636058,383.047749
267.303699,-962.267725,-9252.574275,153.219100
267.304027,-666.185348,-8734.430116,229.828649
267.304355,-1110.308913,-8882.471304,-459.657299
267.304683,-1184.329507,-8512.368333,-383.047749
267.305010,-1110.308913,-8512.368333,-229.828649
267.305338,-1036.288319,-8512.368333,0.000000
267.305666,-888.247130,-8438.347739,0.000000
267.305993,-740.205942,-7920.203579,0.000000
267.306321,-518.144159,-8660.409521,153.219100
267.306649,-444.123565,-8734.430116,-153.219100
267.306977,-296.082377,-8882.471304,306.438199
267.307304,0.000000,-9178.553681,459.657299
267.307632,592.164754,-9178.553681,995.924147
267.307960,592.164754,-9474.636058,919.314598
267.308287,666.185348,-9400.615463,1072.533697
267.308615,962.267725,-9474.636058,1149.143247
267.308943,1184.329507,-9474.636058,1455.581446
267.309270,1110.308913,-9474.636058,2451.505594
267.309598,888.247130,-9326.594869,1302.362347
267.309926,444.123565,-9474.636058,1378.971896
267.310254,148.041188,-9400.615463,1149.143247
267.310581,-592.164754,-9474.636058,1072.533697
267.310909,-1036.288319,-8882.471304,766.095498
267.311237,-1332.370696,-8956.491898,1072.533697
267.311564,-1258.350101,-8956.491898,229.828649
267.311892,-1850.514855,-8808.450710,153.219100
267.312220,-1850.514855,-8512.368333,76.609550
267.312548,-1628.453072,-8734.430116,-383.047749
267.312875,-1776.494261,-8660.409521,0.000000
267.313203,-1628.453072,-8216.285956,-229.828649
267.313531,-1702.473667,-8290.306550,0.000000
267.313858,-1406.391290,-8512.368333,0.000000
267.314186,-1110.308913,-8438.347739,76.609550
267.314514,0.000000,-8586.388927,536.266849
267.314841,0.000000,-9104.533087,0.000000
267.315169,148.041188,-9252.574275,383.047749
267.315497,666.185348,-9400.615463,229.828649
267.315825,1110.308913,-9548.656652,689.485948
267.316152,1554.432478,-9400.615463,536.266849
267.316480,1258.350101,-9474.636058,995.924147
267.316808,1554.432478,-9770.718434,1149.143247
267.317135,1554.432478,-9918.759623,1378.971896
267.317463,1332.370696,-9918.759623,1378.971896
267.317791,518.144159,-9770.718434,1225.752797
267.318119,222.061783,-9844.739029,842.705048
267.318446,-296.082377,-9770.718434,536.266849
267.318774,-444.123565,-9474.636058,383.047749
267.319102,-1036.288319,-9252.574275,0.000000
267.319429,-888.247130,-8882.471304,0.000000
267.319757,-1184.329507,-8512.368333,229.828649
267.320085,-1480.411884,-8808.450710,-229.828649
267.320413,-1554.432478,-8660.409521,0.000000
267.320740,-1406.391290,-8364.327145,-229.828649
267.321068,-1406.391290,-8290.306550,0.000000
267.321396,-1332.370696,-8068.244768,153.219100
267.321723,-666.185348,-8512.368333,76.609550
267.322051,-814.226536,-8512.368333,383.047749
267.322379,-148.041188,-9030.512492,536.266849
267.322706,0.000000,-9178.553681,995.924147
267.323034,0.000000,-9622.677246,612.876398
267.323362,370.102971,-9178.553681,1225.752797
267.323690,814.226536,-9548.656652,1532.190996
267.324017,1110.308913,-9474.636058,1455.581446
267.324345,1036.288319,-9770.718434,1685.410096
267.324673,888.247130,-9622.677246,2145.067394
267.325000,592.164754,-9770.718434,1608.800546
267.325328,592.164754,-9844.739029,1302.362347
267.325656,-148.041188,-9622.677246,1225.752797
267.325984,-296.082377,-9696.697840,842.705048
267.326311,-1036.288319,-8882.471304,1302.362347
267.326639,-888.247130,-9400.615463,689.485948
267.326967,-1406.391290,-9030.512492,306.438199
267.327294,-1702.473667,-8808.450710,76.609550
267.327622,-1628.453072,-8512.368333,229.828649
267.327950,-1776.494261,-8068.244768,0.000000
267.328277,-1850.514855,-7920.203579,153.219100
267.328605,-1850.514855,-8216.285956,0.000000
267.328933,-1480.411884,-8216.285956,0.000000
267.329261,-1258.350101,-8438.347739,76.609550
267.329588,-962.267725,-8586.388927,383.047749
267.329916,-518.144159,-8808.450710,842.705048
267.330244,74.020594,-9030.512492,229.828649
267.330571,222.061783,-8956.491898,536.266849
267.330899,592.164754,-9400.615463,842.705048
267.331227,1110.308913,-9474.636058,919.314598
267.331555,962.267725,-8956.491898,1072.533697
267.331882,1332.370696,-9622.677246,1302.362347
267.332210,1702.473667,-9844.739029,1149.143247
267.332538,1406.391290,-9992.780217,995.924147
267.332865,1110.308913,-9844.739029,919.314598
267.333193,1110.308913,-9844.739029,1072.533697
267.333521,74.020594,-9622.677246,689.485948
267.333849,-222.061783,-9474.636058,536.266849
267.334176,-296.082377,-9326.594869,153.219100
267.334504,-888.247130,-9326.594869,0.000000
267.334832,-1110.308913,-8734.430116,0.000000
267.335159,-1110.308913,-8364.327145,-306.438199
267.335487,-1332.370696,-8364.327145,-536.266849
267.335815,-1332.370696,-8216.285956,-383.047749
267.336142,-1184.329507,-8290.306550,-536.266849
267.336470,-1184.329507,-8142.265362,-306.438199
267.336798,-740.205942,-8142.265362,-383.047749
267.337126,-444.123565,-8512.368333,153.219100
267.337453,-740.205942,-8512.368333,229.828649
267.337781,-148.041188,-8882.471304,383.047749
267.338109,222.061783,-9474.636058,766.095498
267.338436,444.123565,-9474.636058,995.924147
267.338764,296.082377,-9326.594869,995.924147
267.339092,888.247130,-9696.697840,919.314598
267.339420,962.267725,-9696.697840,1302.362347
267.339747,1110.308913,-9696.697840,1302.362347
267.340075,962.267725,-9844.739029,1378.971896
267.340403,1036.288319,-9696.697840,1455.581446
267.340730,444.123565,-9770.718434,1378.971896
267.341058,-148.041188,-9326.594869,1072.533697
267.341386,-740.205942,-9548.656652,689.485948
267.341714,-888.247130,-9474.636058,612.876398
267.342041,-1258.350101,-9326.594869,612.876398
267.342369,-1480.411884,-9030.512492,536.266849
267.342697,-1702.473667,-8734.430116,306.438199
267.343024,-1924.535449,-8808.450710,76.609550
267.343352,-1998.556043,-8290.306550,0.000000
267.343680,-1554.432478,-8290.306550,0.000000
267.344007,-1702.473667,-8142.265362,0.000000
267.344335,-1406.391290,-8586.388927,-153.219100
267.344663,-1258.350101,-8364.327145,0.000000
267.344991,-1184.329507,-8660.409521,0.000000
267.345318,-666.185348,-8734.430116,383.047749
267.345646,-296.082377,-9030.512492,612.876398
267.345974,148.041188,-9400.615463,459.657299
267.346301,518.144159,-9474.636058,612.876398
267.346629,962.267725,-9548.656652,689.485948
267.346957,1406.391290,-9474.636058,1072.533697
267.347285,1924.535449,-9770.718434,1455.581446
267.347612,1628.453072,-9696.697840,1455.581446
267.347940,1554.432478,-9696.697840,1378.971896
267.348268,962.267725,-9622.677246,1149.143247
267.348595,814.226536,-9844.739029,1149.143247
267.348923,518.144159,-9548.656652,919.314598
267.349251,-148.041188,-9326.594869,536.266849
267.349578,-814.226536,-9400.615463,229.828649
267.349906,-666.185348,-8956.491898,0.000000
267.350234,-1258.350101,-8956.491898,0.000000
267.350562,-1184.329507,-8882.471304,153.219100
267.350889,-1258.350101,-8512.368333,-383.047749
267.351217,-1332.370696,-8290.306550,-229.828649
267.351545,-1332.370696,-8068.244768,-306.438199
267.351872,-1184.329507,-8068.244768,-306.438199
267.352200,-814.226536,-8586.388927,0.000000
267.352528,-296.082377,-8438.347739,153.219100
267.352856,-296.082377,-8660.409521,306.438199
267.353183,0.000000,-9030.512492,383.047749
267.353511,0.000000,-9326.594869,766.095498
267.353839,296.082377,-9474.636058,1072.533697
267.354166,740.205942,-9252.574275,1455.581446
267.354494,814.226536,-9474.636058,1532.190996
267.354822,888.247130,-9474.636058,1685.410096
267.355150,962.267725,-9770.718434,1762.019645
267.355477,888.247130,-9770.718434,1762.019645
267.355805,592.164754,-9400.615463,1915.238745
267.356133,518.144159,-9474.636058,1608.800546
267.356460,0.000000,-9474.636058,1378.971896
267.356788,-740.205942,-9474.636058,1149.143247
267.357116,-962.267725,-9474.636058,766.095498
267.357443,-1258.350101,-9474.636058,153.219100
267.357771,-1924.535449,-8586.388927,689.485948
267.358099,-1850.514855,-8734.430116,153.219100
267.358427,-2146.597232,-8660.409521,229.828649
267.358754,-1998.556043,-8586.388927,0.000000
267.359082,-1554.432478,-8068.244768,229.828649
267.359410,-1554.432478,-8068.244768,76.609550
267.359737,-1554.432478,-8142.265362,0.000000
267.360065,-1332.370696,-8586.388927,229.828649
267.360393,-888.247130,-8808.450710,153.219100
267.360721,-296.082377,-8734.430116,229.828649
267.361048,222.061783,-9030.512492,153.219100
267.361376,148.041188,-9326.594869,306.438199
267.361704,888.247130,-9326.594869,612.876398
267.362031,1184.329507,-9548.656652,919.314598
267.362359,1628.453072,-9548.656652,1149.143247
267.362687,1998.556043,-9992.780217,1302.362347
267.363014,1332.370696,-9474.636058,1302.362347
267.363342,1258.350101,-9992.780217,1149.143247
267.363670,1036.288319,-10140.821405,1072.533697
267.363998,296.082377,-9770.718434,995.924147
267.364325,74.020594,-9844.739029,459.657299
267.364653,-444.123565,-9326.594869,612.876398
267.364981,-1184.329507,-9474.636058,229.828649
267.365308,-962.267725,-9178.553681,0.000000
267.365636,-1332.370696,-8956.491898,0.000000
267.365964,-1258.350101,-9030.512492,0.000000
267.366292,-1406.391290,-8438.347739,-229.828649
267.366619,-1406.391290,-8364.327145,-153.219100
267.366947,-1332.370696,-8068.244768,-383.047749
267.367275,-1184.329507,-8364.327145,0.000000
267.367602,-962.267725,-8512.368333,-153.219100
267.367930,-370.102971,-8290.306550,0.000000
267.368258,0.000000,-8586.388927,536.266849
267.368586,-296.082377,-8956.491898,689.485948
267.368913,222.061783,-9400.615463,536.266849
267.369241,296.082377,-9252.574275,689.485948
267.369569,814.226536,-9400.615463,1455.581446
267.369896,740.205942,-9400.615463,1302.362347
267.370224,1036.288319,-9622.677246,1302.362347
267.370552,1258.350101,-9622.677246,1378.971896
267.370879,1110.308913,-9622.677246,1455.581446
267.371207,888.247130,-9474.636058,1302.362347
267.371535,740.205942,-9474.636058,1378.971896
267.371863,-370.102971,-9622.677246,1072.533697
267.372190,-740.205942,-9474.636058,842.705048
267.372518,-740.205942,-9178.553681,766.095498
267.372846,-1332.370696,-9030.512492,306.438199
267.373173,-1332.370696,-8734.430116,536.266849
267.373501,-1776.494261,-8734.430116,0.000000
267.373829,-1702.473667,-8586.388927,0.000000
267.374157,-1924.535449,-8142.265362,76.609550
267.374484,-1628.453072,-8290.306550,0.000000
267.374812,-1850.514855,-8216.285956,76.609550
267.375140,-1702.473667,-8438.347739,-76.609550
267.375467,-1184.329507,-8216.285956,0.000000
267.375795,-888.247130,-8512.368333,0.000000
267.376123,-444.123565,-8808.450710,306.438199
267.376451,-296.082377,-8956.491898,689.485948
267.376778,518.144159,-9326.594869,842.705048
267.377106,518.144159,-9326.594869,689.485948
267.377434,1036.288319,-9474.636058,766.095498
267.377761,1406.391290,-9770.718434,1072.533697
267.378089,1776.494261,-9992.780217,536.266849
267.378417,1628.453072,-10140.821405,1302.362347
267.378744,1406.391290,-9844.739029,1149.143247
267.379072,1110.308913,-9844.739029,1302.362347
267.379400,666.185348,-9918.759623,766.095498
267.379728,296.082377,-9844.739029,766.095498
267.380055,0.000000,-9622.677246,842.705048
267.380383,-592.164754,-9474.636058,229.828649
267.380711,-1036.288319,-8882.471304,0.000000
267.381038,-1480.411884,-8660.409521,-153.219100
267.381366,-1332.370696,-8808.450710,-383.047749
267.381694,-1036.288319,-8586.388927,-689.485948
267.382022,-1406.391290,-8364.327145,-306.438199
267.382349,-1184.329507,-8512.368333,-459.657299
267.382677,-1480.411884,-8290.306550,-383.047749
267.383005,-1258.350101,-8438.347739,0.000000
267.383332,-888.247130,-7920.203579,229.828649
267.383660,-370.102971,-8808.450710,612.876398
267.383987,0.000000,-8808.450710,612.876398
267.384314,296.082377,-9326.594869,919.314598
267.384642,296.082377,-9548.656652,1225.752797
267.384969,1258.350101,-9622.677246,1302.362347
267.385297,1480.411884,-9548.656652,1302.362347
267.385624,1258.350101,-9474.636058,1762.019645
267.385952,1184.329507,-9474.636058,1685.410096
267.386279,1332.370696,-9770.718434,1608.800546
267.386607,740.205942,-9548.656652,1608.800546
267.386934,370.102971,-9622.677246,1685.410096
267.387261,0.000000,-9474.636058,995.924147
267.387589,-518.144159,-9622.677246,1302.362347
267.387916,-962.267725,-9474.636058,842.705048
267.388244,-1480.411884,-9178.553681,689.485948
267.388571,-1332.370696,-8808.450710,0.000000
267.388899,-1850.514855,-8364.327145,459.657299
267.389226,-2072.576638,-8290.306550,383.047749
267.389553,-2146.597232,-8364.327145,153.219100
267.389881,-1998.556043,-8290.306550,76.609550
267.390208,-2072.576638,-8438.347739,689.485948
267.390536,-1332.370696,-8068.244768,-229.828649
267.390863,-1480.411884,-8290.306550,153.219100
267.391191,-962.267725,-8586.388927,0.000000
267.391518,-592.164754,-8808.450710,536.266849
267.391846,-296.082377,-8734.430116,612.876398
267.392173,444.123565,-9400.615463,842.705048
267.392500,666.185348,-9400.615463,919.314598
267.392828,888.247130,-9622.677246,842.705048
267.393155,1332.370696,-9696.697840,995.924147
267.393483,1184.329507,-9622.677246,1378.971896
267.393810,1702.473667,-9696.697840,1455.581446
267.394138,1110.308913,-9696.697840,1302.362347
267.394465,888.247130,-9844.739029,1302.362347
267.394793,814.226536,-9844.739029,919.314598
267.395120,222.061783,-9548.656652,536.266849
267.395447,-222.061783,-9918.759623,153.219100
267.395775,-592.164754,-9104.533087,153.219100
267.396102,-740.205942,-9252.574275,0.000000
267.396430,-1036.288319,-8734.430116,0.000000
267.396757,-1332.370696,-8586.388927,-306.438199
267.397085,-1406.391290,-8216.285956,-153.219100
267.397412,-1184.329507,-8216.285956,0.000000
267.397740,-1110.308913,-8364.327145,-306.438199
267.398067,-1332.370696,-8364.327145,-383.047749
267.398394,-814.226536,-8660.409521,0.000000
267.398722,-592.164754,-8660.409521,383.047749
267.399049,-370.102971,-8586.388927,306.438199
267.399377,0.000000,-8956.491898,229.828649
267.399704,222.061783,-9400.615463,612.876398
267.400032,370.102971,-9474.636058,919.314598
267.400359,518.144159,-9696.697840,766.095498
267.400687,962.267725,-9400.615463,689.485948
267.401014,1036.288319,-9400.615463,1072.533697
267.401341,1332.370696,-9474.636058,1455.581446
267.401669,962.267725,-9474.636058,1378.971896
267.401996,888.247130,-9548.656652,1455.581446
267.402324,296.082377,-9400.615463,1225.752797
267.402651,0.000000,-9474.636058,1378.971896
267.402979,-740.205942,-9474.636058,919.314598
267.403306,-1110.308913,-9400.615463,536.266849
267.403634,-1628.453072,-9178.553681,229.828649
267.403961,-1332.370696,-8734.430116,76.609550
267.404288,-1776.494261,-8438.347739,383.047749
267.404616,-1850.514855,-8364.327145,0.000000
267.404943,-1776.494261,-8142.265362,0.000000
267.405271,-1850.514855,-8290.306550,0.000000
267.405598,-1554.432478,-8290.306550,0.000000
267.405926,-1924.535449,-8142.265362,229.828649
267.406253,-1258.350101,-8512.368333,-153.219100
267.406581,-962.267725,-8956.491898,229.828649
267.406908,-370.102971,-8956.491898,76.609550
267.407235,-222.061783,-8882.471304,229.828649
267.407563,222.061783,-8956.491898,612.876398
267.407890,814.226536,-9548.656652,842.705048
267.408218,1110.308913,-9548.656652,842.705048
267.408545,1258.350101,-9400.615463,995.924147
267.408873,1480.411884,-9400.615463,995.924147
267.409200,1480.411884,-9474.636058,1762.019645
267.409527,1776.494261,-9992.780217,1225.752797
267.409855,1036.288319,-9622.677246,1225.752797
267.410182,666.185348,-9622.677246,1225.752797
267.410510,222.061783,-9696.697840,459.657299
267.410837,-444.123565,-9474.636058,612.876398
267.411165,-740.205942,-9400.615463,766.095498
267.411492,-962.267725,-9400.615463,76.609550
267.411820,-1258.350101,-8956.491898,0.000000
267.412147,-1480.411884,-8882.471304,-229.828649
267.412474,-1332.370696,-8586.388927,-306.438199
267.412802,-1332.370696,-8216.285956,-153.219100
267.413129,-1036.288319,-8216.285956,-229.828649
267.413457,-1332.370696,-8364.327145,-459.657299
267.413784,-1036.288319,-8586.388927,0.000000
267.414112,-444.123565,-8660.409521,76.609550
267.414439,0.000000,-8364.327145,459.657299
267.414767,0.000000,-9030.512492,612.876398
267.415094,148.041188,-9474.636058,842.705048
267.415421,518.144159,-9474.636058,1072.533697
267.415749,666.185348,-9770.718434,1072.533697
267.416076,1406.391290,-9474.636058,1378.971896
267.416404,1554.432478,-9696.697840,1302.362347
267.416731,1184.329507,-9696.697840,1455.581446
267.417059,962.267725,-9622.677246,1685.410096
267.417386,814.226536,-9844.739029,1378.971896
267.417714,296.082377,-9474.636058,1608.800546
267.418041,-222.061783,-9474.636058,1532.190996
267.418368,-814.226536,-9252.574275,1072.533697
267.418696,-888.247130,-9252.574275,766.095498
267.419023,-1480.411884,-9178.553681,383.047749
267.419351,-1702.473667,-8660.409521,383.047749
267.419678,-1628.453072,-8512.368333,153.219100
267.420006,-1554.432478,-8586.388927,383.047749
267.420333,-1702.473667,-8438.347739,0.000000
267.420661,-1850.514855,-8216.285956,76.609550
267.420988,-1554.432478,-8364.327145,76.609550
267.421315,-1332.370696,-7994.224174,229.828649
267.421643,-1036.288319,-8438.347739,229.828649
267.421970,-888.247130,-8586.388927,153.219100
267.422298,-444.123565,-8734.430116,306.438199
267.422625,0.000000,-8956.491898,459.657299
267.422953,592.164754,-8734.430116,689.485948
267.423280,962.267725,-9474.636058,766.095498
267.423608,1258.350101,-9474.636058,1072.533697
267.423935,1406.391290,-9696.697840,1149.143247
267.424262,1480.411884,-9622.677246,1455.581446
267.424590,1480.411884,-9918.759623,1532.190996
267.424917,1406.391290,-9918.759623,1302.362347
267.425245,962.267725,-9992.780217,1302.362347
267.425572,444.123565,-10214.842000,919.314598
267.425900,0.000000,-9844.739029,1072.533697
267.426227,-222.061783,-9400.615463,536.266849
267.426554,-666.185348,-9030.512492,383.047749
267.426882,-740.205942,-8956.491898,229.828649
267.427209,-1258.350101,-9252.574275,0.000000
267.427537,-1110.308913,-8660.409521,0.000000
267.427864,-1480.411884,-8216.285956,-153.219100
267.428192,-1036.288319,-8068.244768,-306.438199
267.428519,-1258.350101,-8290.306550,-383.047749
267.428847,-1184.329507,-8290.306550,-153.219100
267.429174,-1184.329507,-8586.388927,-229.828649
267.429501,-814.226536,-8734.430116,0.000000
267.429829,-444.123565,-8512.368333,612.876398
267.430156,-370.102971,-8734.430116,612.876398
267.430484,148.041188,-9178.553681,536.266849
267.430811,222.061783,-9400.615463,842.705048
267.431139,444.123565,-9474.636058,842.705048
267.431466,740.205942,-9622.677246,1455.581446
267.431794,1184.329507,-9844.739029,1072.533697
267.432121,1110.308913,-9622.677246,1225.752797
267.432448,888.247130,-9696.697840,1149.143247
267.432776,814.226536,-9696.697840,1532.190996
267.433103,518.144159,-9622.677246,1378.971896
267.433431,518.144159,-9770.718434,766.095498
267.433758,-518.144159,-9326.594869,842.705048
267.434086,-814.226536,-9474.636058,919.314598
267.434413,-1332.370696,-9104.533087,536.266849
267.434741,-1406.391290,-8660.409521,153.219100
267.435068,-1628.453072,-8290.306550,0.000000
267.435395,-1924.535449,-8068.244768,153.219100
267.435723,-1554.432478,-8364.327145,0.000000
267.436050,-1628.453072,-8142.265362,0.000000
267.436378,-1332.370696,-8142.265362,0.000000
267.436705,-1258.350101,-8438.347739,-306.438199
267.437033,-1184.329507,-8512.368333,153.219100
267.437360,-1184.329507,-8660.409521,76.609550
267.437688,-666.185348,-8956.491898,153.219100
267.438015,0.000000,-9104.533087,383.047749
267.438342,148.041188,-9770.718434,766.095498
267.438670,666.185348,-9030.512492,995.924147
267.438997,888.247130,-9548.656652,689.485948
267.439325,1332.370696,-9696.697840,1072.533697
267.439652,1406.391290,-9770.718434,1072.533697
267.439980,1554.432478,-9622.677246,1149.143247
267.440307,1332.370696,-9474.636058,1072.533697
267.440635,1258.350101,-9844.739029,995.924147
267.440962,666.185348,-9844.739029,689.485948
267.441289,148.041188,-9844.739029,459.657299
267.441617,-518.144159,-9770.718434,229.828649
267.441944,-962.267725,-8882.471304,612.876398
267.442272,-814.226536,-9030.512492,0.000000
267.442599,-1406.391290,-8808.450710,76.609550
267.442927,-1110.308913,-8660.409521,-459.657299
267.443254,-1480.411884,-8290.306550,0.000000
267.443581,-1110.308913,-8142.265362,-153.219100
267.443909,-1110.308913,-8068.244768,0.000000
267.444236,-1110.308913,-8438.347739,-229.828649
267.444564,-962.267725,-8512.368333,-229.828649
267.444891,-740.205942,-8586.388927,153.219100
267.445219,-148.041188,-8956.491898,536.266849
267.445546,148.041188,-8808.450710,1072.533697
267.445874,148.041188,-9252.574275,919.314598
267.446201,370.102971,-9400.615463,842.705048
267.446528,444.123565,-9400.615463,1072.533697
267.446856,888.247130,-9474.636058,1608.800546
267.447183,1184.329507,-9178.553681,1378.971896
267.447511,1258.350101,-9400.615463,1685.410096
267.447838,1110.308913,-9622.677246,1608.800546
267.448166,666.185348,-9474.636058,1378.971896
267.448493,370.102971,-9474.636058,1608.800546
267.448821,0.000000,-9104.533087,1302.362347
267.449148,-666.185348,-9326.594869,995.924147
267.449475,-888.247130,-9326.594869,919.314598
267.449803,-1554.432478,-9178.553681,536.266849
267.450130,-1554.432478,-9104.533087,229.828649
267.450458,-1850.514855,-8364.327145,153.219100
267.450785,-2072.576638,-8364.327145,0.000000
267.451113,-2146.597232,-8438.347739,153.219100
267.451440,-1850.514855,-8290.306550,0.000000
267.451768,-2220.617826,-8290.306550,0.000000
267.452095,-1554.432478,-8364.327145,0.000000
267.452422,-1110.308913,-8068.244768,-536.266849
267.452750,-1036.288319,-8660.409521,229.828649
267.453077,-444.123565,-8882.471304,229.828649
267.453405,0.000000,-9178.553681,306.438199
267.453732,74.020594,-9178.553681,536.266849
267.454060,740.205942,-9326.594869,306.438199
267.454387,888.247130,-9474.636058,1072.533697
267.454715,1480.411884,-9770.718434,1072.533697
267.455042,1776.494261,-9844.739029,1149.143247
267.455369,1702.473667,-9992.780217,1302.362347
267.455697,1184.329507,-9474.636058,1378.971896
267.456024,1110.308913,-9918.759623,995.924147
267.456352,740.205942,-9770.718434,1149.143247
267.456679,296.082377,-9622.677246,459.657299
267.457007,74.020594,-9770.718434,459.657299
267.457334,0.000000,-9252.574275,612.876398
267.457662,-518.144159,-9178.553681,229.828649
267.457989,-1406.391290,-8808.450710,0.000000
267.458316,-888.247130,-9178.553681,0.000000
267.458644,-1036.288319,-8438.347739,0.000000
267.458971,-1554.432478,-8068.244768,-306.438199
267.459299,-740.205942,-8660.409521,0.000000
267.459626,-962.267725,-8734.430116,0.000000
267.459954,-1258.350101,-8142.265362,-153.219100
267.460281,-888.247130,-8956.491898,0.000000
267.460608,-222.061783,-9104.533087,76.609550
267.460936,0.000000,-8438.347739,1455.581446
267.461263,-222.061783,-9400.615463,229.828649
267.461591,74.020594,-9622.677246,689.485948
267.461918,592.164754,-9400.615463,995.924147
267.462246,740.205942,-9400.615463,689.485948
267.462573,814.226536,-9474.636058,1915.238745
267.462901,1628.453072,-9844.739029,1685.410096
267.463228,518.144159,-9252.574275,1302.362347
267.463555,1332.370696,-9400.615463,1838.629195
267.463883,0.000000,-9178.553681,1225.752797
267.464210,296.082377,-9104.533087,1455.581446
267.464538,-1110.308913,-9400.615463,612.876398
267.464865,-370.102971,-9400.615463,1302.362347
267.465193,-1554.432478,-8808.450710,459.657299
267.465520,-740.205942,-8808.450710,995.924147
267.465848,-1998.556043,-8290.306550,0.000000
267.466175,-592.164754,-8586.388927,1149.143247
267.466502,-2220.617826,-8142.265362,0.000000
267.466830,-1036.288319,-8734.430116,383.047749
267.467157,-1776.494261,-7772.162391,-229.828649
267.467485,-1036.288319,-8956.491898,0.000000
267.467812,-1406.391290,-8364.327145,-153.219100
267.468140,-666.185348,-8586.388927,229.828649
267.468467,-888.247130,-9030.512492,229.828649
267.468795,222.061783,-8882.471304,459.657299
267.469122,0.000000,-9400.615463,536.266849
267.469449,444.123565,-8956.491898,1225.752797
267.469777,518.144159,-9326.594869,1455.581446
267.470104,1036.288319,-9400.615463,842.705048
267.470432,1258.350101,-9918.759623,919.314598
267.470759,1406.391290,-9548.656652,1302.362347
267.471087,1258.350101,-9992.780217,1532.190996
267.471414,1036.288319,-9400.615463,1072.533697
267.471742,370.102971,-9918.759623,919.314598
267.472069,0.000000,-9844.739029,766.095498
267.472396,-518.144159,-9622.677246,383.047749
267.472724,-666.185348,-9400.615463,153.219100
267.473051,-1110.308913,-9400.615463,0.000000
267.473379,-962.267725,-9104.533087,-229.828649
267.473706,-1184.329507,-8660.409521,-153.219100
267.474034,-1406.391290,-8438.347739,-306.438199
267.474361,-1332.370696,-8364.327145,0.000000
267.474689,-666.185348,-8586.388927,-383.047749
267.475016,-1036.288319,-8364.327145,76.609550
267.475343,-740.205942,-8438.347739,0.000000
267.475671,-518.144159,-8586.388927,153.219100
267.475998,0.000000,-8808.450710,153.219100
267.476326,74.020594,-9178.553681,842.705048
267.476653,148.041188,-8808.450710,766.095498
267.476981,518.144159,-9400.615463,1072.533697
267.477308,518.144159,-9548.656652,1302.362347
267.477635,888.247130,-9474.636058,1378.971896
267.477963,1184.329507,-9548.656652,1072.533697
267.478290,1406.391290,-9548.656652,2298.286494
267.478618,1110.308913,-9548.656652,1685.410096
267.478945,888.247130,-9474.636058,1455.581446
267.479273,222.061783,-9696.697840,1455.581446
267.479600,0.000000,-9770.718434,1149.143247
267.479928,-518.144159,-9178.553681,1149.143247
267.480255,-814.226536,-9400.615463,612.876398
267.480582,-1110.308913,-9104.533087,383.047749
267.480910,-1628.453072,-8956.491898,306.438199
267.481237,-1924.535449,-8512.368333,76.609550
267.481565,-2072.576638,-8586.388927,153.219100
267.481892,-2072.576638,-8068.244768,0.000000
267.482220,-1776.494261,-8142.265362,0.000000
267.482547,-1850.514855,-8068.244768,-229.828649
267.482875,-1554.432478,-8438.347739,-229.828649
267.483202,-1184.329507,-8734.430116,76.609550
267.483529,-888.247130,-8364.327145,536.266849
267.483857,-370.102971,-8956.491898,383.047749
267.484184,74.020594,-8734.430116,459.657299
267.484512,296.082377,-9178.553681,842.705048
267.484839,888.247130,-9030.512492,919.314598
267.485166,1480.411884,-9474.636058,1225.752797
267.485494,1850.514855,-9696.697840,995.924147
267.485821,1702.473667,-9770.718434,1072.533697
267.486149,1850.514855,-9992.780217,1378.971896
267.486476,1480.411884,-10066.800811,1149.143247
267.486803,1258.350101,-9622.677246,919.314598
267.487131,518.144159,-9548.656652,842.705048
267.487458,148.041188,-9696.697840,1149.143247
267.487786,74.020594,-9400.615463,383.047749
267.488113,-666.185348,-9326.594869,229.828649
267.488440,-740.205942,-9030.512492,0.000000
267.488768,-1184.329507,-8734.430116,0.000000
267.489095,-1480.411884,-8290.306550,0.000000
267.489422,-1628.453072,-8438.347739,0.000000
267.489750,-1480.411884,-8290.306550,-229.828649
267.490077,-1554.432478,-8142.265362,-229.828649
267.490405,-1850.514855,-8068.244768,0.000000
267.490732,-1258.350101,-8438.347739,0.000000
267.491059,-1036.288319,-8364.327145,306.438199
267.491387,-592.164754,-8734.430116,383.047749
267.491714,-518.144159,-8882.471304,459.657299
267.492042,0.000000,-9030.512492,612.876398
267.492369,74.020594,-9326.594869,612.876398
267.492696,296.082377,-9400.615463,1302.362347
267.493024,518.144159,-9400.615463,1149.143247
267.493351,1036.288319,-9548.656652,1455.581446
267.493679,1110.308913,-9326.594869,1455.581446
267.494006,962.267725,-9474.636058,1455.581446
267.494333,814.226536,-9696.697840,1302.362347
267.494661,296.082377,-9696.697840,1302.362347
267.494988,148.041188,-9474.636058,1072.533697
267.495316,-370.102971,-9474.636058,766.095498
267.495643,-666.185348,-9326.594869,459.657299
267.495970,-1036.288319,-9030.512492,459.657299
267.496298,-1184.329507,-8956.491898,383.047749
267.496625,-1258.350101,-8660.409521,459.657299
267.496952,-1406.391290,-8512.368333,76.609550
267.497280,-1554.432478,-8142.265362,-229.828649
267.497607,-1628.453072,-8364.327145,0.000000
267.497935,-1406.391290,-8216.285956,0.000000
267.498262,-1554.432478,-8512.368333,0.000000
267.498589,-1480.411884,-8660.409521,-153.219100
267.498917,-962.267725,-8734.430116,1149.143247
267.499244,-592.164754,-8660.409521,536.266849
267.499572,-148.041188,-9030.512492,383.047749
267.499899,74.020594,-9178.553681,689.485948
267.500226,592.164754,-9252.574275,612.876398
267.500554,1036.288319,-9178.553681,1608.800546
267.500881,1184.329507,-9548.656652,1532.190996
267.501209,1332.370696,-9696.697840,1149.143247
267.501536,1110.308913,-9622.677246,1455.581446
267.501863,1036.288319,-9770.718434,1225.752797
267.502191,666.185348,-9548.656652,1378.971896
267.502518,518.144159,-9474.636058,1072.533697
267.502845,-74.020594,-9844.739029,612.876398
267.503173,-296.082377,-9622.677246,612.876398
267.503500,-814.226536,-9400.615463,153.219100
267.503828,-962.267725,-9104.533087,0.000000
267.504155,-814.226536,-8586.388927,0.000000
267.504482,-1554.432478,-8660.409521,-229.828649
267.504810,-1258.350101,-8290.306550,-383.047749
267.505137,-1184.329507,-8364.327145,0.000000
267.505465,-1406.391290,-8512.368333,-306.438199
267.505792,-814.226536,-8068.244768,-229.828649
267.506119,-888.247130,-8290.306550,-383.047749
267.506447,-592.164754,-8808.450710,76.609550
267.506774,-148.041188,-8660.409521,383.047749
267.507102,0.000000,-9326.594869,536.266849
267.507429,0.000000,-9252.574275,766.095498
267.507756,444.123565,-9178.553681,995.924147
267.508084,592.164754,-9622.677246,1072.533697
267.508411,888.247130,-9474.636058,1302.362347
267.508739,1332.370696,-9474.636058,1302.362347
267.509066,1406.391290,-9622.677246,1532.190996
267.509393,1554.432478,-9622.677246,1532.190996
267.509721,962.267725,-9548.656652,1455.581446
267.510048,592.164754,-9474.636058,1225.752797
267.510375,0.000000,-9326.594869,1149.143247
267.510703,-740.205942,-9400.615463,766.095498
267.511030,-962.267725,-9400.615463,153.219100
267.511358,-1480.411884,-8956.491898,689.485948
267.511685,-1776.494261,-9104.533087,459.657299
267.512012,-2146.597232,-8660.409521,229.828649
267.512340,-1924.535449,-8660.409521,459.657299
267.512667,-2146.597232,-8364.327145,153.219100
267.512995,-1924.535449,-8068.244768,76.609550
267.513322,-1702.473667,-8216.285956,76.609550
267.513649,-1628.453072,-8216.285956,76.609550
267.513977,-1258.350101,-8586.388927,153.219100
267.514304,-370.102971,-9104.533087,459.657299
267.514632,-370.102971,-8438.347739,536.266849
267.514959,0.000000,-9178.553681,536.266849
267.515286,222.061783,-9252.574275,689.485948
267.515614,666.185348,-9400.615463,842.705048
267.515941,1184.329507,-9474.636058,919.314598
267.516268,1480.411884,-9474.636058,689.485948
267.516596,1554.432478,-9696.697840,1455.581446
267.516923,1480.411884,-9918.759623,1685.410096
267.517251,1554.432478,-9992.780217,1378.971896
267.517578,1036.288319,-9992.780217,1149.143247
267.517905,592.164754,-9474.636058,612.876398
267.518233,0.000000,-9918.759623,1072.533697
267.518560,-222.061783,-9474.636058,459.657299
267.518888,-1036.288319,-9326.594869,459.657299
267.519215,-888.247130,-8808.450710,76.609550
267.519542,-1036.288319,-8512.368333,0.000000
267.519870,-1184.329507,-8438.347739,0.000000
267.520197,-1332.370696,-8512.368333,-229.828649
267.520525,-1406.391290,-8364.327145,-153.219100
267.520852,-1480.411884,-8438.347739,0.000000
267.521179,-1406.391290,-8216.285956,-383.047749
267.521507,-1184.329507,-8142.265362,0.000000
267.521834,-962.267725,-8364.327145,459.657299
267.522162,-444.123565,-8586.388927,612.876398
267.522489,-518.144159,-8808.450710,689.485948
267.522816,0.000000,-9104.533087,1072.533697
267.523144,148.041188,-9252.574275,1302.362347
267.523471,518.144159,-9400.615463,1149.143247
267.523798,888.247130,-9474.636058,1149.143247
267.524126,1184.329507,-9474.636058,1302.362347
267.524453,1184.329507,-9696.697840,1685.410096
267.524781,1110.308913,-9622.677246,1762.019645
267.525108,814.226536,-9474.636058,1685.410096
267.525435,370.102971,-9622.677246,1302.362347
267.525763,-518.144159,-9548.656652,1149.143247
267.526090,-666.185348,-9696.697840,766.095498
267.526418,-814.226536,-9252.574275,689.485948
267.526745,-1480.411884,-9178.553681,-153.219100
267.527072,-1332.370696,-8734.430116,459.657299
267.527400,-1628.453072,-8660.409521,153.219100
267.527727,-1480.411884,-8364.327145,153.219100
267.528055,-2146.597232,-8290.306550,0.000000
267.528382,-1554.432478,-8142.265362,-153.219100
267.528709,-1480.411884,-8438.347739,0.000000
267.529037,-1258.350101,-8512.368333,0.000000
267.529364,-962.267725,-8586.388927,76.609550
267.529691,-814.226536,-8734.430116,76.609550
267.530019,74.020594,-8808.450710,536.266849
267.530346,0.000000,-9030.512492,306.438199
267.530674,370.102971,-9400.615463,536.266849
267.531001,444.123565,-9474.636058,689.485948
267.531328,962.267725,-9696.697840,766.095498
267.531656,1110.308913,-9474.636058,1072.533697
267.531983,1554.432478,-9696.697840,1302.362347
267.532311,1258.350101,-9770.718434,1149.143247
267.532638,1258.350101,-9770.718434,1302.362347
267.532965,666.185348,-9844.739029,1072.533697
267.533293,444.123565,-9548.656652,995.924147
267.533620,148.041188,-9548.656652,919.314598
267.533948,-370.102971,-9548.656652,459.657299
267.534275,-666.185348,-9400.615463,153.219100
267.534602,-1036.288319,-9178.553681,76.609550
267.534930,-1332.370696,-8512.368333,153.219100
267.535257,-888.247130,-8808.450710,-536.266849
267.535585,-1332.370696,-8438.347739,-383.047749
267.535912,-1332.370696,-8364.327145,-229.828649
267.536239,-1110.308913,-8438.347739,-459.657299
267.536567,-1036.288319,-8512.368333,-383.047749
267.536894,-814.226536,-8290.306550,-536.266849
267.537221,-370.102971,-8586.388927,229.828649
267.537549,-296.082377,-9030.512492,383.047749
267.537876,0.000000,-9030.512492,459.657299
267.538204,222.061783,-9474.636058,919.314598
267.538531,518.144159,-9326.594869,536.266849
267.538858,1036.288319,-9474.636058,1072.533697
267.539186,1036.288319,-9474.636058,1149.143247
267.539513,1110.308913,-9474.636058,1302.362347
267.539841,1184.329507,-9622.677246,1378.971896
267.540168,1036.288319,-9696.697840,1532.190996
267.540495,444.123565,-9252.574275,1608.800546
267.540823,222.061783,-9474.636058,1302.362347
267.541150,-222.061783,-9474.636058,1072.533697
267.541478,-1036.288319,-9400.615463,995.924147
267.541805,-1406.391290,-9104.533087,536.266849
267.542132,-2072.576638,-8660.409521,919.314598
267.542460,-1628.453072,-8734.430116,306.438199
267.542787,-1776.494261,-8660.409521,0.000000
267.543114,-1924.535449,-8512.368333,0.000000
267.543442,-2146.597232,-8364.327145,0.000000
267.543769,-1850.514855,-7920.203579,306.438199
267.544097,-1628.453072,-8290.306550,76.609550
267.544424,-1406.391290,-8438.347739,0.000000
267.544751,-1036.288319,-8512.368333,0.000000
267.545079,-814.226536,-8734.430116,0.000000
267.545406,-296.082377,-8734.430116,459.657299
267.545734,0.000000,-8734.430116,383.047749
267.546061,370.102971,-9252.574275,536.266849
267.546388,888.247130,-9474.636058,766.095498
267.546716,1184.329507,-9696.697840,919.314598
267.547043,1554.432478,-9696.697840,1762.019645
267.547371,1850.514855,-9844.739029,1532.190996
267.547698,1776.494261,-9770.718434,1378.971896
267.548025,1406.391290,-9918.759623,1149.143247
267.548353,1110.308913,-9918.759623,1072.533697
267.548680,444.123565,-9696.697840,842.705048
267.549008,0.000000,-8956.491898,1225.752797
267.549335,0.000000,-9474.636058,536.266849
267.549662,-888.247130,-9326.594869,383.047749
267.549990,-814.226536,-9252.574275,229.828649
267.550317,-1406.391290,-8956.491898,0.000000
267.550644,-1258.350101,-9030.512492,76.609550
267.550972,-1406.391290,-8512.368333,-229.828649
267.551299,-1480.411884,-8734.430116,-306.438199
267.551627,-1406.391290,-8216.285956,-306.438199
267.551954,-1332.370696,-8364.327145,0.000000
267.552281,-1258.350101,-8660.409521,76.609550
267.552609,-888.247130,-8586.388927,0.000000
267.552936,-592.164754,-8808.450710,0.000000
267.553264,-444.123565,-8808.450710,306.438199
267.553591,0.000000,-9104.533087,459.657299
267.553918,-222.061783,-9326.594869,842.705048
267.554246,666.185348,-9474.636058,1455.581446
267.554573,888.247130,-9474.636058,1072.533697
267.554901,1036.288319,-9474.636058,1378.971896
267.555228,1332.370696,-9696.697840,1532.190996
267.555555,1110.308913,-9770.718434,1608.800546
267.555883,814.226536,-9474.636058,1608.800546
267.556210,296.082377,-9770.718434,1378.971896
267.556537,0.000000,-9548.656652,1225.752797
267.556865,-370.102971,-9548.656652,766.095498
267.557192,-888.247130,-9548.656652,689.485948
267.557520,-1110.308913,-8808.450710,1378.971896
267.557847,-962.267725,-8586.388927,0.000000
267.558174,-1332.370696,-8586.388927,383.047749
267.558502,-1628.453072,-8364.327145,229.828649
267.558829,-1628.453072,-8216.285956,0.000000
267.559157,-1776.494261,-7772.162391,0.000000
267.559484,-1110.308913,-8216.285956,-76.609550
267.559811,-1554.432478,-8586.388927,0.000000
267.560139,-1480.411884,-8586.388927,153.219100
267.560466,-814.226536,-8734.430116,76.609550
267.560794,-592.164754,-8882.471304,0.000000
267.561121,-296.082377,-8586.388927,536.266849
267.561448,296.082377,-9178.553681,306.438199
267.561776,222.061783,-9326.594869,689.485948
267.562103,962.267725,-9326.594869,766.095498
267.562430,1110.308913,-9548.656652,995.924147
267.562758,1702.473667,-9844.739029,1455.581446
267.563085,1406.391290,-9696.697840,1225.752797
267.563413,1110.308913,-9770.718434,1302.362347
267.563740,1036.288319,-10066.800811,842.705048
267.564067,370.102971,-9844.739029,1072.533697
267.564395,0.000000,-9548.656652,689.485948
267.564722,-592.164754,-9400.615463,612.876398
267.565050,-666.185348,-9400.615463,0.000000
267.565377,-1110.308913,-9326.594869,383.047749
267.565704,-1110.308913,-8882.471304,0.000000
267.566032,-1258.350101,-8660.409521,-306.438199
267.566359,-888.247130,-8364.327145,-383.047749
267.566687,-1184.329507,-8290.306550,-536.266849
267.567014,-1258.350101,-8438.347739,0.000000
267.567341,-888.247130,-8364.327145,-229.828649
267.567669,-888.247130,-8290.306550,229.828649
267.567996,0.000000,-8290.306550,0.000000
267.568324,-148.041188,-8808.450710,383.047749
267.568651,148.041188,-9400.615463,536.266849
267.568978,370.102971,-9474.636058,995.924147
267.569306,444.123565,-9622.677246,995.924147
267.569633,740.205942,-9326.594869,1225.752797
267.569960,740.205942,-9474.636058,1532.190996
267.570288,1258.350101,-9696.697840,1608.800546
267.570615,1110.308913,-9548.656652,1608.800546
267.570943,1036.288319,-9770.718434,1455.581446
267.571270,666.185348,-9696.697840,1532.190996
267.571597,222.061783,-9548.656652,1608.800546
267.571925,-222.061783,-9622.677246,1225.752797
267.572252,-888.247130,-9326.594869,612.876398
267.572580,-1258.350101,-9474.636058,689.485948
267.572907,-1480.411884,-8956.491898,229.828649
267.573234,-2146.597232,-8734.430116,0.000000
267.573562,-1850.514855,-8660.409521,76.609550
267.573889,-2072.576638,-8586.388927,76.609550
267.574217,-2146.597232,-8438.347739,0.000000
267.574544,-2368.659014,-8438.347739,76.609550
267.574871,-1702.473667,-8068.244768,229.828649
267.575199,-1258.350101,-8364.327145,0.000000
267.575526,-1110.308913,-8512.368333,76.609550
267.575853,-592.164754,-8586.388927,153.219100
267.576181,-444.123565,-9030.512492,229.828649
267.576508,74.020594,-9030.512492,766.095498
267.576836,518.144159,-9104.533087,612.876398
267.577163,962.267725,-9104.533087,919.314598
267.577490,1332.370696,-9770.718434,919.314598
267.577818,1480.411884,-9696.697840,1302.362347
267.578145,1924.535449,-9770.718434,1072.533697
267.578473,1924.535449,-9474.636058,1072.533697
267.578800,1332.370696,-9770.718434,1302.362347
267.579127,888.247130,-9548.656652,995.924147
267.579455,370.102971,-9844.739029,995.924147
267.579782,0.000000,-9326.594869,536.266849
267.580110,-222.061783,-9326.594869,306.438199
267.580437,-740.205942,-9178.553681,229.828649
267.580764,-1184.329507,-9104.533087,0.000000
267.581092,-1258.350101,-8808.450710,-153.219100
267.581419,-962.267725,-8734.430116,-536.266849
267.581747,-1480.411884,-8290.306550,0.000000
267.582074,-1480.411884,-8364.327145,-459.657299
267.582401,-1702.473667,-8364.327145,-383.047749
267.582729,-1332.370696,-8290.306550,-306.438199
267.583056,-1036.288319,-8290.306550,0.000000
267.583383,-592.164754,-8364.327145,536.266849
267.583711,-444.123565,-8956.491898,153.219100
267.584038,-296.082377,-8808.450710,459.657299
267.584366,148.041188,-9104.533087,689.485948
267.584693,592.164754,-9400.615463,612.876398
267.585020,740.205942,-9474.636058,919.314598
267.585348,1332.370696,-9178.553681,1302.362347
267.585675,1480.411884,-9622.677246,1302.362347
267.586003,1406.391290,-9622.677246,1455.581446
267.586330,1332.370696,-9622.677246,1378.971896
267.586657,1036.288319,-9474.636058,1378.971896
267.586985,444.123565,-9548.656652,1455.581446
267.587312,-148.041188,-9770.718434,995.924147
267.587640,-444.123565,-9400.615463,919.314598
267.587967,-592.164754,-9178.553681,459.657299
267.588295,-1332.370696,-9252.574275,229.828649
267.588622,-888.247130,-8734.430116,766.095498
267.588949,-1554.432478,-8512.368333,536.266849
267.589277,-1702.473667,-8364.327145,229.828649
267.589604,-1998.556043,-8438.347739,153.219100
267.589932,-1998.556043,-8290.306550,76.609550
267.590259,-1702.473667,-8734.430116,842.705048
267.590587,-1480.411884,-8364.327145,76.609550
267.590914,-1628.453072,-8512.368333,229.828649
267.591241,-1480.411884,-8734.430116,76.609550
267.591569,-740.205942,-8956.491898,459.657299
267.591896,-888.247130,-8734.430116,306.438199
267.592224,148.041188,-9326.594869,842.705048
267.592551,222.061783,-9252.574275,689.485948
267.592879,518.144159,-9474.636058,536.266849
267.593206,1332.370696,-9400.615463,842.705048
267.593533,1480.411884,-9918.759623,459.657299
267.593861,1110.308913,-9474.636058,1072.533697
267.594188,1258.350101,-9844.739029,1455.581446
267.594516,814.226536,-9696.697840,919.314598
267.594843,222.061783,-9992.780217,842.705048
267.595170,0.000000,-9844.739029,689.485948
267.595498,74.020594,-9474.636058,919.314598
267.595825,-740.205942,-9326.594869,0.000000
267.596153,-888.247130,-9178.553681,153.219100
267.596480,-962.267725,-8956.491898,0.000000
267.596808,-1258.350101,-8660.409521,-229.828649
267.597135,-740.205942,-8364.327145,-306.438199
267.597462,-444.123565,-8068.244768,-383.047749
267.597790,-962.267725,-8364.327145,-306.438199
267.598117,-740.205942,-8512.368333,-306.438199
267.598445,-666.185348,-8734.430116,76.609550
267.598772,-296.082377,-8290.306550,153.219100
267.599100,0.000000,-8808.450710,383.047749
267.599427,0.000000,-9178.553681,536.266849
267.599754,370.102971,-9400.615463,766.095498
267.600082,444.123565,-9622.677246,995.924147
267.600409,592.164754,-9474.636058,1302.362347
267.600737,1184.329507,-9252.574275,919.314598
267.601064,1110.308913,-9474.636058,1225.752797
267.601392,1110.308913,-9622.677246,1302.362347
267.601719,814.226536,-9548.656652,1225.752797
267.602046,592.164754,-9474.636058,1149.143247
267.602374,444.123565,-9326.594869,995.924147
267.602701,-370.102971,-9326.594869,995.924147
267.603029,-888.247130,-9400.615463,919.314598
267.603356,-1110.308913,-9178.553681,612.876398
267.603684,-1554.432478,-9104.533087,383.047749
267.604011,-1850.514855,-8512.368333,459.657299
267.604338,-1850.514855,-8882.471304,459.657299
267.604666,-1998.556043,-8660.409521,0.000000
267.604993,-1776.494261,-8364.327145,0.000000
267.605321,-1702.473667,-8216.285956,0.000000
267.605648,-1332.370696,-8512.368333,0.000000
267.605976,-1184.329507,-8142.265362,0.000000
267.606303,-962.267725,-8216.285956,153.219100
267.606630,-666.185348,-8882.471304,306.438199
267.606958,-592.164754,-8882.471304,536.266849
267.607285,0.000000,-9474.636058,689.485948
267.607613,222.061783,-8882.471304,1072.533697
267.607940,814.226536,-9474.636058,766.095498
267.608267,1184.329507,-9548.656652,1072.533697
267.608595,1480.411884,-9844.739029,1072.533697
267.608922,1406.391290,-9622.677246,1149.143247
267.609250,1480.411884,-9326.594869,1762.019645
267.609577,1332.370696,-9696.697840,1302.362347
267.609905,1036.288319,-9770.718434,1072.533697
267.610232,518.144159,-9696.697840,766.095498
267.610559,0.000000,-9622.677246,536.266849
267.610887,0.000000,-9178.553681,612.876398
267.611214,-518.144159,-8586.388927,229.828649
267.611542,-1036.288319,-8956.491898,0.000000
267.611869,-1258.350101,-8660.409521,0.000000
267.612197,-1406.391290,-8734.430116,0.000000
267.612524,-1554.432478,-8660.409521,-153.219100
267.612851,-1110.308913,-8290.306550,-306.438199
267.613179,-1406.391290,-8364.327145,-306.438199
267.613506,-1184.329507,-8586.388927,-153.219100
267.613834,-1110.308913,-8586.388927,0.000000
267.614161,-814.226536,-8586.388927,306.438199
267.614489,0.000000,-8808.450710,689.485948
267.614816,-148.041188,-8956.491898,536.266849
267.615143,148.041188,-9104.533087,612.876398
267.615471,148.041188,-9400.615463,919.314598
267.615798,592.164754,-9474.636058,1072.533697
267.616126,1480.411884,-9548.656652,2068.457845
267.616453,1480.411884,-9474.636058,1225.752797
267.616781,1480.411884,-9696.697840,1378.971896
267.617108,1110.308913,-9474.636058,1608.800546
267.617435,740.205942,-9918.759623,1455.581446
267.617763,518.144159,-9548.656652,1838.629195
267.618090,148.041188,-9178.553681,995.924147
267.618418,-518.144159,-9326.594869,842.705048
267.618745,-888.247130,-9326.594869,612.876398
267.619073,-962.267725,-9178.553681,383.047749
267.619400,-1554.432478,-8660.409521,536.266849
267.619727,-1258.350101,-8142.265362,0.000000
267.620055,-1628.453072,-8068.244768,229.828649
267.620382,-1924.535449,-8512.368333,0.000000
267.620710,-1776.494261,-8290.306550,0.000000
267.621037,-1850.514855,-8216.285956,-383.047749
267.621364,-1554.432478,-7698.141797,-153.219100
267.621692,-1332.370696,-8586.388927,0.000000
267.622019,-1258.350101,-8882.471304,229.828649
267.622347,-666.185348,-9030.512492,153.219100
267.622674,-370.102971,-9104.533087,306.438199
267.623002,370.102971,-9252.574275,842.705048
267.623329,444.123565,-9252.574275,919.314598
267.623656,814.226536,-9474.636058,995.924147
267.623984,1258.350101,-9474.636058,1149.143247
267.624311,1406.391290,-9474.636058,1072.533697
267.624639,1702.473667,-9622.677246,1225.752797
267.624966,1554.432478,-9474.636058,1302.362347
267.625294,888.247130,-9622.677246,1149.143247
267.625621,444.123565,-9696.697840,995.924147
267.625948,0.000000,-9696.697840,612.876398
267.626276,-148.041188,-9474.636058,383.047749
267.626603,-370.102971,-9474.636058,383.047749
267.626931,-740.205942,-9326.594869,383.047749
267.627258,-1258.350101,-8734.430116,0.000000
267.627586,-1036.288319,-8808.450710,0.000000
267.627913,-1110.308913,-8512.368333,-306.438199
267.628240,-962.267725,-8364.327145,0.000000
267.628568,-1184.329507,-8438.347739,0.000000
267.628895,-814.226536,-8364.327145,-229.828649
267.629223,-740.205942,-8660.409521,76.609550
267.629550,-518.144159,-8734.430116,153.219100
267.629878,-444.123565,-9030.512492,919.314598
267.630205,0.000000,-9252.574275,689.485948
267.630532,0.000000,-9474.636058,919.314598
267.630860,74.020594,-9474.636058,842.705048
267.631187,592.164754,-9622.677246,1225.752797
267.631515,1332.370696,-9474.636058,1685.410096
267.631842,1110.308913,-9178.553681,1149.143247
267.632170,814.226536,-9474.636058,1608.800546
267.632497,592.164754,-9326.594869,1378.971896
267.632824,296.082377,-9474.636058,1378.971896
267.633152,0.000000,-9252.574275,1302.362347
267.633479,0.000000,-9696.697840,612.876398
267.633807,-592.164754,-9252.574275,842.705048
267.634134,-1332.370696,-9030.512492,536.266849
267.634461,-1554.432478,-9178.553681,306.438199
267.634789,-1554.432478,-8882.471304,153.219100
267.635116,-1554.432478,-8882.471304,0.000000
267.635444,-1702.473667,-8586.388927,229.828649
267.635771,-1850.514855,-8364.327145,0.000000
267.636099,-1850.514855,-8438.347739,153.219100
267.636426,-1480.411884,-8438.347739,76.609550
267.636753,-1258.350101,-8216.285956,612.876398
267.637081,-962.267725,-8364.327145,0.000000
267.637408,-592.164754,-8512.368333,153.219100
267.637736,-296.082377,-9252.574275,383.047749
267.638063,74.020594,-9252.574275,459.657299
267.638391,518.144159,-9030.512492,842.705048
267.638718,1406.391290,-9252.574275,689.485948
267.639045,1036.288319,-9548.656652,919.314598
267.639373,1258.350101,-9696.697840,995.924147
267.639700,1406.391290,-9918.759623,1302.362347
267.640028,1332.370696,-9474.636058,1532.190996
267.640355,1110.308913,-9622.677246,1378.971896
267.640683,814.226536,-9622.677246,919.314598
267.641010,0.000000,-9622.677246,689.485948
267.641337,0.000000,-9622.677246,689.485948
267.641665,-444.123565,-9252.574275,459.657299
267.641992,-370.102971,-9400.615463,306.438199
267.642320,-962.267725,-8956.491898,0.000000
267.642647,-1332.370696,-9030.512492,0.000000
267.642975,-1554.432478,-8586.388927,-153.219100
267.643302,-1406.391290,-8364.327145,-306.438199
267.643629,-1110.308913,-8512.368333,-229.828649
267.643957,-1480.411884,-8068.244768,-153.219100
267.644284,-1110.308913,-8512.368333,0.000000
267.644612,-888.247130,-8364.327145,0.000000
267.644939,-666.185348,-8512.368333,76.609550
267.645267,0.000000,-8808.450710,0.000000
267.645594,0.000000,-9252.574275,689.485948
267.645921,296.082377,-9326.594869,766.095498
267.646249,592.164754,-9548.656652,995.924147
267.646576,740.205942,-9622.677246,1149.143247
267.646904,1184.329507,-9252.574275,1225.752797
267.647231,1332.370696,-9252.574275,1532.190996
267.647558,1184.329507,-9474.636058,1532.190996
267.647886,740.205942,-9474.636058,1455.581446
267.648213,666.185348,-9622.677246,1608.800546
267.648541,148.041188,-9696.697840,1302.362347
267.648868,-518.144159,-8882.471304,1455.581446
267.649196,-740.205942,-9326.594869,995.924147
267.649523,-1036.288319,-9178.553681,842.705048
267.649850,-962.267725,-9030.512492,689.485948
267.650178,-1480.411884,-8660.409521,383.047749
267.650505,-1406.391290,-8438.347739,459.657299
267.650833,-1480.411884,-8290.306550,153.219100
267.651160,-1702.473667,-8438.347739,153.219100
267.651488,-1628.453072,-8364.327145,76.609550
267.651815,-1554.432478,-8364.327145,0.000000
267.652142,-1406.391290,-8068.244768,76.609550
267.652470,-1258.350101,-8438.347739,306.438199
267.652797,-888.247130,-8882.471304,306.438199
267.653125,-740.205942,-8808.450710,383.047749
267.653452,-148.041188,-9030.512492,459.657299
267.653780,74.020594,-9104.533087,766.095498
267.654107,370.102971,-9252.574275,766.095498
267.654434,962.267725,-9548.656652,1072.533697
267.654762,1184.329507,-9474.636058,919.314598
267.655089,1110.308913,-9548.656652,995.924147
267.655417,1110.308913,-9622.677246,1455.581446
267.655744,1406.391290,-9622.677246,1302.362347
267.656072,888.247130,-9770.718434,1302.362347
267.656399,370.102971,-9770.718434,1072.533697
267.656726,0.000000,-9548.656652,612.876398
267.657054,-518.144159,-9548.656652,536.266849
267.657381,-666.185348,-9030.512492,0.000000
267.657709,-518.144159,-9030.512492,0.000000
267.658036,-1036.288319,-8660.409521,0.000000
267.658364,-962.267725,-8660.409521,-229.828649
267.658691,-666.185348,-8438.347739,-153.219100
267.659018,-962.267725,-8216.285956,-459.657299
267.659346,-962.267725,-8290.306550,383.047749
267.659673,-1036.288319,-8512.368333,0.000000
267.660001,-592.164754,-8586.388927,153.219100
267.660328,-222.061783,-8660.409521,306.438199
267.660655,-222.061783,-8956.491898,459.657299
267.660983,148.041188,-9030.512492,919.314598
267.661310,296.082377,-9474.636058,919.314598
267.661638,444.123565,-9474.636058,919.314598
267.661965,814.226536,-9474.636058,995.924147
267.662293,962.267725,-9548.656652,1149.143247
267.662620,1184.329507,-9474.636058,1685.410096
267.662947,1184.329507,-9548.656652,1378.971896
267.663275,814.226536,-9400.615463,1149.143247
267.663602,518.144159,-9622.677246,919.314598
267.663930,0.000000,-9400.615463,995.924147
267.664257,-740.205942,-9178.553681,995.924147
267.664585,-592.164754,-9326.594869,1302.362347
267.664912,-1258.350101,-9326.594869,459.657299
267.665239,-1480.411884,-9030.512492,153.219100
267.665567,-1998.556043,-8808.450710,306.438199
267.665894,-1850.514855,-8586.388927,-536.266849
267.666222,-1628.453072,-8364.327145,153.219100
267.666549,-1924.535449,-8068.244768,0.000000
267.666877,-1628.453072,-8364.327145,0.000000
267.667204,-1480.411884,-8290.306550,0.000000
267.667531,-1184.329507,-8364.327145,-153.219100
267.667859,-592.164754,-8512.368333,306.438199
267.668186,-592.164754,-8734.430116,0.000000
267.668514,0.000000,-9178.553681,229.828649
267.668841,74.020594,-9030.512492,383.047749
267.669169,518.144159,-9252.574275,306.438199
267.669496,962.267725,-9252.574275,689.485948
267.669823,888.247130,-9400.615463,919.314598
267.670151,1332.370696,-9770.718434,689.485948
267.670478,1628.453072,-9696.697840,842.705048
267.670806,1628.453072,-9622.677246,919.314598
267.671133,1184.329507,-9474.636058,995.924147
267.671461,814.226536,-9696.697840,1225.752797
267.671788,518.144159,-9696.697840,842.705048
267.672115,0.000000,-9474.636058,536.266849
267.672443,0.000000,-9474.636058,306.438199
267.672770,-444.123565,-9474.636058,459.657299
267.673098,-740.205942,-9030.512492,306.438199
267.673425,-1258.350101,-9030.512492,-153.219100
267.673752,-1554.432478,-8512.368333,-689.485948
267.674080,-1628.453072,-8512.368333,-689.485948
267.674407,-1332.370696,-8438.347739,-459.657299
267.674735,-1332.370696,-7920.203579,-612.876398
267.675062,-1184.329507,-8290.306550,76.609550
267.675390,-814.226536,-8364.327145,0.000000
267.675717,-888.247130,-8734.430116,76.609550
267.676044,-370.102971,-8734.430116,383.047749
267.676372,-222.061783,-8586.388927,612.876398
267.676699,0.000000,-9252.574275,995.924147
267.677027,296.082377,-9178.553681,842.705048
267.677354,814.226536,-9548.656652,1072.533697
267.677682,1184.329507,-9326.594869,1225.752797
267.678009,1480.411884,-9770.718434,1455.581446
267.678336,1332.370696,-9548.656652,842.705048
267.678664,1258.350101,-9770.718434,1608.800546
267.678991,888.247130,-9770.718434,1532.190996
267.679319,666.185348,-9696.697840,1532.190996
267.679646,0.000000,-9400.615463,1378.971896
267.679974,-518.144159,-8956.491898,1149.143247
267.680301,-814.226536,-9400.615463,919.314598
267.680628,-1036.288319,-8882.471304,612.876398
267.680956,-1332.370696,-8956.491898,612.876398
267.681283,-1554.432478,-8586.388927,306.438199
267.681611,-1850.514855,-7846.182985,689.485948
267.681938,-1776.494261,-8364.327145,76.609550
267.682266,-1554.432478,-8290.306550,0.000000
267.682593,-1702.473667,-8512.368333,306.438199
267.682920,-1776.494261,-8512.368333,229.828649
267.683248,-1480.411884,-8512.368333,0.000000
267.683575,-1480.411884,-8660.409521,536.266849
267.683903,-888.247130,-8660.409521,383.047749
267.684230,-518.144159,-8882.471304,612.876398
267.684558,0.000000,-9252.574275,383.047749
267.684885,740.205942,-9474.636058,689.485948
267.685213,962.267725,-9030.512492,689.485948
267.685540,1036.288319,-9474.636058,1072.533697
267.685868,1036.288319,-9474.636058,1225.752797
267.686195,1036.288319,-9770.718434,1149.143247
267.686523,1110.308913,-9696.697840,1225.752797
267.686850,814.226536,-9992.780217,995.924147
267.687178,296.082377,-10140.821405,766.095498
267.687505,0.000000,-9770.718434,842.705048
267.687833,-222.061783,-9474.636058,766.095498
267.688160,-518.144159,-9400.615463,0.000000
267.688488,-1036.288319,-8956.491898,0.000000
267.688815,-222.061783,-9178.553681,0.000000
267.689143,-666.185348,-8808.450710,76.609550
267.689470,-814.226536,-8438.347739,-153.219100
267.689798,-1258.350101,-8142.265362,-459.657299
267.690125,-370.102971,-8438.347739,383.047749
267.690453,-814.226536,-7920.203579,153.219100
267.690780,-518.144159,-8438.347739,229.828649
267.691108,-222.061783,-8882.471304,153.219100
267.691435,-444.123565,-8808.450710,459.657299
267.691763,0.000000,-9178.553681,612.876398
267.692090,0.000000,-9030.512492,919.314598
267.692418,74.020594,-9400.615463,766.095498
267.692745,592.164754,-9474.636058,1225.752797
267.693073,666.185348,-9178.553681,1302.362347
267.693400,888.247130,-9400.615463,1532.190996
267.693728,888.247130,-9400.615463,1532.190996
267.694055,814.226536,-9548.656652,1608.800546
267.694383,370.102971,-9474.636058,1378.971896
267.694710,-222.061783,-9474.636058,1225.752797
267.695038,-592.164754,-9548.656652,1149.143247
267.695365,-1036.288319,-8808.450710,689.485948
267.695693,-1036.288319,-9326.594869,536.266849
267.696020,-1628.453072,-8956.491898,306.438199
267.696348,-1554.432478,-8734.430116,229.828649
267.696675,-1776.494261,-8734.430116,306.438199
267.697003,-1628.453072,-8364.327145,306.438199
267.697330,-1332.370696,-8290.306550,0.000000
267.697658,-1332.370696,-8142.265362,0.000000
267.697985,-1554.432478,-8290.306550,306.438199
267.698313,-1480.411884,-8290.306550,76.609550
267.698640,-888.247130,-8882.471304,0.000000
267.698968,-444.123565,-8512.368333,229.828649
267.699295,0.000000,-9252.574275,229.828649
267.699623,-148.041188,-9104.533087,153.219100
267.699951,444.123565,-9548.656652,459.657299
267.700278,518.144159,-9474.636058,229.828649
267.700606,1406.391290,-9918.759623,689.485948
267.700933,2072.576638,-9474.636058,1072.533697
267.701261,592.164754,-9696.697840,383.047749
267.701588,1776.494261,-10436.903782,1378.971896
267.701916,1406.391290,-9696.697840,1149.143247
267.702243,1258.350101,-10140.821405,1532.190996
267.702571,296.082377,-9178.553681,689.485948
267.702898,0.000000,-9844.739029,689.485948
267.703226,-740.205942,-9548.656652,383.047749
267.703553,-518.144159,-9326.594869,306.438199
267.703881,-1110.308913,-8956.491898,383.047749
267.704208,-1554.432478,-8956.491898,-153.219100
267.704536,-1036.288319,-9104.533087,-459.657299
267.704863,-1702.473667,-8734.430116,-689.485948
267.705191,-1258.350101,-8660.409521,-383.047749
267.705518,-1036.288319,-8216.285956,-153.219100
267.705846,-1998.556043,-7994.224174,-459.657299
267.706173,-518.144159,-8660.409521,229.828649
267.706501,-962.267725,-8290.306550,0.000000
267.706828,-370.102971,-9104.533087,229.828649
267.707156,0.000000,-8882.471304,459.657299
267.707483,222.061783,-8882.471304,842.705048
267.707811,666.185348,-9844.739029,1378.971896
267.708138,222.061783,-9178.553681,1072.533697
267.708466,814.226536,-9696.697840,1532.190996
267.708793,1258.350101,-9474.636058,1685.410096
267.709121,888.247130,-9844.739029,1762.019645
267.709448,888.247130,-9474.636058,1685.410096
267.709776,888.247130,-9622.677246,1685.410096
267.710103,0.000000,-9400.615463,1149.143247
267.710431,0.000000,-9474.636058,1378.971896
267.710758,-1036.288319,-9178.553681,995.924147
267.711086,-814.226536,-9030.512492,689.485948
267.711413,-1110.308913,-8808.450710,536.266849
267.711741,-1332.370696,-8660.409521,612.876398
267.712068,-1480.411884,-8882.471304,459.657299
267.712396,-1406.391290,-8290.306550,459.657299
267.712723,-1850.514855,-8438.347739,612.876398
267.713051,-1850.514855,-8290.306550,153.219100
267.713378,-1924.535449,-8438.347739,229.828649
267.713706,-1702.473667,-8142.265362,153.219100
267.714033,-1480.411884,-8512.368333,0.000000
267.714361,-370.102971,-8882.471304,612.876398
267.714688,-444.123565,-9030.512492,306.438199
267.715016,-296.082377,-8956.491898,536.266849
267.715343,444.123565,-9252.574275,536.266849
267.715671,740.205942,-9030.512492,842.705048
267.715998,888.247130,-9622.677246,766.095498
267.716326,1110.308913,-9252.574275,1072.533697
267.716653,1406.391290,-9474.636058,1225.752797
267.716981,1406.391290,-9918.759623,1378.971896
267.717308,1110.308913,-9844.739029,1302.362347
267.717636,444.123565,-9844.739029,1378.971896
267.717963,222.061783,-9622.677246,919.314598
267.718291,0.000000,-9770.718434,766.095498
267.718619,-444.123565,-9474.636058,383.047749
267.718946,-740.205942,-9326.594869,153.219100
267.719274,-740.205942,-9030.512492,76.609550
267.719601,-1110.308913,-8660.409521,0.000000
267.719929,-1036.288319,-8586.388927,-459.657299
267.720256,-814.226536,-8512.368333,-459.657299
267.720584,-888.247130,-8364.327145,-383.047749
267.720911,-814.226536,-8290.306550,-229.828649
267.721239,-296.082377,-7920.203579,-459.657299
267.721566,-444.123565,-8586.388927,0.000000
267.721894,-222.061783,-8734.430116,383.047749
267.722221,0.000000,-9104.533087,229.828649
267.722549,0.000000,-9178.553681,689.485948
267.722876,518.144159,-9326.594869,995.924147
267.723204,592.164754,-9400.615463,842.705048
267.723531,592.164754,-9474.636058,1072.533697
267.723859,740.205942,-9474.636058,1225.752797
267.724186,1036.288319,-9474.636058,1455.581446
267.724514,888.247130,-9400.615463,1302.362347
267.724841,444.123565,-9252.574275,1225.752797
267.725169,296.082377,-9400.615463,1378.971896
267.725496,0.000000,-9474.636058,1149.143247
267.725824,-370.102971,-9400.615463,1225.752797
267.726151,-962.267725,-9400.615463,919.314598
267.726479,-1998.556043,-8512.368333,536.266849
267.726806,-1628.453072,-9104.533087,459.657299
267.727134,-1998.556043,-8734.430116,306.438199
267.727461,-1998.556043,-8512.368333,76.609550
267.727789,-1924.535449,-8290.306550,76.609550
267.728116,-2220.617826,-7920.203579,536.266849
267.728444,-1480.411884,-7772.162391,-459.657299
267.728771,-1332.370696,-8216.285956,-229.828649
267.729099,-1184.329507,-8290.306550,0.000000
267.729426,-1036.288319,-8586.388927,-153.219100
267.729754,-296.082377,-8586.388927,306.438199
267.730081,0.000000,-8956.491898,306.438199
267.730409,222.061783,-9178.553681,459.657299
267.730736,296.082377,-9400.615463,459.657299
267.731064,962.267725,-9474.636058,842.705048
267.731391,1406.391290,-9844.739029,459.657299
267.731719,1628.453072,-9474.636058,919.314598
267.732046,1776.494261,-9622.677246,1149.143247
267.732374,1480.411884,-9992.780217,842.705048
267.732701,1184.329507,-9696.697840,1149.143247
267.733029,962.267725,-9844.739029,1072.533697
267.733356,1036.288319,-9622.677246,689.485948
267.733684,0.000000,-9548.656652,612.876398
267.734011,-444.123565,-9474.636058,383.047749
267.734339,-740.205942,-9252.574275,153.219100
267.734666,-1184.329507,-8956.491898,0.000000
267.734994,-814.226536,-8956.491898,-153.219100
267.735321,-1036.288319,-8438.347739,-459.657299
267.735649,-1628.453072,-8512.368333,-383.047749
267.735976,-1480.411884,-8586.388927,-689.485948
267.736304,-1480.411884,-8512.368333,-153.219100
267.736631,-1332.370696,-8290.306550,-306.438199
267.736959,-888.247130,-8068.244768,0.000000
267.737287,-1036.288319,-8512.368333,0.000000
267.737614,-666.185348,-8956.491898,229.828649
267.737942,-222.061783,-9326.594869,536.266849
267.738269,74.020594,-9252.574275,842.705048
267.738597,666.185348,-9400.615463,766.095498
267.738924,740.205942,-9474.636058,919.314598
267.739252,1110.308913,-9696.697840,1378.971896
267.739579,1184.329507,-9770.718434,1455.581446
267.739907,1628.453072,-9770.718434,1455.581446
267.740234,1406.391290,-9918.759623,1149.143247
267.740562,962.267725,-9696.697840,1685.410096
267.740889,518.144159,-9548.656652,1532.190996
267.741217,74.020594,-9696.697840,1149.143247
267.741544,-592.164754,-9474.636058,1072.533697
267.741872,-814.226536,-9326.594869,842.705048
267.742199,-1110.308913,-8290.306550,612.876398
267.742527,-1554.432478,-8882.471304,536.266849
267.742854,-1554.432478,-8734.430116,383.047749
267.743182,-1924.535449,-8364.327145,153.219100
267.743509,-1776.494261,-8512.368333,76.609550
267.743837,-1924.535449,-8068.244768,0.000000
267.744164,-1924.535449,-8364.327145,0.000000
267.744492,-1998.556043,-8512.368333,153.219100
267.744819,-1628.453072,-8364.327145,76.609550
267.745147,-1332.370696,-8512.368333,229.828649
267.745474,-814.226536,-8290.306550,76.609550
267.745802,-370.102971,-9030.512492,766.095498
267.746129,0.000000,-9030.512492,689.485948
267.746457,370.102971,-9252.574275,766.095498
267.746784,740.205942,-9400.615463,995.924147
267.747112,1110.308913,-9548.656652,842.705048
267.747439,1258.350101,-9548.656652,1532.190996
267.747767,1406.391290,-9696.697840,1072.533697
267.748094,1036.288319,-9918.759623,1225.752797
267.748422,814.226536,-9622.677246,1378.971896
267.748749,518.144159,-9548.656652,1072.533697
267.749077,0.000000,-9474.636058,766.095498
267.749404,-148.041188,-9548.656652,536.266849
267.749732,-592.164754,-9030.512492,229.828649
267.750059,-740.205942,-8956.491898,0.000000
267.750387,-592.164754,-8438.347739,229.828649
267.750714,-814.226536,-8660.409521,0.000000
267.751042,-888.247130,-8438.347739,0.000000
267.751369,-814.226536,-8290.306550,76.609550
267.751697,-814.226536,-8216.285956,76.609550
267.752024,-1036.288319,-8586.388927,0.000000
267.752352,-592.164754,-8438.347739,153.219100
267.752679,-592.164754,-8586.388927,459.657299
267.753007,-370.102971,-8956.491898,383.047749
267.753334,-148.041188,-9252.574275,842.705048
267.753662,0.000000,-9252.574275,689.485948
267.753989,0.000000,-9400.615463,1302.362347
267.754317,222.061783,-9326.594869,1302.362347
267.754644,592.164754,-9252.574275,1149.143247
267.754972,666.185348,-9474.636058,1302.362347
267.755299,740.205942,-9770.718434,1455.581446
267.755627,666.185348,-9770.718434,1455.581446
267.755955,148.041188,-9252.574275,842.705048
267.756282,-148.041188,-9548.656652,1378.971896
267.756610,-592.164754,-9474.636058,1225.752797
267.756937,-1184.329507,-9548.656652,766.095498
267.757265,-1258.350101,-9252.574275,689.485948
267.757592,-1110.308913,-9326.594869,459.657299
267.757920,-1554.432478,-9030.512492,0.000000
267.758247,-1480.411884,-8660.409521,76.609550
267.758575,-1702.473667,-8512.368333,76.609550
267.758902,-1554.432478,-8438.347739,0.000000
267.759230,-1332.370696,-7698.141797,229.828649
267.759557,-1110.308913,-8142.265362,0.000000
267.759885,-888.247130,-8586.388927,76.609550
267.760212,-814.226536,-8586.388927,383.047749
267.760540,-444.123565,-8808.450710,153.219100
267.760867,0.000000,-8882.471304,536.266849
267.761195,222.061783,-8882.471304,689.485948
267.761522,518.144159,-9326.594869,766.095498
267.761850,888.247130,-9252.574275,766.095498
267.762177,1258.350101,-9474.636058,1072.533697
267.762505,1554.432478,-9696.697840,1608.800546
267.762832,1332.370696,-9400.615463,1225.752797
267.763160,1258.350101,-9400.615463,1072.533697
267.763487,962.267725,-9474.636058,1455.581446
267.763815,518.144159,-9474.636058,919.314598
267.764142,74.020594,-9622.677246,1072.533697
267.764470,0.000000,-9104.533087,1072.533697
267.764797,-592.164754,-9326.594869,306.438199
267.765125,-1036.288319,-9104.533087,153.219100
267.765452,-1406.391290,-9030.512492,0.000000
267.765780,-1628.453072,-8734.430116,-229.828649
267.766107,-1628.453072,-8364.327145,0.000000
267.766435,-1554.432478,-8364.327145,-612.876398
267.766762,-1554.432478,-8290.306550,-229.828649
267.767090,-1332.370696,-8142.265362,-383.047749
267.767417,-1258.350101,-8068.244768,-459.657299
267.767745,-814.226536,-8364.327145,-306.438199
267.768072,-148.041188,-8438.347739,-153.219100
267.768400,0.000000,-8808.450710,76.609550
267.768727,0.000000,-9030.512492,229.828649
267.769055,518.144159,-9400.615463,459.657299
267.769382,962.267725,-9326.594869,383.047749
267.769710,1480.411884,-9474.636058,919.314598
267.770037,1332.370696,-9548.656652,1302.362347
267.770365,1480.411884,-9696.697840,1149.143247
267.770692,1554.432478,-9622.677246,1532.190996
267.771020,1332.370696,-10288.862594,1532.190996
267.771347,1258.350101,-9548.656652,1225.752797
267.771675,518.144159,-9474.636058,1072.533697
267.772002,-296.082377,-9474.636058,995.924147
267.772330,-814.226536,-9474.636058,612.876398
267.772657,-740.205942,-9104.533087,689.485948
267.772985,-1110.308913,-8956.491898,0.000000
267.773312,-1776.494261,-8660.409521,229.828649
267.773640,-1702.473667,-8660.409521,0.000000
267.773967,-2146.597232,-8586.388927,0.000000
267.774295,-2072.576638,-8364.327145,153.219100
267.774623,-2146.597232,-8364.327145,0.000000
267.774950,-1924.535449,-8660.409521,-153.219100
267.775278,-2146.597232,-8734.430116,-153.219100
267.775605,-1702.473667,-8882.471304,0.000000
267.775933,-1184.329507,-8660.409521,0.000000
267.776260,-666.185348,-8438.347739,383.047749
267.776588,0.000000,-9178.553681,536.266849
267.776915,222.061783,-9252.574275,306.438199
267.777243,888.247130,-9326.594869,612.876398
267.777570,1332.370696,-9474.636058,689.485948
267.777898,1480.411884,-9548.656652,995.924147
267.778225,2072.576638,-9918.759623,1225.752797
267.778553,1480.411884,-9844.739029,1378.971896
267.778880,1406.391290,-10140.821405,995.924147
267.779208,962.267725,-9918.759623,1378.971896
267.779535,666.185348,-9770.718434,1302.362347
267.779863,370.102971,-9696.697840,1532.190996
267.780190,0.000000,-9548.656652,536.266849
267.780518,-814.226536,-9474.636058,306.438199
267.780845,-814.226536,-8882.471304,153.219100
267.781173,-1258.350101,-8882.471304,0.000000
267.781500,-888.247130,-8438.347739,459.657299
267.781828,-1258.350101,-8438.347739,0.000000
267.782155,-1406.391290,-8290.306550,-229.828649
267.782483,-1184.329507,-8364.327145,0.000000
267.782810,-1406.391290,-8290.306550,0.000000
267.783138,-888.247130,-8734.430116,536.266849
267.783465,-962.267725,-8216.285956,459.657299
267.783793,-740.205942,-8660.409521,689.485948
267.784120,-296.082377,-9030.512492,612.876398
267.784448,-296.082377,-9326.594869,842.705048
267.784775,0.000000,-9474.636058,1072.533697
267.785103,518.144159,-9104.533087,842.705048
267.785430,814.226536,-9326.594869,1532.190996
267.785758,888.247130,-9400.615463,1378.971896
267.786085,1036.288319,-9474.636058,1378.971896
267.786413,962.267725,-9474.636058,1378.971896
267.786740,666.185348,-9474.636058,842.705048
267.787068,222.061783,-9474.636058,1225.752797
267.787395,0.000000,-9770.718434,842.705048
267.787723,-666.185348,-9474.636058,612.876398
267.788050,-1184.329507,-9178.553681,766.095498
267.788378,-814.226536,-8956.491898,689.485948
267.788705,-1554.432478,-8956.491898,-153.219100
267.789033,-1480.411884,-8808.450710,229.828649
267.789360,-1628.453072,-8660.409521,0.000000
267.789688,-1702.473667,-8364.327145,76.609550
267.790015,-1554.432478,-7920.203579,0.000000
267.790343,-1702.473667,-8216.285956,76.609550
267.790670,-1258.350101,-8512.368333,-306.438199
267.790998,-962.267725,-8734.430116,-306.438199
267.791325,-592.164754,-8808.450710,0.000000
267.791653,-518.144159,-8956.491898,383.047749
267.791981,0.000000,-8956.491898,-229.828649
267.792308,370.102971,-9474.636058,536.266849
267.792636,814.226536,-9474.636058,459.657299
267.792963,1036.288319,-9696.697840,766.095498
267.793291,1258.350101,-9844.739029,1072.533697
267.793618,1184.329507,-9770.718434,1838.629195
267.793946,1332.370696,-9770.718434,1149.143247
267.794273,1184.329507,-9770.718434,995.924147
267.794601,740.205942,-9844.739029,842.705048
267.794928,444.123565,-9918.759623,842.705048
267.795256,148.041188,-9622.677246,536.266849
267.795583,-222.061783,-9770.718434,76.609550
267.795911,-666.185348,-8956.491898,153.219100
267.796238,-962.267725,-9178.553681,0.000000
267.796566,-1258.350101,-9104.533087,-153.219100
267.796893,-1702.473667,-8586.388927,-459.657299
267.797221,-1258.350101,-8364.327145,-1302.362347
267.797548,-1554.432478,-8364.327145,-229.828649
267.797876,-1258.350101,-8290.306550,0.000000
267.798203,-1110.308913,-8586.388927,-153.219100
267.798531,-814.226536,-8512.368333,153.219100
267.798858,0.000000,-8734.430116,459.657299
267.799186,-444.123565,-8882.471304,306.438199
267.799513,74.020594,-9178.553681,766.095498
267.799841,296.082377,-9252.574275,995.924147
267.800168,444.123565,-9474.636058,1072.533697
267.800496,666.185348,-9104.533087,1149.143247
267.800823,1406.391290,-9474.636058,1532.190996
267.801151,1184.329507,-9548.656652,1685.410096
267.801478,1184.329507,-9178.553681,1762.019645
267.801806,814.226536,-9474.636058,1685.410096
267.802133,370.102971,-9252.574275,1455.581446
267.802461,0.000000,-9252.574275,1608.800546
267.802788,-296.082377,-9474.636058,1225.752797
267.803116,-740.205942,-9474.636058,919.314598
267.803443,-1258.350101,-9252.574275,612.876398
267.803771,-1480.411884,-8882.471304,689.485948
267.804098,-1702.473667,-8512.368333,306.438199
267.804426,-1702.473667,-8660.409521,153.219100
267.804753,-1924.535449,-8216.285956,76.609550
267.805081,-1850.514855,-8290.306550,0.000000
267.805408,-1702.473667,-8364.327145,0.000000
267.805736,-1702.473667,-8438.347739,-306.438199
267.806063,-1258.350101,-8438.347739,306.438199
267.806391,-1258.350101,-8660.409521,76.609550
267.806719,-814.226536,-8882.471304,229.828649
267.807046,-518.144159,-8882.471304,306.438199
267.807374,0.000000,-8956.491898,612.876398
267.807701,592.164754,-9104.533087,536.266849
267.808029,888.247130,-9252.574275,1072.533697
267.808356,1406.391290,-9474.636058,1225.752797
267.808684,1332.370696,-9548.656652,1149.143247
267.809011,1702.473667,-9844.739029,1149.143247
267.809339,1184.329507,-9622.677246,1608.800546
267.809666,1184.329507,-10066.800811,1225.752797
267.809994,666.185348,-10066.800811,1072.533697
267.810321,0.000000,-9696.697840,766.095498
267.810649,0.000000,-10066.800811,995.924147
267.810976,148.041188,-9474.636058,0.000000
267.811304,-518.144159,-9252.574275,76.609550
267.811631,-888.247130,-8882.471304,0.000000
267.811959,-1258.350101,-8586.388927,76.609550
267.812286,-1110.308913,-8438.347739,0.000000
267.812614,-740.205942,-8216.285956,-153.219100
267.812941,-1258.350101,-8290.306550,76.609550
267.813269,-1258.350101,-8438.347739,0.000000
267.813596,-1184.329507,-8512.368333,153.219100
267.813924,-666.185348,-8808.450710,383.047749
267.814251,-592.164754,-8586.388927,0.000000
267.814579,74.020594,-8882.471304,842.705048
267.814906,0.000000,-9252.574275,766.095498
267.815234,0.000000,-9326.594869,766.095498
267.815561,370.102971,-9548.656652,1225.752797
267.815889,592.164754,-9326.594869,1378.971896
267.816216,1036.288319,-9030.512492,1455.581446
267.816544,888.247130,-9474.636058,1532.190996
267.816871,888.247130,-9548.656652,1455.581446
267.817199,666.185348,-9474.636058,1149.143247
267.817526,444.123565,-9474.636058,1302.362347
267.817854,0.000000,-9918.759623,1455.581446
267.818181,-592.164754,-9474.636058,995.924147
267.818509,-740.205942,-9252.574275,919.314598
267.818836,-1406.391290,-9030.512492,766.095498
267.819164,-1332.370696,-8882.471304,383.047749
267.819491,-1554.432478,-8216.285956,76.609550
267.819819,-1406.391290,-8364.327145,306.438199
267.820146,-1628.453072,-8216.285956,76.609550
267.820474,-1480.411884,-8216.285956,153.219100
267.820801,-1332.370696,-7920.203579,153.219100
267.821129,-1110.308913,-7920.203579,229.828649
267.821457,-888.247130,-8216.285956,229.828649
267.821784,-962.267725,-8512.368333,229.828649
267.822112,-592.164754,-8808.450710,229.828649
267.822439,-148.041188,-8882.471304,383.047749
267.822767,148.041188,-9400.615463,459.657299
267.823094,370.102971,-9474.636058,766.095498
267.823422,740.205942,-9622.677246,995.924147
267.823749,1036.288319,-9696.697840,919.314598
267.824077,1036.288319,-9622.677246,919.314598
267.824404,1184.329507,-9770.718434,995.924147
267.824732,1110.308913,-9400.615463,1455.581446
267.825059,888.247130,-9696.697840,842.705048
267.825387,518.144159,-9696.697840,919.314598
267.825714,0.000000,-9474.636058,689.485948
267.826042,-444.123565,-9622.677246,383.047749
267.826369,-444.123565,-9326.594869,0.000000
267.826697,-814.226536,-8956.491898,0.000000
267.827024,-1184.329507,-9178.553681,0.000000
267.827352,-1332.370696,-9030.512492,-306.438199
267.827679,-1480.411884,-8586.388927,-459.657299
267.828007,-1776.494261,-8216.285956,-383.047749
267.828334,-888.247130,-8216.285956,0.000000
267.828662,-1110.308913,-8364.327145,0.000000
267.828989,-962.267725,-8512.368333,-306.438199
267.829317,-666.185348,-8808.450710,0.000000
267.829644,-518.144159,-8586.388927,153.219100
267.829972,0.000000,-9030.512492,766.095498
267.830299,222.061783,-8956.491898,153.219100
267.830627,444.123565,-9474.636058,612.876398
267.830954,888.247130,-9548.656652,766.095498
267.831282,1036.288319,-9696.697840,1149.143247
267.831609,1036.288319,-9622.677246,1378.971896
267.831937,1480.411884,-9622.677246,1608.800546
267.832264,1332.370696,-9696.697840,1532.190996
267.832592,888.247130,-9696.697840,1455.581446
267.832919,444.123565,-9548.656652,1378.971896
267.833247,148.041188,-9474.636058,1149.143247
267.833574,-222.061783,-9178.553681,1072.533697
267.833902,-1110.308913,-9400.615463,612.876398
267.834229,-1258.350101,-8808.450710,536.266849
267.834557,-1332.370696,-9030.512492,383.047749
267.834884,-1332.370696,-8734.430116,229.828649
267.835212,-1258.350101,-8438.347739,612.876398
267.835539,-1776.494261,-8438.347739,153.219100
267.835867,-2146.597232,-8364.327145,0.000000
267.836194,-1702.473667,-8438.347739,0.000000
267.836522,-1628.453072,-8512.368333,0.000000
267.836850,-1184.329507,-8438.347739,0.000000
267.837177,-1110.308913,-8808.450710,153.219100
267.837505,-666.185348,-8808.450710,229.828649
267.837832,-370.102971,-9104.533087,536.266849
267.838160,148.041188,-9104.533087,383.047749
267.838487,888.247130,-9178.553681,766.095498
267.838815,1036.288319,-9474.636058,766.095498
267.839142,1258.350101,-9326.594869,1149.143247
267.839470,1480.411884,-9548.656652,1302.362347
267.839797,1628.453072,-9622.677246,1225.752797
267.840125,1036.288319,-9622.677246,1149.143247
267.840452,1480.411884,-9918.759623,1532.190996
267.840780,740.205942,-9770.718434,1455.581446
267.841107,444.123565,-9696.697840,919.314598
267.841435,-370.102971,-9474.636058,766.095498
267.841762,-518.144159,-9474.636058,306.438199
267.842090,-592.164754,-8882.471304,153.219100
267.842417,-1184.329507,-8882.471304,229.828649
267.842745,-1184.329507,-8660.409521,-153.219100
267.843072,-1110.308913,-8586.388927,0.000000
267.843400,-1406.391290,-8586.388927,-153.219100
267.843727,-1184.329507,-8290.306550,0.000000
267.844055,-1110.308913,-8364.327145,76.609550
267.844382,-1258.350101,-8512.368333,153.219100
267.844710,-814.226536,-8364.327145,306.438199
267.845037,-666.185348,-8808.450710,383.047749
267.845365,0.000000,-8956.491898,1072.533697
267.845692,-370.102971,-9252.574275,689.485948
267.846020,0.000000,-9474.636058,1149.143247
267.846347,222.061783,-9400.615463,1149.143247
267.846675,518.144159,-9474.636058,1225.752797
267.847002,1036.288319,-9178.553681,1532.190996
267.847330,1110.308913,-9178.553681,1915.238745
267.847657,814.226536,-9548.656652,1762.019645
267.847985,666.185348,-9474.636058,1455.581446
267.848312,148.041188,-9474.636058,1302.362347
267.848640,0.000000,-9252.574275,1149.143247
267.848967,-518.144159,-9474.636058,1225.752797
267.849295,-962.267725,-9178.553681,766.095498
267.849622,-1110.308913,-9104.533087,229.828649
267.849950,-1406.391290,-8808.450710,306.438199
267.850277,-1554.432478,-8808.450710,76.609550
267.850605,-1184.329507,-8290.306550,383.047749
267.850932,-1406.391290,-8512.368333,-153.219100
267.851260,-1480.411884,-8586.388927,76.609550
267.851588,-1258.350101,-8512.368333,0.000000
267.851915,-1332.370696,-8512.368333,153.219100
267.852243,-888.247130,-8438.347739,0.000000
267.852570,-444.123565,-8808.450710,306.438199
267.852898,-296.082377,-9030.512492,0.000000
267.853225,148.041188,-9178.553681,306.438199
267.853553,222.061783,-9030.512492,383.047749
267.853880,814.226536,-9030.512492,536.266849
267.854208,962.267725,-9400.615463,536.266849
267.854535,1184.329507,-9622.677246,766.095498
267.854863,1406.391290,-9622.677246,995.924147
267.855190,1332.370696,-9696.697840,1072.533697
267.855518,888.247130,-10140.821405,1072.533697
267.855845,814.226536,-9474.636058,1225.752797
267.856173,444.123565,-9548.656652,612.876398
267.856500,148.041188,-9474.636058,612.876398
267.856828,-444.123565,-9474.636058,536.266849
267.857155,-888.247130,-9252.574275,76.609550
267.857483,-1110.308913,-8734.430116,153.219100
267.857810,-1258.350101,-8808.450710,-153.219100
267.858138,-1332.370696,-8586.388927,-536.266849
267.858465,-1406.391290,-8438.347739,-383.047749
267.858793,-1406.391290,-8512.368333,-459.657299
267.859120,-1480.411884,-8364.327145,-306.438199
267.859448,-1110.308913,-7772.162391,-459.657299
267.859775,-1110.308913,-8290.306550,-383.047749
267.860103,-592.164754,-8512.368333,0.000000
267.860430,-518.144159,-8956.491898,153.219100
267.860758,222.061783,-9178.553681,612.876398
267.861085,444.123565,-9030.512492,459.657299
267.861413,370.102971,-9178.553681,842.705048
267.861740,666.185348,-9548.656652,766.095498
267.862068,888.247130,-9770.718434,1149.143247
267.862395,1258.350101,-9622.677246,1455.581446
267.862723,1480.411884,-9400.615463,1685.410096
267.863050,1406.391290,-9474.636058,1608.800546
267.863378,1036.288319,-9622.677246,1225.752797
267.863705,592.164754,-9400.615463,1455.581446
267.864033,148.041188,-9548.656652,1072.533697
267.864360,-296.082377,-9326.594869,1532.190996
267.864688,-592.164754,-9696.697840,612.876398
267.865015,-1332.370696,-9104.533087,536.266849
267.865343,-1628.453072,-8956.491898,306.438199
267.865670,-1776.494261,-8660.409521,459.657299
267.865998,-1924.535449,-8438.347739,0.000000
267.866325,-1702.473667,-8438.347739,0.000000
267.866653,-1850.514855,-8512.368333,0.000000
267.866981,-2072.576638,-8142.265362,0.000000
267.867308,-1924.535449,-8290.306550,0.000000
267.867636,-1554.432478,-8216.285956,0.000000
267.867963,-1184.329507,-8512.368333,306.438199
267.868291,-888.247130,-8734.430116,153.219100
267.868618,-444.123565,-9104.533087,306.438199
267.868946,0.000000,-9178.553681,612.876398
267.869273,518.144159,-9400.615463,842.705048
267.869601,814.226536,-9326.594869,766.095498
267.869928,962.267725,-9474.636058,1072.533697
267.870256,1480.411884,-9548.656652,1455.581446
267.870583,1628.453072,-9844.739029,1225.752797
267.870911,1258.350101,-9770.718434,1455.581446
267.871238,1036.288319,-9622.677246,1915.238745
267.871566,888.247130,-9770.718434,1149.143247
267.871893,222.061783,-9474.636058,766.095498
267.872221,-370.102971,-9474.636058,766.095498
267.872548,-370.102971,-9474.636058,306.438199
267.872876,-592.164754,-8882.471304,229.828649
267.873203,-296.082377,-8512.368333,306.438199
267.873531,-1110.308913,-8660.409521,0.000000
267.873858,-1258.350101,-8660.409521,0.000000
267.874186,-1332.370696,-8438.347739,153.219100
267.874513,-1110.308913,-8216.285956,306.438199
267.874841,-1110.308913,-8364.327145,0.000000
267.875168,-1184.329507,-8364.327145,0.000000
267.875496,-888.247130,-8586.388927,306.438199
267.875823,-814.226536,-8512.368333,229.828649
267.876151,-296.082377,-8808.450710,612.876398
267.876478,-296.082377,-8734.430116,1378.971896
267.876806,222.061783,-9326.594869,842.705048
267.877133,222.061783,-9326.594869,1072.533697
267.877461,518.144159,-9474.636058,995.924147
267.877788,962.267725,-9474.636058,1302.362347
267.878116,592.164754,-9104.533087,1838.629195
267.878443,888.247130,-9400.615463,1455.581446
267.878771,814.226536,-9474.636058,1762.019645
267.879098,370.102971,-9622.677246,1455.581446
267.879426,0.000000,-9548.656652,1225.752797
267.879753,-444.123565,-9622.677246,536.266849
267.880081,-740.205942,-8956.491898,1072.533697
267.880408,-962.267725,-9252.574275,306.438199
267.880736,-1480.411884,-9104.533087,306.438199
267.881063,-1480.411884,-8734.430116,306.438199
267.881391,-1258.350101,-8808.450710,383.047749
267.881719,-1258.350101,-8586.388927,229.828649
267.882046,-1406.391290,-8290.306550,0.000000
267.882374,-1184.329507,-8364.327145,0.000000
267.882701,-1258.350101,-8290.306550,76.609550
267.883029,-962.267725,-8586.388927,0.000000
267.883356,-814.226536,-8364.327145,689.485948
267.883684,-222.061783,-8882.471304,229.828649
267.884011,-148.041188,-9252.574275,459.657299
267.884339,0.000000,-9474.636058,536.266849
267.884666,518.144159,-9474.636058,689.485948
267.884994,1702.473667,-9326.594869,766.095498
267.885321,1332.370696,-9770.718434,1072.533697
267.885649,1258.350101,-9844.739029,1149.143247
267.885976,1258.350101,-9844.739029,919.314598
267.886304,1258.350101,-9622.677246,919.314598
267.886631,888.247130,-9400.615463,1149.143247
267.886959,518.144159,-9474.636058,1072.533697
267.887286,74.020594,-9696.697840,612.876398
267.887614,-444.123565,-9474.636058,306.438199
267.887941,-740.205942,-9252.574275,383.047749
267.888269,-962.267725,-9252.574275,153.219100
267.888597,-1258.350101,-8882.471304,306.438199
267.888924,-1480.411884,-8660.409521,-383.047749
267.889252,-1628.453072,-8438.347739,0.000000
267.889579,-1480.411884,-8290.306550,-459.657299
267.889907,-1258.350101,-8512.368333,-383.047749
267.890235,-1480.411884,-8364.327145,0.000000
267.890562,-1258.350101,-8364.327145,0.000000
267.890890,-814.226536,-8438.347739,0.000000
267.891217,-592.164754,-8660.409521,0.000000
267.891545,0.000000,-8882.471304,383.047749
267.891873,222.061783,-9400.615463,383.047749
267.892200,370.102971,-9252.574275,459.657299
267.892528,666.185348,-9400.615463,842.705048
267.892855,888.247130,-9326.594869,919.314598
267.893183,1036.288319,-9474.636058,1225.752797
267.893511,1406.391290,-9474.636058,1302.362347
267.893838,1406.391290,-9474.636058,1608.800546
267.894166,1110.308913,-9474.636058,1302.362347
267.894493,592.164754,-9622.677246,1302.362347
267.894821,222.061783,-9548.656652,995.924147
267.895148,-222.061783,-9696.697840,1225.752797
267.895476,-814.226536,-9178.553681,536.266849
267.895804,-962.267725,-9400.615463,536.266849
267.896131,-1406.391290,-9104.533087,459.657299
267.896459,-1702.473667,-8808.450710,0.000000
267.896786,-1702.473667,-8586.388927,229.828649
267.897114,-2072.576638,-7846.182985,0.000000
267.897442,-1702.473667,-8364.327145,-153.219100
267.897769,-1924.535449,-8438.347739,-229.828649
267.898097,-1850.514855,-8364.327145,-229.828649
267.898424,-1480.411884,-8364.327145,0.000000
267.898752,-888.247130,-8438.347739,153.219100
267.899080,-444.123565,-8438.347739,0.000000
267.899407,-296.082377,-9252.574275,306.438199
267.899735,148.041188,-9178.553681,612.876398
267.900062,592.164754,-9252.574275,306.438199
267.900390,1332.370696,-9918.759623,1225.752797
267.900718,1628.453072,-9474.636058,1838.629195
267.901045,1406.391290,-9622.677246,1532.190996
267.901373,1628.453072,-9844.739029,1225.752797
267.901700,1406.391290,-9844.739029,1532.190996
267.902028,1184.329507,-9844.739029,1455.581446
267.902356,1036.288319,-9622.677246,1378.971896
267.902683,296.082377,-9696.697840,1072.533697
267.903011,-296.082377,-9622.677246,689.485948
267.903338,-518.144159,-9400.615463,459.657299
267.903666,-814.226536,-9326.594869,306.438199
267.903994,-1036.288319,-8808.450710,842.705048
267.904321,-1258.350101,-8956.491898,0.000000
267.904649,-1258.350101,-8438.347739,229.828649
267.904976,-1332.370696,-8512.368333,0.000000
267.905304,-1258.350101,-8364.327145,0.000000
267.905632,-1554.432478,-8438.347739,0.000000
267.905959,-888.247130,-8438.347739,0.000000
267.906287,-1184.329507,-8660.409521,383.047749
267.906614,-888.247130,-8660.409521,536.266849
267.906942,0.000000,-9030.512492,766.095498
267.907270,-222.061783,-8586.388927,612.876398
267.907597,222.061783,-9474.636058,1302.362347
267.907925,148.041188,-9326.594869,1225.752797
267.908252,740.205942,-9326.594869,1072.533697
267.908580,814.226536,-9326.594869,1149.143247
267.908908,1036.288319,-9622.677246,1302.362347
267.909235,1036.288319,-9400.615463,1991.848295
267.909563,814.226536,-9696.697840,1378.971896
267.909890,444.123565,-9696.697840,1149.143247
267.910218,-148.041188,-9696.697840,1149.143247
267.910545,-592.164754,-9474.636058,766.095498
267.910873,-740.205942,-9326.594869,689.485948
267.911201,-962.267725,-9030.512492,766.095498
267.911528,-1332.370696,-9030.512492,306.438199
267.911856,-1184.329507,-8586.388927,76.609550
267.912183,-1332.370696,-8438.347739,76.609550
267.912511,-1332.370696,-8586.388927,306.438199
267.912839,-1184.329507,-7994.224174,-153.219100
267.913166,-1110.308913,-8364.327145,76.609550
267.913494,-1258.350101,-8438.347739,0.000000
267.913821,-962.267725,-8512.368333,76.609550
267.914149,-666.185348,-8438.347739,459.657299
267.914477,-296.082377,-8586.388927,383.047749
267.914804,-222.061783,-8882.471304,153.219100
267.915132,0.000000,-9178.553681,459.657299
267.915459,592.164754,-9400.615463,536.266849
267.915787,888.247130,-9474.636058,689.485948
267.916115,1036.288319,-9400.615463,842.705048
267.916442,1110.308913,-9622.677246,919.314598
267.916770,1406.391290,-9696.697840,689.485948
267.917097,1110.308913,-9918.759623,919.314598
267.917425,740.205942,-9696.697840,919.314598
267.917753,666.185348,-9844.739029,383.047749
267.918080,0.000000,-9548.656652,459.657299
267.918408,-518.144159,-9474.636058,229.828649
267.918735,-518.144159,-9326.594869,0.000000
267.919063,-1184.329507,-9400.615463,76.609550
267.919391,-1258.350101,-8956.491898,-383.047749
267.919718,-1258.350101,-8586.388927,153.219100
267.920046,-1406.391290,-8586.388927,-612.876398
267.920373,-1184.329507,-8512.368333,-612.876398
267.920701,-1110.308913,-8438.347739,-612.876398
267.921029,-666.185348,-8586.388927,0.000000
267.921356,-370.102971,-8438.347739,0.000000
267.921684,-444.123565,-8586.388927,0.000000
267.922011,-148.041188,-8882.471304,153.219100
267.922339,0.000000,-8734.430116,229.828649
267.922667,0.000000,-8956.491898,383.047749
267.922994,444.123565,-9104.533087,766.095498
267.923322,962.267725,-9474.636058,995.924147
267.923649,814.226536,-9622.677246,1149.143247
267.923977,1480.411884,-9622.677246,1149.143247
267.924305,1406.391290,-9622.677246,1225.752797
267.924632,1258.350101,-9474.636058,1608.800546
267.924960,1184.329507,-9474.636058,1455.581446
267.925287,518.144159,-9622.677246,1378.971896
267.925615,222.061783,-9548.656652,1225.752797
267.925942,-444.123565,-9400.615463,919.314598
267.926270,-1036.288319,-9548.656652,1072.533697
267.926598,-1110.308913,-8808.450710,689.485948
267.926925,-1628.453072,-8956.491898,536.266849
267.927253,-1628.453072,-8734.430116,306.438199
267.927580,-1924.535449,-8364.327145,0.000000
267.927908,-1776.494261,-8364.327145,459.657299
267.928236,-2294.638420,-7920.203579,0.000000
267.928563,-2072.576638,-8364.327145,0.000000
267.928891,-1924.535449,-8438.347739,0.000000
267.929218,-1554.432478,-8586.388927,153.219100
267.929546,-1258.350101,-8808.450710,76.609550
267.929874,-518.144159,-8660.409521,306.438199
267.930201,-222.061783,-8956.491898,229.828649
267.930529,222.061783,-9104.533087,383.047749
267.930856,518.144159,-9178.553681,612.876398
267.931184,1036.288319,-9104.533087,766.095498
267.931512,1480.411884,-9252.574275,1378.971896
267.931839,1776.494261,-9622.677246,1455.581446
267.932167,1480.411884,-9844.739029,1685.410096
267.932494,1406.391290,-9770.718434,1072.533697
267.932822,1036.288319,-9696.697840,1378.971896
267.933150,740.205942,-9696.697840,1225.752797
267.933477,592.164754,-9918.759623,766.095498
267.933805,-370.102971,-9622.677246,689.485948
267.934132,-740.205942,-9400.615463,612.876398
267.934460,-888.247130,-8882.471304,76.609550
267.934788,-1258.350101,-8882.471304,76.609550
267.935115,-1110.308913,-8586.388927,306.438199
267.935443,-1258.350101,-8660.409521,0.000000
267.935770,-1554.432478,-8438.347739,0.000000
267.936098,-1554.432478,-8364.327145,-229.828649
267.936426,-1480.411884,-8512.368333,0.000000
267.936753,-1332.370696,-8216.285956,0.000000
267.937081,-1110.308913,-8364.327145,229.828649
267.937408,-740.205942,-8512.368333,459.657299
267.937736,-148.041188,-8882.471304,536.266849
267.938064,0.000000,-9178.553681,995.924147
267.938391,148.041188,-9474.636058,1072.533697
267.938719,740.205942,-9252.574275,1302.362347
267.939046,814.226536,-9252.574275,1149.143247
267.939374,888.247130,-9400.615463,1378.971896
267.939702,1184.329507,-9326.594869,1378.971896
267.940029,1258.350101,-9474.636058,1762.019645
267.940357,814.226536,-9104.533087,1762.019645
267.940684,518.144159,-9622.677246,1149.143247
267.941012,222.061783,-9474.636058,1225.752797
267.941339,-222.061783,-9474.636058,919.314598
267.941667,-814.226536,-9622.677246,689.485948
267.941995,-370.102971,-9548.656652,612.876398
267.942322,-1258.350101,-8882.471304,536.266849
267.942650,-1554.432478,-8734.430116,536.266849
267.942977,-1702.473667,-8438.347739,229.828649
267.943305,-1628.453072,-8216.285956,0.000000
267.943633,-1554.432478,-8216.285956,306.438199
267.943960,-1406.391290,-8438.347739,153.219100
267.944288,-1406.391290,-8438.347739,306.438199
267.944615,-1258.350101,-8512.368333,0.000000
267.944943,-888.247130,-8438.347739,0.000000
267.945271,-518.144159,-8808.450710,536.266849
267.945598,74.020594,-8586.388927,689.485948
267.945926,0.000000,-9400.615463,612.876398
267.946253,370.102971,-9252.574275,766.095498
267.946581,666.185348,-9400.615463,766.095498
267.946909,962.267725,-9622.677246,919.314598
267.947236,1554.432478,-9696.697840,1225.752797
267.947564,1110.308913,-9474.636058,1225.752797
267.947891,962.267725,-9622.677246,995.924147
267.948219,518.144159,-9918.759623,1225.752797
267.948547,444.123565,-9844.739029,842.705048
267.948874,148.041188,-9548.656652,766.095498
267.949202,0.000000,-9474.636058,766.095498
267.949529,-740.205942,-9400.615463,229.828649
267.949857,-962.267725,-9252.574275,306.438199
267.950185,-1184.329507,-9030.512492,-153.219100
267.950512,-1332.370696,-8734.430116,0.000000
267.950840,-1036.288319,-8586.388927,-459.657299
267.951167,-1554.432478,-8290.306550,-229.828649
267.951495,-1110.308913,-8586.388927,-153.219100
267.951823,-1184.329507,-8438.347739,-536.266849
267.952150,-740.205942,-8142.265362,-306.438199
267.952478,-592.164754,-8512.368333,0.000000
267.952805,0.000000,-8660.409521,153.219100
267.953133,0.000000,-9252.574275,459.657299
267.953461,222.061783,-9178.553681,536.266849
267.953788,518.144159,-9400.615463,766.095498
267.954116,888.247130,-9252.574275,766.095498
267.954443,1036.288319,-9252.574275,919.314598
267.954771,1036.288319,-9474.636058,1532.190996
267.955099,1258.350101,-9548.656652,1532.190996
267.955426,888.247130,-9400.615463,1455.581446
267.955754,1036.288319,-9474.636058,2298.286494
267.956081,148.041188,-9252.574275,1378.971896
267.956409,-370.102971,-9252.574275,842.705048
267.956736,-592.164754,-9474.636058,1149.143247
267.957064,-1036.288319,-9474.636058,536.266849
267.957392,-1332.370696,-9178.553681,919.314598
267.957719,-1406.391290,-8660.409521,842.705048
267.958047,-2368.659014,-8586.388927,0.000000
267.958374,-1998.556043,-8438.347739,76.609550
267.958702,-2072.576638,-8512.368333,-306.438199
267.959030,-2146.597232,-8216.285956,-306.438199
267.959357,-2220.617826,-7994.224174,-153.219100
267.959685,-1776.494261,-8586.388927,-459.657299
267.960012,-1184.329507,-8586.388927,76.609550
267.960340,-1110.308913,-8734.430116,0.000000
267.960668,-518.144159,-8586.388927,153.219100
267.960995,-148.041188,-8882.471304,229.828649
267.961323,666.185348,-9400.615463,306.438199
267.961650,888.247130,-8956.491898,536.266849
267.961978,1332.370696,-9548.656652,919.314598
267.962306,1850.514855,-9548.656652,1072.533697
267.962633,1850.514855,-9326.594869,1685.410096
267.962961,2072.576638,-9770.718434,1532.190996
267.963288,2072.576638,-9992.780217,1302.362347
267.963616,1332.370696,-9622.677246,1378.971896
267.963944,518.144159,-10066.800811,1455.581446
267.964271,444.123565,-9770.718434,995.924147
267.964599,0.000000,-9474.636058,689.485948
267.964926,-814.226536,-9474.636058,229.828649
267.965254,-1332.370696,-8956.491898,229.828649
267.965582,-1184.329507,-9104.533087,306.438199
267.965909,-1554.432478,-8808.450710,306.438199
267.966237,-1554.432478,-8290.306550,-306.438199
267.966564,-1554.432478,-8808.450710,0.000000
267.966892,-1702.473667,-8216.285956,-229.828649
267.967220,-1702.473667,-8882.471304,-229.828649
267.967547,-1406.391290,-8290.306550,0.000000
267.967875,-1480.411884,-8142.265362,-229.828649
267.968202,-888.247130,-8586.388927,383.047749
267.968530,-518.144159,-8956.491898,383.047749
267.968858,0.000000,-9104.533087,919.314598
267.969185,370.102971,-9400.615463,995.924147
267.969513,518.144159,-9178.553681,1149.143247
267.969840,888.247130,-9326.594869,1762.019645
267.970168,1036.288319,-9696.697840,1685.410096
267.970496,1036.288319,-9400.615463,1762.019645
267.970823,1406.391290,-9918.759623,1762.019645
267.971151,814.226536,-9252.574275,1915.238745
267.971478,444.123565,-9474.636058,1915.238745
267.971806,74.020594,-9770.718434,1302.362347
267.972133,0.000000,-9474.636058,1149.143247
267.972461,-444.123565,-9622.677246,995.924147
267.972789,-962.267725,-9030.512492,995.924147
267.973116,-1258.350101,-9104.533087,612.876398
267.973444,-1480.411884,-8734.430116,459.657299
267.973771,-1258.350101,-8734.430116,459.657299
267.974099,-1776.494261,-8438.347739,76.609550
267.974427,-2072.576638,-8142.265362,229.828649
267.974754,-1776.494261,-7994.224174,0.000000
267.975082,-1554.432478,-8586.388927,229.828649
267.975409,-1258.350101,-8290.306550,0.000000
267.975737,-740.205942,-8660.409521,383.047749
267.976065,-740.205942,-8438.347739,153.219100
267.976392,-222.061783,-9252.574275,919.314598
267.976720,148.041188,-9104.533087,459.657299
267.977047,148.041188,-9104.533087,766.095498
267.977375,814.226536,-9474.636058,459.657299
267.977703,962.267725,-9474.636058,459.657299
267.978030,1480.411884,-9622.677246,842.705048
267.978358,1258.350101,-9474.636058,1225.752797
267.978685,1184.329507,-9622.677246,1072.533697
267.979013,962.267725,-9992.780217,995.924147
267.979341,518.144159,-9844.739029,995.924147
267.979668,370.102971,-9918.759623,306.438199
267.979996,-296.082377,-9400.615463,766.095498
267.980323,-814.226536,-9326.594869,306.438199
267.980651,-962.267725,-9104.533087,76.609550
267.980979,-1036.288319,-9252.574275,0.000000
267.981306,-1258.350101,-8808.450710,-229.828649
267.981634,-1036.288319,-8290.306550,0.000000
267.981961,-666.185348,-8808.450710,0.000000
267.982289,-1036.288319,-8586.388927,-306.438199
267.982617,-814.226536,-8290.306550,-306.438199
267.982944,-740.205942,-8438.347739,-153.219100
267.983272,-518.144159,-8586.388927,689.485948
267.983599,-370.102971,-8660.409521,-76.609550
267.983927,-370.102971,-8956.491898,383.047749
267.984255,370.102971,-9326.594869,689.485948
267.984582,296.082377,-9178.553681,766.095498
267.984910,296.082377,-9622.677246,1532.190996
267.985237,1110.308913,-9696.697840,1532.190996
267.985565,740.205942,-9622.677246,1149.143247
267.985893,962.267725,-9548.656652,1378.971896
267.986220,1184.329507,-9770.718434,1532.190996
267.986548,814.226536,-9696.697840,842.705048
267.986876,518.144159,-9252.574275,1072.533697
267.987203,0.000000,-9474.636058,1225.752797
267.987531,-444.123565,-9474.636058,689.485948
267.987859,-1036.288319,-9474.636058,612.876398
267.988186,-1258.350101,-9178.553681,459.657299
267.988514,-1110.308913,-9030.512492,229.828649
267.988842,-1554.432478,-8882.471304,0.000000
267.989169,-1850.514855,-8438.347739,0.000000
267.989497,-1702.473667,-8512.368333,0.000000
267.989825,-1628.453072,-8438.347739,-153.219100
267.990152,-1184.329507,-8068.244768,0.000000
267.990480,-1554.432478,-8142.265362,0.000000
267.990808,-1184.329507,-8438.347739,0.000000
267.991135,-740.205942,-8660.409521,0.000000
267.991463,-222.061783,-8734.430116,0.000000
267.991791,74.020594,-9030.512492,536.266849
267.992118,666.185348,-9030.512492,689.485948
267.992446,814.226536,-9400.615463,612.876398
267.992774,1110.308913,-9400.615463,689.485948
267.993101,1480.411884,-9474.636058,919.314598
267.993429,1480.411884,-9622.677246,1072.533697
267.993757,1406.391290,-9474.636058,1378.971896
267.994084,1480.411884,-9770.718434,995.924147
267.994412,1036.288319,-9770.718434,995.924147
267.994740,518.144159,-9696.697840,1072.533697
267.995067,0.000000,-9622.677246,612.876398
267.995395,-148.041188,-9326.594869,1072.533697
267.995723,-888.247130,-9474.636058,229.828649
267.996050,-1036.288319,-9104.533087,0.000000
267.996378,-1258.350101,-9104.533087,0.000000
267.996706,-1184.329507,-9030.512492,-306.438199
267.997033,-1406.391290,-8142.265362,-612.876398
267.997361,-1110.308913,-8290.306550,0.000000
267.997689,-1332.370696,-8142.265362,-306.438199
267.998016,-1110.308913,-8364.327145,-153.219100
267.998344,-1036.288319,-8660.409521,0.000000
267.998672,-888.247130,-8512.368333,0.000000
267.998999,-592.164754,-8956.491898,536.266849
267.999327,-222.061783,-9178.553681,612.876398
267.999655,0.000000,-9326.594869,766.095498
267.999982,444.123565,-9400.615463,1072.533697
268.000310,592.164754,-9474.636058,1149.143247
268.000638,888.247130,-9622.677246,1378.971896
268.000965,962.267725,-9400.615463,1532.190996
268.001293,1406.391290,-9622.677246,1455.581446
268.001621,1184.329507,-9696.697840,1455.581446
268.001948,814.226536,-9474.636058,1838.629195
268.002276,666.185348,-9474.636058,1762.019645
268.002604,444.123565,-9770.718434,1532.190996
268.002931,-592.164754,-9622.677246,842.705048
268.003259,-814.226536,-9474.636058,842.705048
268.003587,-1184.329507,-8882.471304,766.095498
268.003914,-1480.411884,-8734.430116,919.314598
268.004242,-1406.391290,-8586.388927,536.266849
268.004570,-1554.432478,-8586.388927,306.438199
268.004897,-2072.576638,-8290.306550,383.047749
268.005225,-1702.473667,-8290.306550,76.609550
268.005553,-1702.473667,-8364.327145,459.657299
268.005880,-1480.411884,-8438.347739,153.219100
268.006208,-1258.350101,-8438.347739,383.047749
268.006536,-962.267725,-8734.430116,383.047749
268.006863,-444.123565,-8808.450710,459.657299
268.007191,-148.041188,-8956.491898,459.657299
268.007519,0.000000,-9030.512492,536.266849
268.007846,592.164754,-9252.574275,689.485948
268.008174,444.123565,-9326.594869,766.095498
268.008502,740.205942,-9326.594869,995.924147
268.008830,962.267725,-9622.677246,1072.533697
268.009157,740.205942,-9252.574275,1532.190996
268.009485,1110.308913,-9474.636058,1225.752797
268.009813,814.226536,-9474.636058,1225.752797
268.010140,370.102971,-9622.677246,995.924147
268.010468,0.000000,-9844.739029,306.438199
268.010796,-296.082377,-9474.636058,153.219100
268.011123,-444.123565,-8956.491898,383.047749
268.011451,-888.247130,-9252.574275,0.000000
268.011779,-1036.288319,-9030.512492,-76.609550
268.012106,-1332.370696,-8660.409521,-306.438199
268.012434,-888.247130,-8512.368333,0.000000
268.012762,-1110.308913,-7994.224174,-306.438199
268.013089,-1110.308913,-8364.327145,-459.657299
268.013417,-740.205942,-8364.327145,-383.047749
268.013745,-592.164754,-8290.306550,-383.047749
268.014072,-296.082377,-8586.388927,0.000000
268.014400,-370.102971,-8216.285956,306.438199
268.014728,0.000000,-8956.491898,153.219100
268.015055,74.020594,-9178.553681,459.657299
268.015383,370.102971,-9326.594869,612.876398
268.015711,518.144159,-9474.636058,766.095498
268.016038,888.247130,-9252.574275,1378.971896
268.016366,1184.329507,-9548.656652,1302.362347
268.016694,1184.329507,-9474.636058,1302.362347
268.017021,1184.329507,-9548.656652,1302.362347
268.017349,814.226536,-9548.656652,1378.971896
268.017677,518.144159,-9474.636058,1149.143247
268.018004,0.000000,-9252.574275,766.095498
268.018332,-814.226536,-9400.615463,919.314598
268.018660,-1036.288319,-9326.594869,766.095498
268.018987,-1406.391290,-9104.533087,383.047749
268.019315,-1628.453072,-8586.388927,383.047749
268.019643,-1702.473667,-8586.388927,153.219100
268.019970,-1850.514855,-8364.327145,229.828649
268.020298,-1702.473667,-8438.347739,0.000000
268.020626,-1628.453072,-8364.327145,0.000000
268.020953,-1776.494261,-8290.306550,0.000000
268.021281,-1258.350101,-8142.265362,459.657299
268.021609,-1036.288319,-8364.327145,0.000000
268.021936,-814.226536,-8808.450710,229.828649
268.022264,-518.144159,-8956.491898,229.828649
268.022592,0.000000,-9178.553681,689.485948
268.022919,518.144159,-9474.636058,766.095498
268.023247,888.247130,-9622.677246,766.095498
268.023575,962.267725,-9474.636058,1072.533697
268.023902,1332.370696,-9844.739029,1378.971896
268.024230,1480.411884,-9770.718434,1378.971896
268.024558,1628.453072,-9622.677246,1378.971896
268.024885,1480.411884,-9844.739029,1378.971896
268.025213,814.226536,-9696.697840,1225.752797
268.025541,74.020594,-9770.718434,995.924147
268.025868,0.000000,-9770.718434,612.876398
268.026196,-444.123565,-9400.615463,919.314598
268.026524,-370.102971,-9844.739029,459.657299
268.026851,-1036.288319,-9030.512492,0.000000
268.027179,-1406.391290,-8956.491898,0.000000
268.027507,-1480.411884,-8808.450710,-306.438199
268.027834,-1480.411884,-8512.368333,0.000000
268.028162,-1184.329507,-8586.388927,-229.828649
268.028490,-1258.350101,-8364.327145,-459.657299
268.028817,-1332.370696,-8438.347739,-383.047749
268.029145,-888.247130,-8586.388927,-229.828649
268.029473,-740.205942,-8586.388927,229.828649
268.029800,-444.123565,-8586.388927,306.438199
268.030128,0.000000,-8808.450710,536.266849
268.030456,444.123565,-9178.553681,612.876398
268.030783,518.144159,-9178.553681,766.095498
268.031111,962.267725,-9474.636058,919.314598
268.031439,1184.329507,-9252.574275,1685.410096
268.031766,1924.535449,-9474.636058,1455.581446
268.032094,1406.391290,-9770.718434,1378.971896
268.032422,1258.350101,-9474.636058,1608.800546
268.032749,1036.288319,-9696.697840,1532.190996
268.033077,296.082377,-9918.759623,1455.581446
268.033405,0.000000,-9548.656652,1302.362347
268.033732,-666.185348,-9400.615463,919.314598
268.034060,-1110.308913,-9178.553681,842.705048
268.034388,-1406.391290,-9030.512492,689.485948
268.034715,-1480.411884,-8882.471304,536.266849
268.035043,-1480.411884,-8512.368333,459.657299
268.035371,-1628.453072,-8438.347739,229.828649
268.035698,-1850.514855,-8438.347739,0.000000
268.036026,-1924.535449,-8364.327145,76.609550
268.036354,-1776.494261,-8142.265362,153.219100
268.036681,-1554.432478,-8364.327145,76.609550
268.037009,-1110.308913,-8438.347739,153.219100
268.037337,-1036.288319,-8660.409521,229.828649
268.037665,-666.185348,-8660.409521,76.609550
268.037992,-444.123565,-9030.512492,612.876398
268.038320,0.000000,-8882.471304,229.828649
268.038648,74.020594,-8956.491898,995.924147
268.038975,592.164754,-9474.636058,612.876398
268.039303,888.247130,-9474.636058,842.705048
268.039631,1110.308913,-9622.677246,1072.533697
268.039958,1480.411884,-9696.697840,842.705048
268.040286,1776.494261,-9548.656652,842.705048
268.040614,1036.288319,-9918.759623,919.314598
268.040941,592.164754,-9770.718434,766.095498
268.041269,0.000000,-9622.677246,459.657299
268.041597,-444.123565,-9622.677246,383.047749
268.041924,-444.123565,-9474.636058,306.438199
268.042252,-740.205942,-9326.594869,-459.657299
268.042580,-888.247130,-8956.491898,0.000000
268.042907,-1036.288319,-8660.409521,-306.438199
268.043235,-962.267725,-8734.430116,-306.438199
268.043563,-1036.288319,-8438.347739,229.828649
268.043890,-814.226536,-8068.244768,-612.876398
268.044218,-888.247130,-8364.327145,-229.828649
268.044546,-666.185348,-8660.409521,-383.047749
268.044873,-518.144159,-8808.450710,-229.828649
268.045201,0.000000,-8882.471304,0.000000
268.045529,222.061783,-8956.491898,689.485948
268.045856,222.061783,-9252.574275,383.047749
268.046184,370.102971,-9474.636058,689.485948
268.046512,666.185348,-9474.636058,919.314598
268.046839,888.247130,-9474.636058,1072.533697
268.047167,1110.308913,-9326.594869,1608.800546
268.047495,1258.350101,-9548.656652,1685.410096
268.047822,740.205942,-9548.656652,1608.800546
268.048150,666.185348,-9474.636058,1378.971896
268.048478,296.082377,-9474.636058,1302.362347
268.048805,-222.061783,-9474.636058,1225.752797
268.049133,-592.164754,-9622.677246,842.705048
268.049461,-962.267725,-9178.553681,689.485948
268.049788,-1702.473667,-8882.471304,612.876398
268.050116,-1628.453072,-8660.409521,76.609550
268.050444,-1628.453072,-8660.409521,842.705048
268.050771,-1628.453072,-8364.327145,0.000000
268.051099,-1998.556043,-8290.306550,0.000000
268.051427,-1998.556043,-8438.347739,0.000000
268.051754,-1702.473667,-8438.347739,0.000000
268.052082,-1480.411884,-8290.306550,76.609550
268.052410,-888.247130,-8586.388927,459.657299
268.052737,-1110.308913,-8438.347739,306.438199
268.053065,-518.144159,-8734.430116,383.047749
268.053393,-370.102971,-9178.553681,229.828649
268.053720,148.041188,-9326.594869,612.876398
268.054048,592.164754,-9474.636058,1072.533697
268.054376,814.226536,-9326.594869,919.314598
268.054703,1406.391290,-9474.636058,1225.752797
268.055031,1702.473667,-9622.677246,1302.362347
268.055359,1480.411884,-9548.656652,1149.143247
268.055686,1110.308913,-9474.636058,1608.800546
268.056014,666.185348,-9252.574275,1378.971896
268.056342,222.061783,-9918.759623,1302.362347
268.056669,0.000000,-9696.697840,766.095498
268.056997,-444.123565,-9474.636058,689.485948
268.057325,-814.226536,-9400.615463,229.828649
268.057652,-592.164754,-9030.512492,0.000000
268.057980,-1258.350101,-9104.533087,153.219100
268.058308,-1406.391290,-8512.368333,0.000000
268.058635,-1332.370696,-8290.306550,0.000000
268.058963,-1258.350101,-8512.368333,0.000000
268.059291,-1332.370696,-8586.388927,153.219100
268.059618,-1258.350101,-8660.409521,0.000000
268.059946,-962.267725,-8364.327145,-153.219100
268.060274,-740.205942,-8512.368333,306.438199
268.060601,-370.102971,-8956.491898,153.219100
268.060929,0.000000,-8808.450710,536.266849
268.061257,444.123565,-9104.533087,842.705048
268.061584,592.164754,-9030.512492,919.314598
268.061912,814.226536,-9252.574275,1072.533697
268.062240,1184.329507,-9548.656652,1302.362347
268.062567,1406.391290,-9400.615463,1608.800546
268.062895,1480.411884,-9326.594869,1838.629195
