#time,accel_x,accel_y,accel_z
606.514221,0.000000,-9400.615463,842.705048
606.514549,-296.082377,-8882.471304,612.876398
606.514877,-222.061783,-9178.553681,536.266849
606.515205,-148.041188,-9252.574275,612.876398
606.515533,-370.102971,-9104.533087,153.219100
606.515861,-296.082377,-8438.347739,229.828649
606.516189,-222.061783,-9030.512492,536.266849
606.516516,-148.041188,-9252.574275,459.657299
606.516844,-370.102971,-9178.553681,306.438199
606.517172,-370.102971,-9252.574275,306.438199
606.517500,0.000000,-9030.512492,459.657299
606.517828,-592.164754,-8956.491898,536.266849
606.518156,-296.082377,-9326.594869,459.657299
606.518484,-222.061783,-9030.512492,306.438199
606.518811,-370.102971,-9252.574275,612.876398
606.519139,-148.041188,-8882.471304,383.047749
606.519467,-370.102971,-8808.450710,919.314598
606.519795,-370.102971,-9030.512492,689.485948
606.520123,-222.061783,-9030.512492,689.485948
606.520451,-148.041188,-9104.533087,536.266849
606.520779,-222.061783,-9030.512492,766.095498
606.521106,-370.102971,-9104.533087,689.485948
606.521434,-370.102971,-9104.533087,383.047749
606.521762,-296.082377,-9252.574275,689.485948
606.522090,-296.082377,-9178.553681,612.876398
606.522418,-296.082377,-9252.574275,689.485948
606.522746,-296.082377,-8956.491898,0.000000
606.523074,-222.061783,-9030.512492,536.266849
606.523401,-518.144159,-9252.574275,383.047749
606.523729,-814.226536,-9326.594869,306.438199
606.524057,-1406.391290,-9400.615463,-383.047749
606.524385,-962.267725,-9474.636058,-229.828649
606.524713,-1258.350101,-8808.450710,-306.438199
606.525041,-444.123565,-8956.491898,-459.657299
606.525369,-370.102971,-8956.491898,-459.657299
606.525696,-740.205942,-9178.553681,-612.876398
606.526024,-962.267725,-9474.636058,-536.266849
606.526352,-1036.288319,-9178.553681,-1225.752797
606.526680,-962.267725,-9252.574275,-1072.533697
606.527008,-740.205942,-8956.491898,-1225.752797
606.527336,-592.164754,-9400.615463,-1302.362347
606.527664,-444.123565,-9030.512492,-1072.533697
606.527991,0.000000,-8956.491898,-1072.533697
606.528319,0.000000,-9030.512492,-1378.971896
606.528647,0.000000,-9326.594869,-1378.971896
606.528975,0.000000,-9474.636058,-1532.190996
606.529303,0.000000,-9252.574275,-1762.019645
606.529631,0.000000,-9030.512492,-1838.629195
606.529959,222.061783,-9326.594869,-1608.800546
606.530287,592.164754,-9326.594869,-1455.581446
606.530614,666.185348,-9178.553681,-1838.629195
606.530942,888.247130,-9252.574275,-1608.800546
606.531270,888.247130,-9400.615463,-1762.019645
606.531598,370.102971,-9252.574275,-1838.629195
606.531926,74.020594,-9326.594869,-1762.019645
606.532254,-296.082377,-9104.533087,-1762.019645
606.532582,0.000000,-9252.574275,-1762.019645
606.532909,222.061783,-9474.636058,-1838.629195
606.533237,-296.082377,-8956.491898,-1685.410096
606.533565,-592.164754,-9178.553681,-1685.410096
606.533893,-740.205942,-9030.512492,-1991.848295
606.534221,-1184.329507,-9104.533087,-2298.286494
606.534549,-1406.391290,-9400.615463,-1915.238745
606.534877,-1850.514855,-9178.553681,-2374.896044
606.535204,-1776.494261,-8956.491898,-2987.772442
606.535532,-2146.597232,-8956.491898,-3294.210641
606.535860,-2294.638420,-9178.553681,-3294.210641
606.536188,-2146.597232,-9178.553681,-3524.039291
606.536516,-2146.597232,-8586.388927,-4136.915689
606.536844,-1776.494261,-8956.491898,-4136.915689
606.537172,-2146.597232,-8956.491898,-4213.525239
606.537499,-2072.576638,-8956.491898,-4366.744339
606.537827,-1184.329507,-8956.491898,-4060.306139
606.538155,-370.102971,-8808.450710,-3830.477490
606.538483,1036.288319,-9178.553681,-3677.258390
606.538811,1036.288319,-9030.512492,-3140.991542
606.539139,2072.576638,-9030.512492,-2451.505594
606.539467,2368.659014,-8956.491898,-2221.676944
606.539794,2812.782580,-9474.636058,-1838.629195
606.540122,2294.638420,-9622.677246,-1991.848295
606.540450,1110.308913,-10288.862594,-2451.505594
606.540778,222.061783,-10288.862594,-2451.505594
606.541106,-444.123565,-10436.903782,-3447.429741
606.541434,-1406.391290,-10362.883188,-4136.915689
606.541762,-1332.370696,-10214.842000,-4366.744339
606.542089,-1554.432478,-9548.656652,-4903.011187
606.542417,-962.267725,-8734.430116,-5056.230287
606.542745,518.144159,-7772.162391,-4443.353888
606.543073,1850.514855,-7105.977043,-3677.258390
606.543401,2960.823768,-7476.080014,-3064.381992
606.543729,2738.761985,-7254.018232,-2145.067394
606.544057,1702.473667,-8586.388927,-1991.848295
606.544385,-148.041188,-9548.656652,-1991.848295
606.544712,-2294.638420,-10584.944971,-1915.238745
606.545040,-3849.070898,-11325.150913,-2374.896044
606.545368,-4145.153275,-11029.068536,-3064.381992
606.545696,-3034.844362,-10140.821405,-2911.162892
606.546024,-814.226536,-8882.471304,-2451.505594
606.546352,2368.659014,-7328.038826,-1149.143247
606.546680,7031.956449,-5403.503377,1532.190996
606.547007,10658.965565,-4737.318029,3294.210641
606.547335,11695.253884,-5477.523971,4826.401637
606.547663,8142.265362,-8438.347739,4903.011187
606.547991,1332.370696,-12361.439231,3677.258390
606.548319,-5847.626942,-14137.933492,1685.410096
606.548647,-9844.739029,-14804.118840,76.609550
606.548975,-12435.459826,-14656.077652,-1608.800546
606.549302,-9992.780217,-12287.418637,-1915.238745
606.549630,-7402.059420,-10584.944971,-1762.019645
606.549958,-1850.514855,-7031.956449,-383.047749
606.550286,-1850.514855,-4589.276840,-2221.676944
606.550614,0.000000,-4663.297435,-2911.162892
606.550942,-5773.606348,-5921.647536,-6281.983084
606.551270,-9696.697840,-7328.038826,-7814.174080
606.551597,-14211.954086,-9030.512492,-10189.070123
606.551925,-14508.036463,-8364.327145,-10878.556072
606.552253,-11177.109724,-7920.203579,-9116.536426
606.552581,-5033.400406,-7920.203579,-7354.516781
606.552909,666.185348,-6291.750507,-6281.983084
606.553237,3627.009116,-7179.997637,-5209.449386
606.553565,6365.771101,-8956.491898,-5056.230287
606.553892,3182.885551,-9770.718434,-6358.592633
606.554220,2812.782580,-10955.047942,-6894.859482
606.554548,5625.565159,-11251.130318,-6818.249932
606.554876,8586.388927,-10362.883188,-5515.887586
606.555204,12139.377449,-9696.697840,-2987.772442
606.555532,13545.768739,-9770.718434,-1149.143247
606.555860,12953.603985,-10214.842000,-1532.190996
606.556187,12583.501014,-9844.739029,-1608.800546
606.556515,13693.809927,-9696.697840,-1225.752797
606.556843,13767.830521,-10584.944971,-1685.410096
606.557171,8512.368333,-12213.398043,-3140.991542
606.557499,592.164754,-15470.304188,-4673.182538
606.557827,-7772.162391,-13989.892304,-7507.735880
606.558155,-10807.006753,-12583.501014,-8350.440928
606.558482,-4219.173869,-6661.853478,-7124.688131
606.558810,3627.009116,-2664.741391,-4443.353888
606.559138,7698.141797,-1628.453072,-842.705048
606.559466,6883.915261,-2368.659014,0.000000
606.559794,740.205942,-4367.215058,-306.438199
606.560122,-5551.544565,-6291.750507,-919.314598
606.560450,-7920.203579,-7105.977043,-1532.190996
606.560778,-8068.244768,-7772.162391,-1072.533697
606.561105,-7105.977043,-9178.553681,-229.828649
606.561433,-3923.091493,-10436.903782,2834.553343
606.561761,-4663.297435,-8808.450710,5056.230287
606.562089,-3478.967927,-7476.080014,4903.011187
606.562417,-2368.659014,-6661.853478,3677.258390
606.562745,-4219.173869,-8586.388927,842.705048
606.563073,-5699.585753,-10510.924376,-1072.533697
606.563400,-8364.327145,-11029.068536,-2374.896044
606.563728,-7920.203579,-9622.677246,-1378.971896
606.564056,-4219.173869,-8438.347739,-612.876398
606.564384,-1554.432478,-7994.224174,1225.752797
606.564712,296.082377,-8512.368333,1149.143247
606.565040,-2812.782580,-9992.780217,536.266849
606.565368,-6217.729913,-9548.656652,-306.438199
606.565695,-5403.503377,-9844.739029,-842.705048
606.566023,-3404.947333,-10066.800811,-306.438199
606.566351,-1850.514855,-10214.842000,-842.705048
606.566679,0.000000,-11621.233289,-1072.533697
606.567007,-1406.391290,-9696.697840,-2451.505594
606.567335,-296.082377,-7698.141797,-766.095498
606.567663,1702.473667,-6513.812290,-1455.581446
606.567990,1406.391290,-6735.874072,-3830.477490
606.568318,2368.659014,-7698.141797,-4903.011187
606.568646,4737.318029,-9844.739029,-5056.230287
606.568974,5847.626942,-8660.409521,-3983.696590
606.569302,6365.771101,-8216.285956,-3217.601092
606.569629,7179.997637,-11843.295072,-1991.848295
606.569957,4811.338623,-14211.954086,-2757.943793
606.570285,2960.823768,-14582.057057,-3600.648841
606.570612,2220.617826,-14137.933492,-3983.696590
606.570940,0.000000,-11843.295072,-3983.696590
606.571267,-296.082377,-11547.212695,-4519.963438
606.571595,962.267725,-11029.068536,-3753.867940
606.571923,2072.576638,-9252.574275,-3294.210641
606.572250,3330.926739,-8290.306550,-3294.210641
606.572578,1332.370696,-7402.059420,-3983.696590
606.572905,-1554.432478,-7846.182985,-5056.230287
606.573233,-2590.720797,-7698.141797,-6052.154434
606.573561,-3182.885551,-7105.977043,-6665.030833
606.573888,-3182.885551,-7031.956449,-5975.544884
606.574216,-2146.597232,-5847.626942,-4903.011187
606.574544,1554.432478,-5625.565159,-2374.896044
606.574871,1036.288319,-5773.606348,-1455.581446
606.575199,296.082377,-7920.203579,-1225.752797
606.575526,-222.061783,-9400.615463,-1225.752797
606.575854,-2220.617826,-9400.615463,-2374.896044
606.576182,-2886.803174,-10214.842000,-2221.676944
606.576509,-4219.173869,-9770.718434,-2374.896044
606.576837,-2960.823768,-8956.491898,-2451.505594
606.577165,592.164754,-7994.224174,-919.314598
606.577492,1184.329507,-7698.141797,-1149.143247
606.577820,-1406.391290,-9400.615463,-1991.848295
606.578147,-2516.700203,-8660.409521,-2451.505594
606.578475,-3182.885551,-8364.327145,-4060.306139
606.578803,-2368.659014,-8882.471304,-4136.915689
606.579130,-962.267725,-8956.491898,-3370.820191
606.579458,1258.350101,-6661.853478,-2604.724693
606.579786,3330.926739,-5921.647536,-842.705048
606.580113,3182.885551,-7105.977043,-459.657299
606.580441,962.267725,-7476.080014,-689.485948
606.580768,-666.185348,-8142.265362,-1072.533697
606.581096,-1110.308913,-9178.553681,-1455.581446
606.581424,-2294.638420,-9030.512492,-1455.581446
606.581751,-1702.473667,-9400.615463,-1149.143247
606.582079,1258.350101,-8216.285956,-689.485948
606.582407,1776.494261,-8364.327145,-459.657299
606.582734,2294.638420,-8956.491898,-689.485948
606.583062,1332.370696,-8882.471304,-2451.505594
606.583389,-222.061783,-8808.450710,-2757.943793
606.583717,-888.247130,-9474.636058,-2604.724693
606.584045,-962.267725,-9992.780217,-2451.505594
606.584372,0.000000,-10510.924376,-1532.190996
606.584700,1480.411884,-11547.212695,-306.438199
606.585027,1480.411884,-11103.089130,0.000000
606.585355,-814.226536,-11547.212695,-766.095498
606.585683,-2516.700203,-11103.089130,-766.095498
606.586010,-3256.906145,-10807.006753,-1302.362347
606.586338,-3034.844362,-10214.842000,-1455.581446
606.586666,-3997.112087,-9474.636058,-2451.505594
606.586993,-3478.967927,-9104.533087,-2145.067394
606.587321,-3552.988522,-7994.224174,-2298.286494
606.587648,-2590.720797,-7994.224174,-2451.505594
606.587976,-1554.432478,-7179.997637,-2757.943793
606.588304,444.123565,-7402.059420,-1608.800546
606.588631,2664.741391,-7402.059420,-919.314598
606.588959,2294.638420,-7328.038826,-612.876398
606.589287,1702.473667,-9474.636058,0.000000
606.589614,592.164754,-10807.006753,-153.219100
606.589942,-666.185348,-11177.109724,-842.705048
606.590269,-444.123565,-11991.336260,-76.609550
606.590597,148.041188,-11399.171507,0.000000
606.590925,1628.453072,-11103.089130,383.047749
606.591252,1998.556043,-11251.130318,306.438199
606.591580,1850.514855,-10510.924376,-536.266849
606.591908,1036.288319,-9474.636058,-383.047749
606.592235,1036.288319,-9178.553681,-1149.143247
606.592563,0.000000,-8660.409521,-1685.410096
606.592890,666.185348,-8734.430116,-1072.533697
606.593218,592.164754,-8734.430116,-842.705048
606.593546,518.144159,-8882.471304,-842.705048
606.593873,-222.061783,-8660.409521,-536.266849
606.594201,-592.164754,-8660.409521,-383.047749
606.594529,-666.185348,-8216.285956,0.000000
606.594856,-1554.432478,-7920.203579,-153.219100
606.595184,-1628.453072,-8660.409521,0.000000
606.595511,-3108.864956,-9474.636058,-689.485948
606.595839,-3997.112087,-9474.636058,-612.876398
606.596167,-4293.194464,-7920.203579,-1149.143247
606.596494,-2294.638420,-7328.038826,-612.876398
606.596822,-814.226536,-6439.791695,-536.266849
606.597150,1258.350101,-5773.606348,76.609550
606.597477,2664.741391,-5921.647536,536.266849
606.597805,2664.741391,-6957.935855,1225.752797
606.598132,1628.453072,-8216.285956,1532.190996
606.598460,2072.576638,-8734.430116,1915.238745
606.598788,1480.411884,-9696.697840,2604.724693
606.599115,518.144159,-10584.944971,2604.724693
606.599443,-296.082377,-11029.068536,2911.162892
606.599770,-1036.288319,-11251.130318,2834.553343
606.600098,-1776.494261,-10732.986159,2681.334243
606.600426,-1036.288319,-9252.574275,2911.162892
606.600753,-296.082377,-9474.636058,2528.115143
606.601081,74.020594,-8142.265362,1608.800546
606.601409,-370.102971,-6957.935855,1225.752797
606.601736,0.000000,-6365.771101,612.876398
606.602064,-1850.514855,-7105.977043,766.095498
606.602391,-3182.885551,-7179.997637,-766.095498
606.602719,-1702.473667,-7105.977043,-995.924147
606.603047,-1554.432478,-7698.141797,-612.876398
606.603374,-1998.556043,-8438.347739,-612.876398
606.603702,-2368.659014,-9844.739029,-229.828649
606.604030,-2664.741391,-11029.068536,0.000000
606.604357,-3034.844362,-11325.150913,-919.314598
606.604685,-1184.329507,-10881.027347,-383.047749
606.605012,1184.329507,-10584.944971,153.219100
606.605340,1702.473667,-10140.821405,689.485948
606.605668,2886.803174,-10436.903782,1378.971896
606.605995,1406.391290,-11325.150913,995.924147
606.606323,592.164754,-10881.027347,536.266849
606.606651,1258.350101,-10732.986159,0.000000
606.606978,1332.370696,-10732.986159,-383.047749
606.607306,2368.659014,-10584.944971,306.438199
606.607633,2146.597232,-11029.068536,459.657299
606.607961,1628.453072,-10658.965565,536.266849
606.608289,1332.370696,-10807.006753,766.095498
606.608616,1776.494261,-9474.636058,919.314598
606.608944,1480.411884,-9918.759623,1378.971896
606.609272,962.267725,-9252.574275,766.095498
606.609599,-222.061783,-9770.718434,766.095498
606.609927,-1850.514855,-10214.842000,842.705048
606.610254,-3478.967927,-10214.842000,153.219100
606.610582,-3108.864956,-9992.780217,536.266849
606.610910,-2590.720797,-9252.574275,-229.828649
606.611237,-1628.453072,-8216.285956,0.000000
606.611565,-814.226536,-7772.162391,383.047749
606.611892,-1554.432478,-8216.285956,536.266849
606.612220,-1776.494261,-7846.182985,612.876398
606.612548,0.000000,-7328.038826,766.095498
606.612875,1258.350101,-6957.935855,1302.362347
606.613203,1258.350101,-7772.162391,1915.238745
606.613531,-296.082377,-9030.512492,2145.067394
606.613858,-1998.556043,-9918.759623,2221.676944
606.614186,-3627.009116,-9252.574275,1762.019645
606.614513,-2738.761985,-9030.512492,1225.752797
606.614841,-1258.350101,-8808.450710,842.705048
606.615169,-1554.432478,-8808.450710,306.438199
606.615496,-740.205942,-8142.265362,689.485948
606.615824,0.000000,-7254.018232,383.047749
606.616152,0.000000,-6587.832884,766.095498
606.616479,962.267725,-7328.038826,1225.752797
606.616807,1776.494261,-7402.059420,1532.190996
606.617134,1628.453072,-6957.935855,1225.752797
606.617462,1184.329507,-7179.997637,1762.019645
606.617790,-148.041188,-8142.265362,1149.143247
606.618117,-2294.638420,-9918.759623,1378.971896
606.618445,-3108.864956,-9474.636058,229.828649
606.618773,-1924.535449,-8512.368333,229.828649
606.619100,-222.061783,-8364.327145,0.000000
606.619428,370.102971,-8142.265362,306.438199
606.619755,888.247130,-8068.244768,229.828649
606.620083,1110.308913,-8216.285956,0.000000
606.620411,1924.535449,-7476.080014,76.609550
606.620738,2368.659014,-7179.997637,536.266849
606.621066,2590.720797,-8364.327145,1378.971896
606.621394,1554.432478,-9474.636058,842.705048
606.621721,74.020594,-11103.089130,1378.971896
606.622049,-2368.659014,-12139.377449,1149.143247
606.622376,-3330.926739,-12583.501014,689.485948
606.622704,-3182.885551,-11991.336260,383.047749
606.623032,-2072.576638,-11251.130318,-612.876398
606.623359,-1332.370696,-10881.027347,-1149.143247
606.623687,-888.247130,-8956.491898,-1072.533697
606.624015,962.267725,-7550.100608,-995.924147
606.624342,1924.535449,-7402.059420,-689.485948
606.624670,2516.700203,-6661.853478,-306.438199
606.624997,2812.782580,-7920.203579,306.438199
606.625325,1776.494261,-8586.388927,689.485948
606.625653,1184.329507,-9474.636058,1685.410096
606.625980,-1406.391290,-10584.944971,1455.581446
606.626308,-3108.864956,-11843.295072,1455.581446
606.626635,-3923.091493,-12953.603985,1149.143247
606.626963,-3478.967927,-11917.315666,612.876398
606.627291,-2738.761985,-10658.965565,76.609550
606.627618,-2072.576638,-9474.636058,0.000000
606.627946,-296.082377,-8438.347739,76.609550
606.628274,0.000000,-7624.121203,-383.047749
606.628601,740.205942,-6069.688724,-306.438199
606.628929,2442.679609,-5699.585753,0.000000
606.629256,2294.638420,-6513.812290,612.876398
606.629584,1258.350101,-7550.100608,842.705048
606.629912,-222.061783,-8882.471304,842.705048
606.630239,-2220.617826,-10955.047942,1378.971896
606.630567,-3997.112087,-11547.212695,1225.752797
606.630895,-3775.050304,-11621.233289,919.314598
606.631222,-2960.823768,-11251.130318,842.705048
606.631550,-1850.514855,-10436.903782,536.266849
606.631877,-962.267725,-8734.430116,229.828649
606.632205,-370.102971,-7920.203579,76.609550
606.632533,888.247130,-6439.791695,0.000000
606.632860,3182.885551,-6439.791695,229.828649
606.633188,4219.173869,-5995.668130,536.266849
606.633516,3923.091493,-6587.832884,1225.752797
606.633843,3182.885551,-7476.080014,1455.581446
606.634171,1258.350101,-9918.759623,1762.019645
606.634498,-1776.494261,-11177.109724,1455.581446
606.634826,-2146.597232,-11843.295072,1762.019645
606.635154,-1628.453072,-12657.521608,1532.190996
606.635481,-962.267725,-12065.356855,1455.581446
606.635809,-1110.308913,-11621.233289,1302.362347
606.636137,-666.185348,-10881.027347,995.924147
606.636464,-148.041188,-9696.697840,842.705048
606.636792,2146.597232,-8142.265362,689.485948
606.637119,3108.864956,-6439.791695,766.095498
606.637447,3923.091493,-6365.771101,1455.581446
606.637775,3108.864956,-6661.853478,1225.752797
606.638102,814.226536,-7772.162391,1915.238745
606.638430,-1184.329507,-8882.471304,995.924147
606.638758,-3330.926739,-9770.718434,459.657299
606.639085,-3108.864956,-9918.759623,689.485948
606.639413,-3923.091493,-11029.068536,76.609550
606.639740,-4441.235652,-10807.006753,0.000000
606.640068,-4219.173869,-9770.718434,0.000000
606.640396,-4219.173869,-8882.471304,-766.095498
606.640723,-1554.432478,-7105.977043,-383.047749
606.641051,1480.411884,-6291.750507,-153.219100
606.641378,2146.597232,-6143.709319,0.000000
606.641706,2590.720797,-6513.812290,766.095498
606.642034,1480.411884,-8512.368333,995.924147
606.642361,-962.267725,-9548.656652,689.485948
606.642689,-1998.556043,-10362.883188,612.876398
606.643017,-2368.659014,-11029.068536,0.000000
606.643344,-1998.556043,-11399.171507,0.000000
606.643672,-2368.659014,-11251.130318,-229.828649
606.643999,-1776.494261,-10436.903782,0.000000
606.644327,-888.247130,-9474.636058,0.000000
606.644655,814.226536,-8364.327145,0.000000
606.644982,4145.153275,-6957.935855,383.047749
606.645310,5255.462188,-6291.750507,919.314598
606.645638,5329.482782,-7105.977043,1455.581446
606.645965,4293.194464,-7698.141797,1915.238745
606.646293,1998.556043,-8438.347739,2068.457845
606.646620,-370.102971,-10288.862594,1685.410096
606.646948,-962.267725,-11103.089130,1991.848295
606.647276,-2146.597232,-11769.274478,536.266849
606.647603,-2516.700203,-11251.130318,536.266849
606.647931,-2442.679609,-9992.780217,229.828649
606.648259,-2738.761985,-9474.636058,-306.438199
606.648586,-1554.432478,-8808.450710,229.828649
606.648914,148.041188,-7550.100608,-536.266849
606.649241,1776.494261,-6365.771101,76.609550
606.649569,2590.720797,-6069.688724,689.485948
606.649897,1036.288319,-7031.956449,842.705048
606.650224,0.000000,-8660.409521,1608.800546
606.650552,-2294.638420,-9030.512492,1378.971896
606.650880,-2738.761985,-9548.656652,612.876398
606.651207,-3849.070898,-10732.986159,153.219100
606.651535,-4293.194464,-11473.192101,0.000000
606.651862,-4071.132681,-11399.171507,536.266849
606.652190,-3256.906145,-9622.677246,-153.219100
606.652518,-1702.473667,-9696.697840,-153.219100
606.652845,-962.267725,-8586.388927,-383.047749
606.653173,2664.741391,-7328.038826,383.047749
606.653500,3997.112087,-6809.894666,459.657299
606.653828,4885.359217,-6365.771101,1685.410096
606.654156,4293.194464,-7772.162391,1838.629195
606.654483,2294.638420,-10140.821405,1838.629195
606.654811,148.041188,-10658.965565,1302.362347
606.655139,-962.267725,-11177.109724,1302.362347
606.655466,-1628.453072,-11843.295072,1072.533697
606.655794,-1776.494261,-12509.480420,919.314598
606.656121,-1554.432478,-11029.068536,766.095498
606.656449,-1332.370696,-10362.883188,612.876398
606.656777,0.000000,-8882.471304,536.266849
606.657104,1480.411884,-6883.915261,536.266849
606.657432,3256.906145,-6587.832884,766.095498
606.657760,3404.947333,-5847.626942,919.314598
606.658087,1924.535449,-6735.874072,1302.362347
606.658415,-222.061783,-8142.265362,1532.190996
606.658742,-2886.803174,-8808.450710,536.266849
606.659070,-4219.173869,-9992.780217,995.924147
606.659398,-5625.565159,-10362.883188,0.000000
606.659725,-4811.338623,-11103.089130,229.828649
606.660053,-5255.462188,-10807.006753,-229.828649
606.660381,-4663.297435,-10214.842000,-612.876398
606.660708,-3923.091493,-9326.594869,-1225.752797
606.661036,-888.247130,-7476.080014,-1455.581446
606.661363,1480.411884,-6217.729913,-1072.533697
606.661691,3108.864956,-6661.853478,0.000000
606.662019,3108.864956,-6587.832884,0.000000
606.662346,2516.700203,-8290.306550,383.047749
606.662674,962.267725,-8956.491898,0.000000
606.663002,444.123565,-10140.821405,612.876398
606.663329,444.123565,-11399.171507,536.266849
606.663657,222.061783,-11917.315666,842.705048
606.663984,-222.061783,-11843.295072,689.485948
606.664312,-592.164754,-10881.027347,383.047749
606.664640,-370.102971,-10658.965565,76.609550
606.664967,444.123565,-9104.533087,-229.828649
606.665295,4071.132681,-7105.977043,306.438199
606.665623,4811.338623,-5551.544565,459.657299
606.665950,4885.359217,-5921.647536,1302.362347
606.666278,3256.906145,-7031.956449,1225.752797
606.666605,1480.411884,-7846.182985,1302.362347
606.666933,-296.082377,-9474.636058,1302.362347
606.667261,-444.123565,-10214.842000,1685.410096
606.667588,-1998.556043,-11769.274478,1072.533697
606.667916,-2886.803174,-12287.418637,1532.190996
606.668243,-4071.132681,-12139.377449,1225.752797
606.668571,-4737.318029,-11695.253884,842.705048
606.668899,-4367.215058,-9474.636058,0.000000
606.669226,-2442.679609,-7550.100608,-383.047749
606.669554,0.000000,-6069.688724,-459.657299
606.669882,444.123565,-5033.400406,-306.438199
606.670209,814.226536,-5403.503377,536.266849
606.670537,0.000000,-6291.750507,536.266849
606.670865,-1184.329507,-7105.977043,766.095498
606.671192,-2146.597232,-8956.491898,612.876398
606.671520,-1554.432478,-9918.759623,919.314598
606.671847,-2738.761985,-10881.027347,459.657299
606.672175,-3108.864956,-11029.068536,766.095498
606.672502,-2738.761985,-11843.295072,995.924147
606.672830,-2590.720797,-11103.089130,459.657299
606.673157,0.000000,-8956.491898,306.438199
606.673485,2886.803174,-7476.080014,689.485948
606.673812,4737.318029,-7105.977043,1149.143247
606.674140,5107.421000,-7105.977043,1532.190996
606.674467,4145.153275,-7698.141797,1762.019645
606.674795,2368.659014,-8956.491898,1685.410096
606.675122,1332.370696,-9474.636058,1149.143247
606.675450,666.185348,-10510.924376,1762.019645
606.675777,0.000000,-11103.089130,995.924147
606.676105,-1480.411884,-11917.315666,766.095498
606.676433,-1776.494261,-12139.377449,1532.190996
606.676760,-2590.720797,-11325.150913,229.828649
606.677088,-2220.617826,-10066.800811,-229.828649
606.677415,0.000000,-8734.430116,-153.219100
606.677743,814.226536,-7920.203579,536.266849
606.678070,740.205942,-6957.935855,153.219100
606.678398,222.061783,-7328.038826,383.047749
606.678725,-814.226536,-7402.059420,383.047749
606.679053,-2294.638420,-8512.368333,153.219100
606.679380,-2146.597232,-9326.594869,306.438199
606.679708,-2516.700203,-9622.677246,383.047749
606.680035,-3108.864956,-10066.800811,0.000000
606.680363,-3478.967927,-10140.821405,-229.828649
606.680690,-3701.029710,-11029.068536,-459.657299
606.681018,-2812.782580,-9770.718434,-919.314598
606.681345,-666.185348,-8068.244768,-383.047749
606.681673,1998.556043,-8068.244768,-536.266849
606.682000,2812.782580,-7476.080014,0.000000
606.682328,2516.700203,-8290.306550,459.657299
606.682656,1628.453072,-9030.512492,766.095498
606.682983,518.144159,-8882.471304,612.876398
606.683311,1628.453072,-8734.430116,1072.533697
606.683638,1110.308913,-9622.677246,842.705048
606.683966,666.185348,-10436.903782,1072.533697
606.684293,0.000000,-11103.089130,1302.362347
606.684621,-518.144159,-10658.965565,1225.752797
606.684948,-666.185348,-9770.718434,1225.752797
606.685276,888.247130,-8364.327145,919.314598
606.685603,2368.659014,-8734.430116,1149.143247
606.685931,2294.638420,-8068.244768,1378.971896
606.686258,2146.597232,-7328.038826,1532.190996
606.686586,1850.514855,-7846.182985,2068.457845
606.686913,370.102971,-8068.244768,1302.362347
606.687241,-370.102971,-8438.347739,1149.143247
606.687568,-592.164754,-9030.512492,842.705048
606.687896,-1332.370696,-9252.574275,612.876398
606.688224,-2294.638420,-8512.368333,612.876398
606.688551,-2664.741391,-9548.656652,612.876398
606.688879,-3701.029710,-9918.759623,383.047749
606.689206,-3404.947333,-8956.491898,306.438199
606.689534,-2072.576638,-7920.203579,76.609550
606.689861,-518.144159,-7476.080014,612.876398
606.690189,-1258.350101,-6735.874072,459.657299
606.690516,-1258.350101,-7179.997637,842.705048
606.690844,-2294.638420,-7994.224174,306.438199
606.691171,-1998.556043,-7846.182985,306.438199
606.691499,-1480.411884,-7328.038826,153.219100
606.691826,-296.082377,-7920.203579,459.657299
606.692154,0.000000,-8734.430116,612.876398
606.692481,-296.082377,-9474.636058,689.485948
606.692809,-592.164754,-10807.006753,689.485948
606.693136,-592.164754,-10288.862594,459.657299
606.693464,444.123565,-9474.636058,383.047749
606.693791,2220.617826,-9844.739029,689.485948
606.694119,1480.411884,-10658.965565,459.657299
606.694447,666.185348,-11103.089130,766.095498
606.694774,518.144159,-10955.047942,383.047749
606.695102,-444.123565,-10436.903782,689.485948
606.695429,370.102971,-10214.842000,0.000000
606.695757,1406.391290,-11251.130318,76.609550
606.696084,888.247130,-11399.171507,153.219100
606.696412,1554.432478,-10288.862594,306.438199
606.696739,1184.329507,-9844.739029,612.876398
606.697067,592.164754,-9696.697840,0.000000
606.697394,592.164754,-9770.718434,0.000000
606.697722,1554.432478,-8956.491898,383.047749
606.698049,1110.308913,-8882.471304,459.657299
606.698377,592.164754,-9178.553681,1302.362347
606.698704,-962.267725,-9696.697840,842.705048
606.699032,-1998.556043,-10288.862594,1225.752797
606.699359,-1924.535449,-9622.677246,842.705048
606.699687,-1850.514855,-9770.718434,459.657299
606.700015,-1480.411884,-10066.800811,612.876398
606.700342,-2294.638420,-10140.821405,459.657299
606.700670,-1924.535449,-9770.718434,383.047749
606.700997,-2294.638420,-9474.636058,0.000000
606.701325,-1332.370696,-8956.491898,0.000000
606.701652,222.061783,-8364.327145,-153.219100
606.701980,222.061783,-7920.203579,0.000000
606.702307,-222.061783,-8142.265362,459.657299
606.702635,-1110.308913,-8956.491898,766.095498
606.702962,-1998.556043,-9474.636058,842.705048
606.703290,-2886.803174,-9622.677246,229.828649
606.703617,-1036.288319,-9030.512492,919.314598
606.703945,-148.041188,-8438.347739,1072.533697
606.704272,-296.082377,-8068.244768,1072.533697
606.704600,962.267725,-7920.203579,1532.190996
606.704927,222.061783,-7624.121203,1378.971896
606.705255,592.164754,-7550.100608,842.705048
606.705582,2072.576638,-6735.874072,1072.533697
606.705910,2812.782580,-5995.668130,1685.410096
606.706238,2368.659014,-6661.853478,2068.457845
606.706565,1776.494261,-7476.080014,2068.457845
606.706893,0.000000,-8586.388927,1378.971896
606.707220,-1110.308913,-8216.285956,1072.533697
606.707548,-1036.288319,-8068.244768,383.047749
606.707875,-814.226536,-8586.388927,306.438199
606.708203,-814.226536,-8290.306550,0.000000
606.708530,-1036.288319,-8216.285956,76.609550
606.708858,-962.267725,-8364.327145,0.000000
606.709185,-888.247130,-7476.080014,306.438199
606.709513,-370.102971,-6957.935855,0.000000
606.709840,518.144159,-7328.038826,306.438199
606.710168,74.020594,-8068.244768,766.095498
606.710495,-814.226536,-8660.409521,536.266849
606.710823,-1628.453072,-9252.574275,612.876398
606.711150,-3330.926739,-10214.842000,0.000000
606.711478,-3256.906145,-9770.718434,-306.438199
606.711805,-2960.823768,-9844.739029,-766.095498
606.712133,-2220.617826,-9770.718434,-919.314598
606.712461,-1332.370696,-9178.553681,-1149.143247
606.712788,-518.144159,-9030.512492,-1072.533697
606.713116,74.020594,-8882.471304,-1149.143247
606.713443,962.267725,-8586.388927,-766.095498
606.713771,2220.617826,-9104.533087,-612.876398
606.714098,2664.741391,-9104.533087,153.219100
606.714426,2960.823768,-9844.739029,766.095498
606.714753,2368.659014,-11621.233289,1532.190996
606.715081,0.000000,-12657.521608,919.314598
606.715408,-814.226536,-13175.665768,919.314598
606.715736,-814.226536,-11843.295072,1149.143247
606.716063,1702.473667,-11917.315666,1149.143247
606.716391,814.226536,-11325.150913,842.705048
606.716718,1998.556043,-10510.924376,1302.362347
606.717046,2146.597232,-10214.842000,1225.752797
606.717373,2368.659014,-9252.574275,1378.971896
606.717701,3552.988522,-8438.347739,1302.362347
606.718029,2812.782580,-9400.615463,1991.848295
606.718356,1850.514855,-9548.656652,2298.286494
606.718684,-148.041188,-10066.800811,2145.067394
606.719011,-2886.803174,-11251.130318,1838.629195
606.719339,-4737.318029,-11029.068536,1225.752797
606.719666,-5255.462188,-11177.109724,919.314598
606.719994,-4959.379811,-11029.068536,689.485948
606.720321,-4737.318029,-10066.800811,229.828649
606.720649,-3849.070898,-9844.739029,153.219100
606.720976,-3034.844362,-8216.285956,306.438199
606.721304,-2516.700203,-6735.874072,0.000000
606.721631,-518.144159,-5847.626942,229.828649
606.721959,518.144159,-5477.523971,383.047749
606.722286,74.020594,-7105.977043,1072.533697
606.722614,-592.164754,-7846.182985,1838.629195
606.722941,-1480.411884,-8364.327145,995.924147
606.723269,-2960.823768,-9252.574275,1149.143247
606.723596,-2886.803174,-9474.636058,459.657299
606.723924,-1702.473667,-9696.697840,153.219100
606.724252,-370.102971,-8290.306550,153.219100
606.724579,1554.432478,-7698.141797,153.219100
606.724907,2146.597232,-6809.894666,306.438199
606.725234,2664.741391,-6809.894666,612.876398
606.725562,3404.947333,-6291.750507,536.266849
606.725889,5255.462188,-6809.894666,1072.533697
606.726217,5181.441594,-7179.997637,1455.581446
606.726544,3330.926739,-7624.121203,2221.676944
606.726872,1628.453072,-9252.574275,1762.019645
606.727199,-370.102971,-10584.944971,1378.971896
606.727527,-2664.741391,-10436.903782,459.657299
606.727854,-2072.576638,-10436.903782,612.876398
606.728182,-2220.617826,-9474.636058,-229.828649
606.728509,-2146.597232,-9474.636058,-612.876398
606.728837,-1110.308913,-8660.409521,-766.095498
606.729164,-962.267725,-7698.141797,-1072.533697
606.729492,-222.061783,-6883.915261,-919.314598
606.729820,1184.329507,-6291.750507,-1072.533697
606.730147,1628.453072,-6809.894666,-153.219100
606.730475,1036.288319,-7105.977043,153.219100
606.730802,222.061783,-7476.080014,153.219100
606.731130,-1702.473667,-9622.677246,153.219100
606.731457,-3701.029710,-10584.944971,-153.219100
606.731785,-4145.153275,-10584.944971,-766.095498
606.732112,-2812.782580,-10436.903782,-536.266849
606.732440,-1628.453072,-10510.924376,-689.485948
606.732767,0.000000,-9696.697840,-383.047749
606.733095,592.164754,-9474.636058,76.609550
606.733422,1332.370696,-8438.347739,-306.438199
606.733750,3182.885551,-7476.080014,0.000000
606.734077,4515.256246,-8068.244768,536.266849
606.734405,3923.091493,-9178.553681,1149.143247
606.734732,3849.070898,-10066.800811,2145.067394
606.735060,2294.638420,-11547.212695,2451.505594
606.735387,-370.102971,-12361.439231,2145.067394
606.735715,-2516.700203,-12953.603985,1532.190996
606.736043,-2146.597232,-12953.603985,1378.971896
606.736370,-2664.741391,-11695.253884,766.095498
606.736698,-2812.782580,-11177.109724,536.266849
606.737025,-2812.782580,-10362.883188,153.219100
606.737353,-1776.494261,-8290.306550,153.219100
606.737680,-518.144159,-7254.018232,0.000000
606.738008,2146.597232,-5625.565159,689.485948
606.738335,2664.741391,-6439.791695,1225.752797
606.738663,1924.535449,-7105.977043,1991.848295
606.738990,-444.123565,-8142.265362,2528.115143
606.739318,-2590.720797,-10214.842000,1915.238745
606.739645,-4737.318029,-11399.171507,1455.581446
606.739973,-4293.194464,-11547.212695,1991.848295
606.740300,-4219.173869,-11473.192101,1225.752797
606.740628,-4071.132681,-10881.027347,842.705048
606.740955,-3108.864956,-9844.739029,536.266849
606.741283,-2368.659014,-8956.491898,229.828649
606.741610,222.061783,-7402.059420,0.000000
606.741938,2812.782580,-5773.606348,-536.266849
606.742266,4885.359217,-6291.750507,612.876398
606.742593,4219.173869,-7031.956449,1149.143247
606.742921,3552.988522,-7698.141797,1915.238745
606.743248,1554.432478,-9622.677246,2374.896044
606.743576,-444.123565,-11769.274478,2221.676944
606.743903,-1702.473667,-11917.315666,1072.533697
606.744231,-2738.761985,-12435.459826,995.924147
606.744558,-2220.617826,-12287.418637,1225.752797
606.744886,-1554.432478,-10732.986159,459.657299
606.745213,-1998.556043,-9844.739029,229.828649
606.745541,-814.226536,-7994.224174,-536.266849
606.745868,1480.411884,-5699.585753,0.000000
606.746196,3775.050304,-4885.359217,76.609550
606.746523,4071.132681,-4219.173869,0.000000
606.746851,3256.906145,-5107.421000,1532.190996
606.747178,2146.597232,-7031.956449,536.266849
606.747506,-1036.288319,-8660.409521,612.876398
606.747834,-2442.679609,-9548.656652,0.000000
606.748161,-3775.050304,-11103.089130,-689.485948
606.748489,-4293.194464,-11621.233289,0.000000
606.748816,-3627.009116,-10955.047942,-1072.533697
606.749144,-2590.720797,-9992.780217,-842.705048
606.749471,-1036.288319,-9252.574275,-689.485948
606.749799,814.226536,-7402.059420,-919.314598
606.750126,2590.720797,-6957.935855,-919.314598
606.750454,3775.050304,-6143.709319,459.657299
606.750781,3182.885551,-5921.647536,229.828649
606.751109,2960.823768,-6883.915261,995.924147
606.751436,74.020594,-8438.347739,612.876398
606.751764,-962.267725,-10436.903782,919.314598
606.752091,-2220.617826,-11769.274478,536.266849
606.752419,-2442.679609,-11843.295072,459.657299
606.752746,-3182.885551,-11399.171507,76.609550
606.753074,-2072.576638,-10584.944971,76.609550
606.753401,-1332.370696,-10214.842000,-612.876398
606.753729,-962.267725,-8808.450710,-536.266849
606.754057,1776.494261,-6661.853478,-766.095498
606.754384,3034.844362,-7254.018232,383.047749
606.754712,3182.885551,-6809.894666,842.705048
606.755039,2368.659014,-7624.121203,1149.143247
606.755367,74.020594,-9104.533087,1532.190996
606.755694,-1850.514855,-10140.821405,766.095498
606.756022,-2368.659014,-10510.924376,842.705048
606.756349,-2738.761985,-10955.047942,459.657299
606.756677,-2960.823768,-11769.274478,306.438199
606.757004,-2886.803174,-11177.109724,229.828649
606.757332,-1480.411884,-10510.924376,153.219100
606.757659,-814.226536,-9178.553681,0.000000
606.757987,1258.350101,-7476.080014,306.438199
606.758314,3552.988522,-7254.018232,766.095498
606.758642,3997.112087,-7550.100608,1302.362347
606.758969,3849.070898,-7550.100608,1915.238745
606.759297,2294.638420,-8734.430116,2374.896044
606.759625,-370.102971,-10510.924376,2221.676944
606.759952,-2442.679609,-11917.315666,1762.019645
606.760280,-2294.638420,-13027.624579,1532.190996
606.760607,-2368.659014,-13027.624579,1991.848295
606.760935,-2516.700203,-12361.439231,1838.629195
606.761262,-2294.638420,-12139.377449,995.924147
606.761590,-2738.761985,-11473.192101,306.438199
606.761917,-1258.350101,-8808.450710,153.219100
606.762245,1110.308913,-7254.018232,536.266849
606.762572,2590.720797,-6735.874072,153.219100
606.762900,2960.823768,-6809.894666,1072.533697
606.763227,1332.370696,-7920.203579,1608.800546
606.763555,-148.041188,-8438.347739,1608.800546
606.763882,-2664.741391,-9474.636058,919.314598
606.764210,-2294.638420,-9992.780217,612.876398
606.764537,-2738.761985,-11399.171507,1072.533697
606.764865,-3923.091493,-11473.192101,842.705048
606.765192,-3182.885551,-10362.883188,612.876398
606.765520,-2516.700203,-9252.574275,0.000000
606.765848,-962.267725,-8512.368333,0.000000
606.766175,592.164754,-6513.812290,-842.705048
606.766503,2368.659014,-5847.626942,-229.828649
606.766830,3330.926739,-4737.318029,76.609550
606.767158,3775.050304,-5403.503377,995.924147
606.767485,2294.638420,-7105.977043,919.314598
606.767813,148.041188,-8290.306550,536.266849
606.768140,-814.226536,-9770.718434,919.314598
606.768468,-1036.288319,-10066.800811,995.924147
606.768795,-2146.597232,-10510.924376,842.705048
606.769123,-2072.576638,-10584.944971,612.876398
606.769450,-2516.700203,-9622.677246,0.000000
606.769778,-1628.453072,-8882.471304,-459.657299
606.770105,-666.185348,-6735.874072,-689.485948
606.770433,1628.453072,-5921.647536,-383.047749
606.770760,1924.535449,-6069.688724,383.047749
606.771088,2368.659014,-5181.441594,383.047749
606.771415,1628.453072,-6069.688724,766.095498
606.771743,296.082377,-7550.100608,689.485948
606.772071,-1332.370696,-7846.182985,0.000000
606.772398,-1776.494261,-9400.615463,76.609550
606.772726,-1702.473667,-10362.883188,0.000000
606.773053,-3034.844362,-9992.780217,0.000000
606.773381,-2368.659014,-10584.944971,0.000000
606.773708,-2738.761985,-10362.883188,-766.095498
606.774036,-1628.453072,-9104.533087,-612.876398
606.774363,1110.308913,-7846.182985,-459.657299
606.774691,2220.617826,-6957.935855,-459.657299
606.775018,3256.906145,-7105.977043,536.266849
606.775346,3034.844362,-8364.327145,1149.143247
606.775673,1258.350101,-8734.430116,1149.143247
606.776001,888.247130,-10214.842000,1608.800546
606.776328,-222.061783,-11251.130318,1302.362347
606.776656,-592.164754,-11843.295072,995.924147
606.776983,-1184.329507,-12879.583391,1608.800546
606.777311,-1110.308913,-11991.336260,2068.457845
606.777638,-1628.453072,-11917.315666,995.924147
606.777966,-1554.432478,-10732.986159,612.876398
606.778293,592.164754,-8956.491898,0.000000
606.778621,2368.659014,-8216.285956,153.219100
606.778948,2738.761985,-7476.080014,459.657299
606.779276,3182.885551,-7179.997637,1072.533697
606.779604,2072.576638,-8438.347739,2298.286494
606.779931,-148.041188,-8956.491898,1072.533697
606.780259,-888.247130,-10584.944971,995.924147
606.780586,-1702.473667,-11473.192101,1378.971896
606.780914,-3108.864956,-11843.295072,995.924147
606.781241,-3404.947333,-12065.356855,689.485948
606.781569,-3701.029710,-12805.562797,766.095498
606.781896,-4367.215058,-11991.336260,76.609550
606.782224,-2516.700203,-10140.821405,0.000000
606.782551,0.000000,-8512.368333,-306.438199
606.782879,1850.514855,-7772.162391,229.828649
606.783206,1850.514855,-7179.997637,459.657299
606.783534,1184.329507,-7402.059420,229.828649
606.783861,0.000000,-7698.141797,-306.438199
606.784189,-222.061783,-8068.244768,306.438199
606.784516,0.000000,-9548.656652,229.828649
606.784844,-666.185348,-10436.903782,1838.629195
606.785171,-2220.617826,-11547.212695,689.485948
606.785499,-1702.473667,-11029.068536,919.314598
606.785826,-1628.453072,-10584.944971,536.266849
606.786154,-296.082377,-9548.656652,919.314598
606.786481,1258.350101,-7846.182985,306.438199
606.786809,3108.864956,-7920.203579,383.047749
606.787136,2220.617826,-6513.812290,842.705048
606.787464,2960.823768,-6291.750507,1302.362347
606.787792,1406.391290,-7254.018232,842.705048
606.788119,518.144159,-7550.100608,689.485948
606.788447,740.205942,-8808.450710,842.705048
606.788774,222.061783,-9252.574275,1302.362347
606.789102,-666.185348,-9400.615463,919.314598
606.789429,-888.247130,-10362.883188,1302.362347
606.789757,-2146.597232,-10288.862594,689.485948
606.790084,-2368.659014,-9474.636058,766.095498
606.790412,-1554.432478,-7402.059420,0.000000
606.790739,148.041188,-6809.894666,-153.219100
606.791067,-296.082377,-6883.915261,76.609550
606.791394,-296.082377,-6365.771101,153.219100
606.791722,-1776.494261,-6735.874072,383.047749
606.792049,-2072.576638,-6957.935855,0.000000
606.792377,-1628.453072,-7402.059420,-229.828649
606.792704,-1480.411884,-8068.244768,76.609550
606.793032,-1554.432478,-8216.285956,153.219100
606.793359,-1628.453072,-9178.553681,612.876398
606.793687,-1332.370696,-9548.656652,536.266849
606.794014,-1776.494261,-9400.615463,459.657299
606.794342,-1036.288319,-8808.450710,76.609550
606.794669,1258.350101,-8586.388927,536.266849
606.794997,1628.453072,-8142.265362,689.485948
606.795325,2072.576638,-8068.244768,383.047749
606.795652,740.205942,-8882.471304,919.314598
606.795980,296.082377,-9178.553681,612.876398
606.796307,444.123565,-9474.636058,766.095498
606.796635,740.205942,-9844.739029,536.266849
606.796962,814.226536,-9770.718434,536.266849
606.797290,740.205942,-10362.883188,995.924147
606.797617,0.000000,-9844.739029,383.047749
606.797945,0.000000,-9844.739029,842.705048
606.798272,-222.061783,-9104.533087,383.047749
606.798600,1110.308913,-9474.636058,1225.752797
606.798927,814.226536,-9548.656652,612.876398
606.799255,74.020594,-9178.553681,919.314598
606.799582,-296.082377,-9622.677246,842.705048
606.799910,-1480.411884,-9622.677246,383.047749
606.800237,-2368.659014,-9548.656652,153.219100
606.800565,-518.144159,-9326.594869,0.000000
606.800892,-1110.308913,-9252.574275,0.000000
606.801220,-1332.370696,-9548.656652,229.828649
606.801547,-1036.288319,-9474.636058,536.266849
606.801875,-1406.391290,-10658.965565,689.485948
606.802202,-1554.432478,-10140.821405,306.438199
606.802530,-444.123565,-10214.842000,306.438199
606.802857,0.000000,-10584.944971,766.095498
606.803185,-370.102971,-10066.800811,766.095498
606.803513,-740.205942,-9622.677246,766.095498
606.803840,-370.102971,-10288.862594,1455.581446
606.804168,-1554.432478,-9844.739029,536.266849
606.804495,-962.267725,-9548.656652,536.266849
606.804823,-222.061783,-10140.821405,766.095498
606.805150,-740.205942,-9474.636058,766.095498
606.805478,0.000000,-9474.636058,1378.971896
606.805805,74.020594,-9770.718434,1072.533697
606.806133,-222.061783,-9252.574275,995.924147
606.806460,888.247130,-9474.636058,919.314598
606.806788,1850.514855,-8660.409521,919.314598
606.807115,2220.617826,-8364.327145,1455.581446
606.807443,1924.535449,-7920.203579,1608.800546
606.807770,666.185348,-9104.533087,1532.190996
606.808098,-148.041188,-9104.533087,1149.143247
606.808425,-962.267725,-9252.574275,612.876398
606.808753,-666.185348,-8808.450710,612.876398
606.809080,-518.144159,-9104.533087,612.876398
606.809408,-222.061783,-8734.430116,459.657299
606.809735,-592.164754,-8734.430116,612.876398
606.810063,-1036.288319,-9548.656652,766.095498
606.810390,-740.205942,-8512.368333,459.657299
606.810718,296.082377,-7698.141797,612.876398
606.811046,0.000000,-7920.203579,383.047749
606.811373,0.000000,-7772.162391,383.047749
606.811701,-370.102971,-8068.244768,612.876398
606.812028,-1628.453072,-9030.512492,459.657299
606.812356,-2220.617826,-9474.636058,0.000000
606.812683,-1998.556043,-8882.471304,0.000000
606.813011,-1850.514855,-9474.636058,0.000000
606.813338,-1332.370696,-9104.533087,0.000000
606.813666,-1110.308913,-9178.553681,76.609550
606.813993,0.000000,-8808.450710,0.000000
606.814321,-666.185348,-8142.265362,229.828649
606.814648,1406.391290,-8216.285956,612.876398
606.814976,1628.453072,-7920.203579,229.828649
606.815303,1628.453072,-8660.409521,842.705048
606.815631,1628.453072,-8882.471304,1378.971896
606.815958,-296.082377,-9400.615463,689.485948
606.816286,-888.247130,-10436.903782,153.219100
606.816613,-1480.411884,-9770.718434,-842.705048
606.816941,0.000000,-10066.800811,-306.438199
606.817268,0.000000,-9400.615463,-383.047749
606.817596,814.226536,-9104.533087,689.485948
606.817923,666.185348,-10066.800811,536.266849
606.818251,74.020594,-8734.430116,536.266849
606.818578,1258.350101,-7698.141797,459.657299
606.818906,2664.741391,-7550.100608,459.657299
606.819234,2516.700203,-7550.100608,995.924147
606.819561,1406.391290,-8216.285956,842.705048
606.819889,-518.144159,-9548.656652,1072.533697
606.820216,-2590.720797,-10288.862594,383.047749
606.820544,-3330.926739,-10362.883188,153.219100
606.820871,-2368.659014,-10510.924376,306.438199
606.821199,-2072.576638,-10214.842000,0.000000
606.821526,-1702.473667,-9992.780217,76.609550
606.821854,-1036.288319,-9770.718434,306.438199
606.822181,-888.247130,-9104.533087,536.266849
606.822509,74.020594,-7698.141797,306.438199
606.822836,1406.391290,-7698.141797,995.924147
606.823164,1850.514855,-7994.224174,995.924147
606.823491,666.185348,-8364.327145,1608.800546
606.823819,592.164754,-9104.533087,2451.505594
606.824146,-518.144159,-9844.739029,2451.505594
606.824474,-1332.370696,-10436.903782,2374.896044
606.824801,-666.185348,-10066.800811,1915.238745
606.825129,0.000000,-10140.821405,2298.286494
606.825456,1480.411884,-9696.697840,2681.334243
606.825784,1480.411884,-8956.491898,3370.820191
606.826111,2294.638420,-9326.594869,2757.943793
606.826439,1628.453072,-8660.409521,2987.772442
606.826767,1998.556043,-7846.182985,2911.162892
606.827094,2368.659014,-8290.306550,3524.039291
606.827422,962.267725,-8660.409521,3753.867940
606.827749,296.082377,-9030.512492,4136.915689
606.828077,-2220.617826,-9918.759623,3983.696590
606.828404,-3627.009116,-10362.883188,3140.991542
606.828732,-4885.359217,-10584.944971,2145.067394
606.829059,-4515.256246,-10140.821405,2068.457845
606.829387,-3923.091493,-9252.574275,2145.067394
606.829714,-4219.173869,-8512.368333,1915.238745
606.830042,-3627.009116,-8290.306550,1455.581446
606.830369,-3108.864956,-8290.306550,1072.533697
606.830697,-2442.679609,-6809.894666,766.095498
606.831024,-888.247130,-5847.626942,1149.143247
606.831352,1702.473667,-5847.626942,2681.334243
606.831679,2886.803174,-6069.688724,3753.867940
606.832007,3108.864956,-7624.121203,4596.572988
606.832334,2220.617826,-8882.471304,4903.011187
606.832662,1036.288319,-10140.821405,4826.401637
606.832989,-518.144159,-11917.315666,4213.525239
606.833317,-1332.370696,-12657.521608,4290.134789
606.833644,-518.144159,-12435.459826,4136.915689
606.833972,222.061783,-11103.089130,3830.477490
606.834299,1480.411884,-10584.944971,3907.087040
606.834627,2368.659014,-9622.677246,3447.429741
606.834955,2738.761985,-8364.327145,2911.162892
606.835282,2294.638420,-8216.285956,2374.896044
606.835610,1850.514855,-7550.100608,2298.286494
606.835937,2220.617826,-7846.182985,3064.381992
606.836265,1036.288319,-8882.471304,3524.039291
606.836592,-962.267725,-10510.924376,3677.258390
606.836920,-1850.514855,-10732.986159,4213.525239
606.837247,-4293.194464,-10881.027347,3600.648841
606.837575,-6365.771101,-11843.295072,2911.162892
606.837902,-6513.812290,-11769.274478,2374.896044
606.838230,-5255.462188,-9400.615463,2221.676944
606.838557,-3182.885551,-7772.162391,1762.019645
606.838885,-1480.411884,-7328.038826,1915.238745
606.839212,0.000000,-6365.771101,1532.190996
606.839540,1110.308913,-5107.421000,1685.410096
606.839867,1332.370696,-5107.421000,1378.971896
606.840195,2368.659014,-6069.688724,2757.943793
606.840522,3034.844362,-7402.059420,3677.258390
606.840850,3404.947333,-8512.368333,4596.572988
606.841177,3701.029710,-10510.924376,5898.935335
606.841505,2886.803174,-12435.459826,6588.421283
606.841832,962.267725,-13175.665768,7201.297681
606.842160,370.102971,-12731.542202,6281.983084
606.842487,0.000000,-12583.501014,5515.887586
606.842815,-296.082377,-11473.192101,4673.182538
606.843143,148.041188,-9474.636058,4366.744339
606.843470,2220.617826,-7920.203579,5132.839837
606.843798,2294.638420,-7254.018232,4366.744339
606.844125,-296.082377,-6513.812290,3140.991542
606.844453,-1406.391290,-5847.626942,2374.896044
606.844780,-1184.329507,-5995.668130,2068.457845
606.845108,-1998.556043,-6735.874072,1991.848295
606.845435,-2368.659014,-7031.956449,2298.286494
606.845763,-2294.638420,-7772.162391,2987.772442
606.846090,-1332.370696,-8438.347739,4290.134789
606.846418,-1554.432478,-9252.574275,5132.839837
606.846745,-3256.906145,-9696.697840,4826.401637
606.847073,-4737.318029,-10140.821405,3983.696590
606.847400,-4441.235652,-9992.780217,2757.943793
606.847728,-4219.173869,-9252.574275,2068.457845
606.848055,-2664.741391,-8660.409521,1915.238745
606.848383,-592.164754,-7846.182985,2298.286494
606.848710,1776.494261,-7328.038826,2374.896044
606.849038,3182.885551,-6809.894666,2451.505594
606.849365,3108.864956,-7698.141797,2451.505594
606.849693,1998.556043,-9622.677246,2145.067394
606.850020,222.061783,-11399.171507,1762.019645
606.850348,0.000000,-12435.459826,1302.362347
606.850676,518.144159,-11843.295072,2681.334243
606.851003,2072.576638,-11843.295072,3907.087040
606.851331,3182.885551,-11621.233289,4826.401637
606.851658,3034.844362,-11103.089130,4903.011187
606.851986,3478.967927,-9918.759623,5669.106685
606.852313,4071.132681,-8882.471304,5745.716235
606.852641,2368.659014,-9622.677246,4749.792088
606.852968,592.164754,-9474.636058,3830.477490
606.853296,222.061783,-9844.739029,3370.820191
606.853623,0.000000,-8882.471304,3524.039291
606.853951,-296.082377,-8438.347739,4290.134789
606.854278,-148.041188,-8734.430116,3677.258390
606.854606,-1702.473667,-9474.636058,2987.772442
606.854933,-2220.617826,-10436.903782,2374.896044
606.855261,-3108.864956,-9770.718434,2145.067394
606.855588,-2960.823768,-9474.636058,1838.629195
606.855916,-2590.720797,-9918.759623,2221.676944
606.856243,-3182.885551,-10436.903782,2298.286494
606.856571,-4219.173869,-10658.965565,2145.067394
606.856898,-4515.256246,-9622.677246,2298.286494
606.857226,-3256.906145,-8512.368333,1838.629195
606.857553,-1776.494261,-7698.141797,2298.286494
606.857881,-666.185348,-7698.141797,2298.286494
606.858208,-370.102971,-7846.182985,2451.505594
606.858536,-296.082377,-7846.182985,2911.162892
606.858864,1110.308913,-7402.059420,3907.087040
606.859191,3182.885551,-7105.977043,4366.744339
606.859519,4811.338623,-8142.265362,5209.449386
606.859846,4515.256246,-9400.615463,5286.058936
606.860174,3034.844362,-10510.924376,5362.668486
606.860501,1850.514855,-10658.965565,5515.887586
606.860829,1110.308913,-9992.780217,4903.011187
606.861156,1850.514855,-9474.636058,4213.525239
606.861484,1406.391290,-9918.759623,4903.011187
606.861811,2368.659014,-9992.780217,4060.306139
606.862139,222.061783,-10732.986159,3753.867940
606.862466,-1924.535449,-9178.553681,2987.772442
606.862794,-1480.411884,-8734.430116,2911.162892
606.863121,-1554.432478,-7624.121203,2528.115143
606.863449,-1406.391290,-7698.141797,2528.115143
606.863776,-1480.411884,-7994.224174,2834.553343
606.864104,-2812.782580,-8068.244768,2834.553343
606.864431,-4737.318029,-7920.203579,2068.457845
606.864759,-5181.441594,-7698.141797,1991.848295
606.865086,-4367.215058,-7772.162391,1302.362347
606.865414,-2072.576638,-7624.121203,2145.067394
606.865741,-518.144159,-7031.956449,2757.943793
606.866069,0.000000,-6587.832884,2681.334243
606.866397,-296.082377,-7402.059420,2911.162892
606.866724,-370.102971,-7994.224174,2834.553343
606.867052,-296.082377,-8438.347739,2374.896044
606.867379,888.247130,-9104.533087,2298.286494
606.867707,2220.617826,-9252.574275,3524.039291
606.868034,3108.864956,-9326.594869,4366.744339
606.868362,3701.029710,-10362.883188,5056.230287
606.868689,3552.988522,-11103.089130,5515.887586
606.869017,2368.659014,-11843.295072,4596.572988
606.869344,1406.391290,-11695.253884,3677.258390
606.869672,222.061783,-11991.336260,3447.429741
606.869999,370.102971,-11843.295072,4443.353888
606.870327,1036.288319,-10584.944971,3600.648841
606.870654,666.185348,-10140.821405,5362.668486
606.870982,2368.659014,-8808.450710,5669.106685
606.871309,0.000000,-9548.656652,4826.401637
606.871637,-2368.659014,-9252.574275,3370.820191
606.871964,-4071.132681,-8882.471304,2221.676944
606.872292,-5329.482782,-8808.450710,1915.238745
606.872619,-3627.009116,-8216.285956,2221.676944
606.872947,-1998.556043,-7698.141797,2834.553343
606.873274,-296.082377,-6883.915261,3677.258390
606.873602,-148.041188,-6883.915261,4290.134789
606.873930,-518.144159,-7698.141797,3830.477490
606.874257,-2220.617826,-8512.368333,2834.553343
606.874585,-3108.864956,-9326.594869,2298.286494
606.874912,-3404.947333,-10362.883188,1302.362347
606.875240,-3256.906145,-10584.944971,1838.629195
606.875567,-1480.411884,-10140.821405,2451.505594
606.875895,518.144159,-9548.656652,3524.039291
606.876222,2368.659014,-9178.553681,3677.258390
606.876550,2886.803174,-9178.553681,4366.744339
606.876877,2146.597232,-9770.718434,3753.867940
606.877205,962.267725,-10362.883188,3294.210641
606.877532,444.123565,-10732.986159,2834.553343
606.877860,814.226536,-10732.986159,3370.820191
606.878188,1258.350101,-9844.739029,3983.696590
606.878515,1480.411884,-9622.677246,4213.525239
606.878843,370.102971,-9104.533087,3217.601092
606.879170,0.000000,-8882.471304,3677.258390
606.879498,518.144159,-8068.244768,2528.115143
606.879825,-592.164754,-8290.306550,2298.286494
606.880153,518.144159,-7550.100608,1915.238745
606.880480,666.185348,-7254.018232,2451.505594
606.880808,1184.329507,-7105.977043,3217.601092
606.881135,888.247130,-7031.956449,2911.162892
606.881463,1480.411884,-7624.121203,3830.477490
606.881790,444.123565,-8364.327145,3907.087040
606.882118,0.000000,-9400.615463,3294.210641
606.882446,-888.247130,-9622.677246,3294.210641
606.882773,-1776.494261,-9844.739029,3294.210641
606.883101,-888.247130,-9622.677246,3907.087040
606.883428,-962.267725,-9622.677246,3600.648841
606.883756,-1036.288319,-9104.533087,3217.601092
606.884083,-1332.370696,-8808.450710,2528.115143
606.884411,-1406.391290,-8586.388927,2451.505594
606.884738,-1554.432478,-7994.224174,2068.457845
606.885066,-888.247130,-8068.244768,2221.676944
606.885393,-888.247130,-8068.244768,2451.505594
606.885721,-518.144159,-8290.306550,3140.991542
606.886048,-296.082377,-8438.347739,3447.429741
606.886376,-296.082377,-8512.368333,3677.258390
606.886704,148.041188,-9030.512492,3753.867940
606.887031,0.000000,-9622.677246,3600.648841
606.887359,0.000000,-9992.780217,3830.477490
606.887686,0.000000,-10066.800811,3753.867940
606.888014,-148.041188,-9844.739029,4290.134789
606.888341,0.000000,-9474.636058,3753.867940
606.888669,222.061783,-9400.615463,3064.381992
606.888996,370.102971,-9252.574275,3294.210641
606.889324,1258.350101,-8808.450710,2681.334243
606.889651,370.102971,-9696.697840,2528.115143
606.889979,222.061783,-9770.718434,2298.286494
606.890307,-148.041188,-9992.780217,2451.505594
606.890634,-592.164754,-10214.842000,2451.505594
606.890962,-444.123565,-10066.800811,2451.505594
606.891289,-814.226536,-10066.800811,2451.505594
606.891617,-888.247130,-9622.677246,2451.505594
606.891944,-1480.411884,-9696.697840,2374.896044
606.892272,-1850.514855,-9770.718434,2068.457845
606.892599,-1998.556043,-9474.636058,1532.190996
606.892927,-1924.535449,-8882.471304,1455.581446
606.893254,-1184.329507,-8512.368333,1685.410096
606.893582,-740.205942,-8142.265362,1838.629195
606.893909,74.020594,-7920.203579,1378.971896
606.894237,222.061783,-7994.224174,1225.752797
606.894565,296.082377,-8586.388927,1225.752797
606.894892,0.000000,-9178.553681,1072.533697
606.895220,-518.144159,-9178.553681,1302.362347
606.895547,0.000000,-10066.800811,1378.971896
606.895875,296.082377,-10584.944971,1378.971896
606.896202,1184.329507,-10658.965565,1685.410096
606.896530,1628.453072,-10362.883188,2145.067394
606.896857,2220.617826,-10140.821405,2528.115143
606.897185,1924.535449,-9770.718434,2145.067394
606.897512,814.226536,-9474.636058,1608.800546
606.897840,222.061783,-9326.594869,1302.362347
606.898167,0.000000,-8660.409521,995.924147
606.898495,-518.144159,-8660.409521,1072.533697
606.898823,0.000000,-8142.265362,919.314598
606.899150,0.000000,-8068.244768,995.924147
606.899478,-296.082377,-8216.285956,1072.533697
606.899805,-444.123565,-8068.244768,612.876398
606.900133,-1406.391290,-7846.182985,459.657299
606.900460,-1406.391290,-7846.182985,306.438199
606.900788,-1036.288319,-7920.203579,229.828649
606.901115,-1110.308913,-7920.203579,153.219100
606.901443,-518.144159,-8216.285956,459.657299
606.901770,-444.123565,-8660.409521,842.705048
606.902098,-148.041188,-8438.347739,1072.533697
606.902425,-370.102971,-8882.471304,919.314598
606.902753,-666.185348,-9178.553681,689.485948
606.903081,-518.144159,-9474.636058,612.876398
606.903408,-370.102971,-9326.594869,383.047749
606.903736,74.020594,-9030.512492,842.705048
606.904063,444.123565,-9178.553681,919.314598
606.904391,444.123565,-9400.615463,1072.533697
606.904718,296.082377,-9548.656652,1455.581446
606.905046,222.061783,-9474.636058,1225.752797
606.905373,0.000000,-9326.594869,1149.143247
606.905701,-148.041188,-9178.553681,1302.362347
606.906028,0.000000,-9178.553681,842.705048
606.906356,0.000000,-8808.450710,383.047749
606.906684,0.000000,-8660.409521,842.705048
606.907011,-222.061783,-8216.285956,842.705048
606.907339,-666.185348,-8364.327145,1225.752797
606.907666,-592.164754,-8808.450710,689.485948
606.907994,-1036.288319,-8808.450710,536.266849
606.908321,-1480.411884,-8956.491898,612.876398
606.908649,-1258.350101,-9326.594869,1225.752797
606.908976,-1258.350101,-9178.553681,76.609550
606.909304,-962.267725,-9548.656652,459.657299
606.909631,-666.185348,-9474.636058,766.095498
606.909959,-592.164754,-9696.697840,995.924147
606.910286,-370.102971,-9770.718434,612.876398
606.910614,-296.082377,-9622.677246,919.314598
606.910942,-296.082377,-9548.656652,842.705048
606.911269,-370.102971,-10140.821405,689.485948
606.911597,-444.123565,-9844.739029,689.485948
606.911924,-592.164754,-9844.739029,766.095498
606.912252,-296.082377,-9844.739029,1149.143247
606.912579,0.000000,-9548.656652,919.314598
606.912907,148.041188,-9548.656652,842.705048
606.913234,370.102971,-9326.594869,689.485948
606.913562,370.102971,-9252.574275,459.657299
606.913889,740.205942,-8808.450710,1072.533697
606.914217,444.123565,-8734.430116,612.876398
606.914544,0.000000,-9104.533087,383.047749
606.914872,0.000000,-9400.615463,766.095498
606.915200,74.020594,-9104.533087,536.266849
606.915527,74.020594,-9030.512492,383.047749
606.915855,296.082377,-8734.430116,0.000000
606.916182,74.020594,-8734.430116,229.828649
606.916510,0.000000,-9030.512492,306.438199
606.916837,-148.041188,-8586.388927,229.828649
606.917165,-444.123565,-8586.388927,0.000000
606.917492,-444.123565,-8660.409521,766.095498
606.917820,-1036.288319,-8956.491898,153.219100
606.918147,-888.247130,-9178.553681,0.000000
606.918475,-814.226536,-9104.533087,76.609550
606.918803,-740.205942,-8956.491898,306.438199
606.919130,-370.102971,-8586.388927,306.438199
606.919458,-222.061783,-8364.327145,0.000000
606.919785,-222.061783,-8364.327145,306.438199
606.920113,-370.102971,-8438.347739,306.438199
606.920440,-518.144159,-8512.368333,536.266849
606.920768,-296.082377,-8512.368333,459.657299
606.921095,-740.205942,-9030.512492,383.047749
606.921423,-592.164754,-9326.594869,919.314598
606.921750,-740.205942,-9252.574275,612.876398
606.922078,-444.123565,-9104.533087,766.095498
606.922405,-444.123565,-8956.491898,689.485948
606.922733,0.000000,-8956.491898,612.876398
606.923061,-296.082377,-8660.409521,536.266849
606.923388,-296.082377,-8808.450710,689.485948
606.923716,-518.144159,-8882.471304,766.095498
606.924043,-740.205942,-9474.636058,689.485948
606.924371,-740.205942,-9178.553681,1302.362347
606.924698,-740.205942,-9030.512492,1072.533697
606.925026,-518.144159,-9326.594869,689.485948
606.925353,-296.082377,-9400.615463,612.876398
606.925681,-296.082377,-9178.553681,612.876398
606.926008,-666.185348,-8956.491898,689.485948
606.926336,-518.144159,-8882.471304,536.266849
606.926663,-740.205942,-9474.636058,536.266849
606.926991,-814.226536,-9400.615463,612.876398
606.927319,-666.185348,-9474.636058,766.095498
606.927646,0.000000,-9326.594869,536.266849
606.927974,-222.061783,-8808.450710,919.314598
606.928301,0.000000,-9104.533087,383.047749
606.928629,0.000000,-9030.512492,229.828649
606.928956,0.000000,-9178.553681,383.047749
606.929284,0.000000,-9474.636058,536.266849
606.929611,74.020594,-9400.615463,536.266849
606.929939,-370.102971,-9696.697840,612.876398
606.930266,0.000000,-9918.759623,689.485948
606.930594,0.000000,-9844.739029,766.095498
606.930921,-148.041188,-9474.636058,536.266849
606.931249,0.000000,-9104.533087,612.876398
606.931577,-296.082377,-8586.388927,306.438199
606.931904,-518.144159,-8808.450710,383.047749
606.932232,-962.267725,-8956.491898,536.266849
606.932559,-1184.329507,-9104.533087,383.047749
606.932887,-1184.329507,-8660.409521,153.219100
606.933214,-666.185348,-8734.430116,612.876398
606.933542,-222.061783,-9104.533087,612.876398
606.933869,222.061783,-8808.450710,536.266849
606.934197,518.144159,-8586.388927,459.657299
606.934524,592.164754,-8068.244768,229.828649
606.934852,518.144159,-8808.450710,229.828649
606.935180,0.000000,-9400.615463,842.705048
606.935507,-370.102971,-9992.780217,919.314598
606.935835,-518.144159,-10066.800811,1225.752797
606.936162,-296.082377,-9992.780217,1225.752797
606.936490,148.041188,-9252.574275,1915.238745
606.936817,444.123565,-8882.471304,612.876398
606.937145,740.205942,-8290.306550,229.828649
606.937472,814.226536,-7772.162391,383.047749
606.937800,444.123565,-7698.141797,76.609550
606.938127,222.061783,-7846.182985,612.876398
606.938455,-740.205942,-8734.430116,689.485948
606.938782,-666.185348,-9252.574275,689.485948
606.939110,-740.205942,-9252.574275,842.705048
606.939438,-518.144159,-9104.533087,612.876398
606.939765,0.000000,-8882.471304,766.095498
606.940093,370.102971,-8364.327145,0.000000
606.940420,222.061783,-8438.347739,153.219100
606.940748,222.061783,-8364.327145,76.609550
606.941075,0.000000,-8586.388927,229.828649
606.941403,-222.061783,-9178.553681,689.485948
606.941730,-666.185348,-9178.553681,536.266849
606.942058,-814.226536,-9844.739029,536.266849
606.942385,-518.144159,-9844.739029,459.657299
606.942713,-518.144159,-9474.636058,459.657299
606.943040,-148.041188,-9400.615463,306.438199
606.943368,222.061783,-8808.450710,459.657299
606.943696,518.144159,-9030.512492,76.609550
606.944023,592.164754,-9104.533087,459.657299
606.944351,222.061783,-9474.636058,536.266849
606.944678,-148.041188,-9918.759623,919.314598
606.945006,-148.041188,-9992.780217,1225.752797
606.945333,-222.061783,-10066.800811,689.485948
606.945661,-518.144159,-9770.718434,536.266849
606.945988,-148.041188,-9474.636058,536.266849
606.946316,0.000000,-9030.512492,383.047749
606.946643,0.000000,-8734.430116,0.000000
606.946971,0.000000,-8882.471304,612.876398
606.947299,-370.102971,-8956.491898,689.485948
606.947626,-962.267725,-9252.574275,536.266849
606.947954,-740.205942,-9696.697840,536.266849
606.948281,-962.267725,-9918.759623,842.705048
606.948609,-518.144159,-9770.718434,1149.143247
606.948936,-296.082377,-9548.656652,689.485948
606.949264,-370.102971,-9252.574275,536.266849
606.949591,-296.082377,-9178.553681,612.876398
606.949919,-370.102971,-9400.615463,842.705048
606.950246,-666.185348,-9030.512492,612.876398
606.950574,-518.144159,-9474.636058,1225.752797
606.950901,-666.185348,-9622.677246,919.314598
606.951229,-888.247130,-9474.636058,766.095498
606.951557,-814.226536,-9474.636058,766.095498
606.951884,-962.267725,-8808.450710,995.924147
606.952212,-518.144159,-8882.471304,536.266849
606.952539,-592.164754,-8512.368333,383.047749
606.952867,-370.102971,-8364.327145,459.657299
606.953194,-666.185348,-8364.327145,612.876398
606.953522,-222.061783,-8512.368333,689.485948
606.953849,-370.102971,-9104.533087,766.095498
606.954177,-592.164754,-8734.430116,842.705048
606.954504,-592.164754,-8882.471304,766.095498
606.954832,-518.144159,-9104.533087,612.876398
606.955159,-444.123565,-8808.450710,536.266849
606.955487,0.000000,-8734.430116,383.047749
606.955815,-444.123565,-8808.450710,689.485948
606.956142,-370.102971,-8808.450710,536.266849
606.956470,-370.102971,-8956.491898,536.266849
606.956797,-518.144159,-8734.430116,612.876398
606.957125,0.000000,-8956.491898,383.047749
606.957452,-444.123565,-8956.491898,383.047749
606.957780,-222.061783,-8660.409521,153.219100
606.958107,0.000000,-8734.430116,153.219100
606.958435,0.000000,-9030.512492,536.266849
606.958762,0.000000,-8586.388927,229.828649
606.959090,0.000000,-9104.533087,766.095498
606.959417,0.000000,-9252.574275,612.876398
606.959745,148.041188,-9326.594869,766.095498
606.960073,0.000000,-9178.553681,689.485948
606.960400,74.020594,-8882.471304,842.705048
606.960728,0.000000,-8586.388927,842.705048
606.961055,0.000000,-8734.430116,383.047749
606.961383,-296.082377,-8734.430116,306.438199
606.961710,-444.123565,-8734.430116,153.219100
606.962038,-296.082377,-8808.450710,76.609550
606.962365,222.061783,-9178.553681,842.705048
606.962693,-296.082377,-9030.512492,612.876398
606.963020,-296.082377,-9326.594869,536.266849
606.963348,0.000000,-9400.615463,612.876398
606.963676,0.000000,-9474.636058,612.876398
606.964003,0.000000,-9252.574275,995.924147
606.964331,0.000000,-9474.636058,995.924147
606.964658,-222.061783,-9400.615463,919.314598
606.964986,-296.082377,-9400.615463,536.266849
606.965313,-518.144159,-9252.574275,766.095498
606.965641,-518.144159,-9252.574275,153.219100
606.965968,0.000000,-9178.553681,995.924147
606.966296,-444.123565,-9326.594869,689.485948
606.966623,-222.061783,-9178.553681,689.485948
606.966951,0.000000,-9104.533087,459.657299
606.967278,0.000000,-9104.533087,842.705048
606.967606,0.000000,-9252.574275,995.924147
606.967934,0.000000,-9474.636058,842.705048
606.968261,-148.041188,-9622.677246,766.095498
606.968589,-148.041188,-9770.718434,766.095498
606.968916,0.000000,-9696.697840,766.095498
606.969244,-444.123565,-9104.533087,995.924147
606.969571,0.000000,-9178.553681,459.657299
606.969899,74.020594,-9400.615463,459.657299
606.970226,0.000000,-8882.471304,383.047749
606.970554,222.061783,-8808.450710,306.438199
606.970881,0.000000,-8512.368333,459.657299
606.971209,74.020594,-8956.491898,536.266849
606.971536,0.000000,-9178.553681,689.485948
606.971864,-148.041188,-9326.594869,612.876398
606.972192,0.000000,-9326.594869,536.266849
606.972519,222.061783,-9474.636058,153.219100
606.972847,0.000000,-9104.533087,842.705048
606.973174,0.000000,-9178.553681,536.266849
606.973502,74.020594,-9030.512492,536.266849
606.973830,0.000000,-8808.450710,383.047749
606.974157,0.000000,-8882.471304,459.657299
606.974485,222.061783,-9104.533087,459.657299
606.974813,0.000000,-8808.450710,229.828649
606.975140,-666.185348,-8882.471304,383.047749
606.975468,-222.061783,-9252.574275,766.095498
606.975795,-370.102971,-9400.615463,459.657299
606.976123,-222.061783,-9104.533087,306.438199
606.976451,-296.082377,-9252.574275,766.095498
606.976778,-296.082377,-9326.594869,536.266849
606.977106,-222.061783,-9178.553681,459.657299
606.977433,0.000000,-9104.533087,766.095498
606.977761,0.000000,-9326.594869,459.657299
606.978089,-296.082377,-8808.450710,842.705048
606.978416,-518.144159,-8956.491898,612.876398
606.978744,-444.123565,-8882.471304,459.657299
606.979072,-370.102971,-8882.471304,536.266849
606.979399,-444.123565,-8586.388927,383.047749
606.979727,-296.082377,-9104.533087,612.876398
606.980054,-444.123565,-9252.574275,536.266849
606.980382,-370.102971,-9178.553681,612.876398
606.980710,-370.102971,-9030.512492,689.485948
606.981037,-296.082377,-9326.594869,536.266849
606.981365,-370.102971,-9326.594869,842.705048
606.981692,-222.061783,-9178.553681,536.266849
606.982020,-444.123565,-9326.594869,612.876398
606.982348,-444.123565,-9252.574275,459.657299
606.982675,-296.082377,-9400.615463,612.876398
606.983003,0.000000,-9178.553681,842.705048
606.983331,-370.102971,-9104.533087,459.657299
606.983658,-518.144159,-9474.636058,612.876398
606.983986,-814.226536,-9178.553681,459.657299
606.984313,-666.185348,-9326.594869,612.876398
606.984641,-592.164754,-8956.491898,995.924147
606.984969,-518.144159,-9104.533087,536.266849
606.985296,-740.205942,-9030.512492,766.095498
606.985624,-592.164754,-8956.491898,306.438199
606.985951,-666.185348,-8586.388927,306.438199
606.986279,-740.205942,-8512.368333,306.438199
606.986607,-444.123565,-8068.244768,689.485948
606.986934,-518.144159,-8512.368333,536.266849
606.987262,-592.164754,-8438.347739,766.095498
606.987590,-740.205942,-8660.409521,306.438199
606.987917,-814.226536,-8956.491898,612.876398
606.988245,-888.247130,-8734.430116,766.095498
606.988572,-666.185348,-9030.512492,689.485948
606.988900,-444.123565,-8956.491898,536.266849
606.989228,-296.082377,-8734.430116,689.485948
606.989555,-296.082377,-8882.471304,766.095498
606.989883,0.000000,-8956.491898,1072.533697
606.990210,-148.041188,-8734.430116,306.438199
606.990538,0.000000,-8734.430116,459.657299
606.990866,0.000000,-8734.430116,459.657299
606.991193,-148.041188,-9178.553681,536.266849
606.991521,-222.061783,-8956.491898,766.095498
606.991849,0.000000,-9252.574275,383.047749
606.992176,0.000000,-9030.512492,612.876398
606.992504,0.000000,-9030.512492,459.657299
606.992831,0.000000,-9326.594869,383.047749
606.993159,74.020594,-9400.615463,0.000000
606.993487,74.020594,-9326.594869,229.828649
606.993814,0.000000,-9252.574275,459.657299
606.994142,-296.082377,-9178.553681,306.438199
606.994469,0.000000,-9030.512492,229.828649
606.994797,74.020594,-8808.450710,459.657299
606.995125,592.164754,-8734.430116,229.828649
606.995452,296.082377,-8956.491898,153.219100
606.995780,0.000000,-9104.533087,306.438199
606.996108,0.000000,-9104.533087,306.438199
606.996435,0.000000,-9326.594869,229.828649
606.996763,0.000000,-9400.615463,842.705048
606.997090,0.000000,-9474.636058,689.485948
606.997418,0.000000,-9474.636058,536.266849
606.997746,0.000000,-9548.656652,536.266849
606.998073,0.000000,-9252.574275,536.266849
606.998401,-148.041188,-8734.430116,536.266849
606.998728,74.020594,-9178.553681,383.047749
606.999056,0.000000,-9030.512492,383.047749
606.999384,0.000000,-9252.574275,689.485948
606.999711,-296.082377,-9474.636058,919.314598
607.000039,-222.061783,-9326.594869,612.876398
607.000367,0.000000,-9548.656652,306.438199
607.000694,-370.102971,-9474.636058,459.657299
607.001022,-296.082377,-9622.677246,842.705048
607.001349,0.000000,-9474.636058,459.657299
607.001677,0.000000,-9474.636058,766.095498
607.002005,0.000000,-9104.533087,689.485948
607.002332,-370.102971,-9030.512492,459.657299
607.002660,-222.061783,-9252.574275,689.485948
607.002987,-148.041188,-9400.615463,383.047749
607.003315,-222.061783,-9400.615463,689.485948
607.003643,-444.123565,-9252.574275,919.314598
607.003970,-370.102971,-9178.553681,459.657299
607.004298,-222.061783,-9326.594869,612.876398
607.004626,-296.082377,-9326.594869,612.876398
607.004953,-370.102971,-9178.553681,766.095498
607.005281,-148.041188,-9252.574275,536.266849
607.005608,-296.082377,-8956.491898,766.095498
607.005936,-592.164754,-9252.574275,536.266849
607.006264,-592.164754,-9326.594869,689.485948
607.006591,-370.102971,-9104.533087,459.657299
607.006919,-148.041188,-9252.574275,612.876398
607.007246,-222.061783,-8438.347739,1072.533697
607.007574,-296.082377,-8734.430116,612.876398
607.007902,-296.082377,-8882.471304,612.876398
607.008229,-296.082377,-8808.450710,612.876398
607.008557,-592.164754,-9104.533087,689.485948
607.008885,-814.226536,-9030.512492,1072.533697
607.009212,-444.123565,-9252.574275,842.705048
607.009540,-962.267725,-9400.615463,919.314598
607.009867,-518.144159,-9178.553681,689.485948
607.010195,-592.164754,-8882.471304,842.705048
607.010523,-592.164754,-8290.306550,536.266849
607.010850,0.000000,-8586.388927,612.876398
607.011178,0.000000,-8586.388927,536.266849
607.011505,-296.082377,-8660.409521,612.876398
607.011833,-296.082377,-8734.430116,536.266849
607.012161,-148.041188,-8290.306550,842.705048
607.012488,-444.123565,-8586.388927,536.266849
607.012816,-444.123565,-8956.491898,459.657299
607.013144,-444.123565,-9030.512492,459.657299
607.013471,-444.123565,-8882.471304,459.657299
607.013799,-370.102971,-8956.491898,229.828649
607.014126,-370.102971,-8734.430116,995.924147
607.014454,-148.041188,-8956.491898,459.657299
607.014782,0.000000,-8956.491898,459.657299
607.015109,0.000000,-8808.450710,536.266849
607.015437,-222.061783,-9030.512492,306.438199
607.015764,-296.082377,-8364.327145,612.876398
607.016092,-370.102971,-8882.471304,459.657299
607.016420,-370.102971,-8956.491898,229.828649
607.016747,-444.123565,-9326.594869,229.828649
607.017075,-370.102971,-9400.615463,459.657299
607.017403,-444.123565,-8956.491898,536.266849
607.017730,0.000000,-9252.574275,306.438199
607.018058,-296.082377,-9400.615463,689.485948
607.018385,-444.123565,-9104.533087,459.657299
607.018713,-518.144159,-8956.491898,459.657299
607.019041,-888.247130,-8734.430116,919.314598
607.019368,-370.102971,-8586.388927,842.705048
607.019696,-444.123565,-8660.409521,229.828649
607.020023,-666.185348,-8734.430116,536.266849
607.020351,-444.123565,-9030.512492,766.095498
607.020679,-370.102971,-8956.491898,689.485948
607.021006,-666.185348,-9104.533087,536.266849
607.021334,-740.205942,-9178.553681,689.485948
607.021662,-814.226536,-9326.594869,842.705048
607.021989,-518.144159,-9326.594869,919.314598
607.022317,-370.102971,-9326.594869,689.485948
607.022644,74.020594,-9474.636058,766.095498
607.022972,-370.102971,-8882.471304,766.095498
607.023300,-222.061783,-9252.574275,842.705048
607.023627,-222.061783,-9252.574275,612.876398
607.023955,-222.061783,-9104.533087,536.266849
607.024282,0.000000,-9474.636058,1225.752797
607.024610,0.000000,-9104.533087,536.266849
607.024938,-148.041188,-9252.574275,766.095498
607.025265,-222.061783,-9548.656652,919.314598
607.025593,-296.082377,-9400.615463,766.095498
607.025921,-296.082377,-9326.594869,842.705048
607.026248,0.000000,-9252.574275,842.705048
607.026576,0.000000,-9400.615463,612.876398
607.026903,74.020594,-9178.553681,612.876398
607.027231,222.061783,-9104.533087,383.047749
607.027559,0.000000,-9326.594869,459.657299
607.027886,0.000000,-8882.471304,153.219100
607.028214,-148.041188,-9326.594869,536.266849
607.028541,-222.061783,-9548.656652,459.657299
607.028869,0.000000,-9622.677246,536.266849
607.029197,-148.041188,-9474.636058,766.095498
607.029524,0.000000,-9252.574275,612.876398
607.029852,0.000000,-9400.615463,306.438199
607.030180,0.000000,-9474.636058,536.266849
607.030507,0.000000,-9474.636058,536.266849
607.030835,-148.041188,-9178.553681,612.876398
607.031162,0.000000,-9178.553681,306.438199
607.031490,-222.061783,-9104.533087,919.314598
607.031818,-148.041188,-9474.636058,842.705048
607.032145,0.000000,-9030.512492,689.485948
607.032473,0.000000,-9030.512492,459.657299
607.032800,370.102971,-9178.553681,766.095498
607.033128,-148.041188,-8956.491898,459.657299
607.033456,-222.061783,-9030.512492,612.876398
607.033783,0.000000,-9104.533087,383.047749
607.034111,-148.041188,-9252.574275,536.266849
607.034439,-444.123565,-9474.636058,689.485948
607.034766,-444.123565,-9474.636058,459.657299
607.035094,-296.082377,-9178.553681,306.438199
607.035421,-148.041188,-9030.512492,229.828649
607.035749,0.000000,-9104.533087,0.000000
607.036077,-296.082377,-9030.512492,229.828649
607.036404,0.000000,-8956.491898,306.438199
607.036732,-370.102971,-8808.450710,306.438199
607.037059,-148.041188,-8882.471304,536.266849
607.037387,-444.123565,-9030.512492,383.047749
607.037715,-444.123565,-9178.553681,306.438199
607.038042,-370.102971,-9104.533087,459.657299
607.038370,-370.102971,-9030.512492,1072.533697
607.038698,-444.123565,-8734.430116,536.266849
607.039025,0.000000,-8734.430116,153.219100
607.039353,-370.102971,-8512.368333,459.657299
607.039680,-296.082377,-8512.368333,842.705048
607.040008,-370.102971,-8586.388927,383.047749
607.040336,-666.185348,-8808.450710,459.657299
607.040663,-592.164754,-9030.512492,842.705048
607.040991,-370.102971,-9252.574275,536.266849
607.041318,-592.164754,-9326.594869,842.705048
607.041646,-518.144159,-8882.471304,459.657299
607.041974,-666.185348,-9104.533087,536.266849
607.042301,-666.185348,-9104.533087,612.876398
607.042629,-666.185348,-8882.471304,842.705048
607.042957,-666.185348,-8808.450710,383.047749
607.043284,-148.041188,-8586.388927,536.266849
607.043612,-370.102971,-8586.388927,995.924147
607.043939,-222.061783,-8734.430116,766.095498
607.044267,-370.102971,-8956.491898,612.876398
607.044595,-592.164754,-8808.450710,612.876398
607.044922,-444.123565,-8956.491898,995.924147
607.045250,-296.082377,-8512.368333,919.314598
607.045577,-444.123565,-9178.553681,766.095498
607.045905,-370.102971,-9326.594869,459.657299
607.046233,-518.144159,-9252.574275,766.095498
607.046560,-444.123565,-9326.594869,766.095498
607.046888,-296.082377,-9252.574275,1072.533697
607.047216,-148.041188,-9030.512492,459.657299
607.047543,0.000000,-9400.615463,306.438199
607.047871,0.000000,-9400.615463,459.657299
607.048198,-296.082377,-9326.594869,153.219100
607.048526,0.000000,-8734.430116,612.876398
607.048854,0.000000,-9474.636058,459.657299
607.049181,-148.041188,-9400.615463,459.657299
607.049509,-222.061783,-9474.636058,459.657299
607.049836,-222.061783,-9622.677246,612.876398
607.050164,-370.102971,-9326.594869,842.705048
607.050492,-444.123565,-8956.491898,536.266849
607.050819,-296.082377,-9178.553681,612.876398
607.051147,-370.102971,-8956.491898,536.266849
607.051475,-296.082377,-8956.491898,689.485948
607.051802,-148.041188,-9104.533087,536.266849
607.052130,-222.061783,-8734.430116,842.705048
607.052457,0.000000,-8956.491898,766.095498
607.052785,-296.082377,-9030.512492,689.485948
607.053113,-222.061783,-9178.553681,766.095498
607.053440,-370.102971,-9252.574275,612.876398
607.053768,0.000000,-9326.594869,919.314598
607.054095,-222.061783,-9474.636058,536.266849
607.054423,0.000000,-9474.636058,612.876398
607.054751,0.000000,-9326.594869,689.485948
607.055078,74.020594,-9474.636058,612.876398
607.055406,148.041188,-9030.512492,689.485948
607.055734,74.020594,-9104.533087,459.657299
607.056061,0.000000,-9400.615463,229.828649
607.056389,0.000000,-9252.574275,306.438199
607.056716,0.000000,-9252.574275,612.876398
607.057044,-148.041188,-9104.533087,689.485948
607.057372,-222.061783,-9252.574275,306.438199
607.057699,-222.061783,-9474.636058,536.266849
607.058027,-370.102971,-9252.574275,153.219100
607.058354,0.000000,-9178.553681,383.047749
607.058682,0.000000,-9178.553681,0.000000
607.059010,296.082377,-9178.553681,76.609550
607.059337,148.041188,-8956.491898,76.609550
607.059665,222.061783,-8956.491898,306.438199
607.059993,0.000000,-9104.533087,306.438199
607.060320,0.000000,-9104.533087,306.438199
607.060648,-518.144159,-8882.471304,766.095498
607.060975,0.000000,-9178.553681,689.485948
607.061303,0.000000,-9326.594869,459.657299
607.061631,-222.061783,-9474.636058,536.266849
607.061958,-518.144159,-9030.512492,612.876398
607.062286,-222.061783,-8956.491898,766.095498
607.062613,-296.082377,-9326.594869,766.095498
607.062941,-592.164754,-9252.574275,383.047749
607.063269,-592.164754,-9030.512492,306.438199
607.063596,-444.123565,-9178.553681,536.266849
607.063924,-370.102971,-8660.409521,1302.362347
607.064252,-370.102971,-9178.553681,842.705048
607.064579,-444.123565,-8956.491898,536.266849
607.064907,-370.102971,-8956.491898,766.095498
607.065234,-518.144159,-9030.512492,766.095498
607.065562,-296.082377,-8882.471304,919.314598
607.065890,0.000000,-9030.512492,689.485948
607.066217,-518.144159,-9030.512492,842.705048
607.066545,-444.123565,-9030.512492,842.705048
607.066872,-444.123565,-8956.491898,536.266849
607.067200,-444.123565,-9030.512492,612.876398
607.067528,-222.061783,-8660.409521,459.657299
607.067855,-518.144159,-8882.471304,536.266849
607.068183,-518.144159,-8882.471304,459.657299
607.068511,-444.123565,-9030.512492,306.438199
607.068838,-444.123565,-9326.594869,536.266849
607.069166,-222.061783,-8882.471304,612.876398
607.069493,-296.082377,-9178.553681,536.266849
607.069821,-296.082377,-9400.615463,766.095498
607.070149,-444.123565,-9178.553681,612.876398
607.070476,-222.061783,-9104.533087,459.657299
607.070804,-518.144159,-8734.430116,919.314598
607.071131,-148.041188,-9104.533087,306.438199
607.071459,-296.082377,-8808.450710,229.828649
607.071787,-148.041188,-8808.450710,383.047749
607.072114,-222.061783,-8808.450710,536.266849
607.072442,-370.102971,-8438.347739,842.705048
607.072770,-592.164754,-8512.368333,459.657299
607.073097,-518.144159,-9178.553681,536.266849
607.073425,-666.185348,-9252.574275,383.047749
607.073752,-518.144159,-9030.512492,612.876398
607.074080,-740.205942,-8882.471304,919.314598
607.074407,-888.247130,-8660.409521,766.095498
607.074735,-592.164754,-9104.533087,995.924147
607.075062,-592.164754,-9178.553681,612.876398
607.075390,-444.123565,-9030.512492,612.876398
607.075717,-444.123565,-9178.553681,536.266849
607.076045,0.000000,-8660.409521,459.657299
607.076372,-222.061783,-8956.491898,459.657299
607.076700,-296.082377,-8882.471304,536.266849
607.077028,-222.061783,-9252.574275,383.047749
607.077355,-148.041188,-9104.533087,459.657299
607.077683,0.000000,-9474.636058,306.438199
607.078010,-222.061783,-9104.533087,842.705048
607.078338,0.000000,-9178.553681,612.876398
607.078665,0.000000,-9104.533087,536.266849
607.078993,0.000000,-9030.512492,383.047749
607.079320,-148.041188,-9178.553681,153.219100
607.079648,0.000000,-9030.512492,536.266849
607.079975,74.020594,-9030.512492,153.219100
607.080303,0.000000,-9104.533087,383.047749
607.080630,0.000000,-9252.574275,459.657299
607.080958,0.000000,-9326.594869,153.219100
607.081285,0.000000,-9030.512492,766.095498
607.081613,0.000000,-9474.636058,612.876398
607.081940,-444.123565,-9474.636058,612.876398
607.082268,-222.061783,-9548.656652,306.438199
607.082595,-148.041188,-9400.615463,459.657299
607.082923,74.020594,-9400.615463,842.705048
607.083250,0.000000,-9104.533087,383.047749
607.083578,0.000000,-9252.574275,306.438199
607.083905,-148.041188,-9104.533087,766.095498
607.084233,-296.082377,-8956.491898,612.876398
607.084560,-444.123565,-8956.491898,995.924147
607.084888,0.000000,-9326.594869,689.485948
607.085215,-370.102971,-9178.553681,919.314598
607.085543,-592.164754,-9178.553681,995.924147
607.085871,-814.226536,-9400.615463,689.485948
607.086198,-592.164754,-9178.553681,842.705048
607.086526,-370.102971,-8956.491898,536.266849
607.086853,-296.082377,-9178.553681,536.266849
607.087181,0.000000,-8956.491898,536.266849
607.087508,0.000000,-9030.512492,459.657299
607.087836,-148.041188,-9104.533087,612.876398
607.088163,-296.082377,-9104.533087,459.657299
607.088491,-444.123565,-9178.553681,689.485948
607.088818,-222.061783,-9622.677246,612.876398
607.089146,-592.164754,-9474.636058,536.266849
607.089473,-444.123565,-9770.718434,383.047749
607.089801,0.000000,-9844.739029,995.924147
607.090128,74.020594,-9474.636058,229.828649
607.090456,0.000000,-9252.574275,689.485948
607.090783,0.000000,-9252.574275,383.047749
607.091111,74.020594,-9104.533087,536.266849
607.091438,-74.020594,-8734.430116,229.828649
607.091766,0.000000,-8586.388927,766.095498
607.092093,0.000000,-8882.471304,153.219100
607.092421,-222.061783,-8956.491898,612.876398
607.092748,-148.041188,-9104.533087,383.047749
607.093076,0.000000,-8956.491898,536.266849
607.093403,-444.123565,-8808.450710,0.000000
607.093731,-296.082377,-8882.471304,919.314598
607.094059,-370.102971,-8956.491898,612.876398
607.094386,-296.082377,-9178.553681,842.705048
607.094714,-296.082377,-9178.553681,689.485948
607.095041,-222.061783,-9104.533087,76.609550
607.095369,-518.144159,-8808.450710,536.266849
607.095696,-444.123565,-8956.491898,459.657299
607.096024,-222.061783,-8808.450710,612.876398
607.096351,-296.082377,-8956.491898,689.485948
607.096679,-370.102971,-8734.430116,536.266849
607.097006,-370.102971,-9030.512492,842.705048
607.097334,-444.123565,-9030.512492,689.485948
607.097661,-814.226536,-9104.533087,919.314598
607.097989,-592.164754,-9178.553681,766.095498
607.098316,-444.123565,-9178.553681,1072.533697
607.098644,-666.185348,-9178.553681,995.924147
607.098971,-666.185348,-8586.388927,842.705048
607.099299,-370.102971,-8290.306550,306.438199
607.099626,-518.144159,-8364.327145,229.828649
607.099954,-222.061783,-8586.388927,459.657299
607.100281,-962.267725,-8512.368333,766.095498
607.100609,-296.082377,-8808.450710,76.609550
607.100936,-888.247130,-8882.471304,229.828649
607.101264,-296.082377,-9104.533087,306.438199
607.101591,-518.144159,-9326.594869,306.438199
607.101919,74.020594,-9178.553681,306.438199
607.102247,0.000000,-9326.594869,536.266849
607.102574,0.000000,-9326.594869,383.047749
607.102902,0.000000,-9400.615463,536.266849
607.103229,0.000000,-9104.533087,612.876398
607.103557,0.000000,-9400.615463,153.219100
607.103884,148.041188,-8882.471304,766.095498
607.104212,0.000000,-9252.574275,536.266849
607.104539,0.000000,-9326.594869,459.657299
607.104867,-222.061783,-9252.574275,383.047749
607.105194,0.000000,-9326.594869,842.705048
607.105522,-370.102971,-9252.574275,153.219100
607.105849,-518.144159,-9326.594869,612.876398
607.106177,-592.164754,-9326.594869,612.876398
607.106504,-444.123565,-9326.594869,689.485948
607.106832,-444.123565,-9326.594869,612.876398
607.107159,-518.144159,-8882.471304,612.876398
607.107487,-814.226536,-9178.553681,536.266849
607.107814,-222.061783,-9030.512492,459.657299
607.108142,-444.123565,-8808.450710,459.657299
607.108469,-370.102971,-8734.430116,306.438199
607.108797,0.000000,-8734.430116,766.095498
607.109124,0.000000,-8956.491898,229.828649
607.109452,-518.144159,-9178.553681,536.266849
607.109779,-444.123565,-9400.615463,689.485948
607.110107,-592.164754,-9326.594869,842.705048
607.110434,-518.144159,-9178.553681,1225.752797
607.110762,-666.185348,-9400.615463,1149.143247
607.111090,-222.061783,-9474.636058,612.876398
607.111417,0.000000,-9252.574275,689.485948
607.111745,0.000000,-9400.615463,766.095498
607.112072,-148.041188,-9104.533087,612.876398
607.112400,0.000000,-9104.533087,383.047749
607.112727,0.000000,-9252.574275,612.876398
607.113055,148.041188,-9178.553681,306.438199
607.113382,0.000000,-9252.574275,766.095498
607.113710,0.000000,-9400.615463,153.219100
607.114037,222.061783,-9474.636058,689.485948
607.114365,-370.102971,-9178.553681,459.657299
607.114692,-296.082377,-9400.615463,612.876398
607.115020,-148.041188,-9178.553681,229.828649
607.115347,-296.082377,-9400.615463,459.657299
607.115675,-296.082377,-9030.512492,995.924147
607.116002,148.041188,-8438.347739,76.609550
607.116330,0.000000,-8882.471304,612.876398
607.116657,0.000000,-8734.430116,153.219100
607.116985,0.000000,-8882.471304,612.876398
607.117312,0.000000,-8438.347739,612.876398
607.117640,0.000000,-8808.450710,766.095498
607.117967,0.000000,-9104.533087,459.657299
607.118295,-74.020594,-9548.656652,612.876398
607.118622,-444.123565,-9252.574275,995.924147
607.118950,-148.041188,-9252.574275,766.095498
607.119278,-222.061783,-8956.491898,306.438199
607.119605,0.000000,-9252.574275,689.485948
607.119933,-222.061783,-9178.553681,536.266849
607.120260,0.000000,-9030.512492,536.266849
607.120588,0.000000,-8882.471304,536.266849
607.120915,-222.061783,-8808.450710,383.047749
607.121243,-222.061783,-8882.471304,536.266849
607.121570,-518.144159,-9030.512492,383.047749
607.121898,-666.185348,-9104.533087,536.266849
607.122225,-740.205942,-9178.553681,612.876398
607.122553,-518.144159,-9030.512492,689.485948
607.122880,-592.164754,-9104.533087,689.485948
607.123208,-592.164754,-9104.533087,612.876398
607.123535,-518.144159,-9252.574275,612.876398
607.123863,-592.164754,-8956.491898,612.876398
607.124190,-296.082377,-8734.430116,842.705048
607.124518,-222.061783,-8438.347739,536.266849
607.124845,0.000000,-8512.368333,229.828649
607.125173,-370.102971,-8956.491898,459.657299
607.125500,-296.082377,-9030.512492,536.266849
607.125828,-222.061783,-9030.512492,766.095498
607.126155,-296.082377,-8808.450710,0.000000
607.126483,-148.041188,-9326.594869,842.705048
607.126810,-444.123565,-9474.636058,612.876398
607.127138,-518.144159,-9252.574275,689.485948
607.127465,-370.102971,-9252.574275,306.438199
607.127793,-296.082377,-8882.471304,919.314598
607.128121,-518.144159,-8660.409521,383.047749
607.128448,-148.041188,-8882.471304,536.266849
607.128776,-296.082377,-8956.491898,459.657299
607.129103,-222.061783,-8956.491898,229.828649
607.129431,0.000000,-9252.574275,612.876398
607.129758,-296.082377,-8808.450710,536.266849
607.130086,-222.061783,-9178.553681,612.876398
607.130413,-518.144159,-9178.553681,689.485948
607.130741,-444.123565,-9400.615463,459.657299
607.131068,-444.123565,-8956.491898,689.485948
607.131396,-148.041188,-8660.409521,536.266849
607.131723,-296.082377,-9104.533087,612.876398
607.132051,-296.082377,-9030.512492,536.266849
607.132378,0.000000,-8808.450710,459.657299
607.132706,0.000000,-8808.450710,306.438199
607.133033,0.000000,-9104.533087,842.705048
607.133361,-222.061783,-9030.512492,536.266849
607.133688,-370.102971,-9252.574275,842.705048
607.134016,0.000000,-9030.512492,766.095498
607.134343,0.000000,-9400.615463,766.095498
607.134671,-222.061783,-9326.594869,842.705048
607.134998,-444.123565,-9400.615463,689.485948
607.135326,-444.123565,-9548.656652,536.266849
607.135653,-444.123565,-9326.594869,766.095498
607.135981,-444.123565,-9400.615463,842.705048
607.136309,-296.082377,-9548.656652,1225.752797
607.136636,0.000000,-9030.512492,383.047749
607.136964,-296.082377,-9252.574275,766.095498
607.137291,-296.082377,-9178.553681,612.876398
607.137619,-370.102971,-9252.574275,459.657299
607.137946,-370.102971,-9178.553681,689.485948
607.138274,-444.123565,-9326.594869,459.657299
607.138601,-296.082377,-9252.574275,766.095498
607.138929,-592.164754,-9474.636058,536.266849
607.139256,-370.102971,-9400.615463,459.657299
607.139584,-148.041188,-9326.594869,536.266849
607.139911,148.041188,-9030.512492,766.095498
607.140239,-444.123565,-8808.450710,612.876398
607.140566,-444.123565,-8882.471304,459.657299
607.140894,-222.061783,-9030.512492,153.219100
607.141221,0.000000,-9030.512492,459.657299
607.141549,222.061783,-9252.574275,306.438199
607.141876,0.000000,-9030.512492,459.657299
607.142204,0.000000,-9400.615463,459.657299
607.142531,0.000000,-9326.594869,536.266849
607.142859,-370.102971,-9400.615463,536.266849
607.143186,0.000000,-9178.553681,842.705048
607.143514,-370.102971,-9104.533087,919.314598
607.143841,-74.020594,-9326.594869,306.438199
607.144169,-148.041188,-9104.533087,459.657299
607.144496,0.000000,-9030.512492,536.266849
607.144824,-148.041188,-8660.409521,842.705048
607.145152,0.000000,-8512.368333,459.657299
607.145479,-296.082377,-8808.450710,383.047749
607.145807,-370.102971,-8882.471304,536.266849
607.146134,-444.123565,-9030.512492,612.876398
607.146462,-518.144159,-9030.512492,612.876398
607.146789,-296.082377,-9030.512492,383.047749
607.147117,-444.123565,-8956.491898,612.876398
607.147444,-518.144159,-9030.512492,842.705048
607.147772,-370.102971,-8808.450710,995.924147
607.148099,-222.061783,-8808.450710,995.924147
607.148427,0.000000,-8586.388927,306.438199
607.148754,0.000000,-8882.471304,1072.533697
607.149082,-222.061783,-9104.533087,689.485948
607.149409,-370.102971,-9104.533087,919.314598
607.149737,-444.123565,-9178.553681,919.314598
607.150064,-370.102971,-9252.574275,995.924147
607.150392,-666.185348,-8956.491898,766.095498
607.150719,-370.102971,-9326.594869,1149.143247
607.151047,-518.144159,-9326.594869,612.876398
607.151374,-444.123565,-9252.574275,919.314598
607.151702,-444.123565,-8956.491898,383.047749
607.152029,-148.041188,-8808.450710,919.314598
607.152357,-370.102971,-8734.430116,459.657299
607.152684,-444.123565,-8956.491898,536.266849
607.153012,-444.123565,-9178.553681,536.266849
607.153340,-444.123565,-9030.512492,383.047749
607.153667,-296.082377,-8882.471304,612.876398
607.153995,-222.061783,-8956.491898,689.485948
607.154322,-222.061783,-9326.594869,612.876398
607.154650,-148.041188,-9474.636058,383.047749
607.154977,-296.082377,-9030.512492,459.657299
607.155305,0.000000,-8882.471304,689.485948
607.155632,-222.061783,-8808.450710,612.876398
607.155960,0.000000,-9252.574275,536.266849
607.156287,0.000000,-9030.512492,306.438199
607.156615,148.041188,-9178.553681,459.657299
607.156942,222.061783,-9548.656652,689.485948
607.157270,148.041188,-9400.615463,919.314598
607.157597,-222.061783,-8956.491898,383.047749
607.157925,0.000000,-9252.574275,459.657299
607.158252,0.000000,-9326.594869,612.876398
607.158580,-222.061783,-9252.574275,536.266849
607.158907,-370.102971,-9252.574275,995.924147
607.159235,-666.185348,-9326.594869,459.657299
607.159562,-666.185348,-9178.553681,459.657299
607.159890,-814.226536,-9104.533087,536.266849
607.160217,-592.164754,-8956.491898,536.266849
607.160545,-666.185348,-8364.327145,383.047749
607.160872,-370.102971,-8808.450710,153.219100
607.161200,-592.164754,-8734.430116,383.047749
607.161527,-740.205942,-8808.450710,536.266849
607.161855,-518.144159,-9104.533087,612.876398
607.162183,-370.102971,-9104.533087,612.876398
607.162510,-518.144159,-8956.491898,383.047749
607.162838,-222.061783,-9252.574275,383.047749
607.163165,-296.082377,-9104.533087,229.828649
607.163493,0.000000,-8956.491898,612.876398
607.163820,0.000000,-9178.553681,229.828649
607.164148,592.164754,-9474.636058,689.485948
607.164475,0.000000,-9326.594869,306.438199
607.164803,148.041188,-9104.533087,536.266849
607.165130,0.000000,-9178.553681,536.266849
607.165458,370.102971,-9326.594869,689.485948
607.165785,444.123565,-9622.677246,689.485948
607.166113,148.041188,-9326.594869,689.485948
607.166440,0.000000,-9400.615463,536.266849
607.166768,0.000000,-9252.574275,536.266849
607.167095,-296.082377,-9178.553681,536.266849
607.167423,-296.082377,-9030.512492,536.266849
607.167750,0.000000,-9474.636058,459.657299
607.168078,-222.061783,-9252.574275,612.876398
607.168405,-370.102971,-8956.491898,689.485948
607.168733,-222.061783,-8956.491898,306.438199
607.169060,-74.020594,-8882.471304,766.095498
607.169388,-296.082377,-9178.553681,536.266849
607.169715,-370.102971,-9178.553681,689.485948
607.170043,0.000000,-9400.615463,689.485948
607.170371,-296.082377,-9696.697840,842.705048
607.170698,-296.082377,-9474.636058,842.705048
607.171026,-444.123565,-9400.615463,842.705048
607.171353,-444.123565,-9622.677246,919.314598
607.171681,-296.082377,-9400.615463,919.314598
607.172008,-222.061783,-9252.574275,842.705048
607.172336,-518.144159,-9104.533087,612.876398
607.172663,-222.061783,-8586.388927,766.095498
607.172991,-148.041188,-9104.533087,689.485948
607.173318,-444.123565,-9030.512492,842.705048
607.173646,-666.185348,-9178.553681,536.266849
607.173973,-592.164754,-9178.553681,612.876398
607.174301,-222.061783,-8882.471304,689.485948
607.174628,-518.144159,-9178.553681,459.657299
607.174956,-444.123565,-9178.553681,766.095498
607.175284,-592.164754,-9178.553681,612.876398
607.175611,-666.185348,-9178.553681,536.266849
607.175939,-370.102971,-9104.533087,229.828649
607.176266,0.000000,-8808.450710,153.219100
607.176594,0.000000,-8956.491898,383.047749
607.176921,-148.041188,-8808.450710,383.047749
607.177249,-296.082377,-8734.430116,536.266849
607.177576,-148.041188,-9030.512492,1149.143247
607.177904,0.000000,-9400.615463,383.047749
607.178231,0.000000,-9104.533087,383.047749
607.178559,-222.061783,-8956.491898,306.438199
607.178886,-370.102971,-9104.533087,536.266849
607.179214,-222.061783,-9326.594869,612.876398
607.179542,-666.185348,-8956.491898,612.876398
607.179869,-518.144159,-8882.471304,536.266849
607.180197,-518.144159,-8808.450710,459.657299
607.180524,-148.041188,-8734.430116,612.876398
607.180852,0.000000,-8586.388927,459.657299
607.181179,-148.041188,-8216.285956,536.266849
607.181507,-370.102971,-8808.450710,536.266849
607.181834,-518.144159,-8734.430116,306.438199
607.182162,-518.144159,-8882.471304,306.438199
607.182489,-592.164754,-8808.450710,459.657299
607.182817,-518.144159,-9104.533087,1302.362347
607.183144,-518.144159,-9030.512492,612.876398
607.183472,-444.123565,-9104.533087,383.047749
607.183799,-592.164754,-9178.553681,536.266849
607.184127,-370.102971,-9104.533087,459.657299
607.184455,-222.061783,-9104.533087,689.485948
607.184782,-296.082377,-9400.615463,229.828649
607.185110,-296.082377,-9030.512492,612.876398
607.185437,74.020594,-9030.512492,459.657299
607.185765,148.041188,-9030.512492,306.438199
607.186092,0.000000,-8882.471304,536.266849
607.186420,0.000000,-9030.512492,612.876398
607.186747,0.000000,-9400.615463,842.705048
607.187075,-222.061783,-9400.615463,536.266849
607.187402,-518.144159,-9474.636058,842.705048
607.187730,-296.082377,-9400.615463,842.705048
607.188057,148.041188,-8882.471304,689.485948
607.188385,-296.082377,-9178.553681,459.657299
607.188713,0.000000,-8956.491898,766.095498
607.189040,-222.061783,-8882.471304,766.095498
607.189368,-370.102971,-9104.533087,383.047749
607.189695,-296.082377,-9252.574275,689.485948
607.190023,-592.164754,-9030.512492,1072.533697
607.190350,-740.205942,-9474.636058,995.924147
607.190678,-814.226536,-9548.656652,842.705048
607.191005,-888.247130,-9770.718434,842.705048
607.191333,-888.247130,-9696.697840,842.705048
607.191660,-592.164754,-9622.677246,612.876398
607.191988,-444.123565,-9474.636058,689.485948
607.192315,-518.144159,-9326.594869,766.095498
607.192643,-222.061783,-9178.553681,689.485948
607.192971,-296.082377,-9178.553681,766.095498
607.193298,148.041188,-9030.512492,1149.143247
607.193626,0.000000,-9400.615463,536.266849
607.193953,-148.041188,-9474.636058,536.266849
607.194281,-222.061783,-9400.615463,689.485948
607.194608,-370.102971,-9400.615463,383.047749
607.194936,-222.061783,-9252.574275,459.657299
607.195263,0.000000,-8956.491898,919.314598
607.195591,0.000000,-9104.533087,842.705048
607.195918,0.000000,-9104.533087,689.485948
607.196246,0.000000,-9178.553681,612.876398
607.196573,-222.061783,-9030.512492,229.828649
607.196901,0.000000,-9030.512492,536.266849
607.197229,0.000000,-9030.512492,383.047749
607.197556,-222.061783,-9030.512492,459.657299
607.197884,0.000000,-9178.553681,459.657299
607.198211,0.000000,-8956.491898,383.047749
607.198539,74.020594,-8734.430116,919.314598
607.198866,0.000000,-9030.512492,459.657299
607.199194,-296.082377,-8882.471304,536.266849
607.199521,-370.102971,-9252.574275,536.266849
607.199849,-370.102971,-9030.512492,536.266849
607.200176,-148.041188,-9030.512492,842.705048
607.200504,-444.123565,-9030.512492,689.485948
607.200831,-444.123565,-8734.430116,536.266849
607.201159,-370.102971,-8734.430116,306.438199
607.201487,-370.102971,-8586.388927,536.266849
607.201814,148.041188,-8734.430116,-229.828649
607.202142,-222.061783,-8216.285956,383.047749
607.202469,0.000000,-8660.409521,306.438199
607.202797,-148.041188,-8734.430116,536.266849
607.203124,-370.102971,-9104.533087,536.266849
607.203452,-296.082377,-8734.430116,1149.143247
607.203779,0.000000,-8956.491898,612.876398
607.204107,0.000000,-9178.553681,766.095498
607.204434,-296.082377,-8882.471304,612.876398
607.204762,0.000000,-9030.512492,459.657299
607.205089,-296.082377,-9030.512492,689.485948
607.205417,-148.041188,-8956.491898,229.828649
607.205745,-518.144159,-8882.471304,612.876398
607.206072,-148.041188,-9104.533087,459.657299
607.206400,-222.061783,-9400.615463,383.047749
607.206727,-148.041188,-9400.615463,459.657299
607.207055,0.000000,-9548.656652,0.000000
607.207382,-296.082377,-8956.491898,766.095498
607.207710,-148.041188,-9400.615463,459.657299
607.208037,-222.061783,-9326.594869,383.047749
607.208365,-148.041188,-9400.615463,536.266849
607.208692,0.000000,-8956.491898,612.876398
607.209020,0.000000,-8882.471304,1149.143247
607.209347,-296.082377,-9104.533087,306.438199
607.209675,-296.082377,-9030.512492,459.657299
607.210003,-444.123565,-8956.491898,306.438199
607.210330,-296.082377,-8660.409521,229.828649
607.210658,-518.144159,-8882.471304,995.924147
607.210985,-740.205942,-8956.491898,612.876398
607.211313,-370.102971,-8956.491898,689.485948
607.211640,-592.164754,-9104.533087,536.266849
607.211968,-296.082377,-9178.553681,842.705048
607.212295,0.000000,-9030.512492,459.657299
607.212623,-222.061783,-9104.533087,995.924147
607.212950,-518.144159,-9474.636058,689.485948
607.213278,-444.123565,-9326.594869,612.876398
607.213605,-370.102971,-9400.615463,689.485948
607.213933,0.000000,-8660.409521,842.705048
607.214261,-370.102971,-9030.512492,612.876398
607.214588,-518.144159,-9178.553681,919.314598
607.214916,-370.102971,-9252.574275,689.485948
607.215243,-518.144159,-9178.553681,919.314598
607.215571,-296.082377,-8956.491898,995.924147
607.215898,-444.123565,-8808.450710,842.705048
607.216226,-444.123565,-9252.574275,383.047749
607.216553,-222.061783,-9326.594869,612.876398
607.216881,-148.041188,-9400.615463,766.095498
607.217208,-148.041188,-9474.636058,995.924147
607.217536,0.000000,-9326.594869,842.705048
607.217863,0.000000,-9252.574275,536.266849
607.218191,0.000000,-9030.512492,383.047749
607.218519,148.041188,-8956.491898,536.266849
607.218846,148.041188,-8882.471304,459.657299
607.219174,74.020594,-9178.553681,153.219100
607.219501,0.000000,-9326.594869,0.000000
607.219829,-296.082377,-9326.594869,229.828649
607.220156,-370.102971,-9252.574275,459.657299
607.220484,-222.061783,-9030.512492,383.047749
607.220811,0.000000,-9622.677246,229.828649
607.221139,-296.082377,-8882.471304,383.047749
607.221466,0.000000,-9178.553681,459.657299
607.221794,0.000000,-8956.491898,229.828649
607.222121,0.000000,-9104.533087,459.657299
607.222449,-222.061783,-9104.533087,383.047749
607.222777,-444.123565,-9252.574275,919.314598
607.223104,0.000000,-9400.615463,536.266849
607.223432,0.000000,-9400.615463,536.266849
607.223759,0.000000,-9400.615463,536.266849
607.224087,0.000000,-9770.718434,919.314598
607.224414,-592.164754,-9252.574275,1072.533697
607.224742,-444.123565,-9104.533087,459.657299
607.225069,-444.123565,-9178.553681,612.876398
607.225397,0.000000,-8808.450710,459.657299
607.225724,-222.061783,-8808.450710,383.047749
607.226052,-222.061783,-8364.327145,459.657299
607.226379,-148.041188,-8808.450710,459.657299
607.226707,0.000000,-8956.491898,612.876398
607.227034,0.000000,-8956.491898,383.047749
607.227362,-222.061783,-8956.491898,306.438199
607.227690,0.000000,-9030.512492,766.095498
607.228017,-296.082377,-9104.533087,306.438199
607.228345,-370.102971,-9178.553681,459.657299
607.228672,-370.102971,-9178.553681,383.047749
607.229000,-296.082377,-9252.574275,689.485948
607.229327,0.000000,-8956.491898,459.657299
607.229655,0.000000,-9252.574275,1072.533697
607.229982,0.000000,-9104.533087,536.266849
607.230310,-222.061783,-9104.533087,612.876398
607.230637,-222.061783,-9178.553681,766.095498
607.230965,-296.082377,-9252.574275,536.266849
607.231292,0.000000,-8882.471304,995.924147
607.231620,-296.082377,-9178.553681,612.876398
607.231948,-296.082377,-9400.615463,612.876398
607.232275,-444.123565,-9326.594869,689.485948
607.232603,-444.123565,-9400.615463,919.314598
607.232930,-740.205942,-8660.409521,1149.143247
607.233258,-370.102971,-8808.450710,995.924147
607.233585,-518.144159,-8956.491898,612.876398
607.233913,-666.185348,-8956.491898,536.266849
607.234240,-740.205942,-8660.409521,536.266849
607.234568,0.000000,-8290.306550,842.705048
607.234895,-666.185348,-8734.430116,842.705048
607.235223,-592.164754,-8956.491898,689.485948
607.235550,-814.226536,-8956.491898,766.095498
607.235878,-740.205942,-9252.574275,842.705048
607.236206,-518.144159,-8882.471304,766.095498
607.236533,-518.144159,-9326.594869,842.705048
607.236861,-592.164754,-9474.636058,612.876398
607.237188,-296.082377,-9400.615463,612.876398
607.237516,0.000000,-9252.574275,536.266849
607.237843,0.000000,-9178.553681,689.485948
607.238171,0.000000,-9252.574275,459.657299
607.238498,148.041188,-9178.553681,689.485948
607.238826,0.000000,-9252.574275,383.047749
607.239153,0.000000,-9252.574275,229.828649
607.239481,-222.061783,-9030.512492,459.657299
607.239808,370.102971,-9474.636058,689.485948
607.240136,0.000000,-9326.594869,612.876398
607.240464,0.000000,-9178.553681,459.657299
607.240791,74.020594,-9252.574275,383.047749
607.241119,0.000000,-9104.533087,153.219100
607.241446,74.020594,-8734.430116,306.438199
607.241774,0.000000,-8808.450710,-306.438199
607.242101,-518.144159,-9178.553681,153.219100
607.242429,-296.082377,-9252.574275,229.828649
607.242756,0.000000,-9104.533087,383.047749
607.243084,148.041188,-8660.409521,306.438199
607.243411,148.041188,-8734.430116,229.828649
607.243739,0.000000,-8734.430116,229.828649
607.244066,0.000000,-8734.430116,306.438199
607.244394,-296.082377,-9252.574275,383.047749
607.244722,-518.144159,-9326.594869,459.657299
607.245049,-222.061783,-9622.677246,383.047749
607.245377,-518.144159,-9326.594869,919.314598
607.245704,0.000000,-9400.615463,842.705048
607.246032,74.020594,-9178.553681,766.095498
607.246359,0.000000,-8956.491898,459.657299
607.246687,0.000000,-8956.491898,306.438199
607.247014,0.000000,-8660.409521,919.314598
607.247342,-444.123565,-8956.491898,612.876398
607.247669,-592.164754,-8882.471304,612.876398
607.247997,-666.185348,-9178.553681,766.095498
607.248324,-814.226536,-8956.491898,995.924147
607.248652,-592.164754,-9178.553681,1149.143247
607.248980,-666.185348,-9178.553681,689.485948
607.249307,-148.041188,-9030.512492,612.876398
607.249635,0.000000,-8956.491898,383.047749
607.249962,0.000000,-8956.491898,689.485948
607.250290,0.000000,-9326.594869,1149.143247
607.250617,-296.082377,-9326.594869,612.876398
607.250945,-148.041188,-9474.636058,766.095498
607.251272,-370.102971,-9548.656652,842.705048
607.251600,0.000000,-9696.697840,612.876398
607.251927,0.000000,-9104.533087,612.876398
607.252255,0.000000,-9178.553681,459.657299
607.252582,0.000000,-9178.553681,612.876398
607.252910,0.000000,-9252.574275,612.876398
607.253238,-148.041188,-8956.491898,536.266849
607.253565,222.061783,-8956.491898,689.485948
607.253893,-444.123565,-9326.594869,536.266849
607.254220,-444.123565,-9474.636058,689.485948
607.254548,-444.123565,-9548.656652,612.876398
607.254875,-518.144159,-9252.574275,766.095498
607.255203,370.102971,-8734.430116,1225.752797
607.255530,740.205942,-8882.471304,995.924147
607.255858,962.267725,-8512.368333,1378.971896
607.256185,962.267725,-8808.450710,1762.019645
607.256513,592.164754,-9326.594869,1762.019645
607.256840,148.041188,-9622.677246,2145.067394
607.257168,0.000000,-9474.636058,1915.238745
607.257496,-148.041188,-9326.594869,2145.067394
607.257823,0.000000,-9326.594869,2068.457845
607.258151,0.000000,-9326.594869,2145.067394
607.258478,-148.041188,-8956.491898,2298.286494
607.258806,0.000000,-8660.409521,1991.848295
607.259133,-148.041188,-8216.285956,2374.896044
607.259461,0.000000,-8734.430116,2451.505594
607.259788,-296.082377,-8808.450710,2374.896044
607.260116,-370.102971,-9178.553681,2451.505594
607.260443,-370.102971,-8660.409521,2528.115143
607.260771,-370.102971,-8956.491898,2681.334243
607.261098,-592.164754,-9030.512492,2757.943793
607.261426,-592.164754,-9030.512492,2911.162892
607.261754,-814.226536,-9030.512492,2834.553343
607.262081,-666.185348,-8660.409521,3140.991542
607.262409,-888.247130,-8808.450710,3064.381992
607.262736,-814.226536,-9326.594869,3064.381992
607.263064,-666.185348,-9104.533087,2987.772442
607.263391,-666.185348,-8882.471304,3140.991542
607.263719,-518.144159,-8882.471304,3830.477490
607.264046,-296.082377,-9474.636058,3064.381992
607.264374,-444.123565,-8956.491898,2911.162892
607.264701,-296.082377,-8734.430116,2987.772442
607.265029,0.000000,-8734.430116,2987.772442
607.265356,0.000000,-9104.533087,3064.381992
607.265684,0.000000,-9104.533087,3064.381992
607.266012,0.000000,-9326.594869,3370.820191
607.266339,0.000000,-9252.574275,3447.429741
607.266667,296.082377,-9104.533087,3600.648841
607.266994,814.226536,-9104.533087,3753.867940
607.267322,888.247130,-8734.430116,4519.963438
607.267649,1406.391290,-9252.574275,4060.306139
607.267977,1110.308913,-9030.512492,4596.572988
607.268304,888.247130,-9252.574275,4749.792088
607.268632,962.267725,-9400.615463,4979.620737
607.268959,962.267725,-9252.574275,4903.011187
607.269287,814.226536,-9548.656652,5132.839837
607.269614,0.000000,-9548.656652,4979.620737
607.269942,-296.082377,-9696.697840,4673.182538
607.270270,-962.267725,-9622.677246,4519.963438
607.270597,-1258.350101,-9252.574275,3907.087040
607.270925,-1924.535449,-9252.574275,3983.696590
607.271252,-2146.597232,-9326.594869,3524.039291
607.271580,-2738.761985,-9178.553681,3217.601092
607.271907,-2516.700203,-8734.430116,3294.210641
607.272235,-1998.556043,-8290.306550,3524.039291
607.272562,-888.247130,-7772.162391,4290.134789
607.272890,222.061783,-7624.121203,4290.134789
607.273217,1332.370696,-7772.162391,5056.230287
607.273545,2072.576638,-7846.182985,6205.373534
607.273872,2072.576638,-8734.430116,6741.640382
607.274200,1406.391290,-9400.615463,5898.935335
607.274527,592.164754,-10584.944971,6205.373534
607.274855,-1480.411884,-11177.109724,5822.325785
607.275182,-2368.659014,-11473.192101,4979.620737
607.275510,-2960.823768,-10807.006753,4290.134789
607.275837,-2146.597232,-10066.800811,3907.087040
607.276164,-222.061783,-8290.306550,4060.306139
607.276492,1406.391290,-7698.141797,4290.134789
607.276819,3034.844362,-7105.977043,4903.011187
607.277147,3034.844362,-7254.018232,4826.401637
607.277474,1702.473667,-7994.224174,5132.839837
607.277802,-1036.288319,-9622.677246,3677.258390
607.278129,-6365.771101,-11991.336260,1608.800546
607.278457,-11547.212695,-13619.789333,-995.924147
607.278784,-14137.933492,-13323.706956,-3064.381992
607.279112,-12287.418637,-10584.944971,-3983.696590
607.279439,-7328.038826,-7402.059420,-3677.258390
607.279767,1776.494261,-4515.256246,-1302.362347
607.280094,5995.668130,-2886.803174,0.000000
607.280421,11843.295072,-2812.782580,2298.286494
607.280749,10362.883188,-3775.050304,2681.334243
607.281076,9548.656652,-5625.565159,3677.258390
607.281404,5329.482782,-10140.821405,3064.381992
607.281731,1406.391290,-13323.706956,3294.210641
607.282059,0.000000,-14656.077652,3677.258390
607.282386,2072.576638,-14137.933492,5515.887586
607.282714,5551.544565,-11843.295072,7048.078582
607.283041,10288.862594,-10066.800811,8733.488677
607.283369,12805.562797,-9400.615463,9499.584175
607.283696,10066.800811,-9104.533087,8733.488677
607.284023,7254.018232,-9844.739029,6818.249932
607.284351,74.020594,-11695.253884,4290.134789
607.284678,-4441.235652,-10214.842000,3370.820191
607.285006,-6217.729913,-10584.944971,2681.334243
607.285333,-3627.009116,-8512.368333,4903.011187
607.285661,-2220.617826,-7105.977043,6281.983084
607.285988,-2368.659014,-6439.791695,8120.612279
607.286316,-3404.947333,-6661.853478,9269.755526
607.286643,-7698.141797,-7254.018232,6511.811733
607.286971,-8734.430116,-8216.285956,6052.154434
607.287298,-9622.677246,-7994.224174,4826.401637
607.287626,-10214.842000,-8290.306550,4903.011187
607.287953,-9844.739029,-7920.203579,5056.230287
607.288280,-8882.471304,-7772.162391,5515.887586
607.288608,-7179.997637,-6143.709319,5592.497135
607.288935,-1110.308913,-3478.967927,7354.516781
607.289263,5329.482782,-2442.679609,9422.974625
607.289590,8216.285956,-3627.009116,10035.851024
607.289918,4515.256246,-8808.450710,9576.193725
607.290245,-3256.906145,-15470.304188,6818.249932
607.290573,-11399.171507,-16802.674883,1991.848295
607.290900,-14063.912898,-17098.757260,-1225.752797
607.291228,-9770.718434,-16284.530724,-1608.800546
607.291555,-4145.153275,-13323.706956,-1302.362347
607.291883,2146.597232,-11251.130318,229.828649
607.292210,3330.926739,-8956.491898,229.828649
607.292537,2590.720797,-6291.750507,-1838.629195
607.292865,2886.803174,-6661.853478,-2528.115143
607.293192,5847.626942,-5773.606348,-4519.963438
607.293520,2516.700203,-8068.244768,-4213.525239
607.293847,5181.441594,-9696.697840,-2681.334243
607.294175,4515.256246,-9548.656652,306.438199
607.294502,6513.812290,-8512.368333,2451.505594
607.294830,11251.130318,-9104.533087,6052.154434
607.295157,10584.944971,-9474.636058,6281.983084
607.295485,5773.606348,-11843.295072,3677.258390
607.295812,3404.947333,-15248.242405,2987.772442
607.296139,1110.308913,-13767.830521,1225.752797
607.296467,2368.659014,-10955.047942,2068.457845
607.296794,7476.080014,-8956.491898,3064.381992
607.297122,8142.265362,-8068.244768,3064.381992
607.297449,5847.626942,-8882.471304,2757.943793
607.297777,1702.473667,-7846.182985,2451.505594
607.298104,-4885.359217,-6587.832884,842.705048
607.298432,-7920.203579,-7031.956449,-536.266849
607.298759,-7994.224174,-10066.800811,-766.095498
607.299087,-8438.347739,-11103.089130,-612.876398
607.299414,-5921.647536,-9844.739029,1225.752797
607.299742,-3256.906145,-7624.121203,4749.792088
607.300069,-1628.453072,-6291.750507,5898.935335
607.300396,-2294.638420,-7105.977043,7277.907231
607.300724,-2516.700203,-7624.121203,6818.249932
607.301051,-3849.070898,-6735.874072,5669.106685
607.301379,-4885.359217,-6439.791695,5209.449386
607.301706,-5921.647536,-7031.956449,6205.373534
607.302034,-3849.070898,-7476.080014,6435.202183
607.302361,-666.185348,-7328.038826,7507.735880
607.302689,4885.359217,-6513.812290,8656.879127
607.303016,5477.523971,-6439.791695,8197.221829
607.303344,4589.276840,-9104.533087,7584.345430
607.303671,1850.514855,-10658.965565,6358.592633
607.303998,-2220.617826,-11177.109724,4596.572988
607.304326,-4293.194464,-11991.336260,2681.334243
607.304653,-5551.544565,-13397.727550,3064.381992
607.304981,-3108.864956,-12213.398043,2987.772442
607.305308,-592.164754,-11325.150913,4749.792088
607.305636,666.185348,-8808.450710,4903.011187
607.305963,1184.329507,-8660.409521,4519.963438
607.306291,1702.473667,-8364.327145,3983.696590
607.306618,888.247130,-7698.141797,2757.943793
607.306946,-592.164754,-7698.141797,3447.429741
607.307273,-3627.009116,-8364.327145,2528.115143
607.307601,-4145.153275,-9252.574275,2834.553343
607.307928,-1702.473667,-8660.409521,3907.087040
607.308255,370.102971,-8586.388927,4673.182538
607.308583,1332.370696,-9474.636058,4673.182538
607.308910,962.267725,-9252.574275,4136.915689
607.309238,-1110.308913,-10288.862594,2604.724693
607.309565,-2590.720797,-11621.233289,1225.752797
607.309893,-3775.050304,-11177.109724,0.000000
607.310220,0.000000,-9252.574275,459.657299
607.310548,3997.112087,-7328.038826,1762.019645
607.310875,5921.647536,-8216.285956,4136.915689
607.311203,7105.977043,-9622.677246,6281.983084
607.311530,4885.359217,-10362.883188,6588.421283
607.311857,2516.700203,-11695.253884,5592.497135
607.312185,-1554.432478,-13693.809927,3753.867940
607.312512,-3478.967927,-14804.118840,3447.429741
607.312840,-2812.782580,-13841.851115,3447.429741
607.313167,-888.247130,-11547.212695,3753.867940
607.313495,370.102971,-10288.862594,4826.401637
607.313822,518.144159,-8956.491898,5209.449386
607.314150,-814.226536,-7846.182985,4136.915689
607.314477,-3701.029710,-7105.977043,1532.190996
607.314805,-4515.256246,-6365.771101,-536.266849
607.315132,-3404.947333,-5403.503377,-995.924147
607.315460,-148.041188,-4885.359217,-383.047749
607.315787,2368.659014,-5181.441594,1302.362347
607.316114,3330.926739,-5329.482782,3294.210641
607.316442,1702.473667,-6439.791695,3753.867940
607.316769,-666.185348,-8216.285956,3677.258390
607.317097,-2590.720797,-9918.759623,3064.381992
607.317424,-3404.947333,-10140.821405,2528.115143
607.317752,-2368.659014,-10140.821405,1991.848295
607.318079,-1332.370696,-10362.883188,1991.848295
607.318407,0.000000,-9918.759623,2451.505594
607.318734,444.123565,-9178.553681,2068.457845
607.319062,1406.391290,-8290.306550,1991.848295
607.319389,2072.576638,-7550.100608,1378.971896
607.319717,2442.679609,-7772.162391,689.485948
607.320044,1332.370696,-7698.141797,-153.219100
607.320371,2294.638420,-8882.471304,995.924147
607.320699,1702.473667,-8660.409521,1225.752797
607.321026,592.164754,-8290.306550,1608.800546
607.321354,518.144159,-9030.512492,1915.238745
607.321681,1110.308913,-9104.533087,3064.381992
607.322009,370.102971,-8512.368333,2528.115143
607.322336,-1406.391290,-9326.594869,2604.724693
607.322664,-2294.638420,-9548.656652,1072.533697
607.322991,-4441.235652,-8882.471304,153.219100
607.323319,-5107.421000,-8512.368333,-612.876398
607.323646,-2220.617826,-6365.771101,-689.485948
607.323973,1554.432478,-4885.359217,459.657299
607.324301,4737.318029,-4367.215058,1915.238745
607.324628,6513.812290,-5995.668130,2987.772442
607.324956,5033.400406,-7994.224174,3600.648841
607.325283,3108.864956,-9104.533087,3447.429741
607.325611,888.247130,-11029.068536,3447.429741
607.325938,-1258.350101,-12805.562797,3064.381992
607.326266,-3923.091493,-14063.912898,3140.991542
607.326593,-4367.215058,-15100.201217,3294.210641
607.326921,-6217.729913,-13767.830521,2145.067394
607.327248,-7031.956449,-12139.377449,919.314598
607.327576,-5625.565159,-10881.027347,153.219100
607.327903,-4367.215058,-8512.368333,-1225.752797
607.328230,-2072.576638,-6735.874072,-1302.362347
607.328558,814.226536,-5699.585753,-612.876398
607.328885,1554.432478,-5699.585753,306.438199
607.329213,1776.494261,-5699.585753,536.266849
607.329540,1850.514855,-7476.080014,76.609550
607.329868,1110.308913,-9770.718434,842.705048
607.330195,-370.102971,-10140.821405,1072.533697
607.330523,-1628.453072,-11621.233289,1378.971896
607.330850,-2516.700203,-13249.686362,1378.971896
607.331178,-2960.823768,-13693.809927,459.657299
607.331505,-1702.473667,-12213.398043,536.266849
607.331832,1406.391290,-10066.800811,0.000000
607.332160,3627.009116,-8586.388927,0.000000
607.332487,6143.709319,-7179.997637,689.485948
607.332815,5329.482782,-6661.853478,766.095498
607.333142,4663.297435,-7772.162391,1149.143247
607.333470,2590.720797,-7698.141797,153.219100
607.333797,2220.617826,-9104.533087,612.876398
607.334125,1036.288319,-9770.718434,689.485948
607.334452,962.267725,-9918.759623,1378.971896
607.334780,0.000000,-11843.295072,2068.457845
607.335107,-3182.885551,-12509.480420,1149.143247
607.335435,-4071.132681,-12509.480420,1072.533697
607.335762,-4367.215058,-10584.944971,229.828649
607.336089,-2664.741391,-8808.450710,0.000000
607.336417,-2368.659014,-7105.977043,-153.219100
607.336744,-1258.350101,-6217.729913,-459.657299
607.337072,-1924.535449,-5995.668130,-689.485948
607.337399,-1924.535449,-4737.318029,-842.705048
607.337727,-1184.329507,-4663.297435,-766.095498
607.338054,-1554.432478,-5625.565159,-1072.533697
607.338382,-518.144159,-6069.688724,-383.047749
607.338709,-1554.432478,-7698.141797,-689.485948
607.339037,-2442.679609,-9844.739029,0.000000
607.339364,-3034.844362,-9918.759623,-459.657299
607.339692,-1850.514855,-9474.636058,-306.438199
607.340019,296.082377,-10584.944971,612.876398
607.340346,1776.494261,-9548.656652,1072.533697
607.340674,3701.029710,-9178.553681,2145.067394
607.341001,2516.700203,-9400.615463,1532.190996
607.341329,1776.494261,-8734.430116,1225.752797
607.341656,2368.659014,-8512.368333,229.828649
607.341984,2738.761985,-8364.327145,383.047749
607.342311,2516.700203,-7994.224174,153.219100
607.342639,2886.803174,-8956.491898,1378.971896
607.342966,2146.597232,-8808.450710,1378.971896
607.343294,-222.061783,-9400.615463,1378.971896
607.343621,666.185348,-9474.636058,689.485948
607.343948,222.061783,-10066.800811,536.266849
607.344276,222.061783,-10214.842000,766.095498
607.344603,0.000000,-10140.821405,1302.362347
607.344931,-962.267725,-11103.089130,2604.724693
607.345258,-2220.617826,-10584.944971,1685.410096
607.345586,-2146.597232,-9770.718434,842.705048
607.345913,-1406.391290,-8956.491898,689.485948
