#time,accel_x,accel_y,accel_z
334.237027,-222.061783,-9252.574275,383.047749
334.237354,-148.041188,-9326.594869,459.657299
334.237682,-148.041188,-9252.574275,229.828649
334.238009,-222.061783,-9178.553681,536.266849
334.238337,-148.041188,-8808.450710,612.876398
334.238664,-370.102971,-9326.594869,842.705048
334.238992,-370.102971,-9178.553681,459.657299
334.239319,-148.041188,-8956.491898,536.266849
334.239647,-296.082377,-9104.533087,306.438199
334.239974,-370.102971,-9178.553681,536.266849
334.240302,-222.061783,-9178.553681,612.876398
334.240629,0.000000,-9252.574275,383.047749
334.240957,-222.061783,-9030.512492,306.438199
334.241284,-296.082377,-9178.553681,383.047749
334.241612,-296.082377,-9178.553681,536.266849
334.241939,148.041188,-8956.491898,536.266849
334.242267,0.000000,-9252.574275,612.876398
334.242594,-222.061783,-9030.512492,612.876398
334.242922,-222.061783,-9178.553681,536.266849
334.243249,-296.082377,-9252.574275,612.876398
334.243577,0.000000,-8956.491898,1072.533697
334.243905,-148.041188,-9030.512492,459.657299
334.244232,-148.041188,-9178.553681,459.657299
334.244560,0.000000,-9178.553681,306.438199
334.244887,-296.082377,-9252.574275,689.485948
334.245215,-296.082377,-8956.491898,383.047749
334.245542,-370.102971,-8882.471304,995.924147
334.245870,-222.061783,-8956.491898,536.266849
334.246197,-444.123565,-9030.512492,612.876398
334.246525,-296.082377,-9252.574275,536.266849
334.246852,-962.267725,-9178.553681,383.047749
334.247180,-1110.308913,-9474.636058,-153.219100
334.247507,-1628.453072,-9400.615463,-153.219100
334.247835,-1480.411884,-9252.574275,-383.047749
334.248162,-814.226536,-8956.491898,-383.047749
334.248490,-592.164754,-8882.471304,-536.266849
334.248817,-518.144159,-8808.450710,-459.657299
334.249145,-888.247130,-9326.594869,-536.266849
334.249472,-1258.350101,-9252.574275,-1225.752797
334.249800,-1258.350101,-9178.553681,-1532.190996
334.250127,-888.247130,-9030.512492,-1378.971896
334.250455,-296.082377,-9030.512492,-1149.143247
334.250782,-148.041188,-8734.430116,-1378.971896
334.251110,0.000000,-9104.533087,-1225.752797
334.251438,0.000000,-9178.553681,-1302.362347
334.251765,0.000000,-9178.553681,-1532.190996
334.252093,0.000000,-9030.512492,-2068.457845
334.252420,0.000000,-9104.533087,-1608.800546
334.252748,222.061783,-9252.574275,-1685.410096
334.253075,222.061783,-9326.594869,-1762.019645
334.253403,74.020594,-9252.574275,-1915.238745
334.253730,222.061783,-9474.636058,-1762.019645
334.254058,592.164754,-9400.615463,-2221.676944
334.254385,740.205942,-9474.636058,-1915.238745
334.254713,222.061783,-9400.615463,-1991.848295
334.255040,148.041188,-9400.615463,-1685.410096
334.255368,222.061783,-9400.615463,-2145.067394
334.255695,370.102971,-9548.656652,-2451.505594
334.256023,-148.041188,-9252.574275,-1608.800546
334.256350,-148.041188,-9252.574275,-1838.629195
334.256678,0.000000,-9252.574275,-1915.238745
334.257005,-444.123565,-9104.533087,-1762.019645
334.257333,-1036.288319,-8808.450710,-1225.752797
334.257660,-962.267725,-8956.491898,-1532.190996
334.257988,-1184.329507,-9104.533087,-1991.848295
334.258316,-1110.308913,-9030.512492,-2145.067394
334.258643,-1406.391290,-9178.553681,-2374.896044
334.258971,-1258.350101,-8882.471304,-2145.067394
334.259298,-1332.370696,-8734.430116,-2451.505594
334.259626,-1332.370696,-8956.491898,-2757.943793
334.259953,-1184.329507,-8956.491898,-2604.724693
334.260281,-1258.350101,-8956.491898,-2681.334243
334.260608,-1110.308913,-8808.450710,-2681.334243
334.260936,-814.226536,-8956.491898,-2145.067394
334.261263,-740.205942,-8956.491898,-2451.505594
334.261591,-518.144159,-9104.533087,-2221.676944
334.261918,0.000000,-8882.471304,-2145.067394
334.262246,518.144159,-8882.471304,-1608.800546
334.262573,1554.432478,-8808.450710,-1149.143247
334.262901,1702.473667,-8660.409521,-536.266849
334.263228,2072.576638,-8808.450710,-383.047749
334.263556,2220.617826,-9326.594869,0.000000
334.263883,1480.411884,-9252.574275,0.000000
334.264211,740.205942,-9474.636058,-153.219100
334.264538,444.123565,-9696.697840,-306.438199
334.264866,0.000000,-9696.697840,-766.095498
334.265194,-518.144159,-9844.739029,-919.314598
334.265521,-888.247130,-9474.636058,-1378.971896
334.265849,-962.267725,-9474.636058,-1378.971896
334.266176,-814.226536,-8882.471304,-1455.581446
334.266504,-1406.391290,-8734.430116,-1915.238745
334.266831,-888.247130,-8364.327145,-1762.019645
334.267159,-592.164754,-8068.244768,-1225.752797
334.267486,222.061783,-8068.244768,-766.095498
334.267814,666.185348,-7920.203579,0.000000
334.268141,1036.288319,-7994.224174,995.924147
334.268469,814.226536,-8364.327145,1455.581446
334.268796,444.123565,-9104.533087,1762.019645
334.269124,0.000000,-9622.677246,1838.629195
334.269451,-1110.308913,-9474.636058,1838.629195
334.269779,-1184.329507,-10140.821405,1532.190996
334.270106,-1184.329507,-10066.800811,1685.410096
334.270434,-962.267725,-9548.656652,1225.752797
334.270761,-370.102971,-9252.574275,1072.533697
334.271089,222.061783,-8660.409521,766.095498
334.271416,74.020594,-8290.306550,306.438199
334.271744,0.000000,-8734.430116,306.438199
334.272071,-666.185348,-8660.409521,229.828649
334.272399,-740.205942,-8882.471304,383.047749
334.272727,-740.205942,-9252.574275,842.705048
334.273054,-1110.308913,-8956.491898,1455.581446
334.273382,-666.185348,-9548.656652,1762.019645
334.273709,-1258.350101,-9696.697840,1991.848295
334.274037,-1702.473667,-9992.780217,1838.629195
334.274364,-2664.741391,-9844.739029,1149.143247
334.274692,-2812.782580,-9696.697840,306.438199
334.275019,-3034.844362,-9326.594869,153.219100
334.275347,-2368.659014,-8734.430116,-229.828649
334.275674,-1110.308913,-8068.244768,-306.438199
334.276002,222.061783,-7550.100608,76.609550
334.276329,1406.391290,-6809.894666,306.438199
334.276657,1850.514855,-7550.100608,-153.219100
334.276984,1628.453072,-8216.285956,76.609550
334.277312,1332.370696,-8956.491898,612.876398
334.277639,1332.370696,-9474.636058,612.876398
334.277967,1406.391290,-10066.800811,1455.581446
334.278294,1702.473667,-10510.924376,1915.238745
334.278622,1258.350101,-10807.006753,1915.238745
334.278949,592.164754,-11251.130318,1838.629195
334.279277,-592.164754,-11029.068536,1149.143247
334.279605,-1406.391290,-10658.965565,536.266849
334.279932,-1184.329507,-9770.718434,0.000000
334.280260,-1776.494261,-9326.594869,-1149.143247
334.280587,-740.205942,-8512.368333,-1302.362347
334.280915,-296.082377,-7698.141797,-1378.971896
334.281242,370.102971,-7179.997637,-842.705048
334.281570,740.205942,-6809.894666,-1302.362347
334.281897,370.102971,-7105.977043,-536.266849
334.282225,0.000000,-7698.141797,-459.657299
334.282552,-222.061783,-8438.347739,0.000000
334.282880,-222.061783,-8882.471304,383.047749
334.283207,-370.102971,-9178.553681,842.705048
334.283535,-666.185348,-9548.656652,1685.410096
334.283862,-1036.288319,-10066.800811,919.314598
334.284190,-1406.391290,-10140.821405,766.095498
334.284517,-1628.453072,-9770.718434,229.828649
334.284845,-1110.308913,-8956.491898,-229.828649
334.285172,-666.185348,-8586.388927,-306.438199
334.285500,444.123565,-8142.265362,-842.705048
334.285827,1480.411884,-7846.182985,-306.438199
334.286155,2368.659014,-7920.203579,0.000000
334.286483,2516.700203,-8216.285956,459.657299
334.286810,2368.659014,-8068.244768,689.485948
334.287138,1702.473667,-9326.594869,1149.143247
334.287465,1184.329507,-9770.718434,1685.410096
334.287793,444.123565,-10214.842000,2068.457845
334.288120,-222.061783,-10214.842000,2298.286494
334.288448,-740.205942,-9992.780217,2451.505594
334.288775,-1776.494261,-9770.718434,2298.286494
334.289103,-2146.597232,-9400.615463,1532.190996
334.289430,-2072.576638,-8882.471304,1225.752797
334.289758,-1628.453072,-8364.327145,612.876398
334.290085,-962.267725,-7846.182985,536.266849
334.290413,-814.226536,-7105.977043,0.000000
334.290740,-518.144159,-7328.038826,0.000000
334.291068,-444.123565,-7624.121203,153.219100
334.291395,-518.144159,-8216.285956,306.438199
334.291723,-740.205942,-8956.491898,842.705048
334.292050,-592.164754,-9622.677246,689.485948
334.292378,-740.205942,-9918.759623,1378.971896
334.292705,-962.267725,-10362.883188,1838.629195
334.293033,-1628.453072,-10881.027347,1685.410096
334.293360,-2294.638420,-11103.089130,1378.971896
334.293688,-2442.679609,-10732.986159,459.657299
334.294016,-2590.720797,-9844.739029,306.438199
334.294343,-1702.473667,-9622.677246,153.219100
334.294671,-888.247130,-8734.430116,-229.828649
334.294998,444.123565,-8068.244768,0.000000
334.295326,1628.453072,-7328.038826,306.438199
334.295653,2294.638420,-7994.224174,76.609550
334.295981,2146.597232,-8216.285956,229.828649
334.296309,1924.535449,-8882.471304,383.047749
334.296636,1776.494261,-9474.636058,766.095498
334.296964,1702.473667,-9918.759623,1608.800546
334.297292,1406.391290,-10362.883188,1532.190996
334.297619,592.164754,-11103.089130,2068.457845
334.297947,0.000000,-10881.027347,1762.019645
334.298275,-1036.288319,-11029.068536,1455.581446
334.298603,-1776.494261,-10436.903782,612.876398
334.298930,-1628.453072,-9622.677246,153.219100
334.299258,-1702.473667,-9104.533087,-689.485948
334.299586,-962.267725,-8586.388927,-919.314598
334.299913,-222.061783,-8068.244768,-1225.752797
334.300241,222.061783,-7698.141797,-995.924147
334.300569,518.144159,-7179.997637,-766.095498
334.300896,444.123565,-7994.224174,-766.095498
334.301224,-518.144159,-8734.430116,-842.705048
334.301552,-296.082377,-8808.450710,-306.438199
334.301879,-444.123565,-9326.594869,229.828649
334.302207,-518.144159,-9474.636058,1149.143247
334.302535,-592.164754,-9548.656652,1072.533697
334.302862,-1258.350101,-9992.780217,1149.143247
334.303190,-1702.473667,-9770.718434,766.095498
334.303518,-1924.535449,-9326.594869,153.219100
334.303846,-1332.370696,-8512.368333,-229.828649
334.304173,-296.082377,-8290.306550,-383.047749
334.304501,444.123565,-7920.203579,-459.657299
334.304829,1480.411884,-7476.080014,-383.047749
334.305156,2368.659014,-7550.100608,229.828649
334.305484,2590.720797,-7994.224174,689.485948
334.305812,2368.659014,-8068.244768,536.266849
334.306139,2072.576638,-9326.594869,1532.190996
334.306467,1406.391290,-9844.739029,1455.581446
334.306795,666.185348,-10288.862594,2451.505594
334.307122,-148.041188,-10510.924376,2298.286494
334.307450,-962.267725,-10584.944971,3907.087040
334.307778,-1924.535449,-10510.924376,1991.848295
334.308105,-2294.638420,-9622.677246,1455.581446
334.308433,-2368.659014,-8956.491898,919.314598
334.308761,-1924.535449,-7994.224174,612.876398
334.309088,-1628.453072,-7476.080014,919.314598
334.309416,-1258.350101,-6809.894666,536.266849
334.309744,-666.185348,-6957.935855,76.609550
334.310072,-296.082377,-7105.977043,153.219100
334.310399,-666.185348,-7624.121203,306.438199
334.310727,-888.247130,-7994.224174,766.095498
334.311055,-962.267725,-8660.409521,1455.581446
334.311382,-814.226536,-9548.656652,1378.971896
334.311710,-1110.308913,-10140.821405,1685.410096
334.312038,-1628.453072,-10658.965565,1685.410096
334.312365,-2220.617826,-11029.068536,1225.752797
334.312693,-2294.638420,-10807.006753,536.266849
334.313021,-2590.720797,-10362.883188,229.828649
334.313348,-2146.597232,-9770.718434,-306.438199
334.313676,-1036.288319,-8956.491898,-383.047749
334.314004,370.102971,-8438.347739,-306.438199
334.314331,1406.391290,-7994.224174,-1225.752797
334.314659,2146.597232,-7920.203579,0.000000
334.314987,2368.659014,-8290.306550,153.219100
334.315315,2368.659014,-9030.512492,229.828649
334.315642,2220.617826,-9474.636058,919.314598
334.315970,1924.535449,-10066.800811,1378.971896
334.316298,1184.329507,-10362.883188,2145.067394
334.316625,962.267725,-10658.965565,1991.848295
334.316953,222.061783,-11029.068536,1991.848295
334.317281,-888.247130,-10436.903782,1532.190996
334.317608,-1036.288319,-10658.965565,1225.752797
334.317936,-1924.535449,-9622.677246,229.828649
334.318264,-1258.350101,-9030.512492,-766.095498
334.318591,-962.267725,-8660.409521,-1149.143247
334.318919,-370.102971,-7920.203579,-1225.752797
334.319247,74.020594,-7846.182985,-1072.533697
334.319574,592.164754,-7402.059420,-919.314598
334.319902,370.102971,-8068.244768,-766.095498
334.320230,-370.102971,-8216.285956,-536.266849
334.320558,-148.041188,-8882.471304,-229.828649
334.320885,-518.144159,-9400.615463,0.000000
334.321213,-1036.288319,-9326.594869,766.095498
334.321541,-962.267725,-9770.718434,995.924147
334.321868,-1480.411884,-10214.842000,766.095498
334.322196,-1998.556043,-9918.759623,612.876398
334.322524,-2294.638420,-9400.615463,153.219100
334.322851,-1924.535449,-8438.347739,-383.047749
334.323179,-666.185348,-8142.265362,-459.657299
334.323507,444.123565,-7550.100608,-459.657299
334.323834,1480.411884,-7105.977043,-306.438199
334.324162,2368.659014,-7105.977043,0.000000
334.324490,2886.803174,-7476.080014,842.705048
334.324817,2590.720797,-8216.285956,766.095498
334.325145,2220.617826,-8882.471304,1072.533697
334.325473,1554.432478,-9474.636058,1838.629195
334.325801,1554.432478,-9992.780217,2068.457845
334.326128,74.020594,-10584.944971,2451.505594
334.326456,-148.041188,-10807.006753,2374.896044
334.326784,-1258.350101,-10807.006753,2145.067394
334.327111,-1998.556043,-9918.759623,1608.800546
334.327439,-2220.617826,-9104.533087,766.095498
334.327767,-1924.535449,-8660.409521,536.266849
334.328094,-1184.329507,-7846.182985,-229.828649
334.328422,-666.185348,-7105.977043,76.609550
334.328750,-370.102971,-6883.915261,0.000000
334.329077,-592.164754,-7105.977043,0.000000
334.329405,-296.082377,-7550.100608,229.828649
334.329733,-740.205942,-7920.203579,612.876398
334.330060,-740.205942,-8216.285956,1302.362347
334.330388,-962.267725,-9400.615463,1225.752797
334.330716,-1480.411884,-9992.780217,1378.971896
334.331044,-1850.514855,-10436.903782,1762.019645
334.331371,-2294.638420,-11029.068536,1762.019645
334.331699,-2738.761985,-11251.130318,1302.362347
334.332027,-2738.761985,-10584.944971,766.095498
334.332354,-2146.597232,-9918.759623,229.828649
334.332682,-962.267725,-8956.491898,0.000000
334.333010,370.102971,-8512.368333,0.000000
334.333337,1184.329507,-7698.141797,383.047749
334.333665,2368.659014,-8142.265362,306.438199
334.333993,2368.659014,-8586.388927,612.876398
334.334320,1850.514855,-9178.553681,919.314598
334.334648,1702.473667,-9474.636058,1149.143247
334.334976,1924.535449,-9770.718434,1455.581446
334.335303,962.267725,-10510.924376,1685.410096
334.335631,296.082377,-10732.986159,2298.286494
334.335959,-148.041188,-10436.903782,2298.286494
334.336287,-1406.391290,-10807.006753,1991.848295
334.336614,-2146.597232,-10214.842000,1149.143247
334.336942,-2368.659014,-9548.656652,689.485948
334.337270,-2368.659014,-8956.491898,-229.828649
334.337597,-1406.391290,-8290.306550,-995.924147
334.337925,-814.226536,-7994.224174,-1149.143247
334.338253,-296.082377,-7624.121203,-919.314598
334.338580,222.061783,-7254.018232,-689.485948
334.338908,0.000000,-7772.162391,-612.876398
334.339236,0.000000,-8290.306550,-612.876398
334.339563,-444.123565,-8882.471304,-306.438199
334.339891,-518.144159,-9548.656652,153.219100
334.340219,-592.164754,-9770.718434,1378.971896
334.340546,-888.247130,-10066.800811,689.485948
334.340874,-1332.370696,-10288.862594,1072.533697
334.341202,-1702.473667,-10288.862594,995.924147
334.341530,-1702.473667,-9770.718434,76.609550
334.341857,-1554.432478,-8882.471304,-536.266849
334.342185,-814.226536,-7920.203579,-536.266849
334.342513,444.123565,-7624.121203,-766.095498
334.342840,1702.473667,-7254.018232,-689.485948
334.343168,2590.720797,-7254.018232,-306.438199
334.343496,2812.782580,-7105.977043,383.047749
334.343823,2886.803174,-8068.244768,612.876398
334.344151,2294.638420,-8586.388927,612.876398
334.344479,1628.453072,-9474.636058,1455.581446
334.344806,1480.411884,-9844.739029,1532.190996
334.345134,518.144159,-10436.903782,1915.238745
334.345462,296.082377,-10362.883188,2451.505594
334.345789,-1110.308913,-10510.924376,2068.457845
334.346117,-1850.514855,-10288.862594,1455.581446
334.346445,-1850.514855,-9622.677246,1225.752797
334.346773,-1628.453072,-8808.450710,383.047749
334.347100,-1258.350101,-7846.182985,-306.438199
334.347428,-814.226536,-7476.080014,0.000000
334.347756,-518.144159,-7476.080014,-153.219100
334.348083,-296.082377,-7550.100608,0.000000
334.348411,-592.164754,-7476.080014,76.609550
334.348739,-888.247130,-8142.265362,995.924147
334.349066,-666.185348,-8882.471304,1378.971896
334.349394,-1110.308913,-9326.594869,995.924147
334.349722,-1554.432478,-9770.718434,1685.410096
334.350049,-1924.535449,-10214.842000,2068.457845
334.350377,-2294.638420,-10436.903782,1838.629195
334.350705,-3034.844362,-10066.800811,1915.238745
334.351032,-3034.844362,-9770.718434,919.314598
334.351360,-2368.659014,-9474.636058,459.657299
334.351688,-1554.432478,-9030.512492,0.000000
334.352016,-222.061783,-8438.347739,0.000000
334.352343,962.267725,-7624.121203,153.219100
334.352671,1628.453072,-8068.244768,0.000000
334.352999,1998.556043,-8586.388927,459.657299
334.353326,1776.494261,-9104.533087,536.266849
334.353654,1924.535449,-9474.636058,919.314598
334.353982,1850.514855,-9622.677246,1225.752797
334.354309,1258.350101,-10510.924376,1532.190996
334.354637,962.267725,-10955.047942,2068.457845
334.354965,148.041188,-10881.027347,2145.067394
334.355292,-888.247130,-11029.068536,1838.629195
334.355620,-1480.411884,-10436.903782,1072.533697
334.355948,-1776.494261,-9844.739029,383.047749
334.356275,-1924.535449,-9326.594869,-229.828649
334.356603,-962.267725,-8216.285956,-766.095498
334.356931,-518.144159,-7994.224174,-842.705048
334.357259,148.041188,-7550.100608,-612.876398
334.357586,666.185348,-7402.059420,-766.095498
334.357914,592.164754,-7920.203579,-766.095498
334.358242,148.041188,-8364.327145,-383.047749
334.358569,0.000000,-8808.450710,-229.828649
334.358897,-222.061783,-9474.636058,76.609550
334.359225,-148.041188,-9918.759623,689.485948
334.359552,-814.226536,-10066.800811,919.314598
334.359880,-1258.350101,-10362.883188,1072.533697
334.360208,-1776.494261,-10140.821405,919.314598
334.360535,-1850.514855,-9844.739029,229.828649
334.360863,-1628.453072,-8956.491898,-612.876398
334.361191,-962.267725,-8290.306550,-536.266849
334.361518,148.041188,-7698.141797,-919.314598
334.361846,1258.350101,-7476.080014,-459.657299
334.362174,2220.617826,-7179.997637,76.609550
334.362502,2590.720797,-7550.100608,919.314598
334.362829,2442.679609,-7994.224174,1072.533697
334.363157,1850.514855,-8512.368333,919.314598
334.363485,1406.391290,-9474.636058,1532.190996
334.363812,1036.288319,-9770.718434,1532.190996
334.364140,222.061783,-10214.842000,2298.286494
334.364468,-222.061783,-10288.862594,2221.676944
334.364795,-1110.308913,-10214.842000,2451.505594
334.365123,-1924.535449,-9696.697840,1685.410096
334.365451,-2072.576638,-9474.636058,919.314598
334.365778,-2146.597232,-8882.471304,76.609550
334.366106,-1702.473667,-8438.347739,-153.219100
334.366434,-1110.308913,-7772.162391,-612.876398
334.366761,-814.226536,-7328.038826,-306.438199
334.367089,-148.041188,-7179.997637,-153.219100
334.367417,74.020594,-7476.080014,0.000000
334.367745,0.000000,-7698.141797,0.000000
334.368072,0.000000,-8734.430116,536.266849
334.368400,-666.185348,-9400.615463,919.314598
334.368728,-962.267725,-9844.739029,1378.971896
334.369055,-1184.329507,-10436.903782,1532.190996
334.369383,-1628.453072,-10584.944971,1685.410096
334.369711,-2220.617826,-10658.965565,1762.019645
334.370038,-2368.659014,-10362.883188,995.924147
334.370366,-1924.535449,-9696.697840,536.266849
334.370694,-1258.350101,-8882.471304,-306.438199
334.371021,0.000000,-8438.347739,-229.828649
334.371349,1406.391290,-8142.265362,0.000000
334.371677,1850.514855,-7920.203579,76.609550
334.372004,1924.535449,-8216.285956,459.657299
334.372332,1850.514855,-8956.491898,689.485948
334.372660,1628.453072,-9474.636058,383.047749
334.372988,1110.308913,-9844.739029,1915.238745
334.373315,1184.329507,-10288.862594,1378.971896
334.373643,666.185348,-10955.047942,2068.457845
334.373971,0.000000,-10955.047942,2145.067394
334.374298,-1184.329507,-11103.089130,1915.238745
334.374626,-1702.473667,-10288.862594,1302.362347
334.374954,-2442.679609,-9622.677246,689.485948
334.375281,-1850.514855,-9474.636058,0.000000
334.375609,-1924.535449,-8512.368333,-536.266849
334.375937,-962.267725,-8068.244768,-689.485948
334.376264,-222.061783,-7476.080014,-536.266849
334.376592,0.000000,-7105.977043,-459.657299
334.376920,74.020594,-7550.100608,-536.266849
334.377247,0.000000,-8216.285956,-383.047749
334.377575,0.000000,-8808.450710,0.000000
334.377903,-296.082377,-9326.594869,536.266849
334.378231,0.000000,-9918.759623,919.314598
334.378558,-518.144159,-10140.821405,1149.143247
334.378886,-888.247130,-10658.965565,1302.362347
334.379214,-1628.453072,-10436.903782,1149.143247
334.379541,-1998.556043,-10066.800811,612.876398
334.379869,-1702.473667,-9474.636058,0.000000
334.380197,-1480.411884,-8290.306550,0.000000
334.380524,-444.123565,-7920.203579,-612.876398
334.380852,888.247130,-7624.121203,-459.657299
334.381180,1924.535449,-7254.018232,0.000000
334.381507,2442.679609,-7550.100608,229.828649
334.381835,2294.638420,-7772.162391,919.314598
334.382163,1776.494261,-8364.327145,612.876398
334.382490,1406.391290,-9104.533087,1072.533697
334.382818,1332.370696,-9474.636058,1302.362347
334.383146,740.205942,-10140.821405,2221.676944
334.383474,0.000000,-9844.739029,2604.724693
334.383801,-740.205942,-10436.903782,2221.676944
334.384129,-1776.494261,-9992.780217,1838.629195
334.384457,-2368.659014,-9696.697840,842.705048
334.384784,-1850.514855,-9178.553681,306.438199
334.385112,-1702.473667,-7698.141797,-536.266849
334.385440,-888.247130,-7476.080014,-229.828649
334.385767,-370.102971,-7476.080014,0.000000
334.386095,0.000000,-7476.080014,0.000000
334.386423,0.000000,-7328.038826,0.000000
334.386750,-592.164754,-7698.141797,0.000000
334.387078,-370.102971,-8660.409521,0.000000
334.387406,-222.061783,-9548.656652,459.657299
334.387733,-814.226536,-9326.594869,1072.533697
334.388061,-962.267725,-10658.965565,1532.190996
334.388389,-1258.350101,-10510.924376,1838.629195
334.388717,-1924.535449,-10436.903782,1378.971896
334.389044,-2146.597232,-10362.883188,766.095498
334.389372,-2442.679609,-9696.697840,76.609550
334.389700,-1554.432478,-8882.471304,0.000000
334.390027,-666.185348,-8216.285956,-536.266849
334.390355,814.226536,-8512.368333,-766.095498
334.390683,1258.350101,-7105.977043,0.000000
334.391010,1924.535449,-8068.244768,0.000000
334.391338,2442.679609,-8586.388927,229.828649
334.391666,1554.432478,-9030.512492,306.438199
334.391993,2220.617826,-10214.842000,689.485948
334.392321,1332.370696,-10066.800811,1455.581446
334.392649,222.061783,-10436.903782,1991.848295
334.392976,74.020594,-11399.171507,2145.067394
334.393304,-666.185348,-10658.965565,2068.457845
334.393632,-1406.391290,-10881.027347,1302.362347
334.393959,-1628.453072,-10066.800811,1302.362347
334.394287,-2294.638420,-9696.697840,229.828649
334.394615,-1628.453072,-8734.430116,0.000000
334.394942,-592.164754,-8438.347739,-306.438199
334.395270,-370.102971,-7328.038826,-306.438199
334.395597,148.041188,-7402.059420,-459.657299
334.395925,148.041188,-7698.141797,-229.828649
334.396252,148.041188,-7994.224174,-229.828649
334.396580,-222.061783,-8808.450710,0.000000
334.396908,-222.061783,-9178.553681,383.047749
334.397235,-370.102971,-9252.574275,842.705048
334.397563,-888.247130,-9844.739029,1225.752797
334.397890,-1110.308913,-10436.903782,1378.971896
334.398218,-1850.514855,-10066.800811,1455.581446
334.398545,-2368.659014,-10584.944971,842.705048
334.398873,-1702.473667,-9548.656652,459.657299
334.399201,-1702.473667,-8956.491898,-383.047749
334.399528,-814.226536,-8586.388927,-612.876398
334.399856,370.102971,-7920.203579,-536.266849
334.400183,1628.453072,-7179.997637,-383.047749
334.400511,2294.638420,-6957.935855,0.000000
334.400839,2368.659014,-8068.244768,536.266849
334.401166,2220.617826,-8586.388927,842.705048
334.401494,1480.411884,-8956.491898,1149.143247
334.401821,1110.308913,-9992.780217,1302.362347
334.402149,962.267725,-10066.800811,1915.238745
334.402476,148.041188,-10288.862594,2374.896044
334.402804,-444.123565,-10510.924376,2068.457845
334.403132,-1258.350101,-10732.986159,1685.410096
334.403459,-1702.473667,-10066.800811,995.924147
334.403787,-1924.535449,-9474.636058,153.219100
334.404114,-1110.308913,-8438.347739,0.000000
334.404442,-1258.350101,-7920.203579,-612.876398
334.404769,-592.164754,-7550.100608,-612.876398
334.405097,0.000000,-7402.059420,-842.705048
334.405425,0.000000,-7476.080014,-306.438199
334.405752,444.123565,-7698.141797,0.000000
334.406080,222.061783,-8438.347739,-229.828649
334.406407,-148.041188,-9178.553681,459.657299
334.406735,-370.102971,-9548.656652,919.314598
334.407062,-740.205942,-10066.800811,1225.752797
334.407390,-1258.350101,-10732.986159,1608.800546
334.407718,-1924.535449,-10362.883188,1532.190996
334.408045,-2072.576638,-10288.862594,1072.533697
334.408373,-2072.576638,-9548.656652,536.266849
334.408700,-1110.308913,-9252.574275,0.000000
334.409028,-148.041188,-8290.306550,76.609550
334.409356,888.247130,-7550.100608,-383.047749
334.409683,1850.514855,-7772.162391,0.000000
334.410011,2220.617826,-7698.141797,229.828649
334.410338,1924.535449,-8438.347739,306.438199
334.410666,1628.453072,-8956.491898,383.047749
334.410993,1776.494261,-9622.677246,1149.143247
334.411321,1036.288319,-10140.821405,1455.581446
334.411649,592.164754,-10584.944971,2068.457845
334.411976,0.000000,-10658.965565,2068.457845
334.412304,-1036.288319,-10955.047942,1838.629195
334.412631,-1776.494261,-10584.944971,1072.533697
334.412959,-2738.761985,-9918.759623,919.314598
334.413286,-2664.741391,-9474.636058,306.438199
334.413614,-1776.494261,-8808.450710,-229.828649
334.413942,-1406.391290,-8142.265362,-536.266849
334.414269,-740.205942,-7254.018232,0.000000
334.414597,0.000000,-7254.018232,-383.047749
334.414924,74.020594,-7402.059420,-229.828649
334.415252,0.000000,-7920.203579,0.000000
334.415580,0.000000,-8438.347739,306.438199
334.415907,-296.082377,-9252.574275,612.876398
334.416235,0.000000,-9918.759623,689.485948
334.416562,-518.144159,-9770.718434,1302.362347
334.416890,-592.164754,-10510.924376,1378.971896
334.417217,-1332.370696,-10807.006753,1225.752797
334.417545,-1998.556043,-10584.944971,919.314598
334.417873,-1924.535449,-9770.718434,306.438199
334.418200,-1258.350101,-9400.615463,-153.219100
334.418528,-740.205942,-8660.409521,-459.657299
334.418855,444.123565,-7994.224174,-612.876398
334.419183,1554.432478,-7698.141797,-459.657299
334.419510,2368.659014,-7105.977043,229.828649
334.419838,1850.514855,-7920.203579,306.438199
334.420166,2072.576638,-8660.409521,612.876398
334.420493,1628.453072,-9326.594869,536.266849
334.420821,1110.308913,-9844.739029,1072.533697
334.421148,1036.288319,-9918.759623,1762.019645
334.421476,296.082377,-10288.862594,1915.238745
334.421803,-296.082377,-10807.006753,1762.019645
334.422131,-1332.370696,-10288.862594,1685.410096
334.422459,-1924.535449,-10140.821405,1072.533697
334.422786,-1850.514855,-9622.677246,459.657299
334.423114,-1554.432478,-8734.430116,-306.438199
334.423441,-1184.329507,-7994.224174,-689.485948
334.423769,-444.123565,-7402.059420,-842.705048
334.424097,0.000000,-7476.080014,-766.095498
334.424424,148.041188,-7698.141797,-612.876398
334.424752,74.020594,-7772.162391,-919.314598
334.425079,148.041188,-8290.306550,229.828649
334.425407,0.000000,-9178.553681,536.266849
334.425734,-222.061783,-9918.759623,919.314598
334.426062,-814.226536,-10140.821405,1302.362347
334.426390,-1036.288319,-10510.924376,1685.410096
334.426717,-1702.473667,-10510.924376,1762.019645
334.427045,-2146.597232,-10214.842000,995.924147
334.427372,-1998.556043,-9622.677246,612.876398
334.427700,-1332.370696,-9178.553681,153.219100
334.428027,-444.123565,-8068.244768,536.266849
334.428355,444.123565,-7105.977043,-306.438199
334.428683,1554.432478,-7550.100608,76.609550
334.429010,2072.576638,-7550.100608,229.828649
334.429338,2146.597232,-8142.265362,919.314598
334.429665,1776.494261,-8512.368333,919.314598
334.429993,1406.391290,-9030.512492,1378.971896
334.430320,1480.411884,-9770.718434,1455.581446
334.430648,592.164754,-10510.924376,1838.629195
334.430976,74.020594,-10732.986159,2221.676944
334.431303,-962.267725,-10807.006753,2298.286494
334.431631,-1702.473667,-10362.883188,1915.238745
334.431958,-2664.741391,-9992.780217,919.314598
334.432286,-2516.700203,-9622.677246,383.047749
334.432614,-1776.494261,-8734.430116,76.609550
334.432941,-1184.329507,-7772.162391,-153.219100
334.433269,-370.102971,-7105.977043,0.000000
334.433596,0.000000,-7476.080014,-306.438199
334.433924,-148.041188,-7328.038826,153.219100
334.434251,-518.144159,-7772.162391,76.609550
334.434579,-370.102971,-8216.285956,229.828649
334.434907,-444.123565,-8808.450710,766.095498
334.435234,-740.205942,-9622.677246,1608.800546
334.435562,-814.226536,-9844.739029,1532.190996
334.435889,-888.247130,-10288.862594,1532.190996
334.436217,-1554.432478,-10288.862594,1378.971896
334.436544,-2072.576638,-10288.862594,1149.143247
334.436872,-1850.514855,-9770.718434,766.095498
334.437200,-1554.432478,-9104.533087,-229.828649
334.437527,-1110.308913,-8364.327145,-766.095498
334.437855,444.123565,-8290.306550,-842.705048
334.438182,1480.411884,-7846.182985,-536.266849
334.438510,2294.638420,-7550.100608,0.000000
334.438837,2738.761985,-8438.347739,0.000000
334.439165,2146.597232,-8956.491898,306.438199
334.439493,1702.473667,-9548.656652,689.485948
334.439820,1776.494261,-9992.780217,919.314598
334.440148,1184.329507,-10436.903782,1685.410096
334.440475,666.185348,-10362.883188,2145.067394
334.440803,0.000000,-10807.006753,1762.019645
334.441131,-1036.288319,-10436.903782,1762.019645
334.441458,-1702.473667,-9918.759623,919.314598
334.441786,-1776.494261,-9622.677246,306.438199
334.442113,-1776.494261,-8660.409521,-306.438199
334.442441,-962.267725,-8216.285956,-842.705048
334.442768,-444.123565,-7550.100608,-842.705048
334.443096,0.000000,-7698.141797,-689.485948
334.443424,222.061783,-7846.182985,-459.657299
334.443751,370.102971,-8290.306550,-229.828649
334.444079,-148.041188,-8586.388927,76.609550
334.444406,-370.102971,-9326.594869,383.047749
334.444734,-666.185348,-9622.677246,995.924147
334.445061,-666.185348,-10288.862594,1149.143247
334.445389,-962.267725,-10510.924376,1225.752797
334.445717,-1850.514855,-10584.944971,1302.362347
334.446044,-2220.617826,-10288.862594,995.924147
334.446372,-2220.617826,-9844.739029,689.485948
334.446699,-1998.556043,-9104.533087,0.000000
334.447027,-1480.411884,-8660.409521,-153.219100
334.447354,-296.082377,-7550.100608,0.000000
334.447682,962.267725,-7402.059420,-306.438199
334.448010,1406.391290,-7328.038826,0.000000
334.448337,1628.453072,-7698.141797,383.047749
334.448665,1628.453072,-8586.388927,1149.143247
334.448992,1776.494261,-9104.533087,1149.143247
334.449320,1110.308913,-9474.636058,1608.800546
334.449648,814.226536,-10140.821405,1762.019645
334.449975,0.000000,-10288.862594,2221.676944
334.450303,-518.144159,-10584.944971,2298.286494
334.450630,-1406.391290,-10140.821405,1915.238745
334.450958,-1332.370696,-10214.842000,1302.362347
334.451285,-1998.556043,-9400.615463,766.095498
334.451613,-1406.391290,-8734.430116,0.000000
334.451941,-666.185348,-8142.265362,-306.438199
334.452268,148.041188,-7105.977043,0.000000
334.452596,592.164754,-7254.018232,-383.047749
334.452923,296.082377,-7624.121203,-383.047749
334.453251,222.061783,-8068.244768,0.000000
334.453578,-296.082377,-8438.347739,0.000000
334.453906,-148.041188,-8882.471304,459.657299
334.454234,-518.144159,-9474.636058,995.924147
334.454561,-666.185348,-9992.780217,1225.752797
334.454889,-888.247130,-10510.924376,1608.800546
334.455216,-1850.514855,-10362.883188,1532.190996
334.455544,-2368.659014,-10362.883188,1072.533697
334.455871,-2368.659014,-9992.780217,383.047749
334.456199,-2146.597232,-9400.615463,-229.828649
334.456527,-1036.288319,-8882.471304,-459.657299
334.456854,-222.061783,-7920.203579,-689.485948
334.457182,888.247130,-7772.162391,-459.657299
334.457509,2146.597232,-7846.182985,0.000000
334.457837,2220.617826,-8068.244768,0.000000
334.458165,2072.576638,-8660.409521,842.705048
334.458492,1850.514855,-9474.636058,766.095498
334.458820,1406.391290,-10140.821405,1455.581446
334.459147,1258.350101,-10362.883188,1532.190996
334.459475,222.061783,-10732.986159,2221.676944
334.459802,0.000000,-10807.006753,1991.848295
334.460130,-1184.329507,-10955.047942,1838.629195
334.460458,-1850.514855,-10436.903782,1149.143247
334.460785,-1628.453072,-9992.780217,306.438199
334.461113,-1702.473667,-9030.512492,76.609550
334.461440,-1258.350101,-8512.368333,-689.485948
334.461768,-444.123565,-7846.182985,-919.314598
334.462095,74.020594,-7772.162391,-766.095498
334.462423,148.041188,-7994.224174,-536.266849
334.462751,222.061783,-8216.285956,-229.828649
334.463078,-296.082377,-8438.347739,-306.438199
334.463406,-222.061783,-9178.553681,76.609550
334.463733,-666.185348,-9696.697840,306.438199
334.464061,-592.164754,-10066.800811,919.314598
334.464389,-1110.308913,-9770.718434,1608.800546
334.464716,-1554.432478,-10436.903782,1455.581446
334.465044,-1998.556043,-10362.883188,919.314598
334.465371,-2220.617826,-9844.739029,459.657299
334.465699,-1850.514855,-9474.636058,-229.828649
334.466026,-1110.308913,-8586.388927,-459.657299
334.466354,74.020594,-8142.265362,-766.095498
334.466682,1036.288319,-7772.162391,-612.876398
334.467009,1776.494261,-7698.141797,-383.047749
334.467337,2368.659014,-7772.162391,0.000000
334.467664,2294.638420,-8364.327145,306.438199
334.467992,2368.659014,-8882.471304,536.266849
334.468319,2146.597232,-9770.718434,1378.971896
334.468647,1406.391290,-10066.800811,1685.410096
334.468975,740.205942,-10584.944971,2298.286494
334.469302,0.000000,-10510.924376,2068.457845
334.469630,-888.247130,-10510.924376,1991.848295
334.469957,-1480.411884,-10066.800811,1455.581446
334.470285,-1628.453072,-9474.636058,995.924147
334.470612,-1628.453072,-8734.430116,383.047749
334.470940,-888.247130,-8142.265362,0.000000
334.471268,-370.102971,-7105.977043,0.000000
334.471595,222.061783,-7105.977043,0.000000
334.471923,0.000000,-7476.080014,0.000000
334.472250,0.000000,-7920.203579,229.828649
334.472578,-666.185348,-8142.265362,76.609550
334.472906,-888.247130,-8216.285956,842.705048
334.473233,-814.226536,-9178.553681,1225.752797
334.473561,-888.247130,-9622.677246,1455.581446
334.473888,-1776.494261,-9918.759623,1608.800546
334.474216,-2294.638420,-10510.924376,1455.581446
334.474543,-2368.659014,-10066.800811,1149.143247
334.474871,-3256.906145,-9622.677246,1072.533697
334.475199,-2664.741391,-9178.553681,0.000000
334.475526,-1998.556043,-8512.368333,-383.047749
334.475854,-222.061783,-8512.368333,-459.657299
334.476181,592.164754,-7624.121203,-383.047749
334.476509,1702.473667,-7328.038826,76.609550
334.476836,2146.597232,-7846.182985,76.609550
334.477164,2220.617826,-8734.430116,612.876398
334.477492,1924.535449,-9252.574275,612.876398
334.477819,1480.411884,-9770.718434,995.924147
334.478147,1110.308913,-10288.862594,1455.581446
334.478474,1110.308913,-10807.006753,1915.238745
334.478802,592.164754,-10732.986159,2145.067394
334.479129,-370.102971,-11103.089130,1915.238745
334.479457,-1332.370696,-10436.903782,1378.971896
334.479785,-1258.350101,-9696.697840,459.657299
334.480112,-1554.432478,-9104.533087,76.609550
334.480440,-814.226536,-8438.347739,-383.047749
334.480767,0.000000,-7994.224174,-536.266849
334.481095,296.082377,-7920.203579,-536.266849
334.481423,296.082377,-7698.141797,76.609550
334.481750,296.082377,-7920.203579,229.828649
334.482078,0.000000,-8660.409521,0.000000
334.482405,-518.144159,-9252.574275,0.000000
334.482733,-444.123565,-9770.718434,383.047749
334.483060,-740.205942,-9770.718434,842.705048
334.483388,-592.164754,-10362.883188,1072.533697
334.483716,-1480.411884,-10584.944971,1072.533697
334.484043,-2146.597232,-10214.842000,919.314598
334.484371,-2368.659014,-9696.697840,153.219100
334.484698,-2220.617826,-9326.594869,0.000000
334.485026,-1554.432478,-8586.388927,-1149.143247
334.485353,-962.267725,-7476.080014,-536.266849
334.485681,444.123565,-7550.100608,-612.876398
334.486009,1258.350101,-7476.080014,-383.047749
334.486336,2072.576638,-7920.203579,306.438199
334.486664,1924.535449,-8068.244768,919.314598
334.486991,1924.535449,-8734.430116,1455.581446
334.487319,1554.432478,-9474.636058,1149.143247
334.487646,1184.329507,-10214.842000,1378.971896
334.487974,740.205942,-10436.903782,2221.676944
334.488302,0.000000,-11103.089130,2604.724693
334.488629,-1406.391290,-10066.800811,2374.896044
334.488957,-1480.411884,-9918.759623,1532.190996
334.489284,-1924.535449,-9474.636058,1072.533697
334.489612,-1480.411884,-8734.430116,459.657299
334.489940,-962.267725,-7772.162391,-153.219100
334.490267,-296.082377,-7328.038826,0.000000
334.490595,296.082377,-7179.997637,-306.438199
334.490922,74.020594,-7402.059420,-229.828649
334.491250,0.000000,-7698.141797,0.000000
334.491577,0.000000,-7994.224174,76.609550
334.491905,-444.123565,-8364.327145,689.485948
334.492233,-666.185348,-9104.533087,612.876398
334.492560,-888.247130,-9474.636058,1149.143247
334.492888,-1110.308913,-9770.718434,1455.581446
334.493215,-1924.535449,-9844.739029,1149.143247
334.493543,-2220.617826,-10066.800811,919.314598
334.493870,-2664.741391,-9474.636058,536.266849
334.494198,-2442.679609,-9326.594869,-153.219100
334.494526,-1776.494261,-8586.388927,-536.266849
334.494853,-518.144159,-7994.224174,-995.924147
334.495181,592.164754,-7772.162391,-383.047749
334.495509,1776.494261,-7698.141797,0.000000
334.495836,1924.535449,-8068.244768,0.000000
334.496164,2072.576638,-8586.388927,306.438199
334.496492,1776.494261,-9400.615463,689.485948
334.496819,1332.370696,-9844.739029,1072.533697
334.497147,1480.411884,-10584.944971,1991.848295
334.497474,1184.329507,-10955.047942,1685.410096
334.497802,666.185348,-10955.047942,2068.457845
334.498130,-666.185348,-11029.068536,1838.629195
334.498457,-1258.350101,-10732.986159,1302.362347
334.498785,-1628.453072,-9770.718434,766.095498
334.499112,-1998.556043,-9400.615463,-153.219100
334.499440,-1332.370696,-8734.430116,-536.266849
334.499768,-518.144159,-8364.327145,-383.047749
334.500095,148.041188,-7772.162391,-536.266849
334.500423,444.123565,-7920.203579,-459.657299
334.500750,0.000000,-7994.224174,0.000000
334.501078,74.020594,-8808.450710,0.000000
334.501406,-444.123565,-9252.574275,0.000000
334.501733,-518.144159,-9548.656652,612.876398
334.502061,-592.164754,-10066.800811,842.705048
334.502388,-814.226536,-10066.800811,919.314598
334.502716,-1554.432478,-10436.903782,1532.190996
334.503044,-1776.494261,-10140.821405,1455.581446
334.503371,-2220.617826,-9918.759623,689.485948
334.503699,-2368.659014,-9326.594869,229.828649
334.504026,-1702.473667,-8882.471304,153.219100
334.504354,-740.205942,-8512.368333,-766.095498
334.504682,444.123565,-7846.182985,-766.095498
334.505009,1406.391290,-7698.141797,0.000000
334.505337,2220.617826,-7846.182985,153.219100
334.505664,2072.576638,-7994.224174,919.314598
334.505992,2220.617826,-8660.409521,612.876398
334.506320,1998.556043,-9326.594869,1302.362347
334.506647,1184.329507,-9696.697840,1302.362347
334.506975,592.164754,-10362.883188,2221.676944
334.507302,222.061783,-10362.883188,2528.115143
334.507630,-740.205942,-10288.862594,2068.457845
334.507958,-1184.329507,-9992.780217,1838.629195
334.508285,-1776.494261,-9400.615463,1072.533697
334.508613,-1406.391290,-9030.512492,459.657299
334.508940,-962.267725,-8142.265362,153.219100
334.509268,-444.123565,-7105.977043,0.000000
334.509596,148.041188,-7402.059420,0.000000
334.509923,222.061783,-7402.059420,0.000000
334.510251,0.000000,-7550.100608,229.828649
334.510578,0.000000,-7994.224174,306.438199
334.510906,-296.082377,-8586.388927,1225.752797
334.511234,-444.123565,-9178.553681,766.095498
334.511561,-888.247130,-9548.656652,1532.190996
334.511889,-1258.350101,-9770.718434,1378.971896
334.512216,-1776.494261,-10214.842000,1455.581446
334.512544,-1998.556043,-10066.800811,995.924147
334.512872,-2738.761985,-9622.677246,383.047749
334.513199,-2516.700203,-9252.574275,0.000000
334.513527,-1776.494261,-8660.409521,-383.047749
334.513854,-814.226536,-8068.244768,-383.047749
334.514182,370.102971,-7476.080014,-229.828649
334.514510,1628.453072,-7476.080014,76.609550
334.514837,1702.473667,-7994.224174,306.438199
334.515165,1850.514855,-8586.388927,229.828649
334.515492,1776.494261,-9178.553681,842.705048
334.515820,1924.535449,-9622.677246,1072.533697
334.516148,1184.329507,-9992.780217,1762.019645
334.516475,1554.432478,-10658.965565,1915.238745
334.516803,592.164754,-10658.965565,2145.067394
334.517130,-444.123565,-10807.006753,2068.457845
334.517458,-1036.288319,-10510.924376,1532.190996
334.517786,-1998.556043,-9696.697840,919.314598
334.518113,-1702.473667,-9474.636058,0.000000
334.518441,-962.267725,-8956.491898,-459.657299
334.518768,-592.164754,-8216.285956,-536.266849
334.519096,222.061783,-7994.224174,-766.095498
334.519424,962.267725,-7476.080014,-229.828649
334.519751,222.061783,-8142.265362,-536.266849
334.520079,-296.082377,-8290.306550,-459.657299
334.520406,-518.144159,-8956.491898,-306.438199
334.520734,-666.185348,-9252.574275,0.000000
334.521062,-518.144159,-9548.656652,459.657299
334.521389,-962.267725,-9696.697840,1072.533697
334.521717,-1332.370696,-10214.842000,1149.143247
334.522044,-1776.494261,-10140.821405,919.314598
334.522372,-1924.535449,-10214.842000,536.266849
334.522700,-2220.617826,-9696.697840,0.000000
334.523027,-1850.514855,-8882.471304,0.000000
334.523355,-888.247130,-8364.327145,-1302.362347
334.523682,148.041188,-8068.244768,-995.924147
334.524010,1110.308913,-7698.141797,-766.095498
334.524338,1850.514855,-7920.203579,-383.047749
334.524665,2590.720797,-7920.203579,76.609550
334.524993,2590.720797,-8586.388927,459.657299
334.525320,2072.576638,-9252.574275,1072.533697
334.525648,1776.494261,-9770.718434,1455.581446
334.525976,1184.329507,-10214.842000,1838.629195
334.526303,592.164754,-10362.883188,1915.238745
334.526631,-518.144159,-10510.924376,1838.629195
334.526958,-1258.350101,-10140.821405,1762.019645
334.527286,-1480.411884,-9548.656652,1302.362347
334.527614,-1554.432478,-9252.574275,766.095498
334.527941,-1184.329507,-8142.265362,536.266849
334.528269,-518.144159,-7624.121203,459.657299
334.528596,0.000000,-7254.018232,0.000000
334.528924,148.041188,-7328.038826,0.000000
334.529252,0.000000,-7624.121203,0.000000
334.529579,-444.123565,-8142.265362,229.828649
334.529907,-370.102971,-8586.388927,0.000000
334.530234,-370.102971,-8882.471304,536.266849
334.530562,-1184.329507,-9622.677246,1302.362347
334.530890,-1554.432478,-9992.780217,1149.143247
334.531217,-2146.597232,-10510.924376,1608.800546
334.531545,-2960.823768,-9844.739029,1455.581446
334.531872,-2960.823768,-10066.800811,995.924147
334.532200,-2886.803174,-9622.677246,383.047749
334.532528,-2368.659014,-9252.574275,-229.828649
334.532855,-1184.329507,-8438.347739,-229.828649
334.533183,444.123565,-7698.141797,-536.266849
334.533510,1628.453072,-7624.121203,76.609550
334.533838,1924.535449,-7920.203579,383.047749
334.534166,2146.597232,-8290.306550,459.657299
334.534493,2072.576638,-8808.450710,1072.533697
334.534821,1850.514855,-9326.594869,1455.581446
334.535148,1998.556043,-10066.800811,1685.410096
334.535476,1406.391290,-10658.965565,1762.019645
334.535804,444.123565,-11177.109724,2298.286494
334.536131,-148.041188,-11251.130318,1762.019645
334.536459,-740.205942,-11547.212695,1991.848295
334.536786,-1776.494261,-9992.780217,612.876398
334.537114,-1776.494261,-9918.759623,459.657299
334.537442,-1406.391290,-9104.533087,0.000000
334.537769,-1036.288319,-8142.265362,-612.876398
334.538097,0.000000,-8068.244768,-689.485948
334.538424,-148.041188,-7254.018232,-612.876398
334.538752,0.000000,-7698.141797,-459.657299
334.539080,-444.123565,-8216.285956,-459.657299
334.539407,-740.205942,-8660.409521,-153.219100
334.539735,-814.226536,-9030.512492,0.000000
334.540062,-962.267725,-9622.677246,842.705048
334.540390,-888.247130,-9844.739029,1608.800546
334.540718,-1406.391290,-10140.821405,1149.143247
334.541045,-1850.514855,-10288.862594,1225.752797
334.541373,-2146.597232,-9918.759623,842.705048
334.541700,-1998.556043,-10140.821405,689.485948
334.542028,-1776.494261,-9400.615463,-306.438199
334.542356,-370.102971,-8364.327145,-612.876398
334.542683,592.164754,-7846.182985,-842.705048
334.543011,1628.453072,-7846.182985,-459.657299
334.543338,2516.700203,-7772.162391,0.000000
334.543666,2294.638420,-7624.121203,459.657299
334.543994,2368.659014,-8512.368333,459.657299
334.544321,2368.659014,-9622.677246,1225.752797
334.544649,1480.411884,-9770.718434,1302.362347
334.544976,1036.288319,-10658.965565,1838.629195
334.545304,592.164754,-10288.862594,2221.676944
334.545632,-444.123565,-10288.862594,1915.238745
334.545959,-1110.308913,-10362.883188,1991.848295
334.546287,-2072.576638,-9622.677246,1225.752797
334.546614,-2146.597232,-9326.594869,612.876398
334.546942,-1184.329507,-8290.306550,0.000000
334.547270,-592.164754,-7698.141797,0.000000
334.547597,-666.185348,-7254.018232,-229.828649
334.547925,-296.082377,-7031.956449,-229.828649
334.548252,0.000000,-7254.018232,0.000000
334.548580,-222.061783,-7698.141797,0.000000
334.548907,-222.061783,-7920.203579,153.219100
334.549235,-296.082377,-8882.471304,536.266849
334.549563,-592.164754,-9474.636058,919.314598
334.549890,-1184.329507,-9844.739029,1532.190996
334.550218,-1554.432478,-10510.924376,1608.800546
334.550545,-2220.617826,-10288.862594,2451.505594
334.550873,-2590.720797,-10436.903782,689.485948
334.551201,-2368.659014,-9696.697840,536.266849
334.551528,-1628.453072,-9104.533087,76.609550
334.551856,-444.123565,-8438.347739,0.000000
334.552183,1036.288319,-7624.121203,306.438199
334.552511,1998.556043,-7402.059420,383.047749
334.552839,2368.659014,-7994.224174,689.485948
334.553166,2220.617826,-8364.327145,842.705048
334.553494,1850.514855,-9104.533087,1149.143247
334.553821,1554.432478,-9400.615463,1302.362347
334.554149,1480.411884,-10066.800811,2145.067394
334.554477,666.185348,-10510.924376,1991.848295
334.554804,296.082377,-10955.047942,2451.505594
334.555132,-296.082377,-10436.903782,1991.848295
334.555459,-1924.535449,-10510.924376,1762.019645
334.555787,-2220.617826,-10436.903782,689.485948
334.556115,-2590.720797,-9326.594869,0.000000
334.556442,-2368.659014,-8882.471304,-766.095498
334.556770,-1406.391290,-8216.285956,-766.095498
334.557097,-962.267725,-7772.162391,-995.924147
334.557425,-444.123565,-7698.141797,-842.705048
334.557753,74.020594,-7772.162391,-842.705048
334.558080,-592.164754,-8290.306550,-383.047749
334.558408,-370.102971,-8586.388927,-536.266849
334.558735,-518.144159,-9178.553681,229.828649
334.559063,-1110.308913,-8808.450710,536.266849
334.559391,-444.123565,-9992.780217,1225.752797
334.559718,-740.205942,-10214.842000,995.924147
334.560046,-1184.329507,-10288.862594,1149.143247
334.560373,-1480.411884,-10362.883188,766.095498
334.560701,-1332.370696,-9770.718434,306.438199
334.561029,-1110.308913,-8956.491898,0.000000
334.561356,-222.061783,-8660.409521,-612.876398
334.561684,1036.288319,-7994.224174,-766.095498
334.562011,1998.556043,-7994.224174,-766.095498
334.562339,2664.741391,-7994.224174,-153.219100
334.562667,2960.823768,-7920.203579,229.828649
334.562994,2738.761985,-8586.388927,383.047749
334.563322,2294.638420,-9252.574275,919.314598
334.563649,1776.494261,-9844.739029,766.095498
334.563977,888.247130,-10288.862594,1762.019645
334.564305,518.144159,-9992.780217,1378.971896
334.564632,-296.082377,-10362.883188,2451.505594
334.564960,-1332.370696,-10066.800811,1378.971896
334.565287,-1628.453072,-9844.739029,1225.752797
334.565615,-2146.597232,-9474.636058,306.438199
334.565943,-1628.453072,-8290.306550,-153.219100
334.566270,-1258.350101,-7550.100608,-459.657299
334.566598,-740.205942,-7402.059420,-612.876398
334.566925,-444.123565,-7179.997637,-459.657299
334.567253,-370.102971,-7179.997637,-229.828649
334.567581,-444.123565,-7254.018232,0.000000
334.567908,0.000000,-7550.100608,153.219100
334.568236,-518.144159,-8660.409521,842.705048
334.568563,-592.164754,-9326.594869,1149.143247
334.568891,-1036.288319,-9992.780217,1455.581446
334.569219,-1554.432478,-10362.883188,1455.581446
334.569546,-2220.617826,-10362.883188,1455.581446
334.569874,-2516.700203,-10732.986159,1685.410096
334.570201,-2368.659014,-10140.821405,919.314598
334.570529,-1554.432478,-9326.594869,383.047749
334.570857,-444.123565,-8586.388927,536.266849
334.571184,592.164754,-7772.162391,919.314598
334.571512,2368.659014,-7402.059420,536.266849
334.571839,2516.700203,-7550.100608,1072.533697
334.572167,2146.597232,-8142.265362,919.314598
334.572495,2072.576638,-8808.450710,1225.752797
334.572822,1776.494261,-9326.594869,1225.752797
334.573150,1110.308913,-9474.636058,1608.800546
334.573477,814.226536,-10510.924376,2451.505594
334.573805,148.041188,-10362.883188,2451.505594
334.574133,-814.226536,-10807.006753,2604.724693
334.574460,-1850.514855,-10732.986159,2145.067394
334.574788,-2516.700203,-9844.739029,1991.848295
334.575115,-3108.864956,-9992.780217,689.485948
334.575443,-2368.659014,-9104.533087,0.000000
334.575771,-2294.638420,-8438.347739,-689.485948
334.576098,-1332.370696,-7920.203579,-612.876398
334.576426,-592.164754,-7254.018232,0.000000
334.576753,-222.061783,-7624.121203,-459.657299
334.577081,0.000000,-7994.224174,-536.266849
334.577409,-370.102971,-8364.327145,0.000000
334.577736,-518.144159,-9252.574275,76.609550
334.578064,-222.061783,-9474.636058,612.876398
334.578391,-592.164754,-9770.718434,76.609550
334.578719,-1110.308913,-10584.944971,1149.143247
334.579047,-1110.308913,-10732.986159,1225.752797
334.579374,-1628.453072,-10436.903782,995.924147
334.579702,-1998.556043,-10066.800811,689.485948
334.580029,-1110.308913,-9326.594869,229.828649
334.580357,-370.102971,-8808.450710,-536.266849
334.580685,592.164754,-8364.327145,-766.095498
334.581012,1628.453072,-7846.182985,-383.047749
334.581340,2220.617826,-7550.100608,-459.657299
334.581667,2590.720797,-7698.141797,229.828649
334.581995,2220.617826,-8142.265362,0.000000
334.582323,2146.597232,-9178.553681,536.266849
334.582650,1850.514855,-9326.594869,689.485948
334.582978,1036.288319,-9992.780217,1149.143247
334.583305,666.185348,-9770.718434,1532.190996
334.583633,-222.061783,-10362.883188,1608.800546
334.583961,-1184.329507,-10066.800811,1302.362347
334.584288,-1850.514855,-9770.718434,689.485948
334.584616,-1998.556043,-9178.553681,459.657299
334.584943,-1702.473667,-8290.306550,0.000000
334.585271,-1480.411884,-7476.080014,-919.314598
334.585599,-814.226536,-7254.018232,-842.705048
334.585926,-592.164754,-7105.977043,-919.314598
334.586254,0.000000,-7105.977043,-919.314598
334.586581,0.000000,-7476.080014,-229.828649
334.586909,222.061783,-7920.203579,-383.047749
334.587237,0.000000,-8586.388927,153.219100
334.587564,0.000000,-9326.594869,612.876398
334.587892,-296.082377,-9918.759623,995.924147
334.588219,-814.226536,-10436.903782,1225.752797
334.588547,-1554.432478,-10658.965565,1455.581446
334.588875,-1924.535449,-10510.924376,919.314598
334.589202,-2072.576638,-10066.800811,536.266849
334.589530,-1406.391290,-9474.636058,306.438199
334.589857,-444.123565,-8956.491898,229.828649
334.590185,888.247130,-8142.265362,76.609550
334.590513,1702.473667,-7772.162391,459.657299
334.590840,2220.617826,-7550.100608,766.095498
334.591168,2220.617826,-8068.244768,919.314598
334.591495,1480.411884,-8586.388927,689.485948
334.591823,1110.308913,-9030.512492,1532.190996
334.592151,1184.329507,-9252.574275,1762.019645
334.592478,740.205942,-10288.862594,2451.505594
334.592806,370.102971,-10584.944971,2145.067394
334.593133,-814.226536,-11251.130318,2451.505594
334.593461,-1850.514855,-10955.047942,2068.457845
334.593789,-2442.679609,-10436.903782,1608.800546
334.594116,-2960.823768,-10066.800811,842.705048
334.594444,-3034.844362,-9474.636058,229.828649
334.594771,-2220.617826,-8660.409521,-153.219100
334.595099,-1554.432478,-8142.265362,-536.266849
334.595427,-592.164754,-8142.265362,-766.095498
334.595754,-370.102971,-7698.141797,-536.266849
334.596082,-444.123565,-8068.244768,-153.219100
334.596409,-222.061783,-8586.388927,0.000000
334.596737,-666.185348,-9400.615463,0.000000
334.597065,-370.102971,-9696.697840,612.876398
334.597392,-740.205942,-10584.944971,995.924147
334.597720,-592.164754,-10807.006753,1762.019645
334.598048,-1110.308913,-10955.047942,1378.971896
334.598376,-1258.350101,-10955.047942,1378.971896
334.598703,-1554.432478,-10066.800811,689.485948
334.599031,-1184.329507,-9474.636058,-153.219100
334.599359,-296.082377,-9178.553681,-766.095498
334.599687,518.144159,-8290.306550,-766.095498
334.600014,1850.514855,-8068.244768,-919.314598
334.600342,2590.720797,-7846.182985,-459.657299
334.600670,2664.741391,-7550.100608,0.000000
334.600997,2886.803174,-8660.409521,383.047749
334.601325,2294.638420,-9030.512492,153.219100
334.601653,1628.453072,-9548.656652,1072.533697
334.601981,1406.391290,-10066.800811,1072.533697
334.602308,666.185348,-10584.944971,1685.410096
334.602636,0.000000,-10807.006753,1991.848295
334.602964,-888.247130,-10362.883188,1685.410096
334.603291,-1924.535449,-10140.821405,1072.533697
334.603619,-2072.576638,-9548.656652,383.047749
334.603947,-1924.535449,-8512.368333,0.000000
334.604275,-1332.370696,-8438.347739,-1072.533697
334.604602,-1036.288319,-7179.997637,-842.705048
334.604930,-444.123565,-6883.915261,-766.095498
334.605258,0.000000,-6735.874072,-612.876398
334.605585,296.082377,-7105.977043,0.000000
334.605913,444.123565,-7402.059420,612.876398
334.606241,0.000000,-8364.327145,689.485948
334.606569,-148.041188,-9104.533087,995.924147
334.606896,-666.185348,-9844.739029,1455.581446
334.607224,-1184.329507,-10288.862594,1838.629195
334.607552,-1850.514855,-10140.821405,1762.019645
334.607880,-2146.597232,-10288.862594,1608.800546
334.608207,-2368.659014,-9844.739029,1072.533697
334.608535,-1850.514855,-9326.594869,766.095498
334.608863,-814.226536,-8438.347739,153.219100
334.609190,518.144159,-7476.080014,459.657299
334.609518,1776.494261,-7254.018232,306.438199
334.609846,2368.659014,-7328.038826,612.876398
334.610174,2368.659014,-7772.162391,612.876398
334.610501,1406.391290,-8364.327145,536.266849
334.610829,592.164754,-8956.491898,1225.752797
334.611157,1184.329507,-9918.759623,1532.190996
334.611484,518.144159,-10510.924376,2298.286494
334.611812,222.061783,-10658.965565,2528.115143
334.612140,-592.164754,-10955.047942,2604.724693
334.612468,-1702.473667,-10732.986159,1991.848295
334.612795,-2368.659014,-10732.986159,1608.800546
334.613123,-2516.700203,-9918.759623,689.485948
334.613451,-2442.679609,-9178.553681,0.000000
334.613779,-1702.473667,-8438.347739,-229.828649
334.614106,-962.267725,-7772.162391,-536.266849
334.614434,-666.185348,-7179.997637,-536.266849
334.614762,-148.041188,-7254.018232,-229.828649
334.615089,0.000000,-7920.203579,0.000000
334.615417,0.000000,-8586.388927,153.219100
334.615745,-518.144159,-9326.594869,153.219100
334.616073,-296.082377,-10066.800811,1072.533697
334.616400,-370.102971,-10510.924376,1072.533697
334.616728,-444.123565,-10807.006753,1608.800546
334.617056,-1110.308913,-10732.986159,1608.800546
334.617383,-1776.494261,-10732.986159,1378.971896
334.617711,-1850.514855,-10214.842000,612.876398
334.618039,-1258.350101,-9548.656652,0.000000
334.618367,-1036.288319,-8882.471304,-689.485948
334.618694,0.000000,-8364.327145,-842.705048
334.619022,1480.411884,-7846.182985,-612.876398
334.619350,2220.617826,-7772.162391,-153.219100
334.619677,2442.679609,-7624.121203,-536.266849
334.620005,2368.659014,-8512.368333,306.438199
334.620333,1850.514855,-9178.553681,153.219100
334.620661,1036.288319,-9844.739029,383.047749
334.620988,962.267725,-9918.759623,842.705048
334.621316,518.144159,-10288.862594,1225.752797
334.621644,0.000000,-10288.862594,1378.971896
334.621972,-888.247130,-10362.883188,1455.581446
334.622299,-1554.432478,-9918.759623,1225.752797
334.622627,-1702.473667,-9400.615463,229.828649
334.622955,-1480.411884,-8660.409521,-229.828649
334.623282,-1702.473667,-7624.121203,-689.485948
334.623610,-814.226536,-7476.080014,-1072.533697
334.623938,0.000000,-7179.997637,-995.924147
334.624266,296.082377,-7031.956449,-766.095498
334.624593,518.144159,-7105.977043,0.000000
334.624921,0.000000,-7846.182985,229.828649
334.625249,296.082377,-8438.347739,536.266849
334.625576,222.061783,-8956.491898,919.314598
334.625904,0.000000,-9548.656652,1302.362347
334.626232,-592.164754,-10140.821405,1455.581446
334.626560,-1480.411884,-10214.842000,1685.410096
334.626887,-1702.473667,-10510.924376,1302.362347
334.627215,-1850.514855,-9770.718434,1149.143247
334.627543,-1480.411884,-9178.553681,612.876398
334.627871,-592.164754,-8438.347739,306.438199
334.628198,148.041188,-7402.059420,229.828649
334.628526,1628.453072,-7698.141797,306.438199
334.628854,2220.617826,-7402.059420,612.876398
334.629181,1924.535449,-7698.141797,919.314598
334.629509,1554.432478,-8660.409521,1149.143247
334.629837,1332.370696,-9474.636058,1302.362347
334.630165,888.247130,-9474.636058,1608.800546
334.630492,222.061783,-10140.821405,2221.676944
334.630820,-222.061783,-10658.965565,2451.505594
334.631148,-962.267725,-10658.965565,2451.505594
334.631475,-1776.494261,-10436.903782,2145.067394
334.631803,-2812.782580,-9918.759623,1608.800546
334.632131,-2886.803174,-9844.739029,689.485948
334.632459,-2738.761985,-8956.491898,0.000000
334.632786,-1998.556043,-8364.327145,-306.438199
334.633114,-1184.329507,-7846.182985,-229.828649
334.633442,-740.205942,-7254.018232,76.609550
334.633769,-518.144159,-7254.018232,-229.828649
334.634097,-148.041188,-8142.265362,76.609550
334.634425,-296.082377,-8438.347739,0.000000
334.634753,-370.102971,-9178.553681,306.438199
334.635080,-74.020594,-9918.759623,1072.533697
334.635408,-222.061783,-10436.903782,995.924147
334.635736,-592.164754,-10807.006753,1608.800546
334.636064,-666.185348,-10881.027347,1762.019645
334.636391,-1036.288319,-10955.047942,1225.752797
334.636719,-1406.391290,-10066.800811,1302.362347
334.637047,-1110.308913,-9622.677246,-536.266849
334.637374,-740.205942,-9252.574275,-536.266849
334.637702,148.041188,-8290.306550,-995.924147
334.638030,1406.391290,-7920.203579,-766.095498
334.638358,2072.576638,-7698.141797,-383.047749
334.638685,2590.720797,-7624.121203,0.000000
334.639013,2072.576638,-8438.347739,0.000000
334.639341,1480.411884,-9178.553681,229.828649
334.639668,1258.350101,-9548.656652,383.047749
334.639996,814.226536,-10066.800811,1072.533697
334.640324,518.144159,-10288.862594,1685.410096
334.640652,-148.041188,-10362.883188,1915.238745
334.640979,-1110.308913,-10140.821405,1608.800546
334.641307,-1554.432478,-9770.718434,1149.143247
334.641635,-1998.556043,-9474.636058,536.266849
334.641962,-1628.453072,-8808.450710,0.000000
334.642290,-1480.411884,-8068.244768,-1302.362347
334.642618,-888.247130,-7624.121203,-1149.143247
334.642946,-518.144159,-7105.977043,-995.924147
334.643273,0.000000,-7105.977043,-842.705048
334.643601,518.144159,-7105.977043,0.000000
334.643929,518.144159,-7624.121203,-459.657299
334.644257,222.061783,-8364.327145,0.000000
334.644584,222.061783,-9104.533087,383.047749
334.644912,-370.102971,-9622.677246,1072.533697
334.645240,-666.185348,-10066.800811,1455.581446
334.645567,-740.205942,-10584.944971,1762.019645
334.645895,-1776.494261,-10214.842000,1455.581446
334.646223,-1850.514855,-10140.821405,995.924147
334.646551,-1628.453072,-9400.615463,612.876398
334.646878,-666.185348,-8512.368333,306.438199
334.647206,666.185348,-7920.203579,229.828649
334.647534,1628.453072,-7179.997637,306.438199
334.647861,2072.576638,-7179.997637,306.438199
334.648189,2072.576638,-7624.121203,612.876398
334.648517,1480.411884,-8290.306550,919.314598
334.648845,1184.329507,-8734.430116,995.924147
334.649172,814.226536,-9548.656652,1991.848295
334.649500,592.164754,-10066.800811,1915.238745
334.649828,74.020594,-10658.965565,2451.505594
334.650156,-740.205942,-10658.965565,2528.115143
334.650483,-1480.411884,-10807.006753,2834.553343
334.650811,-2442.679609,-10510.924376,2145.067394
334.651139,-3108.864956,-9844.739029,1149.143247
334.651466,-2738.761985,-9400.615463,383.047749
334.651794,-2294.638420,-8660.409521,0.000000
334.652122,-1702.473667,-7846.182985,-459.657299
334.652450,-1110.308913,-7328.038826,0.000000
334.652777,-518.144159,-7698.141797,-306.438199
334.653105,-296.082377,-7698.141797,153.219100
334.653433,-148.041188,-8216.285956,153.219100
334.653760,-296.082377,-9178.553681,306.438199
334.654088,0.000000,-9622.677246,766.095498
334.654416,0.000000,-10362.883188,1302.362347
334.654744,-444.123565,-10955.047942,1685.410096
334.655071,-666.185348,-11029.068536,2145.067394
334.655399,-1184.329507,-11103.089130,1455.581446
334.655727,-1628.453072,-10510.924376,689.485948
334.656054,-1184.329507,-9992.780217,153.219100
334.656382,-962.267725,-9326.594869,-229.828649
334.656710,148.041188,-8438.347739,-536.266849
334.657038,1036.288319,-8068.244768,-536.266849
334.657365,1924.535449,-7550.100608,-383.047749
334.657693,2442.679609,-7846.182985,229.828649
334.658021,2072.576638,-8512.368333,0.000000
334.658349,1184.329507,-9178.553681,229.828649
334.658676,1258.350101,-9474.636058,306.438199
334.659004,814.226536,-10214.842000,919.314598
334.659332,518.144159,-9844.739029,1762.019645
334.659659,148.041188,-10510.924376,1685.410096
334.659987,-666.185348,-10658.965565,1685.410096
334.660315,-1332.370696,-10140.821405,1072.533697
334.660643,-1924.535449,-9548.656652,459.657299
334.660970,-1998.556043,-8882.471304,536.266849
334.661298,-1628.453072,-8216.285956,-995.924147
334.661626,-1036.288319,-7846.182985,-1225.752797
334.661953,-444.123565,-7254.018232,-1455.581446
334.662281,74.020594,-7105.977043,-842.705048
334.662609,444.123565,-7105.977043,-995.924147
334.662937,592.164754,-7031.956449,-306.438199
334.663264,740.205942,-8364.327145,153.219100
334.663592,518.144159,-9252.574275,306.438199
334.663920,222.061783,-9770.718434,1225.752797
334.664248,-148.041188,-9918.759623,1608.800546
334.664575,-148.041188,-10436.903782,1685.410096
334.664903,-1258.350101,-10510.924376,1532.190996
334.665231,-1406.391290,-10288.862594,1149.143247
334.665558,-1406.391290,-9622.677246,766.095498
334.665886,-814.226536,-8660.409521,153.219100
334.666214,222.061783,-8068.244768,459.657299
334.666542,1184.329507,-7105.977043,229.828649
334.666869,2072.576638,-7254.018232,383.047749
334.667197,1998.556043,-7179.997637,536.266849
334.667525,1924.535449,-7920.203579,612.876398
334.667852,1406.391290,-9030.512492,1378.971896
334.668180,1036.288319,-9326.594869,1455.581446
334.668508,518.144159,-9918.759623,2068.457845
334.668836,-296.082377,-10288.862594,2451.505594
334.669163,-1036.288319,-10732.986159,2528.115143
334.669491,-1776.494261,-10510.924376,2604.724693
334.669819,-2664.741391,-9992.780217,2068.457845
334.670146,-3034.844362,-9770.718434,1455.581446
334.670474,-2886.803174,-9178.553681,689.485948
334.670802,-2442.679609,-8660.409521,229.828649
334.671130,-1702.473667,-8068.244768,-229.828649
334.671457,-666.185348,-7550.100608,459.657299
334.671785,-222.061783,-7402.059420,0.000000
334.672113,-666.185348,-7476.080014,0.000000
334.672441,-296.082377,-8290.306550,153.219100
334.672768,-518.144159,-9178.553681,459.657299
334.673096,-592.164754,-9400.615463,1149.143247
334.673424,-666.185348,-9770.718434,995.924147
334.673751,-666.185348,-10658.965565,1532.190996
334.674079,-888.247130,-10955.047942,1838.629195
334.674407,-962.267725,-11103.089130,1608.800546
334.674735,-1776.494261,-10140.821405,1378.971896
334.675062,-1554.432478,-9844.739029,459.657299
334.675390,-1036.288319,-9400.615463,0.000000
334.675718,-222.061783,-8808.450710,-689.485948
334.676045,666.185348,-7994.224174,-689.485948
334.676373,1702.473667,-7550.100608,-383.047749
334.676701,2368.659014,-7624.121203,76.609550
334.677029,2368.659014,-8216.285956,-229.828649
334.677356,1554.432478,-9030.512492,306.438199
334.677684,1702.473667,-9474.636058,536.266849
334.678012,1110.308913,-10066.800811,995.924147
334.678340,666.185348,-9992.780217,1072.533697
334.678667,148.041188,-10436.903782,1378.971896
334.678995,-370.102971,-10584.944971,1685.410096
334.679323,-1332.370696,-10362.883188,1302.362347
334.679650,-1702.473667,-9770.718434,229.828649
334.679978,-1628.453072,-8660.409521,0.000000
334.680306,-1628.453072,-8586.388927,-536.266849
334.680634,-1184.329507,-7920.203579,-1149.143247
334.680961,-518.144159,-7254.018232,-1532.190996
334.681289,148.041188,-7105.977043,-1225.752797
334.681617,518.144159,-7031.956449,-1072.533697
334.681944,740.205942,-7624.121203,-919.314598
334.682272,666.185348,-8364.327145,0.000000
334.682600,222.061783,-8734.430116,153.219100
334.682928,148.041188,-9474.636058,536.266849
334.683255,-222.061783,-9992.780217,1685.410096
334.683583,-962.267725,-9992.780217,2221.676944
334.683911,-1776.494261,-10288.862594,1608.800546
334.684238,-1998.556043,-9992.780217,1225.752797
334.684566,-1924.535449,-9474.636058,459.657299
334.684894,-1258.350101,-8882.471304,229.828649
334.685222,-370.102971,-7846.182985,383.047749
334.685549,888.247130,-7402.059420,0.000000
334.685877,1554.432478,-7105.977043,153.219100
334.686205,1924.535449,-7105.977043,383.047749
334.686533,1776.494261,-7698.141797,689.485948
334.686860,1480.411884,-8142.265362,766.095498
334.687188,814.226536,-9104.533087,1302.362347
334.687516,444.123565,-9474.636058,1915.238745
334.687843,222.061783,-10140.821405,2298.286494
334.688171,-444.123565,-10362.883188,2145.067394
334.688499,-1110.308913,-10658.965565,3370.820191
334.688827,-1924.535449,-10140.821405,1608.800546
334.689154,-2516.700203,-9992.780217,1532.190996
334.689482,-2368.659014,-9252.574275,612.876398
334.689810,-1998.556043,-8660.409521,459.657299
334.690137,-1480.411884,-7994.224174,0.000000
334.690465,-444.123565,-7105.977043,0.000000
334.690793,-370.102971,-7105.977043,-229.828649
334.691121,0.000000,-7624.121203,0.000000
334.691448,-296.082377,-8068.244768,0.000000
334.691776,0.000000,-9178.553681,306.438199
334.692104,-444.123565,-9770.718434,612.876398
334.692432,-370.102971,-9918.759623,919.314598
334.692759,-518.144159,-10584.944971,1455.581446
334.693087,-814.226536,-11251.130318,1685.410096
334.693415,-1258.350101,-11325.150913,1532.190996
334.693742,-1850.514855,-11029.068536,1072.533697
334.694070,-2146.597232,-9622.677246,383.047749
334.694398,-1628.453072,-9696.697840,-306.438199
334.694726,-592.164754,-9030.512492,-689.485948
334.695053,370.102971,-8290.306550,-766.095498
334.695381,1702.473667,-8068.244768,-1378.971896
334.695709,2072.576638,-7698.141797,0.000000
334.696036,2146.597232,-8290.306550,459.657299
334.696364,1850.514855,-8956.491898,383.047749
334.696692,1628.453072,-9474.636058,536.266849
334.697020,1406.391290,-9696.697840,1455.581446
334.697347,1406.391290,-10732.986159,1455.581446
334.697675,444.123565,-10732.986159,1608.800546
334.698003,-666.185348,-10584.944971,1608.800546
334.698330,-888.247130,-10658.965565,1302.362347
334.698658,-1998.556043,-9992.780217,536.266849
334.698986,-1998.556043,-9400.615463,-383.047749
334.699313,-1924.535449,-8364.327145,-766.095498
334.699641,-1406.391290,-8290.306550,-1149.143247
334.699969,-814.226536,-7476.080014,-1455.581446
334.700296,-222.061783,-7105.977043,-1149.143247
334.700624,444.123565,-7105.977043,-766.095498
334.700951,592.164754,-7254.018232,-766.095498
334.701279,370.102971,-8142.265362,-306.438199
334.701607,222.061783,-8882.471304,76.609550
334.701934,74.020594,-9548.656652,612.876398
334.702262,0.000000,-9622.677246,1608.800546
334.702589,-518.144159,-9918.759623,1455.581446
334.702917,-1184.329507,-10732.986159,1455.581446
334.703245,-1998.556043,-9844.739029,1072.533697
334.703572,-1702.473667,-9992.780217,459.657299
334.703900,-1184.329507,-8882.471304,0.000000
334.704228,-518.144159,-7846.182985,0.000000
334.704555,814.226536,-7846.182985,-459.657299
334.704883,1776.494261,-7179.997637,153.219100
334.705210,1998.556043,-7254.018232,76.609550
334.705538,2368.659014,-7920.203579,612.876398
334.705866,1924.535449,-8142.265362,459.657299
334.706193,1184.329507,-9178.553681,1149.143247
334.706521,888.247130,-9696.697840,1685.410096
334.706848,74.020594,-10436.903782,2145.067394
334.707176,0.000000,-10584.944971,2221.676944
334.707504,-814.226536,-10510.924376,2451.505594
334.707831,-1924.535449,-10510.924376,1991.848295
334.708159,-2220.617826,-10140.821405,1455.581446
334.708487,-2590.720797,-9326.594869,842.705048
334.708814,-2294.638420,-8586.388927,306.438199
334.709142,-1332.370696,-7920.203579,0.000000
334.709469,-1184.329507,-7105.977043,-153.219100
334.709797,-370.102971,-7328.038826,0.000000
334.710125,-296.082377,-7624.121203,0.000000
334.710452,-518.144159,-7846.182985,229.828649
334.710780,-444.123565,-8586.388927,306.438199
334.711107,-518.144159,-8882.471304,766.095498
334.711435,-370.102971,-9770.718434,995.924147
334.711763,-518.144159,-10510.924376,1685.410096
334.712090,-666.185348,-10807.006753,1915.238745
334.712418,-1332.370696,-10955.047942,1991.848295
334.712746,-1850.514855,-10807.006753,2145.067394
334.713073,-2146.597232,-10140.821405,383.047749
334.713401,-1702.473667,-9770.718434,76.609550
334.713728,-814.226536,-8956.491898,0.000000
334.714056,296.082377,-8216.285956,-383.047749
334.714384,1184.329507,-7772.162391,-383.047749
334.714711,2220.617826,-7476.080014,153.219100
334.715039,2220.617826,-8512.368333,612.876398
334.715366,1776.494261,-8956.491898,459.657299
334.715694,888.247130,-9474.636058,689.485948
334.716022,1036.288319,-10066.800811,1225.752797
334.716349,740.205942,-10140.821405,1838.629195
334.716677,0.000000,-10510.924376,1608.800546
334.717005,-370.102971,-10584.944971,1532.190996
334.717332,-1110.308913,-10436.903782,1608.800546
334.717660,-1776.494261,-9992.780217,612.876398
334.717987,-2220.617826,-9252.574275,76.609550
334.718315,-1776.494261,-8956.491898,-689.485948
334.718643,-1628.453072,-8068.244768,-1378.971896
334.718970,-1036.288319,-7698.141797,-1302.362347
334.719298,-444.123565,-7328.038826,-1149.143247
334.719625,74.020594,-7105.977043,-766.095498
334.719953,666.185348,-7254.018232,-612.876398
334.720281,518.144159,-7920.203579,-229.828649
334.720608,444.123565,-8882.471304,229.828649
334.720936,296.082377,-9326.594869,459.657299
334.721264,148.041188,-9474.636058,1225.752797
334.721591,-148.041188,-9992.780217,1225.752797
334.721919,-962.267725,-10436.903782,1225.752797
334.722246,-1406.391290,-10362.883188,995.924147
334.722574,-1480.411884,-9622.677246,842.705048
334.722902,-1184.329507,-9178.553681,306.438199
334.723229,-370.102971,-8438.347739,76.609550
334.723557,518.144159,-7550.100608,0.000000
334.723884,1406.391290,-7476.080014,0.000000
334.724212,1924.535449,-7179.997637,-153.219100
334.724540,2220.617826,-7920.203579,383.047749
334.724867,1924.535449,-8216.285956,383.047749
334.725195,1332.370696,-8882.471304,1149.143247
334.725523,962.267725,-9696.697840,1608.800546
334.725850,444.123565,-10066.800811,1685.410096
334.726178,0.000000,-10510.924376,2145.067394
334.726505,-740.205942,-10436.903782,1915.238745
334.726833,-1924.535449,-10140.821405,2451.505594
334.727161,-2368.659014,-9844.739029,1685.410096
334.727488,-2368.659014,-9400.615463,919.314598
334.727816,-2146.597232,-8808.450710,612.876398
334.728143,-1480.411884,-8290.306550,0.000000
334.728471,-1480.411884,-7031.956449,0.000000
334.728799,-740.205942,-7254.018232,0.000000
334.729126,-518.144159,-7328.038826,76.609550
334.729454,-814.226536,-7550.100608,229.828649
334.729782,-370.102971,-8438.347739,229.828649
334.730109,-592.164754,-8956.491898,153.219100
334.730437,-370.102971,-9474.636058,1225.752797
334.730764,-740.205942,-10066.800811,1532.190996
334.731092,-1036.288319,-10510.924376,1685.410096
334.731420,-1554.432478,-10881.027347,1838.629195
334.731747,-1924.535449,-10584.944971,536.266849
334.732075,-2220.617826,-9992.780217,919.314598
334.732402,-1776.494261,-9474.636058,0.000000
334.732730,-1036.288319,-8808.450710,-153.219100
334.733058,0.000000,-8290.306550,-536.266849
334.733385,1258.350101,-7254.018232,-689.485948
334.733713,2220.617826,-7846.182985,0.000000
334.734041,2146.597232,-7846.182985,153.219100
334.734368,1554.432478,-8956.491898,383.047749
334.734696,1332.370696,-9252.574275,306.438199
334.735023,1110.308913,-9770.718434,1149.143247
334.735351,962.267725,-10214.842000,1225.752797
334.735679,444.123565,-10510.924376,1455.581446
334.736006,0.000000,-10807.006753,1838.629195
334.736334,-1110.308913,-10510.924376,1608.800546
334.736661,-1406.391290,-10066.800811,842.705048
334.736989,-1776.494261,-9400.615463,0.000000
334.737317,-1924.535449,-8956.491898,-229.828649
334.737644,-1406.391290,-8586.388927,-995.924147
334.737972,-1110.308913,-7846.182985,-1225.752797
334.738300,0.000000,-7476.080014,-1149.143247
334.738627,74.020594,-7254.018232,-536.266849
334.738955,74.020594,-7254.018232,-536.266849
334.739282,0.000000,-8142.265362,-153.219100
334.739610,370.102971,-8882.471304,229.828649
334.739938,222.061783,-9474.636058,306.438199
334.740265,370.102971,-10214.842000,1225.752797
334.740593,0.000000,-10214.842000,1072.533697
334.740920,-666.185348,-10510.924376,1149.143247
334.741248,-1258.350101,-10510.924376,1072.533697
334.741576,-1332.370696,-10066.800811,536.266849
334.741903,-1776.494261,-9400.615463,229.828649
334.742231,-666.185348,-8586.388927,0.000000
334.742559,222.061783,-7772.162391,-229.828649
334.742886,1554.432478,-7476.080014,-306.438199
334.743214,1924.535449,-7476.080014,0.000000
334.743541,2072.576638,-7624.121203,153.219100
334.743869,2146.597232,-8364.327145,766.095498
334.744197,1184.329507,-9030.512492,842.705048
334.744524,1036.288319,-9548.656652,1378.971896
334.744852,592.164754,-10288.862594,1915.238745
334.745179,148.041188,-10584.944971,2298.286494
334.745507,-444.123565,-10584.944971,1915.238745
334.745835,-1258.350101,-10584.944971,2374.896044
334.746162,-2220.617826,-9992.780217,1991.848295
334.746490,-2368.659014,-9400.615463,1302.362347
334.746818,-2146.597232,-8882.471304,612.876398
334.747145,-1702.473667,-8068.244768,76.609550
334.747473,-1332.370696,-7179.997637,-229.828649
334.747800,-740.205942,-7402.059420,0.000000
334.748128,-518.144159,-7476.080014,0.000000
334.748456,-592.164754,-7476.080014,229.828649
334.748783,-814.226536,-8290.306550,536.266849
334.749111,-370.102971,-8734.430116,919.314598
334.749438,-814.226536,-9474.636058,842.705048
334.749766,-962.267725,-9918.759623,1455.581446
334.750094,-740.205942,-10658.965565,1838.629195
334.750421,-1184.329507,-10881.027347,1608.800546
334.750749,-2146.597232,-10436.903782,1378.971896
334.751077,-1998.556043,-10436.903782,689.485948
334.751404,-1776.494261,-9474.636058,229.828649
334.751732,-1036.288319,-9104.533087,-229.828649
334.752059,148.041188,-8290.306550,-306.438199
334.752387,1406.391290,-7624.121203,-766.095498
334.752715,2220.617826,-7624.121203,0.000000
334.753042,2220.617826,-8068.244768,0.000000
334.753370,2294.638420,-8734.430116,459.657299
334.753697,1776.494261,-9326.594869,689.485948
334.754025,1406.391290,-9844.739029,919.314598
334.754353,1184.329507,-10584.944971,1455.581446
334.754680,1184.329507,-10881.027347,1685.410096
334.755008,148.041188,-10881.027347,1685.410096
334.755336,-592.164754,-10732.986159,1838.629195
334.755663,-1554.432478,-10584.944971,1302.362347
334.755991,-1554.432478,-9844.739029,76.609550
334.756318,-1702.473667,-9326.594869,-459.657299
334.756646,-1258.350101,-8512.368333,-995.924147
334.756974,-962.267725,-7772.162391,-1378.971896
334.757301,-518.144159,-7698.141797,-995.924147
334.757629,0.000000,-7105.977043,-919.314598
334.757956,222.061783,-7550.100608,-766.095498
334.758284,148.041188,-8142.265362,-306.438199
334.758612,0.000000,-8660.409521,0.000000
334.758939,0.000000,-9844.739029,306.438199
334.759267,-222.061783,-9770.718434,995.924147
334.759595,74.020594,-10066.800811,1225.752797
334.759922,-740.205942,-10584.944971,1378.971896
334.760250,-1554.432478,-10584.944971,919.314598
334.760577,-1628.453072,-10140.821405,919.314598
334.760905,-1258.350101,-9252.574275,536.266849
334.761233,-222.061783,-8512.368333,0.000000
334.761560,148.041188,-7920.203579,-306.438199
334.761888,1184.329507,-7550.100608,-383.047749
334.762215,1924.535449,-7402.059420,0.000000
334.762543,2146.597232,-7624.121203,306.438199
334.762871,1998.556043,-7402.059420,919.314598
334.763198,1776.494261,-8512.368333,995.924147
334.763526,888.247130,-9400.615463,1608.800546
334.763854,814.226536,-9844.739029,1991.848295
334.764181,0.000000,-10140.821405,2374.896044
334.764509,-740.205942,-10658.965565,2604.724693
334.764836,-1554.432478,-10214.842000,2528.115143
334.765164,-2146.597232,-9770.718434,1991.848295
334.765492,-2442.679609,-9178.553681,1225.752797
334.765819,-2146.597232,-8438.347739,842.705048
334.766147,-1554.432478,-8068.244768,0.000000
334.766474,-1332.370696,-7105.977043,-229.828649
334.766802,-888.247130,-7105.977043,0.000000
334.767130,-740.205942,-7031.956449,0.000000
334.767457,-444.123565,-7179.997637,153.219100
334.767785,-814.226536,-8068.244768,612.876398
334.768113,-666.185348,-8586.388927,842.705048
334.768440,-888.247130,-9326.594869,689.485948
334.768768,-740.205942,-9770.718434,1378.971896
334.769095,-962.267725,-10214.842000,1378.971896
334.769423,-1406.391290,-10658.965565,1915.238745
334.769751,-1628.453072,-10436.903782,1072.533697
334.770078,-1850.514855,-10362.883188,995.924147
334.770406,-1776.494261,-9622.677246,229.828649
334.770733,-1184.329507,-9030.512492,0.000000
334.771061,0.000000,-8216.285956,-306.438199
334.771389,962.267725,-7402.059420,0.000000
334.771716,2146.597232,-7476.080014,-306.438199
334.772044,2220.617826,-7920.203579,0.000000
334.772372,2146.597232,-8512.368333,459.657299
334.772699,1702.473667,-9252.574275,536.266849
334.773027,1332.370696,-9400.615463,995.924147
334.773354,1332.370696,-10362.883188,919.314598
334.773682,666.185348,-10807.006753,1915.238745
334.774010,0.000000,-10955.047942,1608.800546
334.774337,-666.185348,-10807.006753,1685.410096
334.774665,-1776.494261,-10362.883188,1455.581446
334.774992,-1924.535449,-9696.697840,612.876398
334.775320,-2368.659014,-9400.615463,-153.219100
334.775648,-1850.514855,-8660.409521,-995.924147
334.775975,-1406.391290,-7920.203579,-1072.533697
334.776303,-888.247130,-7624.121203,-1225.752797
334.776631,0.000000,-7624.121203,-842.705048
334.776958,-222.061783,-7550.100608,-689.485948
334.777286,-148.041188,-8142.265362,-689.485948
334.777613,0.000000,-8808.450710,-153.219100
334.777941,0.000000,-9400.615463,229.828649
334.778269,0.000000,-9326.594869,842.705048
334.778596,-592.164754,-9992.780217,1378.971896
334.778924,-666.185348,-10362.883188,1302.362347
334.779251,-1184.329507,-10584.944971,1149.143247
334.779579,-1480.411884,-10140.821405,1072.533697
334.779907,-1332.370696,-9844.739029,0.000000
334.780234,-666.185348,-8808.450710,0.000000
334.780562,0.000000,-8216.285956,-383.047749
334.780890,1036.288319,-7698.141797,-306.438199
334.781217,1924.535449,-7179.997637,0.000000
334.781545,2442.679609,-7624.121203,306.438199
334.781872,2664.741391,-7698.141797,383.047749
334.782200,1924.535449,-8586.388927,689.485948
334.782528,1406.391290,-9474.636058,1149.143247
334.782855,888.247130,-9992.780217,1455.581446
334.783183,444.123565,-10584.944971,1838.629195
334.783510,0.000000,-10510.924376,1991.848295
334.783838,-1036.288319,-10584.944971,2374.896044
334.784166,-1850.514855,-10214.842000,2068.457845
334.784493,-2146.597232,-9622.677246,1149.143247
334.784821,-2368.659014,-8956.491898,766.095498
334.785149,-1702.473667,-7846.182985,-153.219100
334.785476,-1184.329507,-7402.059420,0.000000
334.785804,-962.267725,-7402.059420,-306.438199
334.786131,-592.164754,-7550.100608,-153.219100
334.786459,-296.082377,-7476.080014,-153.219100
334.786787,0.000000,-8068.244768,-306.438199
334.787114,-444.123565,-8216.285956,766.095498
334.787442,-518.144159,-9400.615463,919.314598
334.787769,-592.164754,-10066.800811,1302.362347
334.788097,-962.267725,-10140.821405,1532.190996
334.788425,-1110.308913,-10732.986159,2068.457845
334.788752,-1998.556043,-10807.006753,2145.067394
334.789080,-1702.473667,-10510.924376,1225.752797
334.789408,-1998.556043,-9918.759623,766.095498
334.789735,-1184.329507,-9326.594869,229.828649
334.790063,-148.041188,-8512.368333,0.000000
334.790390,740.205942,-7624.121203,0.000000
334.790718,2072.576638,-7698.141797,153.219100
334.791046,2368.659014,-7846.182985,536.266849
334.791373,2072.576638,-8216.285956,383.047749
334.791701,1480.411884,-9030.512492,842.705048
334.792028,1332.370696,-9622.677246,995.924147
334.792356,1554.432478,-10510.924376,1072.533697
334.792684,592.164754,-10510.924376,1762.019645
334.793011,0.000000,-10732.986159,1915.238745
334.793339,-814.226536,-10658.965565,1838.629195
334.793667,-1554.432478,-10362.883188,1685.410096
334.793994,-1998.556043,-9474.636058,459.657299
334.794322,-2442.679609,-9252.574275,-229.828649
334.794649,-1924.535449,-8882.471304,-842.705048
334.794977,-1702.473667,-8142.265362,-1225.752797
334.795305,-1036.288319,-7920.203579,-1378.971896
334.795632,-518.144159,-7105.977043,-1149.143247
334.795960,0.000000,-7476.080014,-1149.143247
334.796287,0.000000,-7698.141797,-919.314598
334.796615,0.000000,-8512.368333,-383.047749
334.796943,74.020594,-9252.574275,229.828649
334.797270,444.123565,-9548.656652,689.485948
334.797598,74.020594,-10288.862594,1302.362347
334.797925,-296.082377,-10658.965565,1302.362347
334.798253,-814.226536,-10807.006753,1378.971896
334.798580,-1184.329507,-10584.944971,919.314598
334.798908,-1258.350101,-10066.800811,-229.828649
334.799236,-666.185348,-9252.574275,76.609550
334.799563,74.020594,-8290.306550,-459.657299
334.799891,1406.391290,-7772.162391,-153.219100
334.800218,2294.638420,-7328.038826,0.000000
334.800546,2886.803174,-7698.141797,76.609550
334.800873,3182.885551,-7920.203579,689.485948
334.801201,2368.659014,-8438.347739,612.876398
334.801528,1258.350101,-9400.615463,1225.752797
334.801856,962.267725,-9992.780217,1532.190996
334.802184,296.082377,-10436.903782,2834.553343
334.802511,0.000000,-10510.924376,2451.505594
334.802839,-1184.329507,-10436.903782,2451.505594
334.803166,-2072.576638,-10214.842000,2451.505594
334.803494,-2368.659014,-9474.636058,1838.629195
334.803821,-2590.720797,-8882.471304,995.924147
334.804149,-2368.659014,-8142.265362,766.095498
334.804476,-1850.514855,-7254.018232,76.609550
334.804804,-1184.329507,-7105.977043,-153.219100
334.805132,-1036.288319,-6883.915261,-229.828649
334.805459,-592.164754,-7254.018232,0.000000
334.805787,-888.247130,-7772.162391,383.047749
334.806114,-444.123565,-8808.450710,689.485948
334.806442,-888.247130,-9400.615463,766.095498
334.806769,-962.267725,-9918.759623,1149.143247
334.807097,-1258.350101,-10510.924376,1762.019645
334.807424,-1184.329507,-10658.965565,2145.067394
334.807752,-1554.432478,-10881.027347,1149.143247
334.808079,-1702.473667,-10807.006753,919.314598
334.808407,-1554.432478,-10066.800811,766.095498
334.808735,-1258.350101,-9474.636058,153.219100
334.809062,0.000000,-8882.471304,0.000000
334.809390,1406.391290,-8068.244768,0.000000
334.809717,2072.576638,-7698.141797,0.000000
334.810045,2664.741391,-7846.182985,229.828649
334.810372,2368.659014,-8290.306550,153.219100
334.810700,1850.514855,-9030.512492,766.095498
334.811027,1924.535449,-9548.656652,612.876398
334.811355,1258.350101,-10288.862594,1302.362347
334.811683,814.226536,-10658.965565,1455.581446
334.812010,370.102971,-10955.047942,1762.019645
334.812338,-592.164754,-10658.965565,1608.800546
334.812665,-1406.391290,-10510.924376,1302.362347
334.812993,-1924.535449,-10214.842000,1072.533697
334.813320,-2294.638420,-9474.636058,0.000000
334.813648,-2072.576638,-8882.471304,-842.705048
334.813975,-1554.432478,-8216.285956,-995.924147
334.814303,-962.267725,-7624.121203,-1378.971896
334.814631,-222.061783,-7328.038826,-766.095498
334.814958,-148.041188,-7698.141797,-1149.143247
334.815286,0.000000,-7772.162391,-842.705048
334.815613,0.000000,-8512.368333,0.000000
334.815941,74.020594,-9178.553681,0.000000
334.816268,0.000000,-9622.677246,1455.581446
334.816596,74.020594,-10510.924376,1072.533697
334.816923,-370.102971,-10584.944971,1378.971896
334.817251,-740.205942,-10807.006753,1532.190996
334.817579,-1406.391290,-10584.944971,919.314598
334.817906,-1184.329507,-10288.862594,0.000000
334.818234,-1110.308913,-9252.574275,-459.657299
334.818561,-370.102971,-8438.347739,-459.657299
334.818889,1036.288319,-7920.203579,-766.095498
334.819216,1776.494261,-7254.018232,-153.219100
334.819544,2590.720797,-7550.100608,76.609550
334.819871,2738.761985,-7402.059420,612.876398
334.820199,1998.556043,-8216.285956,459.657299
334.820527,1406.391290,-9400.615463,1149.143247
334.820854,962.267725,-9622.677246,1608.800546
334.821182,296.082377,-9844.739029,2451.505594
334.821509,370.102971,-10510.924376,2451.505594
334.821837,-740.205942,-10362.883188,2528.115143
334.822164,-1924.535449,-10436.903782,2298.286494
334.822492,-2368.659014,-9622.677246,1608.800546
334.822819,-2516.700203,-9104.533087,995.924147
334.823147,-1702.473667,-8216.285956,766.095498
334.823475,-1628.453072,-7624.121203,-229.828649
334.823802,-1258.350101,-7179.997637,-612.876398
334.824130,-592.164754,-7105.977043,-306.438199
334.824457,-518.144159,-7105.977043,0.000000
334.824785,-592.164754,-7476.080014,0.000000
334.825112,-444.123565,-7994.224174,383.047749
334.825440,-740.205942,-9104.533087,612.876398
334.825767,-814.226536,-9548.656652,1225.752797
334.826095,-888.247130,-10066.800811,1455.581446
334.826423,-1110.308913,-10436.903782,2298.286494
334.826750,-1184.329507,-10732.986159,1991.848295
334.827078,-1850.514855,-10584.944971,1532.190996
334.827405,-1628.453072,-9992.780217,919.314598
334.827733,-1258.350101,-9252.574275,459.657299
334.828060,-666.185348,-8438.347739,0.000000
334.828388,1036.288319,-7994.224174,153.219100
334.828715,1702.473667,-7846.182985,0.000000
334.829043,2294.638420,-7846.182985,306.438199
334.829371,2368.659014,-8290.306550,229.828649
334.829698,1554.432478,-8956.491898,689.485948
334.830026,1628.453072,-9400.615463,1302.362347
334.830353,1036.288319,-10214.842000,995.924147
334.830681,814.226536,-10658.965565,1685.410096
334.831008,222.061783,-10955.047942,1685.410096
334.831336,-444.123565,-10881.027347,1762.019645
334.831663,-1406.391290,-10955.047942,1838.629195
334.831991,-1702.473667,-10066.800811,995.924147
334.832318,-2590.720797,-9548.656652,0.000000
334.832646,-1998.556043,-8956.491898,-689.485948
334.832974,-1776.494261,-8142.265362,-1225.752797
334.833301,-962.267725,-7994.224174,-1302.362347
334.833629,0.000000,-7179.997637,-1225.752797
334.833956,148.041188,-7624.121203,-1149.143247
334.834284,0.000000,-7624.121203,-459.657299
334.834611,148.041188,-8364.327145,-536.266849
334.834939,0.000000,-9252.574275,0.000000
334.835266,296.082377,-9622.677246,76.609550
334.835594,0.000000,-10140.821405,689.485948
334.835922,0.000000,-10510.924376,1302.362347
334.836249,-592.164754,-10732.986159,1302.362347
334.836577,-962.267725,-10807.006753,995.924147
334.836904,-740.205942,-10584.944971,536.266849
334.837232,-1184.329507,-9104.533087,-153.219100
334.837559,0.000000,-8808.450710,-459.657299
334.837887,888.247130,-7920.203579,-536.266849
334.838214,1776.494261,-7476.080014,-306.438199
334.838542,2220.617826,-7624.121203,306.438199
334.838870,2442.679609,-7328.038826,459.657299
334.839197,2442.679609,-8290.306550,459.657299
334.839525,1332.370696,-8956.491898,766.095498
334.839852,740.205942,-9400.615463,1225.752797
334.840180,666.185348,-9992.780217,1915.238745
334.840507,0.000000,-9992.780217,1838.629195
334.840835,-1036.288319,-10584.944971,1991.848295
334.841162,-1480.411884,-10436.903782,1915.238745
334.841490,-2516.700203,-9770.718434,1455.581446
334.841818,-2442.679609,-9400.615463,919.314598
334.842145,-2516.700203,-7994.224174,76.609550
334.842473,-1776.494261,-8068.244768,-306.438199
334.842800,-1110.308913,-7328.038826,-229.828649
334.843128,-740.205942,-7031.956449,-536.266849
334.843455,-222.061783,-7254.018232,-229.828649
334.843783,-370.102971,-7328.038826,0.000000
334.844110,-592.164754,-8290.306550,229.828649
334.844438,-518.144159,-9030.512492,689.485948
334.844766,-666.185348,-9770.718434,1225.752797
334.845093,-814.226536,-10214.842000,1532.190996
334.845421,-740.205942,-10732.986159,1608.800546
334.845748,-1110.308913,-10510.924376,2221.676944
334.846076,-1480.411884,-10732.986159,1685.410096
334.846403,-1554.432478,-10066.800811,1149.143247
334.846731,-1258.350101,-9474.636058,459.657299
334.847058,-222.061783,-8734.430116,306.438199
334.847386,740.205942,-7920.203579,306.438199
334.847714,1776.494261,-7772.162391,0.000000
334.848041,2072.576638,-7920.203579,459.657299
334.848369,2368.659014,-8290.306550,612.876398
334.848696,1998.556043,-9104.533087,766.095498
334.849024,1110.308913,-8956.491898,995.924147
334.849351,1184.329507,-9844.739029,1455.581446
334.849679,370.102971,-10288.862594,1608.800546
334.850006,74.020594,-10658.965565,1915.238745
334.850334,-444.123565,-10881.027347,1608.800546
334.850662,-1332.370696,-11251.130318,1378.971896
334.850989,-1554.432478,-10066.800811,919.314598
334.851317,-2442.679609,-9696.697840,153.219100
334.851644,-2368.659014,-8734.430116,-689.485948
334.851972,-1924.535449,-8142.265362,-995.924147
334.852299,-1036.288319,-7846.182985,-1225.752797
334.852627,-222.061783,-7105.977043,-1072.533697
334.852954,0.000000,-7550.100608,-919.314598
334.853282,74.020594,-7994.224174,-536.266849
334.853610,0.000000,-8660.409521,0.000000
334.853937,74.020594,-8808.450710,229.828649
334.854265,222.061783,-9252.574275,689.485948
334.854592,296.082377,-10214.842000,1302.362347
334.854920,0.000000,-10436.903782,1608.800546
334.855247,-370.102971,-10807.006753,1532.190996
334.855575,-740.205942,-10436.903782,1302.362347
334.855902,-1332.370696,-10214.842000,995.924147
334.856230,-1258.350101,-9326.594869,0.000000
334.856558,-444.123565,-8956.491898,-306.438199
334.856885,666.185348,-8216.285956,-459.657299
334.857213,1850.514855,-7624.121203,0.000000
334.857540,2368.659014,-7402.059420,76.609550
334.857868,2220.617826,-7920.203579,229.828649
334.858195,1924.535449,-8512.368333,1072.533697
334.858523,1406.391290,-9030.512492,766.095498
334.858850,370.102971,-9548.656652,1302.362347
334.859178,444.123565,-9992.780217,1991.848295
334.859505,74.020594,-9918.759623,1991.848295
334.859833,-814.226536,-10362.883188,2374.896044
334.860161,-1480.411884,-10066.800811,1991.848295
334.860488,-2146.597232,-9770.718434,1378.971896
334.860816,-2294.638420,-9326.594869,919.314598
334.861143,-1924.535449,-8438.347739,0.000000
334.861471,-1998.556043,-7772.162391,-612.876398
334.861798,-1258.350101,-7550.100608,-842.705048
334.862126,-740.205942,-7254.018232,-383.047749
334.862453,-518.144159,-7254.018232,-459.657299
334.862781,0.000000,-7254.018232,76.609550
334.863109,-370.102971,-8290.306550,383.047749
334.863436,-370.102971,-9030.512492,536.266849
334.863764,-888.247130,-9622.677246,1149.143247
334.864091,-666.185348,-10066.800811,1378.971896
334.864419,-740.205942,-10732.986159,1455.581446
334.864746,-1110.308913,-10288.862594,1762.019645
334.865074,-1332.370696,-10510.924376,1302.362347
334.865401,-1554.432478,-9992.780217,1225.752797
334.865729,-1110.308913,-9474.636058,536.266849
334.866057,-222.061783,-8586.388927,0.000000
334.866384,888.247130,-7772.162391,0.000000
334.866712,1628.453072,-7772.162391,0.000000
334.867039,1998.556043,-7772.162391,0.000000
334.867367,2072.576638,-8216.285956,306.438199
334.867694,2072.576638,-8808.450710,1225.752797
334.868022,1702.473667,-9178.553681,612.876398
334.868349,962.267725,-9918.759623,1149.143247
334.868677,740.205942,-10288.862594,1302.362347
334.869005,296.082377,-10658.965565,1838.629195
334.869332,-444.123565,-10658.965565,1838.629195
334.869660,-1110.308913,-10584.944971,1685.410096
334.869987,-2072.576638,-9992.780217,1302.362347
334.870315,-2368.659014,-9770.718434,612.876398
334.870642,-2368.659014,-8956.491898,-306.438199
334.870970,-1924.535449,-8068.244768,-766.095498
334.871297,-1628.453072,-7402.059420,-842.705048
334.871625,0.000000,-7550.100608,-689.485948
334.871953,-222.061783,-7328.038826,-383.047749
334.872280,0.000000,-7698.141797,-153.219100
334.872608,222.061783,-8216.285956,0.000000
334.872935,222.061783,-8512.368333,689.485948
334.873263,222.061783,-9770.718434,919.314598
334.873590,0.000000,-10140.821405,1302.362347
334.873918,0.000000,-10510.924376,1915.238745
334.874245,-666.185348,-10658.965565,2068.457845
334.874573,-1406.391290,-10658.965565,1608.800546
334.874901,-1258.350101,-9918.759623,919.314598
334.875228,-1258.350101,-9474.636058,459.657299
334.875556,-1036.288319,-8586.388927,-153.219100
334.875883,222.061783,-7994.224174,-306.438199
334.876211,1406.391290,-7698.141797,-229.828649
334.876538,2220.617826,-7105.977043,153.219100
334.876866,1702.473667,-7698.141797,229.828649
334.877193,1480.411884,-8068.244768,536.266849
334.877521,1258.350101,-9030.512492,612.876398
334.877849,740.205942,-9400.615463,1225.752797
334.878176,592.164754,-9696.697840,1608.800546
334.878504,74.020594,-9992.780217,2298.286494
334.878831,-592.164754,-10140.821405,2374.896044
334.879159,-1258.350101,-9696.697840,2221.676944
334.879486,-1628.453072,-9918.759623,1608.800546
334.879814,-1850.514855,-9178.553681,919.314598
334.880141,-1480.411884,-8586.388927,689.485948
334.880469,-1998.556043,-7846.182985,-383.047749
334.880797,-1036.288319,-7846.182985,-612.876398
334.881124,-814.226536,-7179.997637,-919.314598
334.881452,-666.185348,-6957.935855,-612.876398
334.881779,444.123565,-8290.306550,-229.828649
334.882107,-592.164754,-7476.080014,-306.438199
334.882434,-370.102971,-8956.491898,229.828649
334.882762,-222.061783,-9474.636058,153.219100
334.883089,-370.102971,-10066.800811,1149.143247
334.883417,-518.144159,-10658.965565,995.924147
334.883744,-740.205942,-10807.006753,1838.629195
334.884072,-1258.350101,-10658.965565,1149.143247
334.884400,-888.247130,-10288.862594,1149.143247
334.884727,-1332.370696,-9548.656652,229.828649
334.885055,0.000000,-9252.574275,-306.438199
334.885382,444.123565,-7772.162391,-383.047749
334.885710,1332.370696,-7994.224174,-229.828649
334.886037,1850.514855,-8142.265362,-383.047749
334.886365,2072.576638,-8216.285956,0.000000
334.886692,1776.494261,-8068.244768,459.657299
334.887020,1850.514855,-9178.553681,919.314598
334.887348,962.267725,-9696.697840,842.705048
334.887675,962.267725,-10362.883188,1302.362347
334.888003,888.247130,-10732.986159,1608.800546
334.888330,-370.102971,-10658.965565,1608.800546
334.888658,-962.267725,-10288.862594,1838.629195
334.888985,-1702.473667,-10658.965565,1378.971896
334.889313,-2220.617826,-10066.800811,766.095498
334.889640,-2516.700203,-9104.533087,0.000000
334.889968,-1554.432478,-8660.409521,-306.438199
334.890296,-1628.453072,-7402.059420,-306.438199
334.890623,-666.185348,-7476.080014,-383.047749
334.890951,-666.185348,-7179.997637,-919.314598
334.891278,-370.102971,-7476.080014,-459.657299
334.891606,296.082377,-8512.368333,0.000000
334.891933,74.020594,-8216.285956,306.438199
334.892261,296.082377,-9030.512492,536.266849
334.892588,-148.041188,-9992.780217,919.314598
334.892916,0.000000,-10584.944971,1685.410096
334.893244,-518.144159,-10881.027347,1685.410096
334.893571,-1110.308913,-10510.924376,1685.410096
334.893899,-1628.453072,-10807.006753,1225.752797
334.894226,-1850.514855,-9474.636058,306.438199
334.894554,-592.164754,-9178.553681,153.219100
334.894881,-518.144159,-8142.265362,-536.266849
334.895209,740.205942,-7698.141797,-229.828649
334.895536,1850.514855,-7476.080014,383.047749
334.895864,2368.659014,-8068.244768,0.000000
334.896192,1998.556043,-8216.285956,383.047749
334.896519,1110.308913,-8956.491898,153.219100
334.896847,592.164754,-9770.718434,1225.752797
334.897174,296.082377,-9326.594869,1149.143247
334.897502,296.082377,-9918.759623,1685.410096
334.897829,-518.144159,-10510.924376,1915.238745
334.898157,-740.205942,-10584.944971,2068.457845
334.898484,-1332.370696,-10288.862594,1762.019645
334.898812,-2442.679609,-9178.553681,919.314598
334.899140,-2516.700203,-8882.471304,306.438199
334.899467,-1924.535449,-8512.368333,-536.266849
334.899795,-2072.576638,-7698.141797,-1149.143247
334.900122,-666.185348,-8068.244768,-766.095498
334.900450,-296.082377,-7550.100608,-842.705048
334.900777,222.061783,-8068.244768,-536.266849
334.901105,222.061783,-7846.182985,76.609550
334.901432,0.000000,-8882.471304,0.000000
334.901760,-296.082377,-9548.656652,612.876398
334.902088,-444.123565,-10436.903782,995.924147
334.902415,-444.123565,-10510.924376,1149.143247
334.902743,-592.164754,-10658.965565,1532.190996
334.903070,-1184.329507,-10807.006753,1149.143247
334.903398,-1332.370696,-10658.965565,1225.752797
334.903725,-1628.453072,-9326.594869,689.485948
334.904053,-1184.329507,-8586.388927,0.000000
334.904380,0.000000,-8660.409521,0.000000
334.904708,1036.288319,-7476.080014,0.000000
334.905036,2072.576638,-7846.182985,-306.438199
334.905363,1776.494261,-7994.224174,0.000000
334.905691,1998.556043,-8290.306550,612.876398
334.906018,888.247130,-8586.388927,689.485948
334.906346,1258.350101,-9622.677246,1149.143247
334.906673,592.164754,-10288.862594,1378.971896
334.907001,370.102971,-10288.862594,2068.457845
334.907329,-962.267725,-10362.883188,1991.848295
334.907656,-1184.329507,-10658.965565,2145.067394
334.907984,-1554.432478,-10362.883188,1608.800546
334.908311,-2220.617826,-9918.759623,919.314598
334.908639,-2146.597232,-9252.574275,76.609550
334.908966,-1702.473667,-8068.244768,-229.828649
334.909294,-444.123565,-7920.203579,-459.657299
334.909621,0.000000,-6661.853478,-459.657299
334.909949,0.000000,-7105.977043,0.000000
334.910277,518.144159,-7624.121203,0.000000
334.910604,148.041188,-8216.285956,153.219100
334.910932,222.061783,-9030.512492,766.095498
334.911259,444.123565,-9326.594869,1762.019645
334.911587,74.020594,-9770.718434,1685.410096
334.911914,0.000000,-10436.903782,1838.629195
334.912242,-592.164754,-10732.986159,1762.019645
334.912569,-1110.308913,-10584.944971,1455.581446
334.912897,-1850.514855,-9844.739029,1225.752797
334.913225,-1628.453072,-9326.594869,76.609550
334.913552,-1332.370696,-8364.327145,-229.828649
334.913880,-518.144159,-8142.265362,-306.438199
334.914207,666.185348,-7328.038826,-689.485948
334.914535,1702.473667,-7254.018232,-536.266849
334.914862,2072.576638,-7698.141797,-383.047749
334.915190,1332.370696,-8142.265362,229.828649
334.915518,1184.329507,-8956.491898,612.876398
334.915845,370.102971,-9474.636058,612.876398
334.916173,222.061783,-9696.697840,1608.800546
334.916500,296.082377,-10140.821405,1532.190996
334.916828,-222.061783,-10140.821405,1991.848295
334.917155,-814.226536,-10214.842000,1762.019645
334.917483,-1628.453072,-10066.800811,1225.752797
334.917810,-1998.556043,-9474.636058,689.485948
334.918138,-2146.597232,-8734.430116,-383.047749
334.918466,-1702.473667,-8142.265362,-766.095498
334.918793,-1184.329507,-7698.141797,-1149.143247
334.919121,-444.123565,-7624.121203,-995.924147
334.919448,0.000000,-7254.018232,-842.705048
334.919776,370.102971,-7402.059420,-229.828649
334.920103,148.041188,-7994.224174,-459.657299
334.920431,148.041188,-9104.533087,229.828649
334.920758,0.000000,-9622.677246,306.438199
334.921086,0.000000,-9992.780217,689.485948
334.921414,-370.102971,-10584.944971,1762.019645
334.921741,-740.205942,-10436.903782,1608.800546
334.922069,-1036.288319,-10584.944971,1302.362347
334.922396,-1110.308913,-10362.883188,995.924147
334.922724,-1332.370696,-9474.636058,459.657299
334.923051,-666.185348,-8734.430116,0.000000
334.923379,-592.164754,-7402.059420,-383.047749
334.923707,740.205942,-7550.100608,-383.047749
334.924034,1702.473667,-7476.080014,0.000000
334.924362,2072.576638,-7550.100608,76.609550
334.924689,1628.453072,-8142.265362,383.047749
334.925017,1628.453072,-8882.471304,689.485948
334.925344,740.205942,-9474.636058,842.705048
334.925672,222.061783,-10288.862594,1685.410096
334.925999,0.000000,-10436.903782,1532.190996
334.926327,-666.185348,-10658.965565,1991.848295
334.926655,-1036.288319,-10362.883188,1991.848295
334.926982,-1998.556043,-10362.883188,1762.019645
334.927310,-2368.659014,-9696.697840,1072.533697
334.927637,-2368.659014,-8808.450710,612.876398
334.927965,-2072.576638,-8068.244768,0.000000
334.928292,-1258.350101,-7476.080014,-459.657299
334.928620,-740.205942,-7179.997637,-229.828649
334.928947,-148.041188,-7254.018232,-306.438199
334.929275,0.000000,-7402.059420,0.000000
334.929603,0.000000,-8142.265362,153.219100
334.929930,-222.061783,-8956.491898,459.657299
334.930258,-296.082377,-9326.594869,1378.971896
334.930585,0.000000,-10066.800811,1225.752797
334.930913,0.000000,-10436.903782,1608.800546
334.931240,-518.144159,-10584.944971,1915.238745
334.931568,-1036.288319,-10732.986159,1685.410096
334.931895,-1258.350101,-10214.842000,1072.533697
334.932223,-1628.453072,-9696.697840,229.828649
334.932551,-1110.308913,-8956.491898,-153.219100
334.932878,-296.082377,-8438.347739,-383.047749
334.933206,666.185348,-7994.224174,-612.876398
334.933533,1850.514855,-7328.038826,-153.219100
334.933861,2368.659014,-7772.162391,0.000000
334.934188,1850.514855,-8438.347739,383.047749
334.934516,1406.391290,-8956.491898,612.876398
334.934844,888.247130,-9844.739029,842.705048
334.935171,370.102971,-9918.759623,1378.971896
334.935499,444.123565,-10288.862594,1378.971896
334.935826,0.000000,-10658.965565,1915.238745
334.936154,-740.205942,-10658.965565,1991.848295
334.936481,-1480.411884,-10436.903782,1685.410096
334.936809,-2072.576638,-9844.739029,1378.971896
334.937136,-2146.597232,-9400.615463,-306.438199
334.937464,-2072.576638,-8438.347739,-459.657299
334.937792,-1406.391290,-7920.203579,-766.095498
334.938119,-814.226536,-7698.141797,-1225.752797
334.938447,0.000000,-7179.997637,-842.705048
334.938774,0.000000,-7624.121203,0.000000
334.939102,296.082377,-8068.244768,-153.219100
334.939429,148.041188,-8586.388927,0.000000
334.939757,-222.061783,-9326.594869,766.095498
334.940084,-148.041188,-9770.718434,842.705048
334.940412,-222.061783,-10214.842000,1149.143247
334.940740,-518.144159,-10436.903782,1685.410096
334.941067,-1110.308913,-10584.944971,1532.190996
334.941395,-1332.370696,-10140.821405,919.314598
334.941722,-1332.370696,-9548.656652,536.266849
334.942050,-962.267725,-8660.409521,536.266849
334.942377,-444.123565,-7772.162391,-306.438199
334.942705,666.185348,-7476.080014,-459.657299
334.943033,1406.391290,-7476.080014,-383.047749
334.943360,1628.453072,-7254.018232,0.000000
334.943688,2072.576638,-8068.244768,459.657299
334.944015,1406.391290,-9104.533087,766.095498
334.944343,888.247130,-9326.594869,919.314598
334.944670,666.185348,-10140.821405,1225.752797
334.944998,148.041188,-9992.780217,1838.629195
334.945325,-296.082377,-10584.944971,1915.238745
334.945653,-592.164754,-10807.006753,2298.286494
334.945981,-1628.453072,-10140.821405,1685.410096
334.946308,-2146.597232,-9548.656652,1225.752797
334.946636,-1998.556043,-9030.512492,459.657299
334.946963,-1776.494261,-8216.285956,0.000000
334.947291,-962.267725,-7476.080014,76.609550
334.947618,-444.123565,-7179.997637,-306.438199
334.947946,-222.061783,-7179.997637,-459.657299
334.948273,0.000000,-7254.018232,-153.219100
334.948601,0.000000,-7920.203579,76.609550
334.948929,74.020594,-8438.347739,612.876398
334.949256,0.000000,-9104.533087,1302.362347
334.949584,-296.082377,-9548.656652,1455.581446
334.949911,-296.082377,-10288.862594,1608.800546
334.950239,-888.247130,-10658.965565,1915.238745
334.950566,-1406.391290,-10732.986159,1455.581446
334.950894,-1850.514855,-10362.883188,1838.629195
334.951222,-1924.535449,-9844.739029,612.876398
334.951549,-1776.494261,-9104.533087,-153.219100
334.951877,-740.205942,-8290.306550,-459.657299
334.952204,222.061783,-7550.100608,-612.876398
334.952532,1332.370696,-7402.059420,0.000000
334.952859,1850.514855,-7846.182985,0.000000
334.953187,1924.535449,-8216.285956,229.828649
334.953514,962.267725,-9104.533087,459.657299
334.953842,814.226536,-9770.718434,842.705048
334.954170,222.061783,-9918.759623,1378.971896
334.954497,296.082377,-10436.903782,1915.238745
334.954825,148.041188,-10732.986159,2145.067394
334.955152,-444.123565,-10510.924376,2068.457845
334.955480,-1184.329507,-10436.903782,1762.019645
334.955807,-1184.329507,-10066.800811,919.314598
334.956135,-1702.473667,-9326.594869,842.705048
334.956462,-1628.453072,-8586.388927,-536.266849
334.956790,-1406.391290,-7994.224174,-919.314598
334.957118,-666.185348,-7772.162391,-842.705048
334.957445,-296.082377,-7402.059420,-842.705048
334.957773,222.061783,-7402.059420,-842.705048
334.958100,222.061783,-7994.224174,-459.657299
334.958428,0.000000,-8734.430116,76.609550
334.958755,74.020594,-9696.697840,383.047749
334.959083,0.000000,-9844.739029,1072.533697
334.959410,-296.082377,-10288.862594,1149.143247
334.959738,-888.247130,-10436.903782,1455.581446
334.960066,-888.247130,-10881.027347,1685.410096
334.960393,-1332.370696,-10362.883188,1302.362347
334.960721,-1628.453072,-9474.636058,612.876398
334.961048,-1036.288319,-8882.471304,0.000000
334.961376,-222.061783,-8068.244768,-153.219100
334.961703,444.123565,-7772.162391,-536.266849
334.962031,1184.329507,-7550.100608,-229.828649
334.962359,1332.370696,-7698.141797,0.000000
334.962686,1776.494261,-7476.080014,0.000000
334.963014,1628.453072,-8438.347739,612.876398
334.963341,1406.391290,-9252.574275,842.705048
334.963669,592.164754,-9474.636058,1225.752797
334.963996,444.123565,-10214.842000,1762.019645
334.964324,-222.061783,-10288.862594,1532.190996
334.964651,-888.247130,-10140.821405,2298.286494
334.964979,-1554.432478,-10140.821405,1838.629195
334.965307,-1924.535449,-9622.677246,1302.362347
334.965634,-2072.576638,-9178.553681,383.047749
334.965962,-1776.494261,-8586.388927,0.000000
334.966289,-1258.350101,-7402.059420,229.828649
334.966617,-370.102971,-7402.059420,-612.876398
334.966944,-444.123565,-7254.018232,-306.438199
334.967272,148.041188,-7698.141797,-306.438199
334.967599,222.061783,-7994.224174,0.000000
334.967927,-222.061783,-8216.285956,383.047749
334.968255,74.020594,-9252.574275,459.657299
334.968582,222.061783,-9770.718434,1378.971896
334.968910,-148.041188,-10140.821405,1378.971896
334.969237,-592.164754,-10658.965565,1915.238745
334.969565,-1110.308913,-10732.986159,2298.286494
334.969892,-1554.432478,-10510.924376,1532.190996
334.970220,-1776.494261,-9918.759623,919.314598
334.970548,-1702.473667,-9178.553681,76.609550
334.970875,-666.185348,-8660.409521,0.000000
334.971203,518.144159,-7920.203579,0.000000
334.971530,1480.411884,-7550.100608,0.000000
334.971858,2072.576638,-7698.141797,459.657299
334.972185,1998.556043,-8068.244768,459.657299
334.972513,1258.350101,-8956.491898,766.095498
334.972840,666.185348,-9474.636058,995.924147
334.973168,518.144159,-9844.739029,1455.581446
334.973496,296.082377,-10140.821405,1608.800546
334.973823,74.020594,-10658.965565,2068.457845
334.974151,-444.123565,-10584.944971,2298.286494
334.974478,-1332.370696,-10584.944971,1991.848295
334.974806,-2220.617826,-9696.697840,1608.800546
334.975133,-2590.720797,-9030.512492,153.219100
334.975461,-2368.659014,-8956.491898,-459.657299
334.975788,-1628.453072,-8438.347739,-612.876398
334.976116,-1258.350101,-7846.182985,-1149.143247
334.976444,-370.102971,-7624.121203,-612.876398
334.976771,0.000000,-7328.038826,-689.485948
334.977099,0.000000,-8068.244768,-383.047749
334.977426,-296.082377,-8660.409521,0.000000
334.977754,0.000000,-9400.615463,306.438199
334.978081,-296.082377,-9696.697840,383.047749
334.978409,148.041188,-10436.903782,1455.581446
334.978737,-592.164754,-9992.780217,1378.971896
334.979064,-814.226536,-10510.924376,1608.800546
334.979392,-1406.391290,-9918.759623,1149.143247
334.979719,-1332.370696,-9474.636058,612.876398
334.980047,-1036.288319,-9400.615463,76.609550
334.980374,-962.267725,-8216.285956,-842.705048
334.980702,592.164754,-7994.224174,-612.876398
334.981029,1110.308913,-7550.100608,-766.095498
334.981357,1554.432478,-7476.080014,-383.047749
334.981685,1998.556043,-7772.162391,-153.219100
334.982012,1480.411884,-7994.224174,0.000000
334.982340,1406.391290,-9178.553681,76.609550
334.982667,1406.391290,-9770.718434,842.705048
334.982995,518.144159,-9918.759623,919.314598
334.983322,592.164754,-10436.903782,1608.800546
334.983650,-148.041188,-9918.759623,1455.581446
334.983977,-1702.473667,-10066.800811,1225.752797
334.984305,-1628.453072,-9992.780217,1378.971896
334.984633,-2072.576638,-9178.553681,76.609550
334.984960,-1406.391290,-8734.430116,0.000000
334.985288,-740.205942,-7846.182985,-689.485948
334.985615,-1258.350101,-7328.038826,-1149.143247
334.985943,-592.164754,-7550.100608,-766.095498
334.986270,222.061783,-7105.977043,-459.657299
334.986598,148.041188,-7846.182985,-229.828649
334.986925,0.000000,-8216.285956,383.047749
334.987253,0.000000,-9104.533087,153.219100
334.987581,-444.123565,-9992.780217,919.314598
334.987908,296.082377,-10510.924376,1532.190996
334.988236,-740.205942,-10881.027347,1149.143247
334.988563,-962.267725,-10584.944971,2145.067394
334.988891,-1628.453072,-10807.006753,1608.800546
334.989218,-2590.720797,-9844.739029,536.266849
334.989546,-1628.453072,-9844.739029,306.438199
334.989874,-296.082377,-8734.430116,0.000000
334.990201,-1110.308913,-7994.224174,-919.314598
334.990529,1924.535449,-8438.347739,0.000000
334.990856,2072.576638,-7476.080014,0.000000
334.991184,1406.391290,-8364.327145,383.047749
334.991511,2220.617826,-9178.553681,842.705048
334.991839,888.247130,-9474.636058,995.924147
334.992166,1036.288319,-9622.677246,2068.457845
334.992494,222.061783,-10510.924376,1762.019645
334.992822,-740.205942,-10140.821405,2145.067394
334.993149,-740.205942,-11547.212695,2604.724693
334.993477,-1554.432478,-10436.903782,1838.629195
334.993804,-2146.597232,-10436.903782,2068.457845
334.994132,-1998.556043,-9400.615463,689.485948
334.994459,-2886.803174,-9030.512492,-229.828649
334.994787,-1554.432478,-8956.491898,-229.828649
334.995114,-888.247130,-7846.182985,-995.924147
334.995442,-444.123565,-7402.059420,-689.485948
334.995770,370.102971,-7179.997637,76.609550
334.996097,0.000000,-7846.182985,-229.828649
334.996425,-148.041188,-9252.574275,229.828649
334.996752,0.000000,-9104.533087,536.266849
334.997080,-222.061783,-9770.718434,1225.752797
334.997407,-518.144159,-9992.780217,1532.190996
334.997735,-740.205942,-10955.047942,1455.581446
334.998062,-740.205942,-10584.944971,1762.019645
334.998390,-1036.288319,-10214.842000,1302.362347
334.998718,-1036.288319,-9770.718434,842.705048
334.999045,-1406.391290,-8586.388927,0.000000
334.999373,-444.123565,-8512.368333,-459.657299
334.999700,444.123565,-7920.203579,-842.705048
335.000028,1258.350101,-7402.059420,-995.924147
335.000355,1850.514855,-7402.059420,-612.876398
335.000683,1924.535449,-8216.285956,-306.438199
335.001010,1998.556043,-8586.388927,383.047749
335.001338,1554.432478,-9326.594869,153.219100
335.001665,888.247130,-9326.594869,689.485948
335.001993,814.226536,-10510.924376,919.314598
335.002320,296.082377,-10362.883188,1455.581446
335.002648,0.000000,-10362.883188,1532.190996
335.002976,-962.267725,-10140.821405,1378.971896
335.003303,-1332.370696,-9918.759623,1225.752797
335.003631,-1406.391290,-9474.636058,536.266849
335.003958,-1332.370696,-8882.471304,-306.438199
335.004286,-740.205942,-8068.244768,-612.876398
335.004613,-148.041188,-7476.080014,-689.485948
335.004941,0.000000,-7328.038826,-536.266849
335.005268,148.041188,-7476.080014,-459.657299
335.005596,148.041188,-7550.100608,0.000000
335.005923,0.000000,-8142.265362,0.000000
335.006251,0.000000,-8512.368333,689.485948
335.006578,0.000000,-9622.677246,1072.533697
335.006906,-222.061783,-9992.780217,1532.190996
335.007234,-888.247130,-10362.883188,1991.848295
335.007561,-1480.411884,-10436.903782,1838.629195
335.007889,-2146.597232,-9918.759623,1685.410096
335.008216,-2368.659014,-9844.739029,842.705048
335.008544,-2146.597232,-9474.636058,76.609550
335.008871,-1258.350101,-8512.368333,-153.219100
335.009199,-222.061783,-7920.203579,-383.047749
335.009526,888.247130,-8068.244768,383.047749
335.009854,1702.473667,-7402.059420,76.609550
335.010181,1998.556043,-7846.182985,612.876398
335.010509,1554.432478,-8438.347739,612.876398
335.010836,888.247130,-9474.636058,1149.143247
335.011164,666.185348,-10140.821405,689.485948
335.011492,518.144159,-10288.862594,2221.676944
335.011819,222.061783,-10436.903782,2145.067394
335.012147,-222.061783,-10658.965565,2451.505594
335.012474,-1110.308913,-10584.944971,2145.067394
335.012802,-1702.473667,-10436.903782,1072.533697
335.013129,-2294.638420,-9178.553681,1378.971896
335.013457,-1924.535449,-8882.471304,0.000000
335.013784,-1554.432478,-8290.306550,-612.876398
335.014112,-1036.288319,-7846.182985,-612.876398
335.014439,-148.041188,-7402.059420,-459.657299
335.014767,222.061783,-7772.162391,0.000000
335.015095,74.020594,-7994.224174,-153.219100
335.015422,-148.041188,-8734.430116,0.000000
335.015750,0.000000,-9400.615463,383.047749
335.016077,-370.102971,-9992.780217,842.705048
335.016405,0.000000,-10066.800811,1302.362347
335.016732,-296.082377,-10436.903782,1378.971896
335.017060,-296.082377,-10732.986159,1532.190996
335.017387,-1184.329507,-10288.862594,1532.190996
335.017715,-1332.370696,-10066.800811,689.485948
335.018042,-1258.350101,-9178.553681,306.438199
335.018370,-666.185348,-8660.409521,-306.438199
335.018697,0.000000,-8068.244768,-842.705048
335.019025,888.247130,-7698.141797,-689.485948
335.019353,1406.391290,-7476.080014,-689.485948
335.019680,1924.535449,-8068.244768,0.000000
335.020008,1776.494261,-7920.203579,76.609550
335.020335,1110.308913,-9030.512492,229.828649
335.020663,740.205942,-9622.677246,536.266849
335.020990,666.185348,-10140.821405,919.314598
335.021318,0.000000,-10436.903782,1532.190996
335.021645,-518.144159,-10436.903782,1915.238745
335.021973,-1036.288319,-10214.842000,1762.019645
335.022300,-1702.473667,-9844.739029,1225.752797
335.022628,-1628.453072,-9548.656652,919.314598
335.022955,-1332.370696,-8734.430116,0.000000
335.023283,-1036.288319,-7772.162391,306.438199
335.023611,-666.185348,-7476.080014,-153.219100
335.023938,-518.144159,-7105.977043,-459.657299
335.024266,0.000000,-7402.059420,-306.438199
335.024593,148.041188,-7550.100608,-229.828649
335.024921,148.041188,-7994.224174,536.266849
335.025248,0.000000,-8956.491898,536.266849
335.025576,-370.102971,-9548.656652,1072.533697
335.025903,-222.061783,-9992.780217,1302.362347
335.026231,-592.164754,-10140.821405,1608.800546
335.026558,-1036.288319,-10214.842000,1915.238745
335.026886,-1406.391290,-10510.924376,1302.362347
335.027214,-2146.597232,-9992.780217,995.924147
335.027541,-1924.535449,-8956.491898,306.438199
335.027869,-962.267725,-8438.347739,0.000000
335.028196,0.000000,-7698.141797,0.000000
335.028524,814.226536,-7402.059420,229.828649
335.028851,1850.514855,-7179.997637,0.000000
335.029179,1924.535449,-7624.121203,536.266849
335.029506,1628.453072,-8290.306550,919.314598
335.029834,1110.308913,-9326.594869,919.314598
335.030161,222.061783,-9474.636058,1762.019645
335.030489,444.123565,-10584.944971,1915.238745
335.030816,148.041188,-10510.924376,2221.676944
335.031144,-444.123565,-10732.986159,2451.505594
335.031472,-1036.288319,-10584.944971,2374.896044
335.031799,-1850.514855,-10140.821405,2145.067394
335.032127,-2146.597232,-9474.636058,919.314598
335.032454,-2368.659014,-8882.471304,153.219100
335.032782,-1924.535449,-8586.388927,-306.438199
335.033109,-1406.391290,-8068.244768,-766.095498
335.033437,-814.226536,-7772.162391,-459.657299
335.033764,-296.082377,-7476.080014,-306.438199
335.034092,-148.041188,-8068.244768,-229.828649
335.034419,-444.123565,-8438.347739,0.000000
335.034747,-222.061783,-9252.574275,76.609550
335.035074,-370.102971,-9844.739029,612.876398
335.035402,0.000000,-9918.759623,1225.752797
335.035730,-148.041188,-10584.944971,1302.362347
335.036057,-296.082377,-10807.006753,1608.800546
335.036385,-740.205942,-10510.924376,1302.362347
335.036712,-888.247130,-10214.842000,766.095498
335.037040,-1036.288319,-9474.636058,306.438199
335.037367,-1184.329507,-9030.512492,-306.438199
335.037695,-148.041188,-8364.327145,-842.705048
335.038022,740.205942,-7994.224174,-995.924147
335.038350,1702.473667,-7846.182985,-842.705048
335.038677,2368.659014,-7846.182985,0.000000
335.039005,2368.659014,-8512.368333,-536.266849
335.039333,1776.494261,-9104.533087,0.000000
335.039660,1258.350101,-9474.636058,306.438199
335.039988,666.185348,-10066.800811,689.485948
335.040315,444.123565,-10066.800811,1378.971896
335.040643,74.020594,-10658.965565,1378.971896
335.040970,-592.164754,-10658.965565,1685.410096
335.041298,-1628.453072,-10066.800811,1302.362347
335.041625,-1776.494261,-9622.677246,766.095498
335.041953,-1776.494261,-8882.471304,76.609550
335.042280,-1332.370696,-8290.306550,-842.705048
335.042608,-962.267725,-7624.121203,-766.095498
335.042935,-444.123565,-7328.038826,-842.705048
335.043263,-370.102971,-7105.977043,-689.485948
335.043591,0.000000,-7254.018232,-306.438199
335.043918,0.000000,-7402.059420,153.219100
335.044246,0.000000,-8068.244768,612.876398
335.044573,-148.041188,-9252.574275,689.485948
335.044901,-222.061783,-9992.780217,1302.362347
335.045228,-592.164754,-10436.903782,1838.629195
335.045556,-1184.329507,-10066.800811,1991.848295
335.045883,-1110.308913,-10436.903782,1532.190996
335.046211,-1776.494261,-10362.883188,1378.971896
335.046538,-1702.473667,-9622.677246,689.485948
335.046866,-1110.308913,-8808.450710,76.609550
335.047193,148.041188,-7772.162391,153.219100
335.047521,740.205942,-7402.059420,689.485948
335.047849,1702.473667,-7254.018232,153.219100
335.048176,1924.535449,-7624.121203,842.705048
335.048504,1924.535449,-7994.224174,995.924147
335.048831,1258.350101,-9178.553681,1302.362347
335.049159,962.267725,-9400.615463,1838.629195
335.049486,222.061783,-10140.821405,1915.238745
335.049814,0.000000,-10510.924376,2451.505594
335.050141,-666.185348,-10658.965565,2528.115143
335.050469,-1406.391290,-10584.944971,2528.115143
335.050796,-2146.597232,-9992.780217,2068.457845
335.051124,-2294.638420,-9548.656652,1149.143247
335.051451,-2664.741391,-9030.512492,689.485948
335.051779,-2294.638420,-8216.285956,-306.438199
335.052107,-1554.432478,-7772.162391,-766.095498
335.052434,-814.226536,-7179.997637,-536.266849
335.052762,-370.102971,-7254.018232,-766.095498
335.053089,-148.041188,-7624.121203,-459.657299
335.053417,-370.102971,-8216.285956,-153.219100
335.053744,-296.082377,-9104.533087,76.609550
335.054072,-444.123565,-9474.636058,153.219100
335.054399,0.000000,-10214.842000,612.876398
335.054727,-222.061783,-10658.965565,1225.752797
335.055054,-444.123565,-10732.986159,1072.533697
335.055382,-962.267725,-10732.986159,995.924147
335.055710,-888.247130,-10732.986159,766.095498
335.056037,-1110.308913,-9622.677246,229.828649
335.056365,-814.226536,-9104.533087,-612.876398
335.056692,0.000000,-8216.285956,-1072.533697
335.057020,740.205942,-7920.203579,-1302.362347
335.057347,1702.473667,-7624.121203,-1072.533697
335.057675,2294.638420,-8142.265362,-612.876398
335.058002,2442.679609,-8142.265362,-612.876398
335.058330,1924.535449,-9178.553681,0.000000
335.058657,1332.370696,-9622.677246,153.219100
335.058985,962.267725,-10510.924376,459.657299
335.059312,592.164754,-10955.047942,1608.800546
335.059640,0.000000,-10658.965565,1685.410096
335.059968,-592.164754,-10362.883188,1685.410096
335.060295,-1258.350101,-10140.821405,1302.362347
335.060623,-1480.411884,-9474.636058,689.485948
335.060950,-1776.494261,-8734.430116,459.657299
335.061278,-1258.350101,-7994.224174,-383.047749
335.061605,-1110.308913,-7254.018232,-919.314598
335.061933,-592.164754,-7105.977043,-919.314598
335.062260,-148.041188,-7105.977043,-536.266849
