#time,accel_x,accel_y,accel_z
581.934350,-296.082377,-8956.491898,536.266849
581.934677,-370.102971,-9252.574275,459.657299
581.935005,-296.082377,-9252.574275,766.095498
581.935333,-296.082377,-9252.574275,689.485948
581.935660,0.000000,-8882.471304,842.705048
581.935988,-370.102971,-9030.512492,612.876398
581.936315,-296.082377,-9178.553681,612.876398
581.936643,-148.041188,-9326.594869,689.485948
581.936971,-296.082377,-8956.491898,536.266849
581.937298,0.000000,-9252.574275,689.485948
581.937626,-222.061783,-8956.491898,229.828649
581.937953,-222.061783,-9252.574275,383.047749
581.938281,-148.041188,-9030.512492,536.266849
581.938609,0.000000,-9104.533087,383.047749
581.938936,0.000000,-9104.533087,459.657299
581.939264,-296.082377,-9252.574275,153.219100
581.939591,-222.061783,-9030.512492,459.657299
581.939919,-148.041188,-9326.594869,306.438199
581.940247,-222.061783,-9178.553681,306.438199
581.940574,0.000000,-9252.574275,383.047749
581.940902,-444.123565,-8882.471304,766.095498
581.941229,-592.164754,-9030.512492,459.657299
581.941557,-222.061783,-9178.553681,612.876398
581.941885,-148.041188,-9104.533087,536.266849
581.942212,0.000000,-9104.533087,383.047749
581.942540,-370.102971,-8956.491898,459.657299
581.942867,-370.102971,-9030.512492,383.047749
581.943195,-148.041188,-9252.574275,612.876398
581.943522,-296.082377,-9178.553681,383.047749
581.943850,-740.205942,-9178.553681,153.219100
581.944178,-1110.308913,-9326.594869,229.828649
581.944505,-1406.391290,-9474.636058,76.609550
581.944833,-1110.308913,-9400.615463,-229.828649
581.945160,-666.185348,-8882.471304,-383.047749
581.945488,-370.102971,-8882.471304,0.000000
581.945816,-592.164754,-9326.594869,-383.047749
581.946143,-814.226536,-8956.491898,-919.314598
581.946471,-1258.350101,-9104.533087,-919.314598
581.946798,-1258.350101,-9030.512492,-1225.752797
581.947126,-1258.350101,-9030.512492,-1378.971896
581.947454,-740.205942,-9252.574275,-1302.362347
581.947781,-518.144159,-8882.471304,-1072.533697
581.948109,0.000000,-9104.533087,-1302.362347
581.948436,0.000000,-8882.471304,-1532.190996
581.948764,0.000000,-9104.533087,-1685.410096
581.949092,0.000000,-9326.594869,-1608.800546
581.949419,0.000000,-8882.471304,-1378.971896
581.949747,222.061783,-9178.553681,-2145.067394
581.950074,0.000000,-9252.574275,-1915.238745
581.950402,74.020594,-9400.615463,-1608.800546
581.950730,518.144159,-9178.553681,-1608.800546
581.951057,962.267725,-9030.512492,-1378.971896
581.951385,1406.391290,-9400.615463,-1838.629195
581.951712,666.185348,-9400.615463,-1685.410096
581.952040,222.061783,-9400.615463,-1532.190996
581.952368,148.041188,-9400.615463,-1762.019645
581.952695,0.000000,-9474.636058,-1915.238745
581.953023,444.123565,-9696.697840,-1762.019645
581.953350,0.000000,-9474.636058,-1838.629195
581.953678,-370.102971,-9178.553681,-1838.629195
581.954005,-740.205942,-9104.533087,-1915.238745
581.954333,-740.205942,-9030.512492,-1991.848295
581.954661,-1110.308913,-9178.553681,-2221.676944
581.954988,-1776.494261,-9030.512492,-2757.943793
581.955316,-1998.556043,-9178.553681,-2834.553343
581.955643,-2368.659014,-9104.533087,-3064.381992
581.955971,-2294.638420,-8808.450710,-3447.429741
581.956299,-2146.597232,-8734.430116,-3064.381992
581.956626,-1924.535449,-8734.430116,-3753.867940
581.956954,-2146.597232,-9030.512492,-3983.696590
581.957281,-2220.617826,-8808.450710,-4136.915689
581.957609,-1924.535449,-8956.491898,-4290.134789
581.957937,-1258.350101,-8512.368333,-4213.525239
581.958264,-666.185348,-8586.388927,-3600.648841
581.958592,148.041188,-8734.430116,-3600.648841
581.958919,888.247130,-8660.409521,-3064.381992
581.959247,1850.514855,-8734.430116,-2834.553343
581.959575,2368.659014,-8808.450710,-2298.286494
581.959902,2664.741391,-8660.409521,-2221.676944
581.960230,2368.659014,-9548.656652,-2298.286494
581.960557,1628.453072,-9918.759623,-2374.896044
581.960885,444.123565,-10362.883188,-2451.505594
581.961213,-370.102971,-10436.903782,-3140.991542
581.961540,-962.267725,-10288.862594,-2757.943793
581.961868,-1036.288319,-10214.842000,-4213.525239
581.962195,-1998.556043,-9844.739029,-4903.011187
581.962523,-962.267725,-8956.491898,-4979.620737
581.962850,0.000000,-8216.285956,-4596.572988
581.963178,1776.494261,-7328.038826,-3217.601092
581.963506,2960.823768,-6661.853478,-3600.648841
581.963833,3034.844362,-7105.977043,-2374.896044
581.964161,2220.617826,-8142.265362,-1838.629195
581.964488,222.061783,-9178.553681,-1838.629195
581.964816,-1924.535449,-9918.759623,-2068.457845
581.965144,-3256.906145,-10881.027347,-2604.724693
581.965471,-4293.194464,-11029.068536,-2987.772442
581.965799,-3701.029710,-10436.903782,-2834.553343
581.966126,-1776.494261,-9326.594869,-2528.115143
581.966454,1184.329507,-7920.203579,-1608.800546
581.966782,5255.462188,-5699.585753,536.266849
581.967109,9474.636058,-4589.276840,2528.115143
581.967437,11843.295072,-5329.482782,4060.306139
581.967764,9696.697840,-7254.018232,4826.401637
581.968092,3627.009116,-11251.130318,4290.134789
581.968420,-3627.009116,-14137.933492,2681.334243
581.968747,-9474.636058,-15248.242405,306.438199
581.969075,-11991.336260,-15248.242405,-459.657299
581.969402,-11251.130318,-13249.686362,-2221.676944
581.969730,-10140.821405,-11251.130318,-2068.457845
581.970058,-1628.453072,-7994.224174,-2068.457845
581.970385,-2368.659014,-4885.359217,-842.705048
581.970713,-814.226536,-4219.173869,-3370.820191
581.971040,-3034.844362,-5181.441594,-4903.011187
581.971368,-9474.636058,-7105.977043,-7431.126331
581.971696,-12805.562797,-8290.306550,-9806.022374
581.972023,-14952.160028,-7994.224174,-10495.508323
581.972351,-12657.521608,-8068.244768,-10418.898773
581.972678,-7254.018232,-7920.203579,-7890.783629
581.973006,-222.061783,-6661.853478,-6358.592633
581.973333,2442.679609,-6809.894666,-4826.401637
581.973661,5699.585753,-7846.182985,-4136.915689
581.973989,3997.112087,-9696.697840,-6128.763984
581.974316,2516.700203,-11103.089130,-6588.421283
581.974644,4515.256246,-10807.006753,-7124.688131
581.974971,7402.059420,-10807.006753,-6052.154434
581.975299,12065.356855,-10066.800811,-2757.943793
581.975627,13249.686362,-9622.677246,-2145.067394
581.975954,13249.686362,-10510.924376,-1302.362347
581.976282,13249.686362,-10066.800811,-1072.533697
581.976609,13027.624579,-9622.677246,-1762.019645
581.976937,12731.542202,-9622.677246,-3140.991542
581.977265,11325.150913,-11103.089130,-612.876398
581.977592,7698.141797,-12657.521608,-3294.210641
581.977920,-1924.535449,-15840.407159,-5056.230287
581.978247,-10807.006753,-13989.892304,-7737.564530
581.978575,-10066.800811,-11843.295072,-8350.440928
581.978903,-5107.421000,-5181.441594,-6894.859482
581.979230,370.102971,-2886.803174,-4749.792088
581.979558,5181.441594,-1628.453072,-2145.067394
581.979885,2812.782580,-2146.597232,-1072.533697
581.980213,-370.102971,-3701.029710,-689.485948
581.980541,-3997.112087,-5255.462188,-689.485948
581.980868,-7031.956449,-6143.709319,-1838.629195
581.981196,-6513.812290,-7994.224174,-1532.190996
581.981523,-5995.668130,-10140.821405,1072.533697
581.981851,-6217.729913,-9918.759623,2681.334243
581.982179,-4441.235652,-8956.491898,5209.449386
581.982506,-2812.782580,-7254.018232,5439.278036
581.982834,-1184.329507,-7994.224174,3753.867940
581.983161,-2886.803174,-10510.924376,1378.971896
581.983489,-4885.359217,-11843.295072,-766.095498
581.983816,-6957.935855,-10955.047942,-1915.238745
581.984144,-4367.215058,-9548.656652,0.000000
581.984472,-1554.432478,-8290.306550,306.438199
581.984799,-296.082377,-8586.388927,536.266849
581.985127,0.000000,-9548.656652,689.485948
581.985454,-2368.659014,-9326.594869,536.266849
581.985782,-4737.318029,-9178.553681,306.438199
581.986110,-4219.173869,-9474.636058,229.828649
581.986437,-3627.009116,-11103.089130,-612.876398
581.986765,-3701.029710,-11917.315666,-2374.896044
581.987092,-3182.885551,-11917.315666,-1532.190996
581.987420,-1184.329507,-8290.306550,-2374.896044
581.987748,-1850.514855,-7105.977043,-1608.800546
581.988075,1480.411884,-6439.791695,-2298.286494
581.988403,666.185348,-7031.956449,-4060.306139
581.988730,2812.782580,-8142.265362,-4596.572988
581.989058,5329.482782,-7254.018232,-4136.915689
581.989386,5625.565159,-7994.224174,-3830.477490
581.989714,4737.318029,-10362.883188,-3753.867940
581.990041,4071.132681,-13767.830521,-3140.991542
581.990369,3034.844362,-14582.057057,-3677.258390
581.990697,3478.967927,-13619.789333,-4290.134789
581.991025,2516.700203,-12509.480420,-3064.381992
581.991352,1480.411884,-12213.398043,-3370.820191
581.991680,1628.453072,-11473.192101,-3524.039291
581.992008,2294.638420,-10584.944971,-3064.381992
581.992336,2368.659014,-9326.594869,-3140.991542
581.992663,1554.432478,-8660.409521,-3447.429741
581.992991,-592.164754,-8734.430116,-4903.011187
581.993319,-1776.494261,-7698.141797,-5362.668486
581.993647,-1776.494261,-7179.997637,-5898.935335
581.993975,-1406.391290,-6587.832884,-5822.325785
581.994302,-444.123565,-5625.565159,-5056.230287
581.994630,1332.370696,-4145.153275,-3217.601092
581.994958,1554.432478,-5107.421000,-1762.019645
581.995286,444.123565,-7031.956449,-1378.971896
581.995613,-1628.453072,-8882.471304,-1991.848295
581.995941,-2294.638420,-9548.656652,-1838.629195
581.996269,-2886.803174,-10066.800811,-1991.848295
581.996597,-4071.132681,-10140.821405,-2374.896044
581.996925,-3182.885551,-8956.491898,-1762.019645
581.997252,-814.226536,-7994.224174,-1532.190996
581.997580,666.185348,-8438.347739,-1225.752797
581.997908,-1776.494261,-8512.368333,-1991.848295
581.998236,-3330.926739,-9474.636058,-3370.820191
581.998563,-3701.029710,-8660.409521,-4519.963438
581.998891,-2886.803174,-8808.450710,-4596.572988
581.999219,-888.247130,-8586.388927,-3753.867940
581.999547,3182.885551,-7031.956449,-1838.629195
581.999875,5551.544565,-5329.482782,-612.876398
582.000202,6143.709319,-5699.585753,995.924147
582.000530,3997.112087,-7698.141797,1302.362347
582.000858,814.226536,-8882.471304,612.876398
582.001186,-592.164754,-9474.636058,-306.438199
582.001513,-1036.288319,-10362.883188,689.485948
582.001841,-1924.535449,-9992.780217,766.095498
582.002169,222.061783,-9326.594869,1685.410096
582.002497,2516.700203,-8290.306550,2298.286494
582.002825,3256.906145,-8364.327145,1915.238745
582.003152,592.164754,-8142.265362,-383.047749
582.003480,-740.205942,-7994.224174,-1302.362347
582.003808,-1406.391290,-8882.471304,-2451.505594
582.004136,-3034.844362,-10362.883188,-1991.848295
582.004463,-2442.679609,-9918.759623,-842.705048
582.004791,-148.041188,-10362.883188,0.000000
582.005119,-222.061783,-11029.068536,919.314598
582.005447,-1480.411884,-11769.274478,1302.362347
582.005775,-3627.009116,-11399.171507,306.438199
582.006102,-6069.688724,-11103.089130,-1072.533697
582.006430,-5921.647536,-11769.274478,-1378.971896
582.006758,-5477.523971,-9696.697840,-1532.190996
582.007086,-3997.112087,-8142.265362,-995.924147
582.007413,-814.226536,-7550.100608,0.000000
582.007741,0.000000,-6957.935855,536.266849
582.008069,370.102971,-7402.059420,-306.438199
582.008397,592.164754,-6735.874072,-229.828649
582.008724,1332.370696,-8216.285956,-229.828649
582.009052,2368.659014,-8438.347739,229.828649
582.009380,2294.638420,-9104.533087,383.047749
582.009708,3256.906145,-10955.047942,1915.238745
582.010036,3478.967927,-11917.315666,2298.286494
582.010363,2738.761985,-11843.295072,2221.676944
582.010691,1480.411884,-11917.315666,1915.238745
582.011019,2442.679609,-12435.459826,2451.505594
582.011347,1036.288319,-11547.212695,842.705048
582.011674,0.000000,-10955.047942,1302.362347
582.012002,0.000000,-10881.027347,0.000000
582.012330,-1332.370696,-10288.862594,-459.657299
582.012658,-2072.576638,-9474.636058,-1149.143247
582.012986,-2442.679609,-8734.430116,-1378.971896
582.013313,-1480.411884,-7994.224174,-995.924147
582.013641,-296.082377,-7328.038826,-689.485948
582.013969,-814.226536,-6883.915261,-766.095498
582.014297,-1628.453072,-7476.080014,-689.485948
582.014624,-1924.535449,-7846.182985,-536.266849
582.014952,-2886.803174,-7179.997637,-1149.143247
582.015280,-3182.885551,-7846.182985,-1149.143247
582.015608,-2590.720797,-7994.224174,-995.924147
582.015936,-2146.597232,-8216.285956,-306.438199
582.016263,-1406.391290,-7994.224174,0.000000
582.016591,-888.247130,-7846.182985,153.219100
582.016919,0.000000,-8068.244768,1149.143247
582.017247,518.144159,-7920.203579,0.000000
582.017574,1850.514855,-7846.182985,153.219100
582.017902,3701.029710,-7846.182985,842.705048
582.018230,4959.379811,-8586.388927,1838.629195
582.018558,4515.256246,-9178.553681,2834.553343
582.018886,3034.844362,-10955.047942,2911.162892
582.019213,1184.329507,-11547.212695,2528.115143
582.019541,-962.267725,-11251.130318,1762.019645
582.019869,-1776.494261,-10955.047942,1608.800546
582.020197,148.041188,-9548.656652,1302.362347
582.020524,518.144159,-8438.347739,1685.410096
582.020852,1258.350101,-7846.182985,2374.896044
582.021180,962.267725,-7105.977043,2451.505594
582.021508,-888.247130,-7105.977043,2298.286494
582.021836,-1998.556043,-7105.977043,612.876398
582.022163,-3256.906145,-6439.791695,229.828649
582.022491,-2738.761985,-7550.100608,229.828649
582.022819,-1628.453072,-7031.956449,229.828649
582.023147,-1850.514855,-7402.059420,766.095498
582.023474,-2072.576638,-8216.285956,1149.143247
582.023802,-1924.535449,-8808.450710,995.924147
582.024130,-3404.947333,-9844.739029,0.000000
582.024458,-3182.885551,-9844.739029,-612.876398
582.024786,-1850.514855,-9844.739029,-612.876398
582.025113,-814.226536,-10436.903782,-229.828649
582.025441,-148.041188,-10066.800811,306.438199
582.025769,0.000000,-10584.944971,459.657299
582.026097,-518.144159,-11029.068536,76.609550
582.026424,-1184.329507,-11325.150913,0.000000
582.026752,-888.247130,-11547.212695,0.000000
582.027080,1110.308913,-10510.924376,229.828649
582.027408,2368.659014,-9918.759623,689.485948
582.027735,2664.741391,-10881.027347,995.924147
582.028063,2664.741391,-11473.192101,1072.533697
582.028391,1110.308913,-10881.027347,612.876398
582.028719,888.247130,-9992.780217,689.485948
582.029047,888.247130,-9844.739029,-229.828649
582.029374,962.267725,-10066.800811,766.095498
582.029702,2072.576638,-9474.636058,459.657299
582.030030,740.205942,-10288.862594,689.485948
582.030358,1184.329507,-9696.697840,612.876398
582.030685,-148.041188,-9474.636058,153.219100
582.031013,-1332.370696,-10214.842000,-229.828649
582.031341,-444.123565,-9918.759623,306.438199
582.031669,814.226536,-9252.574275,766.095498
582.031997,296.082377,-8956.491898,766.095498
582.032324,-148.041188,-9252.574275,995.924147
582.032652,-1036.288319,-10214.842000,766.095498
582.032980,-3256.906145,-9918.759623,0.000000
582.033308,-4441.235652,-9548.656652,-612.876398
582.033635,-3923.091493,-9252.574275,-612.876398
582.033963,-1924.535449,-8142.265362,-306.438199
582.034291,-814.226536,-7179.997637,383.047749
582.034619,148.041188,-7550.100608,919.314598
582.034947,148.041188,-7624.121203,919.314598
582.035274,-1184.329507,-7550.100608,689.485948
582.035602,-592.164754,-7254.018232,1685.410096
582.035930,666.185348,-6957.935855,1991.848295
582.036258,1776.494261,-7624.121203,2221.676944
582.036585,1406.391290,-8586.388927,2451.505594
582.036913,666.185348,-9474.636058,2604.724693
582.037241,74.020594,-8808.450710,2451.505594
582.037569,-1628.453072,-8586.388927,1225.752797
582.037897,-1776.494261,-8734.430116,1072.533697
582.038224,-296.082377,-8586.388927,766.095498
582.038552,74.020594,-8068.244768,766.095498
582.038880,0.000000,-7402.059420,229.828649
582.039208,444.123565,-7550.100608,842.705048
582.039535,888.247130,-6883.915261,153.219100
582.039863,-814.226536,-7920.203579,229.828649
582.040191,-962.267725,-8216.285956,153.219100
582.040519,0.000000,-8142.265362,1072.533697
582.040847,-1110.308913,-7105.977043,1072.533697
582.041174,-444.123565,-8586.388927,1225.752797
582.041502,-1702.473667,-9548.656652,612.876398
582.041830,-2368.659014,-9474.636058,383.047749
582.042158,-2886.803174,-8734.430116,-306.438199
582.042485,-2664.741391,-7698.141797,-1302.362347
582.042813,-1036.288319,-7698.141797,-383.047749
582.043141,592.164754,-7402.059420,0.000000
582.043469,1332.370696,-7846.182985,0.000000
582.043797,2146.597232,-8660.409521,76.609550
582.044124,888.247130,-8734.430116,-153.219100
582.044452,1332.370696,-9992.780217,76.609550
582.044780,1110.308913,-10362.883188,536.266849
582.045108,2072.576638,-11251.130318,1838.629195
582.045435,1702.473667,-12139.377449,2298.286494
582.045763,1036.288319,-13545.768739,2451.505594
582.046091,-888.247130,-13471.748144,1762.019645
582.046419,-1628.453072,-13175.665768,995.924147
582.046746,-3404.947333,-12879.583391,-383.047749
582.047074,-2516.700203,-11177.109724,-689.485948
582.047402,0.000000,-9622.677246,-995.924147
582.047730,666.185348,-8512.368333,-1072.533697
582.048058,814.226536,-7254.018232,-1149.143247
582.048385,1258.350101,-7179.997637,-612.876398
582.048713,1184.329507,-7031.956449,-689.485948
582.049041,222.061783,-7624.121203,-459.657299
582.049369,1406.391290,-7994.224174,612.876398
582.049696,1036.288319,-8438.347739,842.705048
582.050024,1036.288319,-9178.553681,2451.505594
582.050352,-592.164754,-10362.883188,2681.334243
582.050680,-1554.432478,-11843.295072,2604.724693
582.051008,-3849.070898,-12065.356855,1608.800546
582.051335,-4737.318029,-11177.109724,919.314598
582.051663,-3552.988522,-9844.739029,76.609550
582.051991,-1924.535449,-8512.368333,0.000000
582.052319,-148.041188,-8068.244768,0.000000
582.052646,222.061783,-7105.977043,-383.047749
582.052974,1554.432478,-6439.791695,0.000000
582.053302,444.123565,-5477.523971,-919.314598
582.053630,370.102971,-5921.647536,-153.219100
582.053958,1406.391290,-7179.997637,459.657299
582.054285,888.247130,-8142.265362,1225.752797
582.054613,222.061783,-9104.533087,2374.896044
582.054941,-888.247130,-10214.842000,2757.943793
582.055269,-2146.597232,-10658.965565,2528.115143
582.055596,-3627.009116,-10214.842000,1762.019645
582.055924,-3404.947333,-9326.594869,1072.533697
582.056252,-1702.473667,-8512.368333,842.705048
582.056580,-740.205942,-8290.306550,459.657299
582.056908,-148.041188,-6735.874072,-229.828649
582.057235,592.164754,-6143.709319,-612.876398
582.057563,1406.391290,-5403.503377,-1072.533697
582.057891,1332.370696,-6143.709319,-1149.143247
582.058219,1628.453072,-6661.853478,-842.705048
582.058546,3478.967927,-7994.224174,306.438199
582.058874,3182.885551,-8956.491898,1685.410096
582.059202,2368.659014,-10732.986159,2451.505594
582.059530,1036.288319,-12805.562797,2374.896044
582.059858,-1554.432478,-13545.768739,2374.896044
582.060185,-3627.009116,-13323.706956,919.314598
582.060513,-3775.050304,-12953.603985,919.314598
582.060841,-2368.659014,-11547.212695,306.438199
582.061169,-1036.288319,-10288.862594,76.609550
582.061496,-148.041188,-8956.491898,-76.609550
582.061824,740.205942,-7920.203579,-536.266849
582.062152,592.164754,-6661.853478,-1225.752797
582.062480,222.061783,-6661.853478,-1455.581446
582.062807,1702.473667,-6513.812290,-612.876398
582.063135,2738.761985,-7105.977043,689.485948
582.063463,1924.535449,-7920.203579,1072.533697
582.063791,1480.411884,-9696.697840,1915.238745
582.064119,0.000000,-11103.089130,2068.457845
582.064446,-2368.659014,-11399.171507,1762.019645
582.064774,-3997.112087,-11917.315666,612.876398
582.065102,-3552.988522,-11769.274478,842.705048
582.065430,-2590.720797,-10955.047942,153.219100
582.065757,-2368.659014,-9844.739029,-383.047749
582.066085,-1110.308913,-9326.594869,-459.657299
582.066413,-444.123565,-8438.347739,-995.924147
582.066741,-444.123565,-7105.977043,-1532.190996
582.067069,370.102971,-7254.018232,-1302.362347
582.067396,2368.659014,-7031.956449,-536.266849
582.067724,2294.638420,-7476.080014,76.609550
582.068052,2812.782580,-8438.347739,1532.190996
582.068380,2294.638420,-10214.842000,2374.896044
582.068707,740.205942,-10362.883188,2987.772442
582.069035,-1850.514855,-11399.171507,1762.019645
582.069363,-2886.803174,-11769.274478,1455.581446
582.069691,-2442.679609,-10955.047942,1225.752797
582.070019,-1850.514855,-9104.533087,1072.533697
582.070346,-814.226536,-7476.080014,459.657299
582.070674,0.000000,-7328.038826,153.219100
582.071002,1110.308913,-6513.812290,0.000000
582.071330,814.226536,-5699.585753,-383.047749
582.071657,2294.638420,-5403.503377,0.000000
582.071985,3256.906145,-6291.750507,766.095498
582.072313,3404.947333,-6957.935855,1838.629195
582.072641,2960.823768,-9104.533087,2681.334243
582.072969,1110.308913,-10362.883188,3294.210641
582.073296,-1110.308913,-11325.150913,2987.772442
582.073624,-3849.070898,-12361.439231,2298.286494
582.073952,-4885.359217,-12583.501014,1838.629195
582.074280,-3923.091493,-11399.171507,1532.190996
582.074607,-3034.844362,-10140.821405,1149.143247
582.074935,-2368.659014,-8364.327145,766.095498
582.075263,-2368.659014,-7105.977043,0.000000
582.075591,-1850.514855,-6439.791695,-842.705048
582.075919,-1924.535449,-5403.503377,-1762.019645
582.076246,-592.164754,-5255.462188,-1378.971896
582.076574,1480.411884,-5995.668130,-689.485948
582.076902,1776.494261,-6957.935855,459.657299
582.077230,2294.638420,-8808.450710,2145.067394
582.077557,1036.288319,-9918.759623,2221.676944
582.077885,-888.247130,-10732.986159,1455.581446
582.078213,-2590.720797,-11843.295072,995.924147
582.078541,-3627.009116,-12213.398043,459.657299
582.078869,-2220.617826,-11769.274478,0.000000
582.079196,-1924.535449,-10288.862594,-153.219100
582.079524,-962.267725,-9252.574275,-459.657299
582.079852,0.000000,-8438.347739,-1455.581446
582.080180,222.061783,-8290.306550,-1838.629195
582.080507,444.123565,-7402.059420,-2068.457845
582.080835,3182.885551,-7105.977043,-1915.238745
582.081163,3627.009116,-7476.080014,-1378.971896
582.081491,5033.400406,-8364.327145,229.828649
582.081818,4441.235652,-9770.718434,1072.533697
582.082146,3256.906145,-10807.006753,2145.067394
582.082474,370.102971,-11769.274478,1762.019645
582.082802,-2294.638420,-12805.562797,1378.971896
582.083130,-2886.803174,-12287.418637,1225.752797
582.083457,-2516.700203,-11399.171507,842.705048
582.083785,-2072.576638,-10732.986159,383.047749
582.084113,-1184.329507,-8808.450710,-306.438199
582.084441,-740.205942,-7698.141797,-612.876398
582.084768,-222.061783,-5995.668130,-1302.362347
582.085096,518.144159,-5181.441594,-1532.190996
582.085424,2886.803174,-5551.544565,-383.047749
582.085752,3701.029710,-5625.565159,459.657299
582.086080,2812.782580,-7402.059420,1225.752797
582.086407,1258.350101,-9400.615463,2298.286494
582.086735,-296.082377,-10436.903782,2528.115143
582.087063,-3849.070898,-12065.356855,1838.629195
582.087391,-4737.318029,-13471.748144,1838.629195
582.087718,-5329.482782,-12139.377449,766.095498
582.088046,-4441.235652,-11251.130318,1532.190996
582.088374,-4071.132681,-10510.924376,919.314598
582.088702,-3182.885551,-9178.553681,536.266849
582.089030,-2368.659014,-7402.059420,-689.485948
582.089357,-2220.617826,-5699.585753,-1455.581446
582.089685,0.000000,-4589.276840,-1532.190996
582.090013,2738.761985,-4441.235652,-536.266849
582.090341,3478.967927,-5181.441594,536.266849
582.090668,3552.988522,-7031.956449,1685.410096
582.090996,2738.761985,-8068.244768,2528.115143
582.091324,1110.308913,-9918.759623,2374.896044
582.091652,-1332.370696,-11547.212695,2145.067394
582.091979,-1924.535449,-12657.521608,2451.505594
582.092307,-1554.432478,-12361.439231,2068.457845
582.092635,-1110.308913,-11473.192101,2911.162892
582.092963,148.041188,-10881.027347,1762.019645
582.093291,222.061783,-10140.821405,842.705048
582.093618,0.000000,-8808.450710,-306.438199
582.093946,0.000000,-7031.956449,-1532.190996
582.094274,1850.514855,-6661.853478,-1225.752797
582.094602,3256.906145,-5847.626942,-766.095498
582.094929,3997.112087,-6587.832884,0.000000
582.095257,3182.885551,-8586.388927,842.705048
582.095585,2442.679609,-9474.636058,1532.190996
582.095913,-444.123565,-11029.068536,1838.629195
582.096240,-2368.659014,-11991.336260,1915.238745
582.096568,-3627.009116,-13101.645173,1762.019645
582.096896,-3627.009116,-12657.521608,2068.457845
582.097224,-3775.050304,-11843.295072,1302.362347
582.097551,-3627.009116,-10881.027347,1072.533697
582.097879,-2812.782580,-9400.615463,459.657299
582.098207,-3627.009116,-6809.894666,-1455.581446
582.098535,-2812.782580,-5477.523971,-2145.067394
582.098862,-296.082377,-4885.359217,-2221.676944
582.099190,1702.473667,-4293.194464,-1608.800546
582.099518,3108.864956,-4515.256246,-842.705048
582.099846,3404.947333,-6735.874072,536.266849
582.100173,1924.535449,-8956.491898,766.095498
582.100501,-592.164754,-10807.006753,459.657299
582.100829,-2738.761985,-12953.603985,689.485948
582.101157,-2368.659014,-12805.562797,1225.752797
582.101485,-2146.597232,-12287.418637,1302.362347
582.101812,-1776.494261,-11991.336260,1685.410096
582.102140,-1184.329507,-11621.233289,995.924147
582.102468,-1184.329507,-10214.842000,306.438199
582.102796,-1036.288319,-7698.141797,-1455.581446
582.103123,0.000000,-6439.791695,-1455.581446
582.103451,3404.947333,-5107.421000,-1225.752797
582.103779,4589.276840,-5625.565159,-383.047749
582.104107,5773.606348,-5995.668130,766.095498
582.104434,4959.379811,-7254.018232,1455.581446
582.104762,2960.823768,-9326.594869,2374.896044
582.105090,148.041188,-10807.006753,1762.019645
582.105418,-1184.329507,-12213.398043,2145.067394
582.105745,-1702.473667,-12361.439231,2221.676944
582.106073,-1850.514855,-11843.295072,2145.067394
582.106401,-1850.514855,-11473.192101,1915.238745
582.106729,-1332.370696,-10807.006753,1302.362347
582.107056,-2368.659014,-9030.512492,229.828649
582.107384,-2442.679609,-7402.059420,-919.314598
582.107712,-2294.638420,-6439.791695,-1302.362347
582.108040,296.082377,-5329.482782,-1072.533697
582.108367,592.164754,-5921.647536,-306.438199
582.108695,1406.391290,-6735.874072,459.657299
582.109023,592.164754,-7920.203579,919.314598
582.109351,-1184.329507,-8956.491898,1378.971896
582.109679,-2738.761985,-11029.068536,1302.362347
582.110006,-3404.947333,-11769.274478,1991.848295
582.110334,-2590.720797,-11621.233289,2145.067394
582.110662,-2368.659014,-11251.130318,2068.457845
582.110990,-2146.597232,-10881.027347,1685.410096
582.111317,-1628.453072,-10955.047942,1072.533697
582.111645,-1776.494261,-9548.656652,229.828649
582.111973,-1702.473667,-7402.059420,-383.047749
582.112301,148.041188,-6809.894666,-995.924147
582.112628,2442.679609,-6217.729913,-229.828649
582.112956,3849.070898,-6217.729913,0.000000
582.113284,3775.050304,-7846.182985,383.047749
582.113612,3108.864956,-8808.450710,1302.362347
582.113939,0.000000,-10214.842000,995.924147
582.114267,-1480.411884,-11177.109724,1149.143247
582.114595,-1184.329507,-11325.150913,1378.971896
582.114923,-1184.329507,-11547.212695,1991.848295
582.115250,-1036.288319,-11843.295072,2068.457845
582.115578,-1480.411884,-11843.295072,1225.752797
582.115906,-814.226536,-10066.800811,766.095498
582.116234,-1036.288319,-8734.430116,76.609550
582.116561,-592.164754,-7550.100608,-689.485948
582.116889,814.226536,-7550.100608,-459.657299
582.117217,1258.350101,-7105.977043,-536.266849
582.117545,1628.453072,-6587.832884,0.000000
582.117873,1924.535449,-7402.059420,536.266849
582.118200,1036.288319,-8586.388927,689.485948
582.118528,-1110.308913,-9844.739029,153.219100
582.118856,-1924.535449,-10658.965565,383.047749
582.119184,-1776.494261,-10066.800811,612.876398
582.119511,-962.267725,-9844.739029,1225.752797
582.119839,-1924.535449,-9844.739029,842.705048
582.120167,-1184.329507,-10214.842000,1149.143247
582.120495,-1850.514855,-9844.739029,536.266849
582.120822,-2442.679609,-8586.388927,0.000000
582.121150,-2294.638420,-7846.182985,-536.266849
582.121478,148.041188,-7254.018232,-229.828649
582.121806,1036.288319,-6439.791695,76.609550
582.122133,1406.391290,-6365.771101,153.219100
582.122461,1776.494261,-7254.018232,306.438199
582.122789,0.000000,-8142.265362,153.219100
582.123117,-814.226536,-8808.450710,0.000000
582.123444,-962.267725,-9178.553681,536.266849
582.123772,370.102971,-9104.533087,1838.629195
582.124100,0.000000,-9400.615463,1455.581446
582.124428,0.000000,-10288.862594,1532.190996
582.124755,-666.185348,-10436.903782,919.314598
582.125083,-1406.391290,-9548.656652,459.657299
582.125411,-1554.432478,-9252.574275,-306.438199
582.125739,-296.082377,-8956.491898,0.000000
582.126067,1184.329507,-8660.409521,0.000000
582.126394,1332.370696,-7920.203579,0.000000
582.126722,1702.473667,-8734.430116,536.266849
582.127050,1258.350101,-9400.615463,-459.657299
582.127378,444.123565,-9252.574275,459.657299
582.127705,-222.061783,-10140.821405,0.000000
582.128033,0.000000,-10140.821405,229.828649
582.128361,148.041188,-10584.944971,612.876398
582.128689,-370.102971,-10658.965565,1378.971896
582.129016,0.000000,-10066.800811,1302.362347
582.129344,0.000000,-10214.842000,842.705048
582.129672,-444.123565,-9474.636058,153.219100
582.130000,-962.267725,-9326.594869,0.000000
582.130327,222.061783,-8734.430116,612.876398
582.130655,1924.535449,-7624.121203,919.314598
582.130983,1480.411884,-8364.327145,1302.362347
582.131311,1184.329507,-9548.656652,1685.410096
582.131638,74.020594,-10066.800811,1455.581446
582.131966,-2220.617826,-10066.800811,842.705048
582.132294,-2516.700203,-10881.027347,1149.143247
582.132622,-2664.741391,-10288.862594,1455.581446
582.132949,-1776.494261,-10732.986159,1608.800546
582.133277,-1702.473667,-10732.986159,1378.971896
582.133605,-1036.288319,-9918.759623,1532.190996
582.133933,-1036.288319,-9474.636058,1149.143247
582.134261,-2072.576638,-8512.368333,383.047749
582.134588,-1998.556043,-8216.285956,153.219100
582.134916,-592.164754,-7846.182985,153.219100
582.135244,-296.082377,-7254.018232,306.438199
582.135572,0.000000,-8068.244768,1378.971896
582.135899,-592.164754,-8660.409521,1072.533697
582.136227,-1184.329507,-8660.409521,1072.533697
582.136555,-2516.700203,-9326.594869,383.047749
582.136883,-2294.638420,-9770.718434,383.047749
582.137210,-962.267725,-9178.553681,919.314598
582.137538,0.000000,-8142.265362,1302.362347
582.137866,962.267725,-8586.388927,1378.971896
582.138194,740.205942,-8956.491898,1149.143247
582.138521,814.226536,-8290.306550,689.485948
582.138849,-222.061783,-7698.141797,0.000000
582.139177,296.082377,-7105.977043,229.828649
582.139505,2368.659014,-7846.182985,689.485948
582.139832,1628.453072,-7920.203579,842.705048
582.140160,1628.453072,-8734.430116,1072.533697
582.140488,1110.308913,-9104.533087,1378.971896
582.140816,444.123565,-8882.471304,689.485948
582.141143,-962.267725,-8882.471304,76.609550
582.141471,-296.082377,-9252.574275,0.000000
582.141799,370.102971,-8956.491898,76.609550
582.142127,0.000000,-7846.182985,153.219100
582.142455,148.041188,-7772.162391,306.438199
582.142782,814.226536,-7402.059420,229.828649
582.143110,-888.247130,-7476.080014,-459.657299
582.143438,-1554.432478,-7624.121203,-612.876398
582.143766,-962.267725,-7179.997637,-689.485948
582.144093,296.082377,-7624.121203,0.000000
582.144421,518.144159,-7698.141797,1072.533697
582.144749,0.000000,-9030.512492,842.705048
582.145077,-740.205942,-10066.800811,995.924147
582.145404,-2368.659014,-10066.800811,-306.438199
582.145732,-3256.906145,-10658.965565,-612.876398
582.146060,-2738.761985,-10510.924376,-459.657299
582.146388,-1480.411884,-9918.759623,-995.924147
582.146715,-1184.329507,-9548.656652,-1149.143247
582.147043,0.000000,-9326.594869,-842.705048
582.147371,296.082377,-9178.553681,-995.924147
582.147699,148.041188,-8660.409521,-1149.143247
582.148026,370.102971,-9474.636058,-1302.362347
582.148354,962.267725,-9326.594869,0.000000
582.148682,2072.576638,-9326.594869,612.876398
582.149010,1850.514855,-10288.862594,1455.581446
582.149337,1702.473667,-11473.192101,1838.629195
582.149665,814.226536,-11547.212695,1685.410096
582.149993,-962.267725,-11399.171507,1762.019645
582.150321,-814.226536,-11029.068536,919.314598
582.150649,592.164754,-10584.944971,1149.143247
582.150976,1702.473667,-9548.656652,1225.752797
582.151304,1480.411884,-9030.512492,1225.752797
582.151632,2072.576638,-9030.512492,1608.800546
582.151960,2072.576638,-8808.450710,1455.581446
582.152287,888.247130,-9400.615463,1149.143247
582.152615,444.123565,-9770.718434,1302.362347
582.152943,1184.329507,-10140.821405,2834.553343
582.153271,666.185348,-9474.636058,1838.629195
582.153598,-814.226536,-10436.903782,2757.943793
582.153926,-1702.473667,-11251.130318,2451.505594
582.154254,-3775.050304,-11177.109724,1991.848295
582.154582,-5847.626942,-10732.986159,995.924147
582.154909,-5107.421000,-10066.800811,689.485948
582.155237,-4293.194464,-9030.512492,306.438199
582.155565,-3552.988522,-7994.224174,536.266849
582.155893,-2738.761985,-7994.224174,76.609550
582.156220,-2072.576638,-7179.997637,306.438199
582.156548,-1258.350101,-5847.626942,0.000000
582.156876,-1924.535449,-5921.647536,-689.485948
582.157204,74.020594,-5995.668130,0.000000
582.157532,962.267725,-6735.874072,919.314598
582.157859,814.226536,-7846.182985,1685.410096
582.158187,518.144159,-9696.697840,2528.115143
582.158515,148.041188,-9918.759623,2145.067394
582.158843,-1036.288319,-9918.759623,1455.581446
582.159170,-1628.453072,-10140.821405,383.047749
582.159498,-740.205942,-9474.636058,0.000000
582.159826,1258.350101,-8364.327145,0.000000
582.160154,1628.453072,-7105.977043,0.000000
582.160481,2738.761985,-7179.997637,-153.219100
582.160809,3478.967927,-6957.935855,-229.828649
582.161137,2368.659014,-6957.935855,-995.924147
582.161465,1998.556043,-7476.080014,-842.705048
582.161792,2664.741391,-7846.182985,153.219100
582.162120,2738.761985,-8290.306550,1302.362347
582.162448,2590.720797,-9252.574275,2068.457845
582.162776,518.144159,-10658.965565,1838.629195
582.163103,-370.102971,-11325.150913,1685.410096
582.163431,-3701.029710,-10881.027347,76.609550
582.163759,-3997.112087,-10436.903782,-229.828649
582.164087,-2886.803174,-9548.656652,-766.095498
582.164414,-1554.432478,-8364.327145,-842.705048
582.164742,-1036.288319,-7772.162391,-1225.752797
582.165070,0.000000,-6809.894666,-995.924147
582.165398,370.102971,-6365.771101,-1532.190996
582.165726,-1184.329507,-7105.977043,-1915.238745
582.166053,-1332.370696,-8438.347739,-1302.362347
582.166381,0.000000,-9104.533087,-306.438199
582.166709,0.000000,-9326.594869,-766.095498
582.167037,592.164754,-10584.944971,1225.752797
582.167364,-296.082377,-11991.336260,1762.019645
582.167692,-1332.370696,-12361.439231,1685.410096
582.168020,-3034.844362,-11991.336260,689.485948
582.168348,-2960.823768,-11547.212695,306.438199
582.168675,-814.226536,-9992.780217,536.266849
582.169003,-222.061783,-9770.718434,153.219100
582.169331,1184.329507,-8512.368333,0.000000
582.169659,1258.350101,-7624.121203,-306.438199
582.169986,1998.556043,-7328.038826,-153.219100
582.170314,1628.453072,-6809.894666,-612.876398
582.170642,2442.679609,-7179.997637,76.609550
582.170970,3478.967927,-8142.265362,1225.752797
582.171297,2664.741391,-9030.512492,2451.505594
582.171625,1554.432478,-10955.047942,3217.601092
582.171953,-444.123565,-12139.377449,2911.162892
582.172281,-2664.741391,-12139.377449,2834.553343
582.172608,-4219.173869,-12509.480420,1455.581446
582.172936,-4441.235652,-11103.089130,1149.143247
582.173264,-2664.741391,-10214.842000,1149.143247
582.173592,-2368.659014,-7698.141797,76.609550
582.173920,-1258.350101,-7550.100608,229.828649
582.174247,-222.061783,-6513.812290,0.000000
582.174575,-666.185348,-5329.482782,-995.924147
582.174903,-666.185348,-6291.750507,-842.705048
582.175231,222.061783,-6809.894666,0.000000
582.175558,1332.370696,-7254.018232,1762.019645
582.175886,1258.350101,-8512.368333,2451.505594
582.176214,370.102971,-9992.780217,2911.162892
582.176542,-814.226536,-11769.274478,3370.820191
582.176869,-2960.823768,-11843.295072,2681.334243
582.177197,-4367.215058,-11991.336260,1915.238745
582.177525,-3256.906145,-11325.150913,1149.143247
582.177853,-1850.514855,-9548.656652,459.657299
582.178180,-1258.350101,-8438.347739,0.000000
582.178508,0.000000,-7772.162391,-459.657299
582.178836,1776.494261,-6513.812290,-689.485948
582.179164,1406.391290,-4885.359217,-1762.019645
582.179491,2294.638420,-5847.626942,-1455.581446
582.179819,3404.947333,-7179.997637,-383.047749
582.180147,3923.091493,-8364.327145,536.266849
582.180475,2516.700203,-9400.615463,919.314598
582.180802,2294.638420,-10732.986159,2145.067394
582.181130,444.123565,-12139.377449,2451.505594
582.181458,-2516.700203,-13249.686362,1532.190996
582.181786,-3701.029710,-13175.665768,919.314598
582.182114,-2812.782580,-11621.233289,689.485948
582.182441,-1554.432478,-9696.697840,306.438199
582.182769,-962.267725,-8586.388927,-229.828649
582.183097,-592.164754,-7920.203579,-995.924147
582.183425,222.061783,-6661.853478,-1608.800546
582.183752,0.000000,-5107.421000,-2374.896044
582.184080,1480.411884,-5181.441594,-1378.971896
582.184408,2590.720797,-6143.709319,-306.438199
582.184736,2442.679609,-7254.018232,383.047749
582.185063,1924.535449,-9474.636058,1685.410096
582.185391,814.226536,-11029.068536,2451.505594
582.185719,-962.267725,-11917.315666,2298.286494
582.186047,-3182.885551,-12731.542202,1378.971896
582.186374,-5329.482782,-13101.645173,919.314598
582.186702,-3923.091493,-12287.418637,766.095498
582.187030,-3404.947333,-10066.800811,-153.219100
582.187358,-1184.329507,-7550.100608,0.000000
582.187685,666.185348,-7105.977043,-842.705048
582.188013,1406.391290,-5921.647536,-1149.143247
582.188341,1184.329507,-5329.482782,-1685.410096
582.188669,2590.720797,-5995.668130,-383.047749
582.188996,3997.112087,-6513.812290,1072.533697
582.189324,2960.823768,-7994.224174,995.924147
582.189652,1850.514855,-9844.739029,2834.553343
582.189980,666.185348,-11103.089130,3217.601092
582.190308,-1554.432478,-11325.150913,2757.943793
582.190635,-3330.926739,-12657.521608,2068.457845
582.190963,-3997.112087,-12435.459826,1532.190996
582.191291,-2886.803174,-10955.047942,1455.581446
582.191619,-2738.761985,-9178.553681,306.438199
582.191946,-1924.535449,-8068.244768,-766.095498
582.192274,-222.061783,-7105.977043,-995.924147
582.192602,-666.185348,-5847.626942,-2298.286494
582.192929,0.000000,-5699.585753,-1532.190996
582.193257,1258.350101,-5551.544565,-1455.581446
582.193584,2368.659014,-6587.832884,0.000000
582.193912,1850.514855,-7994.224174,842.705048
582.194239,1036.288319,-9770.718434,1838.629195
582.194567,-370.102971,-10658.965565,2451.505594
582.194894,-2294.638420,-11843.295072,1762.019645
582.195222,-3701.029710,-12509.480420,1378.971896
582.195549,-2442.679609,-11917.315666,1455.581446
582.195877,-1776.494261,-10732.986159,536.266849
582.196204,-1258.350101,-9918.759623,0.000000
582.196532,370.102971,-8882.471304,-306.438199
582.196860,1184.329507,-7031.956449,-1072.533697
582.197187,1554.432478,-6291.750507,-1608.800546
582.197515,2664.741391,-6735.874072,-1302.362347
582.197842,4811.338623,-7031.956449,0.000000
582.198170,5033.400406,-7105.977043,766.095498
582.198497,4145.153275,-9030.512492,1991.848295
582.198825,2590.720797,-11177.109724,2604.724693
582.199152,0.000000,-12583.501014,2681.334243
582.199480,-3627.009116,-13471.748144,2145.067394
582.199807,-4885.359217,-14063.912898,1455.581446
582.200135,-4219.173869,-13471.748144,1532.190996
582.200462,-3404.947333,-11547.212695,1225.752797
582.200790,-3108.864956,-10288.862594,766.095498
582.201118,-1850.514855,-9030.512492,0.000000
582.201445,-1628.453072,-7476.080014,-766.095498
582.201773,-2368.659014,-5995.668130,-2068.457845
582.202100,-740.205942,-5625.565159,-2221.676944
582.202428,1184.329507,-5921.647536,-1149.143247
582.202755,2220.617826,-5921.647536,-229.828649
582.203083,2664.741391,-8438.347739,689.485948
582.203410,2072.576638,-9770.718434,2374.896044
582.203738,0.000000,-10732.986159,2451.505594
582.204065,-2368.659014,-12509.480420,2451.505594
582.204393,-3330.926739,-13175.665768,1991.848295
582.204720,-2442.679609,-12879.583391,1838.629195
582.205048,-2294.638420,-11399.171507,1378.971896
582.205375,-592.164754,-9770.718434,1455.581446
582.205703,444.123565,-7994.224174,153.219100
582.206031,962.267725,-6513.812290,-536.266849
582.206358,666.185348,-5329.482782,-2145.067394
582.206686,2368.659014,-4959.379811,-1302.362347
582.207013,4145.153275,-4959.379811,-612.876398
582.207341,4145.153275,-5403.503377,0.000000
582.207668,3330.926739,-7920.203579,1455.581446
582.207996,2368.659014,-9770.718434,2451.505594
582.208323,-370.102971,-10807.006753,1608.800546
582.208651,-3034.844362,-11917.315666,1608.800546
582.208978,-3182.885551,-11991.336260,2068.457845
582.209306,-2886.803174,-10807.006753,1991.848295
582.209633,-2812.782580,-10066.800811,1072.533697
582.209961,-2590.720797,-8364.327145,842.705048
582.210288,-962.267725,-7179.997637,-383.047749
582.210616,-1258.350101,-5107.421000,-1149.143247
582.210944,-740.205942,-4737.318029,-1762.019645
582.211271,814.226536,-4811.338623,-1302.362347
582.211599,1924.535449,-5329.482782,-153.219100
582.211926,2072.576638,-6217.729913,0.000000
582.212254,1480.411884,-7846.182985,1149.143247
582.212581,740.205942,-9918.759623,1991.848295
582.212909,-1702.473667,-10955.047942,1608.800546
582.213236,-2812.782580,-11843.295072,1838.629195
582.213564,-2960.823768,-11103.089130,1685.410096
582.213891,-2072.576638,-11103.089130,1685.410096
582.214219,-2220.617826,-10584.944971,1149.143247
582.214546,-1332.370696,-9844.739029,612.876398
582.214874,-1406.391290,-8364.327145,-612.876398
582.215201,-1480.411884,-7179.997637,-1762.019645
582.215529,-370.102971,-6957.935855,-1838.629195
582.215857,2516.700203,-6365.771101,-995.924147
582.216184,3330.926739,-5699.585753,-153.219100
582.216512,4145.153275,-7624.121203,1149.143247
582.216839,3034.844362,-9992.780217,1915.238745
582.217167,1110.308913,-11177.109724,2068.457845
582.217494,-1258.350101,-12657.521608,1915.238745
582.217822,-2220.617826,-13101.645173,2221.676944
582.218149,-1702.473667,-13397.727550,2374.896044
582.218477,-1776.494261,-13027.624579,2451.505594
582.218804,-1332.370696,-11843.295072,1608.800546
582.219132,-962.267725,-10436.903782,1072.533697
582.219459,-962.267725,-9252.574275,-306.438199
582.219787,-1702.473667,-7772.162391,-1762.019645
582.220115,518.144159,-7105.977043,-1838.629195
582.220442,2368.659014,-5847.626942,-995.924147
582.220770,3256.906145,-6291.750507,0.000000
582.221097,3108.864956,-8068.244768,229.828649
582.221425,2442.679609,-9474.636058,1455.581446
582.221752,-222.061783,-10510.924376,1455.581446
582.222080,-2664.741391,-11473.192101,1991.848295
582.222407,-3552.988522,-12583.501014,1838.629195
582.222735,-3108.864956,-12509.480420,2145.067394
582.223062,-3256.906145,-11621.233289,1608.800546
582.223390,-2442.679609,-10955.047942,1608.800546
582.223717,-1702.473667,-9918.759623,842.705048
582.224045,-2442.679609,-7920.203579,0.000000
582.224372,-2146.597232,-7179.997637,-1608.800546
582.224700,-370.102971,-6735.874072,-1762.019645
582.225028,1702.473667,-6217.729913,-1225.752797
582.225355,2516.700203,-6735.874072,-306.438199
582.225683,2812.782580,-7476.080014,536.266849
582.226010,2590.720797,-9178.553681,995.924147
582.226338,-222.061783,-9918.759623,842.705048
582.226665,-962.267725,-11399.171507,1302.362347
582.226993,-1184.329507,-11843.295072,1225.752797
582.227320,-1332.370696,-11251.130318,2221.676944
582.227648,-1036.288319,-11769.274478,1838.629195
582.227975,-814.226536,-10066.800811,1455.581446
582.228303,222.061783,-8512.368333,842.705048
582.228630,-740.205942,-7550.100608,-229.828649
582.228958,0.000000,-6587.832884,-612.876398
582.229285,1258.350101,-5403.503377,-766.095498
582.229613,2738.761985,-4589.276840,-459.657299
582.229941,3108.864956,-4811.338623,76.609550
582.230268,3701.029710,-6883.915261,842.705048
582.230596,2220.617826,-7698.141797,1072.533697
582.230923,-518.144159,-9178.553681,1378.971896
582.231251,-1776.494261,-10807.006753,995.924147
582.231578,-1924.535449,-10955.047942,1532.190996
582.231906,-1850.514855,-11399.171507,1915.238745
582.232233,-1998.556043,-10955.047942,1838.629195
582.232561,-1850.514855,-10658.965565,1455.581446
582.232888,-2220.617826,-9178.553681,536.266849
582.233216,-2664.741391,-7994.224174,-689.485948
582.233543,-1924.535449,-6513.812290,-995.924147
582.233871,74.020594,-5699.585753,-995.924147
582.234198,814.226536,-5773.606348,-153.219100
582.234526,592.164754,-6513.812290,-153.219100
582.234854,518.144159,-7624.121203,306.438199
582.235181,-814.226536,-8882.471304,459.657299
582.235509,-2664.741391,-10436.903782,383.047749
582.235836,-2368.659014,-10881.027347,1302.362347
582.236164,-1332.370696,-11325.150913,1302.362347
582.236491,-1110.308913,-10584.944971,1378.971896
582.236819,-444.123565,-10362.883188,1532.190996
582.237146,148.041188,-9992.780217,1532.190996
582.237474,-370.102971,-8956.491898,1225.752797
582.237801,-666.185348,-8438.347739,-153.219100
582.238129,518.144159,-7550.100608,-229.828649
582.238456,1628.453072,-6883.915261,229.828649
582.238784,1850.514855,-7476.080014,306.438199
582.239111,2072.576638,-8586.388927,842.705048
582.239439,1628.453072,-9548.656652,1072.533697
582.239767,148.041188,-10214.842000,919.314598
582.240094,-740.205942,-10955.047942,995.924147
582.240422,-962.267725,-11621.233289,995.924147
582.240749,-740.205942,-11621.233289,1378.971896
582.241077,-518.144159,-11029.068536,1302.362347
582.241404,-518.144159,-10362.883188,1225.752797
582.241732,74.020594,-9622.677246,1149.143247
582.242059,-1480.411884,-8586.388927,0.000000
582.242387,-1702.473667,-8438.347739,0.000000
582.242714,-740.205942,-7476.080014,229.828649
582.243042,0.000000,-7328.038826,689.485948
582.243369,0.000000,-7698.141797,306.438199
582.243697,666.185348,-9030.512492,612.876398
582.244025,0.000000,-9474.636058,766.095498
582.244352,-1480.411884,-9104.533087,689.485948
582.244680,-1554.432478,-9844.739029,0.000000
582.245007,-888.247130,-9992.780217,612.876398
582.245335,-962.267725,-9992.780217,536.266849
582.245662,-592.164754,-10288.862594,612.876398
582.245990,0.000000,-9844.739029,1225.752797
582.246317,0.000000,-10066.800811,995.924147
582.246645,-1258.350101,-9326.594869,0.000000
582.246972,-592.164754,-9104.533087,153.219100
582.247300,814.226536,-9178.553681,383.047749
582.247627,1184.329507,-8216.285956,536.266849
582.247955,1184.329507,-8586.388927,1225.752797
582.248282,740.205942,-9104.533087,766.095498
582.248610,0.000000,-9178.553681,689.485948
582.248938,-1702.473667,-9104.533087,-229.828649
582.249265,-1480.411884,-9252.574275,0.000000
582.249593,-444.123565,-9252.574275,306.438199
582.249920,0.000000,-8882.471304,612.876398
582.250248,0.000000,-9178.553681,995.924147
582.250575,666.185348,-9326.594869,1225.752797
582.250903,-148.041188,-8734.430116,536.266849
582.251230,-1036.288319,-8734.430116,0.000000
582.251558,-962.267725,-8882.471304,-306.438199
582.251885,0.000000,-8364.327145,383.047749
582.252213,296.082377,-7698.141797,229.828649
582.252540,814.226536,-8290.306550,536.266849
582.252868,814.226536,-8290.306550,612.876398
582.253195,370.102971,-8660.409521,842.705048
582.253523,-1184.329507,-8734.430116,229.828649
582.253851,-1332.370696,-9030.512492,0.000000
582.254178,0.000000,-9178.553681,612.876398
582.254506,-444.123565,-9326.594869,536.266849
582.254833,-518.144159,-9178.553681,689.485948
582.255161,-518.144159,-9474.636058,689.485948
582.255488,-1406.391290,-9326.594869,459.657299
582.255816,-1554.432478,-9030.512492,229.828649
582.256143,74.020594,-8586.388927,459.657299
582.256471,592.164754,-8290.306550,1072.533697
582.256798,888.247130,-7846.182985,1225.752797
582.257126,370.102971,-8734.430116,1455.581446
582.257453,962.267725,-8882.471304,1608.800546
582.257781,-1406.391290,-9178.553681,153.219100
582.258108,-1924.535449,-9918.759623,229.828649
582.258436,-1332.370696,-9696.697840,0.000000
582.258764,-1110.308913,-9770.718434,459.657299
582.259091,-814.226536,-9548.656652,459.657299
582.259419,-148.041188,-9770.718434,766.095498
582.259746,740.205942,-9770.718434,842.705048
582.260074,-888.247130,-9178.553681,383.047749
582.260401,-370.102971,-9400.615463,0.000000
582.260729,740.205942,-9104.533087,0.000000
582.261056,1258.350101,-8512.368333,842.705048
582.261384,888.247130,-8660.409521,919.314598
582.261711,1406.391290,-9178.553681,1302.362347
582.262039,0.000000,-9770.718434,689.485948
582.262366,-2294.638420,-9696.697840,0.000000
582.262694,-2516.700203,-9844.739029,-459.657299
582.263022,-1184.329507,-9548.656652,0.000000
582.263349,-740.205942,-8808.450710,76.609550
582.263677,518.144159,-9622.677246,612.876398
582.264004,592.164754,-9622.677246,612.876398
582.264332,740.205942,-9104.533087,842.705048
582.264659,0.000000,-8216.285956,76.609550
582.264987,666.185348,-7772.162391,919.314598
582.265314,1998.556043,-7550.100608,766.095498
582.265642,1628.453072,-8586.388927,1455.581446
582.265969,1480.411884,-9326.594869,1838.629195
582.266297,296.082377,-10140.821405,1991.848295
582.266624,-814.226536,-10584.944971,1838.629195
582.266952,-2886.803174,-10807.006753,612.876398
582.267279,-2664.741391,-10807.006753,229.828649
582.267607,-1406.391290,-10436.903782,536.266849
582.267935,-1628.453072,-9030.512492,0.000000
582.268262,-814.226536,-8956.491898,306.438199
582.268590,-444.123565,-8290.306550,153.219100
582.268917,-148.041188,-7994.224174,0.000000
582.269245,-1184.329507,-7328.038826,-689.485948
582.269572,222.061783,-7402.059420,0.000000
582.269900,888.247130,-7254.018232,612.876398
582.270227,888.247130,-7624.121203,1685.410096
582.270555,370.102971,-8586.388927,1455.581446
582.270882,-518.144159,-9252.574275,1455.581446
582.271210,-2220.617826,-9622.677246,612.876398
582.271537,-3775.050304,-9992.780217,0.000000
582.271865,-2664.741391,-9474.636058,0.000000
582.272192,-962.267725,-8808.450710,306.438199
582.272520,0.000000,-8290.306550,0.000000
582.272848,1036.288319,-8512.368333,536.266849
582.273175,1480.411884,-8290.306550,306.438199
582.273503,592.164754,-7550.100608,0.000000
582.273830,592.164754,-7550.100608,76.609550
582.274158,1406.391290,-8290.306550,229.828649
582.274485,2368.659014,-8956.491898,1685.410096
582.274813,1184.329507,-9696.697840,1915.238745
582.275140,888.247130,-10658.965565,2451.505594
582.275468,-666.185348,-10436.903782,2528.115143
582.275795,-2146.597232,-10362.883188,1225.752797
582.276123,-3182.885551,-10807.006753,536.266849
582.276450,-2146.597232,-9992.780217,459.657299
582.276778,-1554.432478,-8586.388927,229.828649
582.277105,-1036.288319,-8142.265362,383.047749
582.277433,148.041188,-7772.162391,0.000000
582.277761,740.205942,-7476.080014,306.438199
582.278088,814.226536,-6513.812290,0.000000
582.278416,1184.329507,-6365.771101,0.000000
582.278743,2886.803174,-7179.997637,1608.800546
582.279071,2738.761985,-7698.141797,2451.505594
582.279398,2368.659014,-9326.594869,3447.429741
582.279726,1628.453072,-10288.862594,3753.867940
582.280053,592.164754,-11103.089130,4290.134789
582.280381,-2220.617826,-12139.377449,3370.820191
582.280708,-3627.009116,-13101.645173,3524.039291
582.281036,-3404.947333,-12361.439231,2451.505594
582.281363,-2516.700203,-10510.924376,2145.067394
582.281691,-1702.473667,-9474.636058,1915.238745
582.282019,74.020594,-9178.553681,1149.143247
582.282346,296.082377,-7920.203579,1302.362347
582.282674,0.000000,-7254.018232,842.705048
582.283001,370.102971,-7105.977043,1302.362347
582.283329,1258.350101,-7402.059420,1915.238745
582.283656,1332.370696,-8142.265362,2681.334243
582.283984,296.082377,-10214.842000,3600.648841
582.284311,-888.247130,-11029.068536,3677.258390
582.284639,-3478.967927,-11621.233289,4136.915689
582.284966,-5329.482782,-11621.233289,2604.724693
582.285294,-5255.462188,-11695.253884,2374.896044
582.285621,-3108.864956,-10584.944971,2528.115143
582.285949,-370.102971,-7994.224174,2604.724693
582.286276,1628.453072,-6735.874072,2681.334243
582.286604,2442.679609,-7105.977043,2604.724693
582.286932,2146.597232,-6587.832884,2374.896044
582.287259,1776.494261,-6291.750507,1915.238745
582.287587,2368.659014,-7328.038826,2068.457845
582.287914,2442.679609,-8586.388927,3217.601092
582.288242,2886.803174,-8956.491898,4596.572988
582.288569,3627.009116,-9844.739029,5822.325785
582.288897,3775.050304,-11177.109724,7201.297681
582.289224,1702.473667,-11769.274478,7431.126331
582.289552,0.000000,-12139.377449,6358.592633
582.289879,-2220.617826,-11695.253884,5362.668486
582.290207,-3330.926739,-11769.274478,4596.572988
582.290534,-4219.173869,-9918.759623,3830.477490
582.290862,-2516.700203,-7402.059420,4213.525239
582.291189,74.020594,-5995.668130,3600.648841
582.291517,222.061783,-5773.606348,3294.210641
582.291845,-1258.350101,-5329.482782,2451.505594
582.292172,-2516.700203,-5551.544565,1455.581446
582.292500,-3034.844362,-6291.750507,1225.752797
582.292827,-2812.782580,-7772.162391,1149.143247
582.293155,-3330.926739,-7846.182985,1225.752797
582.293482,-1110.308913,-8142.265362,2757.943793
582.293810,0.000000,-8660.409521,4213.525239
582.294137,-296.082377,-9400.615463,5286.058936
582.294465,-1776.494261,-10214.842000,4979.620737
582.294792,-2812.782580,-11029.068536,3983.696590
582.295120,-2220.617826,-10362.883188,3217.601092
582.295447,-1332.370696,-9400.615463,2451.505594
582.295774,0.000000,-9252.574275,2298.286494
582.296102,1480.411884,-8068.244768,2451.505594
582.296429,3627.009116,-7624.121203,3064.381992
582.296757,4663.297435,-7031.956449,3370.820191
582.297084,4219.173869,-8068.244768,3140.991542
582.297412,2294.638420,-9696.697840,2145.067394
582.297739,74.020594,-11177.109724,1685.410096
582.298067,-592.164754,-11547.212695,1455.581446
582.298394,-1110.308913,-11695.253884,2374.896044
582.298721,814.226536,-11177.109724,2911.162892
582.299049,1776.494261,-11103.089130,4136.915689
582.299376,1998.556043,-10955.047942,5132.839837
582.299704,2590.720797,-9622.677246,5056.230287
582.300031,1776.494261,-9178.553681,4749.792088
582.300359,740.205942,-9252.574275,4443.353888
582.300686,-666.185348,-9844.739029,3370.820191
582.301014,-1332.370696,-9696.697840,3140.991542
582.301341,-1258.350101,-8882.471304,3370.820191
582.301668,-962.267725,-8142.265362,3370.820191
582.301996,-518.144159,-8586.388927,3600.648841
582.302323,-814.226536,-9918.759623,3217.601092
582.302651,-1998.556043,-10214.842000,2911.162892
582.302978,-2516.700203,-9992.780217,2451.505594
582.303306,-2368.659014,-9770.718434,2451.505594
582.303633,-2442.679609,-9992.780217,2374.896044
582.303961,-2516.700203,-10658.965565,2834.553343
582.304288,-3256.906145,-11103.089130,2834.553343
582.304616,-3182.885551,-9844.739029,2604.724693
582.304943,-1480.411884,-8364.327145,2681.334243
582.305270,0.000000,-8216.285956,3064.381992
582.305598,222.061783,-8216.285956,3447.429741
582.305925,74.020594,-8364.327145,3217.601092
582.306253,296.082377,-8364.327145,3370.820191
582.306580,1554.432478,-7550.100608,3830.477490
582.306908,3182.885551,-7328.038826,4903.011187
582.307235,4663.297435,-8512.368333,5362.668486
582.307563,3997.112087,-9474.636058,5822.325785
582.307890,2516.700203,-10807.006753,5592.497135
582.308217,888.247130,-10807.006753,4826.401637
582.308545,0.000000,-10288.862594,5362.668486
582.308872,814.226536,-9918.759623,4673.182538
582.309200,888.247130,-9770.718434,4366.744339
582.309527,148.041188,-9770.718434,3983.696590
582.309855,-1258.350101,-10214.842000,3600.648841
582.310182,-2738.761985,-9178.553681,3370.820191
582.310510,-2738.761985,-7994.224174,2298.286494
582.310837,-2220.617826,-7031.956449,2451.505594
582.311164,-1850.514855,-7031.956449,2451.505594
582.311492,-2146.597232,-7402.059420,2374.896044
582.311819,-2886.803174,-7328.038826,2145.067394
582.312147,-4293.194464,-7179.997637,1608.800546
582.312474,-4589.276840,-7328.038826,1532.190996
582.312802,-3404.947333,-7476.080014,1225.752797
582.313129,-1628.453072,-7846.182985,1685.410096
582.313457,0.000000,-7328.038826,2834.553343
582.313784,666.185348,-7624.121203,3140.991542
582.314111,740.205942,-8068.244768,3217.601092
582.314439,592.164754,-8808.450710,2834.553343
582.314766,666.185348,-9178.553681,2374.896044
582.315094,1998.556043,-9474.636058,2374.896044
582.315421,3627.009116,-9104.533087,3370.820191
582.315749,4589.276840,-9252.574275,4136.915689
582.316076,4811.338623,-10214.842000,5362.668486
582.316404,4219.173869,-11103.089130,5362.668486
582.316731,2738.761985,-11843.295072,4903.011187
582.317059,1406.391290,-12139.377449,4290.134789
582.317386,0.000000,-11547.212695,2911.162892
582.317713,-1776.494261,-11177.109724,3677.258390
582.318041,370.102971,-9770.718434,4136.915689
582.318368,962.267725,-9474.636058,4596.572988
582.318696,1480.411884,-9030.512492,5056.230287
582.319023,296.082377,-8734.430116,4443.353888
582.319351,-2738.761985,-9178.553681,3447.429741
582.319678,-4737.318029,-8734.430116,2145.067394
582.320006,-5329.482782,-8882.471304,1838.629195
582.320333,-4441.235652,-8290.306550,1378.971896
582.320660,-2368.659014,-7179.997637,2757.943793
582.320988,-370.102971,-7105.977043,3447.429741
582.321315,0.000000,-7105.977043,4443.353888
582.321643,-518.144159,-7698.141797,4290.134789
582.321970,-1924.535449,-8660.409521,3983.696590
582.322298,-3256.906145,-9622.677246,2987.772442
582.322625,-3701.029710,-11029.068536,2068.457845
582.322953,-3256.906145,-11251.130318,2068.457845
582.323280,-1776.494261,-10658.965565,2834.553343
582.323607,666.185348,-10066.800811,3600.648841
582.323935,2368.659014,-9326.594869,4136.915689
582.324262,3330.926739,-9178.553681,4443.353888
582.324590,3256.906145,-9770.718434,4290.134789
582.324917,2072.576638,-10214.842000,3524.039291
582.325245,1110.308913,-10510.924376,3524.039291
582.325572,962.267725,-9918.759623,3753.867940
582.325900,962.267725,-10066.800811,3907.087040
582.326227,1332.370696,-9918.759623,4443.353888
582.326554,1036.288319,-9178.553681,3677.258390
582.326882,-962.267725,-8808.450710,3983.696590
582.327209,296.082377,-7772.162391,2987.772442
582.327537,-296.082377,-7846.182985,3064.381992
582.327864,-296.082377,-7328.038826,2528.115143
582.328192,888.247130,-7254.018232,2681.334243
582.328519,666.185348,-7179.997637,3294.210641
582.328847,962.267725,-7328.038826,3524.039291
582.329174,814.226536,-8216.285956,4749.792088
582.329502,0.000000,-8586.388927,3907.087040
582.329829,-740.205942,-9178.553681,3830.477490
582.330156,-1554.432478,-9474.636058,3677.258390
582.330484,-2220.617826,-9770.718434,3447.429741
582.330811,-1776.494261,-9400.615463,3370.820191
582.331139,-2146.597232,-9474.636058,3524.039291
582.331466,-1850.514855,-9400.615463,3140.991542
582.331794,-1554.432478,-9104.533087,2757.943793
582.332121,-1480.411884,-8586.388927,2681.334243
582.332449,-740.205942,-8068.244768,2911.162892
582.332776,-962.267725,-7920.203579,2374.896044
582.333103,-666.185348,-8068.244768,2604.724693
582.333431,0.000000,-7994.224174,2757.943793
582.333758,0.000000,-8438.347739,3140.991542
582.334086,296.082377,-8586.388927,3447.429741
582.334413,148.041188,-9030.512492,3294.210641
582.334741,370.102971,-9474.636058,3600.648841
582.335068,444.123565,-9622.677246,3447.429741
582.335396,370.102971,-10214.842000,3600.648841
582.335723,222.061783,-9992.780217,3677.258390
582.336050,666.185348,-9548.656652,2911.162892
582.336378,0.000000,-9474.636058,3064.381992
582.336705,666.185348,-9104.533087,2451.505594
582.337033,666.185348,-9030.512492,2451.505594
582.337360,592.164754,-9252.574275,1991.848295
582.337688,592.164754,-9770.718434,2298.286494
582.338015,0.000000,-10066.800811,2298.286494
582.338343,-222.061783,-10066.800811,2451.505594
582.338670,-592.164754,-9992.780217,2068.457845
582.338997,-962.267725,-10214.842000,2145.067394
582.339325,-666.185348,-9844.739029,1532.190996
582.339652,-1258.350101,-9844.739029,1991.848295
582.339980,-1628.453072,-9548.656652,1608.800546
582.340307,-1776.494261,-9252.574275,1685.410096
582.340635,-1850.514855,-9178.553681,1532.190996
582.340962,-1480.411884,-8364.327145,2221.676944
582.341290,-740.205942,-8068.244768,1378.971896
582.341617,0.000000,-7994.224174,1302.362347
582.341945,222.061783,-8290.306550,1455.581446
582.342272,444.123565,-8882.471304,1455.581446
582.342599,0.000000,-9400.615463,1455.581446
582.342927,222.061783,-9474.636058,1838.629195
582.343254,-148.041188,-9844.739029,1455.581446
582.343582,370.102971,-10584.944971,2145.067394
582.343909,1036.288319,-10436.903782,1838.629195
582.344237,1554.432478,-9918.759623,2145.067394
582.344564,1776.494261,-9696.697840,2145.067394
582.344892,1332.370696,-9844.739029,2145.067394
582.345219,888.247130,-9474.636058,1915.238745
582.345546,-296.082377,-9252.574275,1532.190996
582.345874,-444.123565,-8660.409521,1302.362347
582.346201,-518.144159,-8142.265362,995.924147
582.346529,-592.164754,-8364.327145,995.924147
582.346856,-518.144159,-8364.327145,1149.143247
582.347184,-518.144159,-8216.285956,1302.362347
582.347511,-888.247130,-7994.224174,1072.533697
582.347839,-888.247130,-8142.265362,766.095498
582.348166,-1258.350101,-7994.224174,306.438199
582.348493,-1184.329507,-7994.224174,383.047749
582.348821,-1036.288319,-8068.244768,306.438199
582.349148,-888.247130,-8438.347739,536.266849
582.349476,-666.185348,-8660.409521,919.314598
582.349803,-444.123565,-8734.430116,1072.533697
582.350131,-740.205942,-9104.533087,1302.362347
582.350458,-370.102971,-9400.615463,689.485948
582.350786,-444.123565,-9030.512492,766.095498
582.351113,148.041188,-9252.574275,766.095498
582.351440,370.102971,-9104.533087,766.095498
582.351768,518.144159,-8808.450710,766.095498
582.352095,666.185348,-9474.636058,842.705048
582.352423,592.164754,-9400.615463,1302.362347
582.352750,222.061783,-9400.615463,1149.143247
582.353078,666.185348,-9696.697840,919.314598
582.353405,0.000000,-9030.512492,995.924147
582.353733,0.000000,-8882.471304,766.095498
582.354060,296.082377,-8734.430116,536.266849
582.354388,0.000000,-8956.491898,229.828649
582.354715,-370.102971,-8586.388927,1302.362347
582.355042,-518.144159,-8364.327145,842.705048
582.355370,-888.247130,-8808.450710,689.485948
582.355697,-1332.370696,-8956.491898,383.047749
582.356025,-1332.370696,-9030.512492,459.657299
582.356352,-1406.391290,-9252.574275,229.828649
582.356680,-1036.288319,-8956.491898,0.000000
582.357007,-888.247130,-9252.574275,306.438199
582.357335,-888.247130,-9252.574275,229.828649
582.357662,-370.102971,-9400.615463,459.657299
582.357989,-222.061783,-9548.656652,536.266849
582.358317,-148.041188,-9252.574275,689.485948
582.358644,0.000000,-9770.718434,536.266849
582.358972,-370.102971,-9844.739029,536.266849
582.359299,-296.082377,-10140.821405,689.485948
582.359627,-592.164754,-9844.739029,689.485948
582.359954,370.102971,-9622.677246,1302.362347
582.360282,444.123565,-9474.636058,766.095498
582.360609,222.061783,-9400.615463,766.095498
582.360936,444.123565,-9326.594869,766.095498
582.361264,444.123565,-8808.450710,766.095498
582.361591,444.123565,-8956.491898,459.657299
582.361919,222.061783,-9178.553681,1225.752797
582.362246,0.000000,-9178.553681,766.095498
582.362574,0.000000,-9326.594869,766.095498
582.362901,0.000000,-9326.594869,689.485948
582.363229,74.020594,-9178.553681,536.266849
582.363556,148.041188,-8956.491898,383.047749
582.363883,0.000000,-8956.491898,536.266849
582.364211,-370.102971,-9030.512492,383.047749
582.364538,-296.082377,-8512.368333,229.828649
582.364866,-518.144159,-8660.409521,153.219100
582.365193,-666.185348,-8512.368333,76.609550
582.365521,-888.247130,-9030.512492,229.828649
582.365848,-1036.288319,-9030.512492,229.828649
582.366176,-962.267725,-8882.471304,383.047749
582.366503,-814.226536,-8882.471304,306.438199
582.366831,-296.082377,-8660.409521,383.047749
582.367158,0.000000,-8586.388927,153.219100
582.367485,-148.041188,-8364.327145,689.485948
582.367813,-222.061783,-8290.306550,766.095498
582.368140,-444.123565,-8734.430116,612.876398
582.368468,-666.185348,-8660.409521,766.095498
582.368795,-888.247130,-9178.553681,1072.533697
582.369123,-1110.308913,-9104.533087,919.314598
582.369450,-444.123565,-9252.574275,766.095498
582.369778,-444.123565,-9178.553681,766.095498
582.370105,-296.082377,-8882.471304,612.876398
582.370432,0.000000,-8586.388927,919.314598
582.370760,0.000000,-8586.388927,612.876398
582.371087,-296.082377,-8956.491898,689.485948
582.371415,-148.041188,-9400.615463,612.876398
582.371742,-592.164754,-9548.656652,689.485948
582.372070,-370.102971,-9326.594869,689.485948
582.372397,-592.164754,-9622.677246,766.095498
582.372725,-518.144159,-9474.636058,612.876398
582.373052,-296.082377,-9474.636058,459.657299
582.373379,-370.102971,-9400.615463,306.438199
582.373707,-296.082377,-8956.491898,1149.143247
582.374034,-370.102971,-9178.553681,919.314598
582.374362,-518.144159,-9400.615463,612.876398
582.374689,-592.164754,-9252.574275,459.657299
582.375017,-444.123565,-9178.553681,689.485948
582.375344,0.000000,-9178.553681,536.266849
582.375672,0.000000,-9252.574275,0.000000
582.375999,0.000000,-8956.491898,536.266849
582.376326,0.000000,-8956.491898,306.438199
582.376654,-148.041188,-9030.512492,536.266849
582.376981,-222.061783,-9400.615463,536.266849
582.377309,-296.082377,-9474.636058,383.047749
582.377636,0.000000,-9622.677246,842.705048
582.377964,-370.102971,-9770.718434,612.876398
582.378291,-296.082377,-9622.677246,689.485948
582.378619,-296.082377,-9474.636058,689.485948
582.378946,148.041188,-8512.368333,612.876398
582.379274,-518.144159,-8660.409521,459.657299
582.379601,-740.205942,-8734.430116,229.828649
582.379928,-1184.329507,-8734.430116,612.876398
582.380256,-1184.329507,-8586.388927,306.438199
582.380583,-740.205942,-8586.388927,995.924147
582.380911,-666.185348,-8438.347739,842.705048
582.381238,-518.144159,-8734.430116,689.485948
582.381566,0.000000,-8808.450710,842.705048
582.381893,370.102971,-8438.347739,612.876398
582.382221,444.123565,-8808.450710,689.485948
582.382548,592.164754,-9400.615463,689.485948
582.382875,-222.061783,-9474.636058,766.095498
582.383203,-148.041188,-9918.759623,995.924147
582.383530,-222.061783,-10140.821405,1302.362347
582.383858,-148.041188,-9918.759623,995.924147
582.384185,444.123565,-9696.697840,612.876398
582.384513,592.164754,-8808.450710,612.876398
582.384840,962.267725,-8290.306550,306.438199
582.385168,740.205942,-7920.203579,0.000000
582.385495,148.041188,-7920.203579,76.609550
582.385822,0.000000,-8364.327145,153.219100
582.386150,-666.185348,-8956.491898,536.266849
582.386477,-814.226536,-9252.574275,766.095498
582.386805,-592.164754,-9474.636058,612.876398
582.387132,-444.123565,-9252.574275,689.485948
582.387460,0.000000,-8882.471304,612.876398
582.387787,0.000000,-8438.347739,766.095498
582.388115,148.041188,-8290.306550,0.000000
582.388442,370.102971,-8512.368333,0.000000
582.388769,0.000000,-8586.388927,76.609550
582.389097,-444.123565,-9326.594869,459.657299
582.389424,-1258.350101,-9326.594869,612.876398
582.389752,-962.267725,-9918.759623,766.095498
582.390079,-888.247130,-9770.718434,689.485948
582.390407,-370.102971,-9696.697840,536.266849
582.390734,-222.061783,-9474.636058,306.438199
582.391062,74.020594,-8882.471304,76.609550
582.391389,370.102971,-9104.533087,459.657299
582.391717,296.082377,-9178.553681,536.266849
582.392044,148.041188,-9474.636058,459.657299
582.392371,-222.061783,-9622.677246,842.705048
582.392699,-740.205942,-9992.780217,1149.143247
582.393026,-222.061783,-9918.759623,842.705048
582.393354,-518.144159,-9474.636058,995.924147
582.393681,-592.164754,-9252.574275,612.876398
582.394009,-518.144159,-8956.491898,383.047749
582.394336,-296.082377,-8660.409521,459.657299
582.394664,-518.144159,-8512.368333,153.219100
582.394991,-518.144159,-9030.512492,459.657299
582.395318,-814.226536,-9474.636058,919.314598
582.395646,-888.247130,-9548.656652,1149.143247
582.395973,-666.185348,-9474.636058,919.314598
582.396301,-222.061783,-9474.636058,383.047749
582.396628,-296.082377,-9770.718434,536.266849
582.396956,-296.082377,-9474.636058,383.047749
582.397283,-222.061783,-9252.574275,612.876398
582.397611,0.000000,-9474.636058,689.485948
582.397938,-296.082377,-9622.677246,459.657299
582.398266,-296.082377,-10066.800811,842.705048
582.398594,-444.123565,-9474.636058,766.095498
582.398921,-444.123565,-9326.594869,766.095498
582.399249,-592.164754,-9104.533087,766.095498
582.399576,-888.247130,-8808.450710,995.924147
582.399904,-740.205942,-8438.347739,-536.266849
582.400231,-592.164754,-8142.265362,229.828649
582.400559,-370.102971,-7846.182985,229.828649
582.400886,-740.205942,-8290.306550,306.438199
582.401214,-518.144159,-8956.491898,919.314598
582.401541,-222.061783,-8734.430116,1225.752797
582.401869,-592.164754,-8512.368333,612.876398
582.402196,-592.164754,-8586.388927,459.657299
582.402524,-592.164754,-9030.512492,459.657299
582.402851,-370.102971,-8956.491898,306.438199
582.403179,74.020594,-8808.450710,459.657299
582.403506,0.000000,-8808.450710,689.485948
582.403834,-518.144159,-8956.491898,536.266849
582.404161,-666.185348,-9104.533087,766.095498
582.404489,-518.144159,-8956.491898,536.266849
582.404816,-592.164754,-8364.327145,842.705048
582.405144,-296.082377,-8586.388927,612.876398
582.405471,0.000000,-8882.471304,536.266849
582.405799,0.000000,-8882.471304,612.876398
582.406126,0.000000,-8882.471304,612.876398
582.406454,74.020594,-8882.471304,842.705048
582.406781,222.061783,-8660.409521,919.314598
582.407109,74.020594,-9400.615463,689.485948
582.407436,148.041188,-9252.574275,919.314598
582.407764,222.061783,-9178.553681,612.876398
582.408091,222.061783,-9326.594869,689.485948
582.408419,0.000000,-8660.409521,1072.533697
582.408746,-296.082377,-8956.491898,536.266849
582.409074,-296.082377,-8882.471304,383.047749
582.409401,-222.061783,-8660.409521,459.657299
582.409729,0.000000,-8808.450710,229.828649
582.410056,-222.061783,-8734.430116,995.924147
582.410384,0.000000,-9178.553681,229.828649
582.410711,0.000000,-9252.574275,459.657299
582.411039,-296.082377,-9400.615463,229.828649
582.411366,-296.082377,-9474.636058,536.266849
582.411694,0.000000,-9326.594869,689.485948
582.412021,0.000000,-9696.697840,689.485948
582.412349,0.000000,-9622.677246,766.095498
582.412676,0.000000,-9696.697840,689.485948
582.413004,0.000000,-9474.636058,995.924147
582.413331,0.000000,-9474.636058,536.266849
582.413659,148.041188,-8956.491898,229.828649
582.413986,-296.082377,-9104.533087,306.438199
582.414314,-370.102971,-9030.512492,459.657299
582.414641,-148.041188,-8882.471304,383.047749
582.414969,-222.061783,-9474.636058,459.657299
582.415296,-518.144159,-8660.409521,919.314598
582.415624,0.000000,-9400.615463,689.485948
582.415951,-148.041188,-9474.636058,383.047749
582.416279,222.061783,-9400.615463,383.047749
582.416606,0.000000,-9400.615463,383.047749
582.416934,0.000000,-8808.450710,766.095498
582.417262,148.041188,-9326.594869,612.876398
582.417589,0.000000,-9326.594869,383.047749
582.417917,0.000000,-9474.636058,612.876398
582.418244,-296.082377,-9400.615463,536.266849
582.418572,-740.205942,-8808.450710,1072.533697
582.418899,-222.061783,-8956.491898,536.266849
582.419227,-518.144159,-8808.450710,536.266849
582.419554,-444.123565,-8808.450710,383.047749
582.419882,-148.041188,-8808.450710,383.047749
582.420209,-222.061783,-8956.491898,306.438199
582.420537,0.000000,-9400.615463,536.266849
582.420864,-148.041188,-9400.615463,919.314598
582.421192,0.000000,-9326.594869,842.705048
582.421519,-148.041188,-9474.636058,919.314598
582.421847,0.000000,-9474.636058,689.485948
582.422174,0.000000,-9474.636058,1225.752797
582.422502,0.000000,-9104.533087,689.485948
582.422829,-296.082377,-9030.512492,919.314598
582.423157,-592.164754,-8882.471304,459.657299
582.423484,-370.102971,-9252.574275,459.657299
582.423812,-592.164754,-8438.347739,689.485948
582.424139,-296.082377,-8882.471304,383.047749
582.424467,-296.082377,-9030.512492,536.266849
582.424794,-296.082377,-9178.553681,459.657299
582.425122,-296.082377,-9030.512492,459.657299
582.425449,0.000000,-8660.409521,766.095498
582.425777,0.000000,-8882.471304,459.657299
582.426104,-222.061783,-9178.553681,459.657299
582.426432,-148.041188,-9030.512492,689.485948
582.426759,0.000000,-9252.574275,612.876398
582.427087,-370.102971,-9104.533087,1072.533697
582.427414,-592.164754,-9178.553681,1072.533697
582.427742,-518.144159,-9178.553681,612.876398
582.428069,-592.164754,-9104.533087,612.876398
582.428397,-370.102971,-9178.553681,383.047749
582.428724,-518.144159,-9104.533087,459.657299
582.429052,-296.082377,-9030.512492,383.047749
582.429379,-222.061783,-9400.615463,536.266849
582.429707,-296.082377,-9400.615463,612.876398
582.430034,-370.102971,-9178.553681,459.657299
582.430362,-148.041188,-9548.656652,612.876398
582.430689,74.020594,-9474.636058,306.438199
582.431017,-666.185348,-8956.491898,459.657299
582.431344,-370.102971,-9178.553681,459.657299
582.431672,-666.185348,-9104.533087,612.876398
582.431999,-666.185348,-8882.471304,612.876398
582.432327,-518.144159,-8290.306550,766.095498
582.432654,-518.144159,-8364.327145,459.657299
582.432982,-740.205942,-8660.409521,536.266849
582.433309,-740.205942,-8586.388927,689.485948
582.433637,-740.205942,-8808.450710,383.047749
582.433964,-814.226536,-8364.327145,766.095498
582.434292,-370.102971,-8586.388927,766.095498
582.434619,-296.082377,-9104.533087,689.485948
582.434947,-222.061783,-9104.533087,995.924147
582.435274,-370.102971,-8956.491898,766.095498
582.435602,-222.061783,-9030.512492,612.876398
582.435930,0.000000,-9030.512492,536.266849
582.436257,-518.144159,-8956.491898,766.095498
582.436585,-518.144159,-9104.533087,612.876398
582.436912,-370.102971,-9104.533087,612.876398
582.437240,-518.144159,-9030.512492,306.438199
582.437567,-296.082377,-8734.430116,-153.219100
582.437895,-370.102971,-8438.347739,459.657299
582.438222,-296.082377,-9030.512492,306.438199
582.438550,-222.061783,-8882.471304,383.047749
582.438877,-222.061783,-8956.491898,306.438199
582.439205,-518.144159,-8956.491898,919.314598
582.439532,0.000000,-8882.471304,1072.533697
582.439860,0.000000,-9252.574275,459.657299
582.440187,0.000000,-9030.512492,536.266849
582.440515,0.000000,-9178.553681,306.438199
582.440842,0.000000,-9030.512492,919.314598
582.441170,0.000000,-9326.594869,919.314598
582.441497,-148.041188,-9178.553681,229.828649
582.441825,0.000000,-9030.512492,306.438199
582.442152,0.000000,-9104.533087,153.219100
582.442480,0.000000,-9178.553681,306.438199
582.442807,148.041188,-8956.491898,612.876398
582.443135,148.041188,-9178.553681,459.657299
582.443462,0.000000,-9178.553681,536.266849
582.443790,0.000000,-9400.615463,459.657299
582.444117,0.000000,-9474.636058,536.266849
582.444445,296.082377,-9252.574275,689.485948
582.444772,74.020594,-9474.636058,766.095498
582.445100,74.020594,-9548.656652,612.876398
582.445427,-370.102971,-9474.636058,689.485948
582.445755,-370.102971,-9400.615463,766.095498
582.446082,-296.082377,-9326.594869,1072.533697
582.446410,-370.102971,-8882.471304,459.657299
582.446737,-222.061783,-9030.512492,459.657299
582.447065,0.000000,-9178.553681,766.095498
582.447392,-296.082377,-9252.574275,536.266849
582.447720,-222.061783,-9104.533087,766.095498
582.448047,0.000000,-9400.615463,383.047749
582.448375,-296.082377,-9326.594869,612.876398
582.448702,-148.041188,-9400.615463,612.876398
582.449030,74.020594,-9326.594869,766.095498
582.449357,-148.041188,-9474.636058,536.266849
582.449685,0.000000,-9474.636058,0.000000
582.450012,-296.082377,-9252.574275,995.924147
582.450340,-444.123565,-9178.553681,536.266849
582.450667,-296.082377,-9252.574275,536.266849
582.450995,0.000000,-9178.553681,536.266849
582.451322,0.000000,-8882.471304,536.266849
582.451650,0.000000,-9252.574275,536.266849
582.451977,-222.061783,-9104.533087,459.657299
582.452305,0.000000,-9030.512492,689.485948
582.452632,-222.061783,-9178.553681,536.266849
582.452960,-296.082377,-9326.594869,919.314598
582.453287,0.000000,-9104.533087,842.705048
582.453615,-222.061783,-9326.594869,612.876398
582.453942,-222.061783,-9400.615463,766.095498
582.454270,-518.144159,-9178.553681,689.485948
582.454597,-444.123565,-9030.512492,842.705048
582.454925,-222.061783,-9104.533087,536.266849
582.455253,-814.226536,-9030.512492,536.266849
582.455580,-518.144159,-8882.471304,459.657299
582.455908,-666.185348,-8808.450710,612.876398
582.456235,-370.102971,-8956.491898,459.657299
582.456563,-592.164754,-8290.306550,536.266849
582.456890,-444.123565,-8808.450710,766.095498
582.457218,-592.164754,-8882.471304,536.266849
582.457545,-370.102971,-8808.450710,536.266849
582.457873,-666.185348,-8956.491898,766.095498
582.458200,-666.185348,-8808.450710,766.095498
582.458528,-740.205942,-8882.471304,689.485948
582.458855,-740.205942,-8956.491898,459.657299
582.459183,-592.164754,-8956.491898,612.876398
582.459510,-592.164754,-8882.471304,612.876398
582.459838,-518.144159,-8290.306550,306.438199
582.460165,-222.061783,-8438.347739,536.266849
582.460493,-296.082377,-8438.347739,383.047749
582.460820,-444.123565,-8734.430116,153.219100
582.461148,-444.123565,-8734.430116,536.266849
582.461475,-518.144159,-8660.409521,383.047749
582.461803,-444.123565,-8956.491898,536.266849
582.462130,-444.123565,-9252.574275,766.095498
582.462458,-370.102971,-9178.553681,383.047749
582.462785,-296.082377,-9104.533087,536.266849
582.463113,-296.082377,-9178.553681,536.266849
582.463440,0.000000,-9326.594869,536.266849
582.463768,-518.144159,-8808.450710,689.485948
582.464095,-370.102971,-8956.491898,153.219100
582.464423,-222.061783,-8882.471304,459.657299
582.464750,-444.123565,-9030.512492,459.657299
582.465078,0.000000,-9326.594869,229.828649
582.465405,-296.082377,-9252.574275,1072.533697
582.465733,0.000000,-9104.533087,612.876398
582.466060,0.000000,-9030.512492,459.657299
582.466388,-222.061783,-9252.574275,612.876398
582.466715,-148.041188,-9104.533087,153.219100
582.467043,-148.041188,-9104.533087,1149.143247
582.467370,0.000000,-9326.594869,459.657299
582.467698,-296.082377,-9178.553681,536.266849
582.468025,0.000000,-9178.553681,536.266849
582.468353,-222.061783,-9030.512492,919.314598
582.468680,0.000000,-9030.512492,0.000000
582.469008,0.000000,-9030.512492,306.438199
582.469335,0.000000,-8956.491898,383.047749
582.469663,-222.061783,-9104.533087,612.876398
582.469990,-222.061783,-9252.574275,459.657299
582.470318,148.041188,-9104.533087,306.438199
582.470645,0.000000,-9474.636058,689.485948
582.470973,0.000000,-9548.656652,689.485948
582.471300,0.000000,-9548.656652,689.485948
582.471628,0.000000,-9474.636058,459.657299
582.471955,-296.082377,-9474.636058,689.485948
582.472283,-296.082377,-9252.574275,766.095498
582.472610,-296.082377,-9474.636058,306.438199
582.472938,-370.102971,-9400.615463,229.828649
582.473265,-296.082377,-9400.615463,689.485948
582.473593,0.000000,-8956.491898,306.438199
582.473921,-370.102971,-8808.450710,766.095498
582.474248,-370.102971,-9252.574275,689.485948
582.474576,0.000000,-9474.636058,536.266849
582.474903,0.000000,-9252.574275,689.485948
582.475231,0.000000,-9400.615463,536.266849
582.475558,-370.102971,-9252.574275,995.924147
582.475886,74.020594,-9474.636058,459.657299
582.476213,-296.082377,-9326.594869,842.705048
582.476541,-296.082377,-8956.491898,766.095498
582.476868,-296.082377,-9178.553681,766.095498
582.477196,0.000000,-9252.574275,536.266849
582.477523,-518.144159,-8956.491898,536.266849
582.477851,-370.102971,-9178.553681,612.876398
582.478178,-296.082377,-9178.553681,536.266849
582.478506,-296.082377,-9252.574275,689.485948
582.478833,-296.082377,-9104.533087,995.924147
582.479161,-370.102971,-8808.450710,766.095498
582.479488,0.000000,-9400.615463,536.266849
582.479816,-444.123565,-9474.636058,766.095498
582.480143,-148.041188,-9326.594869,612.876398
582.480471,-222.061783,-9030.512492,919.314598
582.480798,0.000000,-9178.553681,1149.143247
582.481126,-222.061783,-9104.533087,612.876398
582.481453,-370.102971,-9104.533087,689.485948
582.481781,0.000000,-9178.553681,383.047749
582.482108,-296.082377,-9030.512492,459.657299
582.482436,-296.082377,-8882.471304,229.828649
582.482763,0.000000,-8956.491898,306.438199
582.483091,-444.123565,-8734.430116,459.657299
582.483418,-518.144159,-8808.450710,383.047749
582.483746,-370.102971,-8808.450710,153.219100
582.484073,0.000000,-8808.450710,153.219100
582.484401,-296.082377,-9030.512492,459.657299
582.484728,-518.144159,-9326.594869,383.047749
582.485056,0.000000,-9326.594869,306.438199
582.485383,-370.102971,-9030.512492,459.657299
582.485711,-296.082377,-9178.553681,842.705048
582.486038,-740.205942,-8808.450710,612.876398
582.486366,-444.123565,-9104.533087,229.828649
582.486693,-592.164754,-9030.512492,612.876398
582.487021,-444.123565,-8956.491898,459.657299
582.487348,-592.164754,-8882.471304,689.485948
582.487676,0.000000,-9252.574275,536.266849
582.488003,-444.123565,-8882.471304,842.705048
582.488331,-296.082377,-8882.471304,689.485948
582.488658,-740.205942,-8882.471304,766.095498
582.488986,-518.144159,-8956.491898,689.485948
582.489313,-740.205942,-8142.265362,612.876398
582.489641,-444.123565,-8734.430116,612.876398
582.489968,-518.144159,-8660.409521,689.485948
582.490296,-592.164754,-8882.471304,612.876398
582.490623,-592.164754,-8808.450710,536.266849
582.490951,-518.144159,-8808.450710,1072.533697
582.491278,-814.226536,-8438.347739,536.266849
582.491606,-370.102971,-8808.450710,689.485948
582.491933,-296.082377,-9030.512492,383.047749
582.492261,-222.061783,-9252.574275,536.266849
582.492589,-296.082377,-8734.430116,0.000000
582.492916,-148.041188,-9178.553681,612.876398
582.493244,0.000000,-9326.594869,459.657299
582.493571,0.000000,-9178.553681,383.047749
582.493899,0.000000,-9400.615463,536.266849
582.494226,0.000000,-9030.512492,689.485948
582.494554,0.000000,-8882.471304,689.485948
582.494882,0.000000,-9030.512492,536.266849
582.495209,-296.082377,-9030.512492,536.266849
582.495537,-370.102971,-8956.491898,306.438199
582.495865,-148.041188,-8734.430116,459.657299
582.496192,-148.041188,-9178.553681,229.828649
582.496520,-296.082377,-9030.512492,536.266849
582.496848,-222.061783,-9178.553681,383.047749
582.497175,-296.082377,-9326.594869,459.657299
582.497503,0.000000,-9178.553681,536.266849
582.497831,-222.061783,-9474.636058,536.266849
582.498158,0.000000,-9400.615463,842.705048
582.498486,-296.082377,-9622.677246,766.095498
582.498813,0.000000,-9622.677246,612.876398
582.499141,0.000000,-9474.636058,536.266849
582.499469,0.000000,-9474.636058,459.657299
582.499796,-296.082377,-9326.594869,766.095498
582.500124,0.000000,-9474.636058,536.266849
582.500452,0.000000,-9252.574275,536.266849
582.500779,0.000000,-9104.533087,459.657299
582.501107,-74.020594,-9326.594869,842.705048
582.501435,74.020594,-9400.615463,459.657299
582.501762,-296.082377,-9104.533087,536.266849
582.502090,-296.082377,-9252.574275,536.266849
582.502418,-444.123565,-9474.636058,842.705048
582.502745,-148.041188,-9326.594869,612.876398
582.503073,0.000000,-9252.574275,842.705048
582.503401,-222.061783,-9178.553681,995.924147
582.503728,-296.082377,-9252.574275,842.705048
582.504056,-296.082377,-9326.594869,689.485948
582.504384,-444.123565,-9326.594869,536.266849
582.504711,-296.082377,-9104.533087,612.876398
582.505039,74.020594,-8882.471304,536.266849
582.505367,0.000000,-9326.594869,306.438199
582.505694,0.000000,-9252.574275,459.657299
582.506022,-370.102971,-9326.594869,229.828649
582.506349,0.000000,-9178.553681,536.266849
582.506677,0.000000,-8882.471304,459.657299
582.507005,-148.041188,-9326.594869,383.047749
582.507332,0.000000,-9104.533087,383.047749
582.507660,-148.041188,-9252.574275,459.657299
582.507988,-222.061783,-9104.533087,383.047749
582.508315,-444.123565,-8586.388927,995.924147
582.508643,-370.102971,-8808.450710,536.266849
582.508971,-296.082377,-8882.471304,536.266849
582.509298,-222.061783,-8808.450710,383.047749
582.509626,-148.041188,-8660.409521,383.047749
582.509954,0.000000,-8660.409521,919.314598
582.510281,222.061783,-9030.512492,612.876398
582.510609,-148.041188,-9104.533087,383.047749
582.510937,0.000000,-9178.553681,459.657299
582.511264,0.000000,-9252.574275,536.266849
582.511592,0.000000,-9326.594869,536.266849
582.511920,0.000000,-9030.512492,459.657299
582.512247,-296.082377,-9400.615463,689.485948
582.512575,-296.082377,-9178.553681,459.657299
582.512903,-296.082377,-9104.533087,383.047749
582.513230,-370.102971,-9104.533087,612.876398
582.513558,-740.205942,-8512.368333,612.876398
582.513885,-444.123565,-8882.471304,612.876398
582.514213,-296.082377,-8808.450710,689.485948
582.514541,-296.082377,-8956.491898,536.266849
582.514868,-518.144159,-8734.430116,536.266849
582.515196,-222.061783,-9104.533087,612.876398
582.515524,-444.123565,-8956.491898,459.657299
582.515851,-444.123565,-9178.553681,612.876398
582.516179,-444.123565,-8882.471304,689.485948
582.516507,-444.123565,-8808.450710,459.657299
582.516834,-296.082377,-8734.430116,766.095498
582.517162,-444.123565,-8734.430116,383.047749
582.517490,-444.123565,-8956.491898,612.876398
582.517817,-592.164754,-9104.533087,536.266849
582.518145,-666.185348,-8734.430116,612.876398
582.518473,-666.185348,-8882.471304,612.876398
582.518800,-518.144159,-8808.450710,689.485948
582.519128,-518.144159,-9178.553681,612.876398
582.519456,-518.144159,-9252.574275,612.876398
582.519783,-592.164754,-9178.553681,536.266849
582.520111,-518.144159,-9474.636058,689.485948
582.520439,-592.164754,-8882.471304,306.438199
582.520766,-444.123565,-9178.553681,612.876398
582.521094,-518.144159,-8956.491898,459.657299
582.521422,-444.123565,-9104.533087,689.485948
582.521749,-592.164754,-8956.491898,689.485948
582.522077,-962.267725,-8660.409521,766.095498
582.522404,-518.144159,-8586.388927,536.266849
582.522732,-592.164754,-8808.450710,689.485948
582.523060,-444.123565,-8734.430116,306.438199
582.523387,-148.041188,-8882.471304,383.047749
582.523715,148.041188,-9030.512492,459.657299
582.524043,0.000000,-9178.553681,689.485948
582.524370,-148.041188,-9326.594869,689.485948
582.524698,0.000000,-9178.553681,459.657299
582.525026,0.000000,-9474.636058,459.657299
582.525353,0.000000,-9104.533087,612.876398
582.525681,444.123565,-9030.512492,306.438199
582.526009,0.000000,-9326.594869,459.657299
582.526336,0.000000,-8956.491898,612.876398
582.526664,0.000000,-9030.512492,383.047749
582.526992,0.000000,-9030.512492,459.657299
582.527319,0.000000,-8956.491898,842.705048
582.527647,0.000000,-9104.533087,383.047749
582.527975,-370.102971,-9252.574275,383.047749
582.528302,-148.041188,-9326.594869,612.876398
582.528630,0.000000,-9326.594869,766.095498
582.528958,0.000000,-9252.574275,536.266849
582.529285,-370.102971,-9326.594869,689.485948
582.529613,-370.102971,-9400.615463,612.876398
582.529940,-148.041188,-9178.553681,612.876398
582.530268,-296.082377,-9400.615463,766.095498
582.530596,-296.082377,-8882.471304,1072.533697
582.530923,0.000000,-9400.615463,383.047749
582.531251,-296.082377,-9252.574275,612.876398
582.531579,-592.164754,-9252.574275,459.657299
582.531906,-666.185348,-9178.553681,383.047749
582.532234,0.000000,-9104.533087,1072.533697
582.532562,74.020594,-9326.594869,229.828649
582.532889,0.000000,-9400.615463,306.438199
582.533217,0.000000,-9474.636058,536.266849
582.533545,74.020594,-9474.636058,612.876398
582.533872,0.000000,-9400.615463,612.876398
582.534200,0.000000,-9326.594869,766.095498
582.534528,-148.041188,-9326.594869,383.047749
582.534855,0.000000,-9400.615463,536.266849
582.535183,74.020594,-9030.512492,383.047749
582.535511,-148.041188,-9104.533087,229.828649
582.535838,0.000000,-9030.512492,612.876398
582.536166,0.000000,-9178.553681,229.828649
582.536494,-296.082377,-8956.491898,153.219100
582.536821,0.000000,-8956.491898,306.438199
582.537149,0.000000,-8882.471304,459.657299
582.537476,0.000000,-8956.491898,766.095498
582.537804,-222.061783,-9474.636058,536.266849
582.538132,-296.082377,-9326.594869,536.266849
582.538459,-148.041188,-9252.574275,536.266849
582.538787,-296.082377,-9104.533087,459.657299
582.539115,0.000000,-9326.594869,995.924147
582.539442,-148.041188,-8808.450710,842.705048
582.539770,-518.144159,-8808.450710,612.876398
582.540098,-444.123565,-8956.491898,536.266849
582.540425,-666.185348,-8734.430116,612.876398
582.540753,-814.226536,-8586.388927,919.314598
582.541081,-888.247130,-8660.409521,842.705048
582.541408,-370.102971,-8808.450710,919.314598
582.541736,-444.123565,-8808.450710,766.095498
582.542064,-592.164754,-9030.512492,536.266849
582.542391,-592.164754,-8808.450710,842.705048
582.542719,0.000000,-8660.409521,1455.581446
582.543047,-518.144159,-8808.450710,689.485948
582.543374,-592.164754,-8956.491898,842.705048
582.543702,-518.144159,-9104.533087,995.924147
582.544030,-518.144159,-9030.512492,612.876398
582.544357,-666.185348,-8734.430116,1072.533697
582.544685,-148.041188,-9030.512492,689.485948
582.545013,-518.144159,-9104.533087,536.266849
582.545340,-444.123565,-8956.491898,306.438199
582.545668,-370.102971,-9104.533087,459.657299
582.545995,74.020594,-8808.450710,306.438199
582.546323,222.061783,-9178.553681,459.657299
582.546651,74.020594,-9252.574275,459.657299
582.546978,148.041188,-9326.594869,612.876398
582.547306,74.020594,-9400.615463,383.047749
582.547634,0.000000,-9326.594869,459.657299
582.547961,666.185348,-9474.636058,383.047749
582.548289,-148.041188,-9178.553681,459.657299
582.548617,0.000000,-9400.615463,383.047749
582.548944,-296.082377,-9104.533087,229.828649
582.549272,-296.082377,-9252.574275,229.828649
582.549600,-222.061783,-8808.450710,919.314598
582.549927,-148.041188,-8660.409521,536.266849
582.550255,-148.041188,-8808.450710,459.657299
582.550583,-296.082377,-9030.512492,383.047749
582.550910,-370.102971,-9104.533087,383.047749
582.551238,-592.164754,-9030.512492,1072.533697
582.551566,-222.061783,-9178.553681,919.314598
582.551893,-444.123565,-9474.636058,766.095498
582.552221,-518.144159,-9474.636058,842.705048
582.552549,-592.164754,-9474.636058,766.095498
582.552876,-444.123565,-8956.491898,919.314598
582.553204,-370.102971,-9326.594869,766.095498
582.553531,-592.164754,-8956.491898,612.876398
582.553859,-592.164754,-9104.533087,689.485948
582.554187,-592.164754,-8882.471304,766.095498
582.554514,-666.185348,-9030.512492,766.095498
582.554842,-888.247130,-9030.512492,1378.971896
582.555170,-518.144159,-9030.512492,612.876398
582.555497,-370.102971,-9326.594869,689.485948
582.555825,-296.082377,-9474.636058,536.266849
582.556153,0.000000,-9474.636058,766.095498
582.556480,-296.082377,-8956.491898,689.485948
582.556808,148.041188,-9252.574275,383.047749
582.557136,0.000000,-9104.533087,459.657299
582.557463,0.000000,-9474.636058,306.438199
582.557791,0.000000,-9252.574275,459.657299
582.558119,74.020594,-9252.574275,76.609550
582.558446,0.000000,-8956.491898,229.828649
582.558774,0.000000,-9030.512492,0.000000
582.559102,0.000000,-9104.533087,0.000000
582.559429,148.041188,-9104.533087,153.219100
582.559757,296.082377,-8808.450710,383.047749
582.560085,222.061783,-9178.553681,612.876398
582.560412,0.000000,-9400.615463,306.438199
582.560740,222.061783,-9474.636058,612.876398
582.561067,0.000000,-9474.636058,459.657299
582.561395,0.000000,-9474.636058,306.438199
582.561723,0.000000,-9326.594869,842.705048
582.562050,0.000000,-9400.615463,536.266849
582.562378,-518.144159,-9030.512492,536.266849
582.562706,-444.123565,-8956.491898,612.876398
582.563033,-296.082377,-8956.491898,689.485948
582.563361,-518.144159,-8734.430116,1455.581446
582.563689,-444.123565,-8956.491898,306.438199
582.564016,-518.144159,-8956.491898,766.095498
582.564344,-740.205942,-8956.491898,612.876398
582.564672,-592.164754,-8956.491898,919.314598
582.564999,-740.205942,-8956.491898,766.095498
582.565327,-518.144159,-8956.491898,995.924147
582.565655,-592.164754,-9252.574275,766.095498
582.565982,-592.164754,-9104.533087,689.485948
582.566310,-444.123565,-8956.491898,689.485948
582.566638,-518.144159,-9474.636058,459.657299
582.566965,-740.205942,-9030.512492,1225.752797
582.567293,-370.102971,-8956.491898,612.876398
582.567621,-222.061783,-9030.512492,766.095498
582.567948,-296.082377,-9178.553681,536.266849
582.568276,-370.102971,-9030.512492,689.485948
582.568604,74.020594,-8808.450710,766.095498
582.568931,-296.082377,-9252.574275,689.485948
582.569259,-296.082377,-9326.594869,612.876398
582.569586,-222.061783,-9400.615463,459.657299
582.569914,0.000000,-9400.615463,536.266849
582.570242,222.061783,-8956.491898,612.876398
582.570569,0.000000,-9030.512492,306.438199
582.570897,0.000000,-9252.574275,306.438199
582.571225,-222.061783,-9030.512492,306.438199
582.571552,-296.082377,-9104.533087,229.828649
582.571880,-444.123565,-8512.368333,612.876398
582.572208,-148.041188,-8882.471304,76.609550
582.572535,-370.102971,-8956.491898,153.219100
582.572863,-148.041188,-9030.512492,229.828649
582.573191,-148.041188,-8808.450710,383.047749
582.573518,-370.102971,-8882.471304,536.266849
582.573846,-148.041188,-8808.450710,0.000000
582.574174,-592.164754,-8882.471304,306.438199
582.574501,-296.082377,-8808.450710,229.828649
582.574829,-296.082377,-9104.533087,612.876398
582.575157,-296.082377,-9030.512492,766.095498
582.575484,-296.082377,-8734.430116,766.095498
582.575812,-518.144159,-8808.450710,842.705048
582.576140,-444.123565,-8808.450710,536.266849
582.576467,-592.164754,-8512.368333,459.657299
582.576795,-518.144159,-8734.430116,383.047749
582.577122,-888.247130,-8734.430116,995.924147
582.577450,-592.164754,-9030.512492,766.095498
582.577778,-518.144159,-8956.491898,689.485948
582.578105,-518.144159,-8808.450710,842.705048
582.578433,-666.185348,-9252.574275,612.876398
582.578761,-518.144159,-9178.553681,766.095498
582.579088,-666.185348,-9104.533087,459.657299
582.579416,-296.082377,-8956.491898,766.095498
582.579744,-222.061783,-8882.471304,612.876398
582.580071,-444.123565,-8808.450710,459.657299
582.580399,-888.247130,-9104.533087,689.485948
582.580727,-518.144159,-8808.450710,306.438199
582.581054,-222.061783,-8808.450710,536.266849
582.581382,-518.144159,-8956.491898,383.047749
582.581710,-222.061783,-8956.491898,536.266849
582.582037,0.000000,-9104.533087,383.047749
582.582365,74.020594,-8956.491898,459.657299
582.582693,0.000000,-9252.574275,383.047749
582.583020,0.000000,-9474.636058,536.266849
582.583348,0.000000,-9474.636058,459.657299
582.583676,0.000000,-9474.636058,612.876398
582.584003,0.000000,-9326.594869,306.438199
582.584331,0.000000,-9474.636058,612.876398
582.584658,-148.041188,-9474.636058,536.266849
582.584986,-148.041188,-9400.615463,383.047749
582.585314,-222.061783,-9474.636058,536.266849
582.585641,-222.061783,-9104.533087,306.438199
582.585969,-296.082377,-9030.512492,383.047749
582.586297,0.000000,-9104.533087,229.828649
582.586624,-296.082377,-9252.574275,766.095498
582.586952,-370.102971,-9252.574275,383.047749
582.587280,-518.144159,-9474.636058,1072.533697
582.587607,-666.185348,-9326.594869,383.047749
582.587935,-370.102971,-9474.636058,842.705048
582.588263,-370.102971,-9474.636058,766.095498
582.588590,-148.041188,-9474.636058,919.314598
582.588918,-296.082377,-9400.615463,766.095498
582.589246,0.000000,-8956.491898,1149.143247
582.589573,-518.144159,-8956.491898,536.266849
582.589901,-296.082377,-9104.533087,536.266849
582.590229,-444.123565,-9104.533087,536.266849
582.590556,-518.144159,-9104.533087,612.876398
582.590884,0.000000,-9326.594869,995.924147
582.591212,74.020594,-8882.471304,536.266849
582.591539,-222.061783,-9326.594869,536.266849
582.591867,-296.082377,-9326.594869,612.876398
582.592194,0.000000,-9326.594869,536.266849
582.592522,-222.061783,-8882.471304,612.876398
582.592850,-74.020594,-8660.409521,612.876398
582.593177,0.000000,-9104.533087,842.705048
582.593505,0.000000,-9030.512492,612.876398
582.593833,0.000000,-8956.491898,689.485948
582.594160,-296.082377,-8808.450710,459.657299
582.594488,0.000000,-8956.491898,383.047749
582.594816,-370.102971,-8660.409521,229.828649
582.595143,-296.082377,-8734.430116,229.828649
582.595471,-222.061783,-8734.430116,383.047749
582.595799,-222.061783,-8734.430116,306.438199
582.596126,-444.123565,-8438.347739,306.438199
582.596454,-222.061783,-9030.512492,153.219100
582.596782,0.000000,-9030.512492,612.876398
582.597109,0.000000,-8956.491898,229.828649
582.597437,-148.041188,-8808.450710,153.219100
582.597765,-296.082377,-8734.430116,689.485948
582.598093,-296.082377,-8586.388927,536.266849
582.598420,-370.102971,-8956.491898,459.657299
582.598748,-518.144159,-8734.430116,612.876398
582.599076,-370.102971,-8808.450710,766.095498
582.599403,-370.102971,-8512.368333,689.485948
582.599731,-666.185348,-8808.450710,612.876398
582.600059,-814.226536,-8882.471304,612.876398
582.600386,-444.123565,-9252.574275,612.876398
582.600714,-296.082377,-9030.512492,919.314598
582.601042,-444.123565,-9252.574275,919.314598
582.601369,-518.144159,-8956.491898,459.657299
582.601697,-370.102971,-9252.574275,612.876398
582.602025,-666.185348,-9252.574275,612.876398
582.602352,-518.144159,-9252.574275,919.314598
582.602680,-666.185348,-8956.491898,689.485948
582.603008,-370.102971,-9030.512492,383.047749
582.603336,-518.144159,-9030.512492,383.047749
582.603663,-444.123565,-8882.471304,689.485948
582.603991,-518.144159,-9104.533087,689.485948
582.604319,-370.102971,-9104.533087,536.266849
582.604646,-370.102971,-9326.594869,612.876398
582.604974,-222.061783,-9474.636058,383.047749
582.605302,-296.082377,-9326.594869,306.438199
582.605629,-296.082377,-9178.553681,612.876398
582.605957,0.000000,-9400.615463,536.266849
582.606285,296.082377,-9178.553681,306.438199
582.606612,222.061783,-9548.656652,76.609550
582.606940,74.020594,-9474.636058,76.609550
582.607268,0.000000,-9104.533087,153.219100
582.607595,-222.061783,-9178.553681,306.438199
582.607923,-222.061783,-9252.574275,229.828649
582.608251,222.061783,-9326.594869,229.828649
582.608579,-296.082377,-8882.471304,383.047749
582.608906,-148.041188,-9252.574275,383.047749
582.609234,-148.041188,-9104.533087,229.828649
582.609562,-222.061783,-9178.553681,306.438199
582.609889,0.000000,-9178.553681,766.095498
582.610217,-222.061783,-8882.471304,612.876398
582.610545,0.000000,-9326.594869,459.657299
582.610872,0.000000,-9104.533087,459.657299
582.611200,-148.041188,-9030.512492,459.657299
582.611528,-370.102971,-8734.430116,536.266849
582.611855,-222.061783,-8586.388927,306.438199
582.612183,-296.082377,-9030.512492,536.266849
582.612511,-370.102971,-8882.471304,536.266849
582.612838,-148.041188,-8882.471304,766.095498
582.613166,0.000000,-8956.491898,766.095498
582.613494,-222.061783,-9178.553681,1302.362347
582.613822,-444.123565,-9104.533087,842.705048
582.614149,-444.123565,-9104.533087,1072.533697
582.614477,-296.082377,-9178.553681,1072.533697
582.614805,-222.061783,-9178.553681,842.705048
582.615132,74.020594,-9178.553681,1149.143247
582.615460,-296.082377,-9104.533087,919.314598
582.615788,-296.082377,-9030.512492,766.095498
582.616115,-296.082377,-9104.533087,689.485948
582.616443,-370.102971,-9030.512492,689.485948
582.616771,-222.061783,-9030.512492,842.705048
582.617098,0.000000,-8956.491898,612.876398
582.617426,-296.082377,-9178.553681,536.266849
582.617754,-296.082377,-9252.574275,459.657299
582.618081,-370.102971,-9400.615463,612.876398
582.618409,0.000000,-9030.512492,459.657299
582.618737,0.000000,-9252.574275,229.828649
582.619065,0.000000,-9326.594869,536.266849
582.619392,0.000000,-9400.615463,383.047749
582.619720,0.000000,-9326.594869,459.657299
582.620048,0.000000,-8956.491898,306.438199
582.620375,0.000000,-8956.491898,842.705048
582.620703,-444.123565,-9178.553681,383.047749
582.621031,-518.144159,-9400.615463,383.047749
582.621358,0.000000,-9326.594869,536.266849
582.621686,-148.041188,-9178.553681,76.609550
582.622014,0.000000,-8882.471304,842.705048
582.622341,0.000000,-9252.574275,536.266849
582.622669,-148.041188,-9400.615463,306.438199
582.622997,-296.082377,-9326.594869,766.095498
582.623324,0.000000,-9400.615463,536.266849
582.623652,0.000000,-9104.533087,689.485948
582.623980,0.000000,-9326.594869,766.095498
582.624308,-148.041188,-9400.615463,612.876398
582.624635,-518.144159,-9326.594869,766.095498
582.624963,-666.185348,-8956.491898,612.876398
582.625291,-370.102971,-8882.471304,1608.800546
582.625618,-296.082377,-8438.347739,536.266849
582.625946,-666.185348,-9178.553681,536.266849
582.626274,-740.205942,-8882.471304,459.657299
582.626601,-444.123565,-8882.471304,689.485948
582.626929,-444.123565,-8734.430116,536.266849
582.627257,-518.144159,-8364.327145,612.876398
582.627584,-592.164754,-8956.491898,612.876398
582.627912,-370.102971,-9104.533087,689.485948
582.628240,-444.123565,-8956.491898,459.657299
582.628567,-370.102971,-8734.430116,689.485948
582.628895,-296.082377,-8364.327145,612.876398
582.629223,0.000000,-9030.512492,459.657299
582.629551,-222.061783,-8808.450710,383.047749
582.629878,-296.082377,-8808.450710,459.657299
582.630206,-444.123565,-8660.409521,383.047749
582.630534,74.020594,-9104.533087,459.657299
582.630861,0.000000,-8734.430116,76.609550
582.631189,74.020594,-9030.512492,229.828649
582.631517,0.000000,-9104.533087,306.438199
582.631844,74.020594,-9400.615463,229.828649
582.632172,296.082377,-9104.533087,766.095498
582.632500,222.061783,-9400.615463,383.047749
582.632827,0.000000,-9326.594869,229.828649
582.633155,0.000000,-9178.553681,612.876398
582.633483,0.000000,-9252.574275,459.657299
582.633810,0.000000,-9326.594869,153.219100
582.634138,0.000000,-8956.491898,229.828649
582.634466,-296.082377,-9178.553681,383.047749
582.634793,-296.082377,-9030.512492,306.438199
582.635121,-296.082377,-9030.512492,383.047749
582.635449,-296.082377,-9104.533087,76.609550
582.635777,-666.185348,-8660.409521,689.485948
582.636104,-296.082377,-9474.636058,842.705048
582.636432,-444.123565,-9252.574275,459.657299
582.636760,0.000000,-9548.656652,842.705048
582.637087,-296.082377,-9474.636058,536.266849
582.637415,-370.102971,-9252.574275,1455.581446
582.637743,-148.041188,-9474.636058,612.876398
582.638070,-296.082377,-9104.533087,995.924147
582.638398,-444.123565,-9252.574275,842.705048
582.638726,-444.123565,-9252.574275,766.095498
582.639053,-444.123565,-9326.594869,1302.362347
582.639381,-370.102971,-9400.615463,842.705048
582.639709,-666.185348,-9178.553681,766.095498
582.640036,-518.144159,-9104.533087,842.705048
582.640364,-296.082377,-9474.636058,689.485948
582.640692,-296.082377,-9474.636058,842.705048
582.641020,-518.144159,-8734.430116,995.924147
582.641347,-666.185348,-9400.615463,842.705048
582.641675,-592.164754,-9548.656652,919.314598
582.642003,-222.061783,-9474.636058,612.876398
582.642330,-296.082377,-9474.636058,766.095498
582.642658,0.000000,-9104.533087,689.485948
582.642986,-370.102971,-9178.553681,306.438199
582.643313,-370.102971,-8956.491898,459.657299
582.643641,-518.144159,-8956.491898,459.657299
582.643969,-222.061783,-8808.450710,229.828649
582.644296,74.020594,-8734.430116,612.876398
582.644624,-148.041188,-8882.471304,0.000000
582.644952,0.000000,-9326.594869,459.657299
582.645279,0.000000,-9178.553681,306.438199
582.645607,148.041188,-9178.553681,689.485948
582.645935,518.144159,-9178.553681,612.876398
582.646263,222.061783,-9400.615463,306.438199
582.646590,-148.041188,-8956.491898,383.047749
582.646918,0.000000,-9326.594869,766.095498
582.647246,-222.061783,-9104.533087,459.657299
582.647573,-222.061783,-9326.594869,689.485948
582.647901,0.000000,-9178.553681,536.266849
582.648229,-222.061783,-8808.450710,306.438199
582.648556,-222.061783,-8808.450710,229.828649
582.648884,-444.123565,-8734.430116,536.266849
582.649212,-444.123565,-8734.430116,229.828649
582.649539,0.000000,-8956.491898,306.438199
582.649867,-444.123565,-8438.347739,842.705048
582.650195,-296.082377,-9178.553681,459.657299
582.650522,-592.164754,-9104.533087,612.876398
582.650850,-518.144159,-9030.512492,689.485948
582.651178,-370.102971,-9104.533087,1072.533697
582.651506,222.061783,-8808.450710,536.266849
582.651833,-444.123565,-9030.512492,536.266849
582.652161,-370.102971,-8808.450710,306.438199
582.652489,-444.123565,-8512.368333,383.047749
582.652816,-222.061783,-8512.368333,459.657299
582.653144,-444.123565,-8734.430116,689.485948
582.653472,-296.082377,-8882.471304,229.828649
582.653799,-222.061783,-8956.491898,383.047749
582.654127,0.000000,-9178.553681,536.266849
582.654455,0.000000,-9474.636058,459.657299
582.654782,-74.020594,-9326.594869,919.314598
582.655110,0.000000,-9326.594869,536.266849
582.655438,0.000000,-9326.594869,536.266849
582.655765,0.000000,-9400.615463,383.047749
582.656093,-148.041188,-9548.656652,383.047749
582.656421,0.000000,-9252.574275,229.828649
582.656749,-296.082377,-9252.574275,766.095498
582.657076,-296.082377,-9104.533087,536.266849
582.657404,-296.082377,-8956.491898,383.047749
582.657732,-518.144159,-8882.471304,459.657299
582.658059,-296.082377,-8956.491898,766.095498
582.658387,-222.061783,-8882.471304,229.828649
582.658715,-444.123565,-9104.533087,383.047749
582.659042,-518.144159,-9474.636058,536.266849
582.659370,-148.041188,-9622.677246,612.876398
582.659698,-222.061783,-9474.636058,1072.533697
582.660025,-148.041188,-9474.636058,766.095498
582.660353,0.000000,-9474.636058,1072.533697
582.660681,-222.061783,-9474.636058,842.705048
582.661008,-222.061783,-9252.574275,459.657299
582.661336,-444.123565,-9104.533087,383.047749
582.661664,-740.205942,-8586.388927,459.657299
582.661992,-296.082377,-9030.512492,766.095498
582.662319,-444.123565,-8734.430116,612.876398
582.662647,-518.144159,-8956.491898,766.095498
582.662975,-666.185348,-8956.491898,689.485948
582.663302,-814.226536,-9104.533087,995.924147
582.663630,370.102971,-9400.615463,536.266849
582.663958,-296.082377,-9104.533087,536.266849
582.664285,-222.061783,-9252.574275,766.095498
582.664613,-296.082377,-9474.636058,919.314598
582.664941,0.000000,-9548.656652,689.485948
582.665268,-222.061783,-8956.491898,919.314598
582.665596,-296.082377,-9104.533087,459.657299
582.665924,-370.102971,-9104.533087,459.657299
582.666251,-296.082377,-9104.533087,459.657299
582.666579,-296.082377,-9030.512492,459.657299
582.666907,0.000000,-8660.409521,689.485948
582.667235,-296.082377,-8882.471304,612.876398
582.667562,-222.061783,-9030.512492,153.219100
582.667890,-370.102971,-8956.491898,459.657299
582.668218,0.000000,-9104.533087,536.266849
582.668545,-222.061783,-8882.471304,842.705048
582.668873,0.000000,-9400.615463,459.657299
582.669201,-148.041188,-9252.574275,612.876398
582.669528,0.000000,-9178.553681,383.047749
582.669856,0.000000,-9030.512492,459.657299
582.670184,-148.041188,-8808.450710,842.705048
582.670511,-444.123565,-8808.450710,153.219100
582.670839,-592.164754,-9178.553681,459.657299
582.671167,-666.185348,-8882.471304,459.657299
582.671494,-592.164754,-9104.533087,459.657299
582.671822,-296.082377,-9030.512492,612.876398
582.672150,0.000000,-9474.636058,536.266849
582.672477,-370.102971,-9178.553681,536.266849
582.672805,0.000000,-9104.533087,536.266849
582.673133,-222.061783,-9252.574275,536.266849
582.673461,-148.041188,-9474.636058,459.657299
582.673788,148.041188,-9400.615463,689.485948
582.674116,-518.144159,-9474.636058,689.485948
582.674444,-222.061783,-9326.594869,612.876398
582.674771,-444.123565,-9104.533087,689.485948
582.675099,-444.123565,-9252.574275,459.657299
582.675427,-814.226536,-8512.368333,612.876398
582.675754,-296.082377,-8882.471304,766.095498
582.676082,-592.164754,-8660.409521,383.047749
582.676410,-740.205942,-8660.409521,612.876398
582.676737,-592.164754,-8956.491898,766.095498
582.677065,-666.185348,-8956.491898,1149.143247
582.677393,74.020594,-9474.636058,612.876398
582.677720,0.000000,-8956.491898,689.485948
582.678048,0.000000,-8882.471304,536.266849
582.678376,0.000000,-8808.450710,612.876398
582.678704,148.041188,-9030.512492,766.095498
582.679031,-148.041188,-9400.615463,536.266849
582.679359,-518.144159,-9030.512492,536.266849
582.679687,-592.164754,-9178.553681,306.438199
582.680014,-814.226536,-9178.553681,459.657299
582.680342,-444.123565,-9326.594869,766.095498
582.680670,0.000000,-8882.471304,919.314598
582.680997,0.000000,-8734.430116,383.047749
582.681325,-148.041188,-8660.409521,459.657299
582.681653,0.000000,-8734.430116,536.266849
582.681980,0.000000,-8660.409521,306.438199
582.682308,0.000000,-8586.388927,612.876398
582.682636,-296.082377,-9104.533087,689.485948
582.682963,-444.123565,-9252.574275,612.876398
582.683291,-518.144159,-9474.636058,689.485948
582.683619,-296.082377,-9400.615463,536.266849
582.683947,-222.061783,-8956.491898,1072.533697
582.684274,0.000000,-8586.388927,76.609550
582.684602,0.000000,-8734.430116,153.219100
582.684930,0.000000,-8660.409521,229.828649
582.685257,-148.041188,-8808.450710,383.047749
582.685585,74.020594,-8956.491898,229.828649
582.685913,-296.082377,-9104.533087,536.266849
582.686240,-296.082377,-9474.636058,689.485948
582.686568,-148.041188,-9474.636058,766.095498
582.686896,0.000000,-9474.636058,612.876398
582.687223,370.102971,-9326.594869,689.485948
582.687551,962.267725,-9474.636058,766.095498
582.687879,222.061783,-9252.574275,995.924147
582.688206,0.000000,-9474.636058,842.705048
582.688534,-370.102971,-9474.636058,612.876398
582.688862,-444.123565,-9474.636058,766.095498
582.689190,-222.061783,-9252.574275,766.095498
582.689517,-444.123565,-9474.636058,842.705048
582.689845,-296.082377,-9178.553681,459.657299
582.690173,-370.102971,-9030.512492,306.438199
582.690500,-444.123565,-8808.450710,536.266849
582.690828,-296.082377,-8364.327145,612.876398
582.691156,-222.061783,-8956.491898,536.266849
582.691483,-222.061783,-8956.491898,689.485948
582.691811,-296.082377,-9178.553681,689.485948
582.692139,-444.123565,-9474.636058,842.705048
582.692466,-222.061783,-9474.636058,766.095498
582.692794,-444.123565,-9252.574275,689.485948
582.693122,-518.144159,-9400.615463,459.657299
582.693449,-296.082377,-9252.574275,459.657299
582.693777,-148.041188,-9030.512492,383.047749
582.694104,-296.082377,-9104.533087,306.438199
582.694432,-148.041188,-8808.450710,612.876398
582.694760,0.000000,-9252.574275,612.876398
582.695087,-222.061783,-9326.594869,766.095498
582.695415,-296.082377,-9326.594869,383.047749
582.695743,-370.102971,-9252.574275,306.438199
582.696070,-222.061783,-9178.553681,842.705048
582.696398,-222.061783,-8956.491898,76.609550
582.696726,0.000000,-9030.512492,459.657299
582.697053,0.000000,-9030.512492,383.047749
582.697381,0.000000,-9252.574275,612.876398
582.697709,222.061783,-9178.553681,459.657299
582.698036,-370.102971,-9104.533087,766.095498
582.698364,-296.082377,-9326.594869,766.095498
582.698691,-148.041188,-9252.574275,459.657299
582.699019,0.000000,-9178.553681,229.828649
582.699347,74.020594,-8882.471304,459.657299
582.699674,296.082377,-8956.491898,842.705048
582.700002,0.000000,-8808.450710,459.657299
582.700330,-296.082377,-9030.512492,536.266849
582.700657,-148.041188,-9104.533087,612.876398
582.700985,-296.082377,-8956.491898,689.485948
582.701313,-74.020594,-8586.388927,536.266849
582.701640,0.000000,-8882.471304,689.485948
582.701968,-222.061783,-8808.450710,459.657299
582.702296,-222.061783,-8882.471304,689.485948
582.702623,-518.144159,-8882.471304,459.657299
582.702951,-296.082377,-8882.471304,612.876398
582.703279,-444.123565,-8882.471304,306.438199
582.703606,-518.144159,-9104.533087,689.485948
582.703934,-296.082377,-9178.553681,842.705048
582.704261,-222.061783,-8956.491898,766.095498
582.704589,0.000000,-9030.512492,689.485948
582.704917,0.000000,-9030.512492,766.095498
582.705244,-148.041188,-9030.512492,536.266849
582.705572,0.000000,-9178.553681,612.876398
582.705900,-222.061783,-9030.512492,306.438199
582.706227,0.000000,-9178.553681,766.095498
582.706555,148.041188,-9474.636058,842.705048
582.706883,0.000000,-9474.636058,689.485948
582.707210,-296.082377,-9326.594869,536.266849
582.707538,-518.144159,-9252.574275,612.876398
582.707866,-518.144159,-9178.553681,383.047749
582.708193,-444.123565,-8882.471304,689.485948
582.708521,-296.082377,-9178.553681,612.876398
582.708849,-444.123565,-9178.553681,689.485948
582.709176,-370.102971,-9030.512492,536.266849
582.709504,-592.164754,-9252.574275,459.657299
582.709832,0.000000,-9178.553681,612.876398
582.710159,-222.061783,-9178.553681,229.828649
582.710487,-222.061783,-9326.594869,383.047749
582.710814,-222.061783,-9178.553681,612.876398
582.711142,-296.082377,-9400.615463,612.876398
582.711470,-222.061783,-9474.636058,536.266849
582.711797,0.000000,-9252.574275,459.657299
582.712125,-296.082377,-9252.574275,766.095498
582.712453,0.000000,-9326.594869,536.266849
582.712780,-148.041188,-9326.594869,612.876398
582.713108,-148.041188,-9104.533087,612.876398
582.713436,296.082377,-9252.574275,459.657299
582.713763,-148.041188,-8586.388927,536.266849
582.714091,-740.205942,-8882.471304,689.485948
582.714419,-666.185348,-9030.512492,689.485948
582.714746,-444.123565,-9178.553681,459.657299
582.715074,-444.123565,-9030.512492,689.485948
582.715402,-148.041188,-8808.450710,689.485948
582.715729,0.000000,-9030.512492,383.047749
582.716057,0.000000,-8956.491898,536.266849
582.716384,-222.061783,-9104.533087,459.657299
582.716712,-296.082377,-8586.388927,306.438199
582.717040,-222.061783,-8882.471304,612.876398
582.717367,-370.102971,-9400.615463,383.047749
582.717695,-592.164754,-9400.615463,459.657299
582.718023,-222.061783,-9252.574275,459.657299
582.718350,-222.061783,-9030.512492,383.047749
582.718678,74.020594,-8956.491898,153.219100
582.719006,-222.061783,-8808.450710,383.047749
582.719333,-148.041188,-8956.491898,383.047749
582.719661,-222.061783,-8956.491898,612.876398
582.719989,-518.144159,-9252.574275,459.657299
582.720316,-222.061783,-8956.491898,1302.362347
582.720644,0.000000,-9252.574275,689.485948
582.720972,148.041188,-9178.553681,612.876398
582.721299,74.020594,-9178.553681,536.266849
582.721627,0.000000,-8882.471304,383.047749
582.721954,0.000000,-8808.450710,766.095498
582.722282,-296.082377,-8512.368333,306.438199
582.722610,-148.041188,-8882.471304,842.705048
582.722937,-222.061783,-9252.574275,689.485948
582.723265,-148.041188,-9548.656652,919.314598
582.723593,0.000000,-9622.677246,919.314598
582.723920,-444.123565,-9252.574275,612.876398
582.724248,-222.061783,-9178.553681,689.485948
582.724576,-148.041188,-9030.512492,766.095498
582.724903,0.000000,-9178.553681,459.657299
582.725231,-222.061783,-9178.553681,689.485948
582.725559,0.000000,-9104.533087,536.266849
582.725886,-518.144159,-9252.574275,995.924147
582.726214,-592.164754,-9474.636058,995.924147
582.726542,-444.123565,-9622.677246,766.095498
582.726869,-370.102971,-9474.636058,766.095498
582.727197,-444.123565,-8660.409521,459.657299
582.727524,-370.102971,-9030.512492,153.219100
582.727852,-148.041188,-8956.491898,306.438199
582.728180,-222.061783,-8734.430116,153.219100
582.728507,-296.082377,-8734.430116,459.657299
582.728835,0.000000,-9326.594869,536.266849
582.729163,-296.082377,-9030.512492,229.828649
582.729490,-592.164754,-9622.677246,612.876398
582.729818,-444.123565,-9326.594869,612.876398
582.730146,-148.041188,-9030.512492,536.266849
582.730473,592.164754,-8660.409521,1225.752797
582.730801,1184.329507,-8882.471304,1532.190996
582.731129,1258.350101,-8734.430116,1762.019645
582.731456,740.205942,-9104.533087,1455.581446
582.731784,518.144159,-9400.615463,1762.019645
582.732112,74.020594,-9326.594869,1915.238745
582.732439,0.000000,-9178.553681,2221.676944
582.732767,148.041188,-9178.553681,1838.629195
582.733095,0.000000,-9104.533087,2068.457845
582.733422,0.000000,-8808.450710,2145.067394
582.733750,0.000000,-8660.409521,2145.067394
582.734077,0.000000,-8512.368333,1915.238745
582.734405,-148.041188,-8290.306550,2298.286494
582.734733,-296.082377,-8586.388927,2145.067394
582.735060,-592.164754,-8882.471304,2451.505594
582.735388,-814.226536,-8734.430116,2451.505594
582.735716,-592.164754,-8808.450710,2604.724693
582.736043,-740.205942,-8512.368333,2528.115143
582.736371,-814.226536,-8882.471304,2834.553343
582.736699,-814.226536,-8808.450710,2757.943793
582.737026,-888.247130,-8734.430116,2911.162892
582.737354,-888.247130,-8586.388927,3447.429741
582.737682,-888.247130,-8586.388927,2757.943793
582.738009,-666.185348,-8956.491898,3447.429741
582.738337,-518.144159,-9104.533087,3217.601092
582.738665,-518.144159,-8956.491898,2987.772442
582.738992,-518.144159,-8808.450710,2987.772442
582.739320,-296.082377,-8290.306550,2757.943793
582.739647,-222.061783,-8734.430116,3217.601092
582.739975,-148.041188,-9030.512492,2911.162892
582.740303,0.000000,-9178.553681,3294.210641
582.740630,0.000000,-9252.574275,3600.648841
582.740958,74.020594,-9474.636058,3217.601092
582.741286,0.000000,-9104.533087,3753.867940
582.741613,74.020594,-9400.615463,3600.648841
582.741941,518.144159,-9252.574275,3753.867940
582.742269,888.247130,-9178.553681,4136.915689
582.742596,1184.329507,-9252.574275,4136.915689
582.742924,1184.329507,-8882.471304,4519.963438
582.743252,1258.350101,-9326.594869,4903.011187
582.743579,962.267725,-9474.636058,4979.620737
582.743907,666.185348,-9622.677246,5056.230287
582.744235,-222.061783,-9844.739029,5056.230287
582.744562,0.000000,-9770.718434,4903.011187
582.744890,-444.123565,-9696.697840,4519.963438
582.745217,-740.205942,-9770.718434,4290.134789
582.745545,-962.267725,-9474.636058,4213.525239
582.745873,-1258.350101,-9400.615463,3907.087040
582.746200,-1924.535449,-9326.594869,3983.696590
582.746528,-1998.556043,-9104.533087,3294.210641
582.746856,-2516.700203,-8882.471304,3064.381992
582.747183,-1924.535449,-8512.368333,3140.991542
582.747511,-1036.288319,-8216.285956,3447.429741
582.747839,74.020594,-7920.203579,3907.087040
582.748166,1036.288319,-7846.182985,4903.011187
582.748494,2072.576638,-8068.244768,5975.544884
582.748822,2072.576638,-8586.388927,6358.592633
582.749149,1850.514855,-9400.615463,6818.249932
582.749477,518.144159,-10140.821405,6818.249932
582.749805,-1110.308913,-10732.986159,5975.544884
582.750132,-2072.576638,-11251.130318,5209.449386
582.750460,-2590.720797,-10732.986159,4596.572988
582.750787,-2368.659014,-10214.842000,4136.915689
582.751115,-814.226536,-8956.491898,4519.963438
582.751443,1036.288319,-7994.224174,3983.696590
582.751770,2220.617826,-7402.059420,4290.134789
582.752098,2294.638420,-7402.059420,4519.963438
582.752426,1332.370696,-8216.285956,3830.477490
582.752753,-2146.597232,-9770.718434,2681.334243
582.753081,-7254.018232,-11769.274478,76.609550
582.753409,-11547.212695,-12731.542202,-2221.676944
582.753736,-13027.624579,-12361.439231,-3830.477490
582.754064,-9918.759623,-9030.512492,-4060.306139
582.754392,-4959.379811,-6883.915261,-3140.991542
582.754719,3997.112087,-3923.091493,153.219100
582.755047,7402.059420,-2886.803174,842.705048
582.755375,12583.501014,-3034.844362,3677.258390
582.755702,11029.068536,-4145.153275,3830.477490
582.756030,9918.759623,-6661.853478,5132.839837
582.756358,6365.771101,-10955.047942,4290.134789
582.756685,1332.370696,-14211.954086,4979.620737
582.757013,0.000000,-15470.304188,4903.011187
582.757340,222.061783,-14211.954086,6128.763984
582.757668,4293.194464,-11917.315666,6894.859482
582.757996,8216.285956,-9696.697840,7737.564530
582.758323,10732.986159,-8438.347739,9193.145976
582.758651,11103.089130,-8068.244768,8120.612279
582.758979,5921.647536,-9252.574275,6128.763984
582.759306,-888.247130,-9696.697840,4519.963438
582.759634,-6143.709319,-10658.965565,2604.724693
582.759962,-7994.224174,-9770.718434,2451.505594
582.760289,-6809.894666,-8956.491898,3677.258390
582.760617,-3849.070898,-6661.853478,6128.763984
582.760945,-4145.153275,-6143.709319,7967.393179
582.761272,-3552.988522,-6883.915261,8810.098227
582.761600,-6957.935855,-7476.080014,6741.640382
582.761928,-7994.224174,-7920.203579,5515.887586
582.762255,-9474.636058,-7994.224174,4903.011187
582.762583,-9474.636058,-7994.224174,4596.572988
582.762910,-8438.347739,-7846.182985,4903.011187
582.763238,-4737.318029,-7179.997637,6665.030833
582.763566,-296.082377,-5107.421000,8580.269578
582.763893,3627.009116,-3627.009116,9806.022374
582.764221,6883.915261,-4885.359217,10801.946522
582.764549,4071.132681,-7624.121203,9039.926876
582.764876,-2294.638420,-13027.624579,6435.202183
582.765204,-9104.533087,-17246.798449,3217.601092
582.765532,-12805.562797,-17838.963202,0.000000
582.765859,-11547.212695,-15618.345376,-2221.676944
582.766187,-4959.379811,-14137.933492,-1378.971896
582.766515,1184.329507,-11177.109724,0.000000
