#time,accel_x,accel_y,accel_z
419.452857,0.000000,-9400.615463,766.095498
419.453185,-296.082377,-9326.594869,536.266849
419.453513,-296.082377,-9030.512492,612.876398
419.453841,-148.041188,-9030.512492,536.266849
419.454168,-370.102971,-9252.574275,536.266849
419.454496,-296.082377,-9104.533087,766.095498
419.454824,-444.123565,-8290.306550,536.266849
419.455152,-222.061783,-9030.512492,383.047749
419.455480,-148.041188,-9326.594869,536.266849
419.455808,-444.123565,-9104.533087,536.266849
419.456135,-222.061783,-9178.553681,306.438199
419.456463,-296.082377,-8956.491898,1225.752797
419.456791,-296.082377,-8956.491898,612.876398
419.457119,-370.102971,-9178.553681,383.047749
419.457447,-296.082377,-9104.533087,306.438199
419.457774,-370.102971,-9030.512492,383.047749
419.458102,0.000000,-8956.491898,612.876398
419.458430,-222.061783,-9178.553681,536.266849
419.458758,-222.061783,-9178.553681,536.266849
419.459086,-148.041188,-9104.533087,459.657299
419.459414,-222.061783,-9030.512492,536.266849
419.459741,-222.061783,-8956.491898,766.095498
419.460069,0.000000,-9030.512492,919.314598
419.460397,-148.041188,-9178.553681,612.876398
419.460725,-222.061783,-9030.512492,536.266849
419.461053,-296.082377,-9030.512492,459.657299
419.461380,-296.082377,-9104.533087,842.705048
419.461708,-222.061783,-9104.533087,1149.143247
419.462036,-296.082377,-9104.533087,536.266849
419.462364,-296.082377,-9030.512492,459.657299
419.462692,-592.164754,-9030.512492,459.657299
419.463020,-962.267725,-9326.594869,153.219100
419.463347,-1554.432478,-9474.636058,153.219100
419.463675,-1702.473667,-9474.636058,-383.047749
419.464003,-1258.350101,-9252.574275,-383.047749
419.464331,-518.144159,-8882.471304,0.000000
419.464659,-444.123565,-8882.471304,-383.047749
419.464987,-592.164754,-9104.533087,-306.438199
419.465314,-888.247130,-9030.512492,-919.314598
419.465642,-1036.288319,-9252.574275,-1225.752797
419.465970,-1110.308913,-9030.512492,-1378.971896
419.466298,-962.267725,-9178.553681,-1378.971896
419.466626,-148.041188,-9622.677246,-1072.533697
419.466953,-296.082377,-8956.491898,-1149.143247
419.467281,0.000000,-9030.512492,-1149.143247
419.467609,0.000000,-9178.553681,-1378.971896
419.467937,0.000000,-9400.615463,-1532.190996
419.468265,0.000000,-9252.574275,-1608.800546
419.468593,0.000000,-8956.491898,-1838.629195
419.468920,148.041188,-9326.594869,-1762.019645
419.469248,296.082377,-9252.574275,-1915.238745
419.469576,74.020594,-9252.574275,-2068.457845
419.469904,370.102971,-9326.594869,-1685.410096
419.470232,888.247130,-9844.739029,-1762.019645
419.470560,592.164754,-9474.636058,-1991.848295
419.470887,222.061783,-9400.615463,-1762.019645
419.471215,0.000000,-9252.574275,-2145.067394
419.471543,74.020594,-9252.574275,-1915.238745
419.471871,666.185348,-9474.636058,-1455.581446
419.472199,296.082377,-8882.471304,-1608.800546
419.472526,0.000000,-9178.553681,-1838.629195
419.472854,-518.144159,-9252.574275,-1838.629195
419.473182,-740.205942,-9104.533087,-2145.067394
419.473510,-1184.329507,-8734.430116,-2298.286494
419.473838,-1036.288319,-8734.430116,-1991.848295
419.474166,-1184.329507,-9178.553681,-2451.505594
419.474493,-1628.453072,-9178.553681,-2681.334243
419.474821,-1776.494261,-9030.512492,-2911.162892
419.475149,-1628.453072,-9178.553681,-2987.772442
419.475477,-1850.514855,-8586.388927,-3140.991542
419.475805,-1702.473667,-8882.471304,-3677.258390
419.476132,-1702.473667,-8882.471304,-3600.648841
419.476460,-1554.432478,-8956.491898,-3753.867940
419.476788,-1332.370696,-8808.450710,-3753.867940
419.477116,-1036.288319,-9178.553681,-3907.087040
419.477444,-666.185348,-8660.409521,-3217.601092
419.477772,-222.061783,-8808.450710,-3217.601092
419.478099,666.185348,-9030.512492,-2834.553343
419.478427,1184.329507,-8734.430116,-2528.115143
419.478755,1850.514855,-8956.491898,-2757.943793
419.479083,2368.659014,-8882.471304,-1455.581446
419.479411,1850.514855,-9474.636058,-1762.019645
419.479739,888.247130,-9622.677246,-1991.848295
419.480066,74.020594,-10140.821405,-2374.896044
419.480394,-814.226536,-10362.883188,-2987.772442
419.480722,-2146.597232,-9992.780217,-3294.210641
419.481050,-2220.617826,-10214.842000,-4366.744339
419.481378,-2294.638420,-9770.718434,-4903.011187
419.481705,-1406.391290,-9030.512492,-4903.011187
419.482033,74.020594,-7994.224174,-4213.525239
419.482361,1480.411884,-6957.935855,-3677.258390
419.482689,2738.761985,-6883.915261,-2834.553343
419.483017,3256.906145,-7328.038826,-1991.848295
419.483345,2368.659014,-8142.265362,-1685.410096
419.483672,814.226536,-9104.533087,-1378.971896
419.484000,-1332.370696,-10140.821405,-1072.533697
419.484328,-2738.761985,-11399.171507,-2451.505594
419.484656,-3775.050304,-11325.150913,-1991.848295
419.484984,-3034.844362,-10732.986159,-2221.676944
419.485312,-1036.288319,-9178.553681,-2145.067394
419.485639,1480.411884,-7624.121203,-1072.533697
419.485967,3849.070898,-6809.894666,-919.314598
419.486295,4663.297435,-6883.915261,-536.266849
419.486623,3923.091493,-7179.997637,-306.438199
419.486951,2220.617826,-8290.306550,-689.485948
419.487278,-1258.350101,-10140.821405,-1378.971896
419.487606,-3849.070898,-11325.150913,-2145.067394
419.487934,-5625.565159,-11843.295072,-2068.457845
419.488262,-5181.441594,-10955.047942,-2451.505594
419.488590,-3034.844362,-9622.677246,-1532.190996
419.488918,148.041188,-8808.450710,-459.657299
419.489245,2072.576638,-7698.141797,1532.190996
419.489573,3108.864956,-7179.997637,842.705048
419.489901,1776.494261,-7402.059420,383.047749
419.490229,-1406.391290,-8734.430116,-612.876398
419.490557,-4145.153275,-9696.697840,-1915.238745
419.490884,-5699.585753,-9918.759623,-2604.724693
419.491212,-4737.318029,-8808.450710,-3064.381992
419.491540,-1628.453072,-7772.162391,-1302.362347
419.491868,2368.659014,-6957.935855,459.657299
419.492196,5403.503377,-6143.709319,1225.752797
419.492524,6365.771101,-7105.977043,2068.457845
419.492851,3923.091493,-9326.594869,689.485948
419.493179,-1110.308913,-11103.089130,-229.828649
419.493507,-4367.215058,-12805.562797,-1225.752797
419.493835,-5551.544565,-12139.377449,-1838.629195
419.494163,-2886.803174,-10214.842000,-612.876398
419.494491,2738.761985,-8586.388927,1455.581446
419.494818,6217.729913,-5921.647536,2987.772442
419.495146,7920.203579,-6587.832884,4749.792088
419.495474,5847.626942,-7772.162391,3830.477490
419.495802,148.041188,-8882.471304,1455.581446
419.496130,-2516.700203,-11177.109724,-153.219100
419.496457,-5329.482782,-10881.027347,-1302.362347
419.496785,-4811.338623,-10066.800811,-1225.752797
419.497113,-370.102971,-9400.615463,1225.752797
419.497441,2886.803174,-7402.059420,3294.210641
419.497769,3701.029710,-7031.956449,4979.620737
419.498097,2220.617826,-7179.997637,3983.696590
419.498424,-2886.803174,-8660.409521,995.924147
419.498752,-6143.709319,-10140.821405,-1149.143247
419.499080,-7772.162391,-10510.924376,-2834.553343
419.499408,-7105.977043,-10362.883188,-2528.115143
419.499736,-3256.906145,-8216.285956,-919.314598
419.500063,1036.288319,-7105.977043,919.314598
419.500391,4219.173869,-5995.668130,2834.553343
419.500719,3775.050304,-6661.853478,3140.991542
419.501047,296.082377,-8956.491898,1838.629195
419.501375,-4589.276840,-10140.821405,-1072.533697
419.501703,-7624.121203,-12583.501014,-2604.724693
419.502030,-7402.059420,-12583.501014,-3217.601092
419.502358,-3775.050304,-10362.883188,-2451.505594
419.502686,1998.556043,-9474.636058,0.000000
419.503014,7031.956449,-7254.018232,2911.162892
419.503342,7698.141797,-7031.956449,3447.429741
419.503670,6513.812290,-7994.224174,2451.505594
419.503997,814.226536,-8882.471304,-995.924147
419.504325,-2590.720797,-10955.047942,-2298.286494
419.504653,-4441.235652,-11473.192101,-2681.334243
419.504981,-2368.659014,-11029.068536,-2145.067394
419.505309,3182.885551,-9178.553681,383.047749
419.505636,7772.162391,-8586.388927,3140.991542
419.505964,10066.800811,-8364.327145,5132.839837
419.506292,6957.935855,-8364.327145,3830.477490
419.506620,1702.473667,-10436.903782,1762.019645
419.506948,-4441.235652,-11251.130318,-919.314598
419.507276,-7328.038826,-11991.336260,-2834.553343
419.507603,-6439.791695,-10658.965565,-2757.943793
419.507931,-666.185348,-8882.471304,-306.438199
419.508259,4145.153275,-7994.224174,1685.410096
419.508587,6661.853478,-6365.771101,3677.258390
419.508914,4219.173869,-7179.997637,3677.258390
419.509242,-888.247130,-8438.347739,1072.533697
419.509570,-6735.874072,-9178.553681,-1838.629195
419.509898,-9178.553681,-10362.883188,-2757.943793
419.510225,-7994.224174,-9844.739029,-2451.505594
419.510553,-4293.194464,-8290.306550,-612.876398
419.510881,1554.432478,-7550.100608,2374.896044
419.511209,5255.462188,-6957.935855,4749.792088
419.511536,4441.235652,-7846.182985,4903.011187
419.511864,666.185348,-8290.306550,3064.381992
419.512192,-5107.421000,-9622.677246,-689.485948
419.512519,-7772.162391,-10658.965565,-2374.896044
419.512847,-7920.203579,-10510.924376,-2757.943793
419.513175,-3923.091493,-8586.388927,-1838.629195
419.513503,2886.803174,-6735.874072,1072.533697
419.513830,7402.059420,-7105.977043,3907.087040
419.514158,6661.853478,-7105.977043,4290.134789
419.514486,3552.988522,-7920.203579,2374.896044
419.514814,-1110.308913,-10362.883188,0.000000
419.515141,-5255.462188,-11029.068536,-2604.724693
419.515469,-6365.771101,-10955.047942,-3447.429741
419.515797,-2368.659014,-9992.780217,-1608.800546
419.516124,3034.844362,-7920.203579,995.924147
419.516452,7402.059420,-7105.977043,4213.525239
419.516780,8956.491898,-7772.162391,6052.154434
419.517108,4885.359217,-7698.141797,3600.648841
419.517435,0.000000,-9918.759623,995.924147
419.517763,-5181.441594,-10955.047942,-2451.505594
419.518091,-7105.977043,-10881.027347,-3447.429741
419.518419,-3627.009116,-9844.739029,-2374.896044
419.518746,1480.411884,-8216.285956,76.609550
419.519074,4959.379811,-6661.853478,2451.505594
419.519402,7550.100608,-6883.915261,4290.134789
419.519729,4219.173869,-8216.285956,3370.820191
419.520057,-740.205942,-9400.615463,1072.533697
419.520385,-5995.668130,-10436.903782,-2451.505594
419.520713,-8216.285956,-12139.377449,-3217.601092
419.521040,-6957.935855,-10288.862594,-3140.991542
419.521368,-1480.411884,-8734.430116,-306.438199
419.521696,4145.153275,-7698.141797,2987.772442
419.522024,6365.771101,-6883.915261,5286.058936
419.522351,4071.132681,-7994.224174,4979.620737
419.522679,-666.185348,-8956.491898,1608.800546
419.523007,-5847.626942,-10436.903782,-1149.143247
419.523334,-7994.224174,-11325.150913,-2451.505594
419.523662,-7402.059420,-10510.924376,-3140.991542
419.523990,-3552.988522,-8956.491898,-1838.629195
419.524318,2368.659014,-8290.306550,1685.410096
419.524645,5995.668130,-7105.977043,3600.648841
419.524973,5477.523971,-6883.915261,3753.867940
419.525301,3330.926739,-8290.306550,1915.238745
419.525629,-2516.700203,-10436.903782,-459.657299
419.525956,-7179.997637,-11473.192101,-3140.991542
419.526284,-7179.997637,-11251.130318,-3677.258390
419.526612,-2812.782580,-10140.821405,-1532.190996
419.526939,3108.864956,-8586.388927,1685.410096
419.527267,7254.018232,-7179.997637,4443.353888
419.527595,7550.100608,-7698.141797,5286.058936
419.527923,5255.462188,-8882.471304,3983.696590
419.528250,-444.123565,-10066.800811,995.924147
419.528578,-4885.359217,-11473.192101,-1608.800546
419.528906,-6217.729913,-11325.150913,-2221.676944
419.529234,-3552.988522,-10436.903782,-1991.848295
419.529561,1628.453072,-9104.533087,536.266849
419.529889,5625.565159,-7402.059420,3447.429741
419.530217,7179.997637,-7105.977043,4443.353888
419.530544,5403.503377,-8364.327145,4060.306139
419.530872,-296.082377,-9030.512492,1225.752797
419.531200,-6439.791695,-10214.842000,-1838.629195
419.531528,-7624.121203,-11251.130318,-3064.381992
419.531855,-6439.791695,-10066.800811,-2451.505594
419.532183,-1776.494261,-8068.244768,-306.438199
419.532511,3404.947333,-7772.162391,2528.115143
419.532839,6439.791695,-6957.935855,4749.792088
419.533166,4515.256246,-7846.182985,4443.353888
419.533494,-296.082377,-9104.533087,2298.286494
419.533822,-6513.812290,-9770.718434,-1225.752797
419.534149,-7920.203579,-11399.171507,-3064.381992
419.534477,-7550.100608,-10510.924376,-3217.601092
419.534805,-3552.988522,-8438.347739,-1838.629195
419.535133,1776.494261,-7772.162391,995.924147
419.535460,6217.729913,-7179.997637,3677.258390
419.535788,4959.379811,-5995.668130,3294.210641
419.536116,2516.700203,-7772.162391,2068.457845
419.536444,-2442.679609,-9770.718434,-459.657299
419.536771,-6883.915261,-10881.027347,-3370.820191
419.537099,-7179.997637,-11399.171507,-3677.258390
419.537427,-3256.906145,-9104.533087,-2374.896044
419.537754,2146.597232,-8364.327145,76.609550
419.538082,8142.265362,-7254.018232,3447.429741
419.538410,9400.615463,-7105.977043,4826.401637
419.538738,5477.523971,-8364.327145,3600.648841
419.539065,222.061783,-10214.842000,1225.752797
419.539393,-3775.050304,-11177.109724,-1608.800546
419.539721,-6143.709319,-11325.150913,-2911.162892
419.540049,-4145.153275,-10584.944971,-2374.896044
419.540376,1406.391290,-8734.430116,76.609550
419.540704,5625.565159,-7772.162391,2374.896044
419.541032,8142.265362,-6883.915261,4826.401637
419.541359,6143.709319,-8068.244768,3677.258390
419.541687,518.144159,-9400.615463,1149.143247
419.542015,-5255.462188,-10436.903782,-2145.067394
419.542343,-7624.121203,-11843.295072,-3294.210641
419.542670,-6439.791695,-10362.883188,-2834.553343
419.542998,-2368.659014,-8734.430116,-1302.362347
419.543326,3552.988522,-7550.100608,2374.896044
419.543654,6069.688724,-7179.997637,4903.011187
419.543981,3627.009116,-8068.244768,4366.744339
419.544309,-370.102971,-8438.347739,2145.067394
419.544637,-5033.400406,-9918.759623,-536.266849
419.544964,-7994.224174,-11251.130318,-2757.943793
419.545292,-8364.327145,-11103.089130,-3140.991542
419.545620,-4441.235652,-9844.739029,-1455.581446
419.545948,1332.370696,-7920.203579,1072.533697
419.546275,5699.585753,-6735.874072,3677.258390
419.546603,6365.771101,-6957.935855,4290.134789
419.546931,2664.741391,-8438.347739,2604.724693
419.547259,-1850.514855,-10140.821405,229.828649
419.547586,-6957.935855,-11473.192101,-2681.334243
419.547914,-7105.977043,-11473.192101,-2145.067394
419.548242,-4145.153275,-9474.636058,-2068.457845
419.548569,2220.617826,-8438.347739,1149.143247
419.548897,7179.997637,-7254.018232,4519.963438
419.549225,8068.244768,-7179.997637,5592.497135
419.549553,4737.318029,-8734.430116,4443.353888
419.549880,0.000000,-9918.759623,1072.533697
419.550208,-4959.379811,-11399.171507,-1302.362347
419.550536,-7105.977043,-11843.295072,-2374.896044
419.550864,-5107.421000,-10881.027347,-2298.286494
419.551191,0.000000,-8438.347739,0.000000
419.551519,5699.585753,-7254.018232,3217.601092
419.551847,7994.224174,-6957.935855,4290.134789
419.552174,5625.565159,-7179.997637,3677.258390
419.552502,1036.288319,-9178.553681,1608.800546
419.552830,-5181.441594,-10140.821405,-1532.190996
419.553158,-7402.059420,-10436.903782,-3447.429741
419.553485,-5995.668130,-10584.944971,-2374.896044
419.553813,-2294.638420,-8438.347739,-766.095498
419.554141,3034.844362,-7105.977043,2145.067394
419.554469,6587.832884,-7105.977043,4290.134789
419.554796,4219.173869,-7105.977043,4749.792088
419.555124,1110.308913,-8586.388927,2145.067394
419.555452,-4515.256246,-10288.862594,-766.095498
419.555779,-7846.182985,-11103.089130,-2987.772442
419.556107,-8068.244768,-11029.068536,-3140.991542
419.556435,-3552.988522,-9252.574275,-1991.848295
419.556763,1776.494261,-7402.059420,842.705048
419.557090,5773.606348,-6883.915261,3217.601092
419.557418,6217.729913,-7105.977043,3907.087040
419.557746,3330.926739,-7476.080014,1838.629195
419.558074,-1480.411884,-9696.697840,-995.924147
419.558401,-5773.606348,-10881.027347,-2834.553343
419.558729,-7254.018232,-10955.047942,-3677.258390
419.559057,-4071.132681,-10584.944971,-2145.067394
419.559384,1628.453072,-8512.368333,689.485948
419.559712,6143.709319,-7105.977043,2911.162892
419.560040,8290.306550,-7179.997637,5209.449386
419.560368,5995.668130,-7994.224174,3907.087040
419.560695,370.102971,-9474.636058,1302.362347
419.561023,-4367.215058,-10881.027347,-1838.629195
419.561351,-6217.729913,-11399.171507,-2604.724693
419.561679,-4885.359217,-11029.068536,-2145.067394
419.562006,296.082377,-8956.491898,-689.485948
419.562334,4737.318029,-7476.080014,2145.067394
419.562662,7698.141797,-7402.059420,4443.353888
419.562989,5551.544565,-8216.285956,4136.915689
419.563317,74.020594,-8734.430116,1532.190996
419.563645,-4367.215058,-9992.780217,-1532.190996
419.563973,-7105.977043,-11399.171507,-3370.820191
419.564300,-6661.853478,-10214.842000,-2987.772442
419.564628,-2368.659014,-8882.471304,-1149.143247
419.564956,2960.823768,-7105.977043,1762.019645
419.565284,6143.709319,-7179.997637,4749.792088
419.565611,4663.297435,-8216.285956,4903.011187
419.565939,592.164754,-8660.409521,2604.724693
419.566267,-4737.318029,-10288.862594,-153.219100
419.566594,-7698.141797,-11399.171507,-2451.505594
419.566922,-7846.182985,-10658.965565,-2528.115143
419.567250,-4071.132681,-9474.636058,-1608.800546
419.567578,1776.494261,-7772.162391,1455.581446
419.567905,5625.565159,-6809.894666,3677.258390
419.568233,5995.668130,-7105.977043,4366.744339
419.568561,3108.864956,-7920.203579,2681.334243
419.568889,-1998.556043,-9770.718434,0.000000
419.569216,-6809.894666,-11103.089130,-2987.772442
419.569544,-8068.244768,-11177.109724,-3600.648841
419.569872,-5181.441594,-10362.883188,-2451.505594
419.570199,1110.308913,-8364.327145,459.657299
419.570527,6143.709319,-7179.997637,3140.991542
419.570855,7624.121203,-7254.018232,4749.792088
419.571183,5773.606348,-8586.388927,3753.867940
419.571510,222.061783,-9770.718434,995.924147
419.571838,-5033.400406,-10436.903782,-1532.190996
419.572166,-6661.853478,-11177.109724,-3140.991542
419.572494,-5255.462188,-11103.089130,-2451.505594
419.572821,-296.082377,-8956.491898,-306.438199
419.573149,4589.276840,-7920.203579,2451.505594
419.573477,8068.244768,-6883.915261,4673.182538
419.573804,6365.771101,-7994.224174,4060.306139
419.574132,1850.514855,-9030.512492,1685.410096
419.574460,-4663.297435,-10436.903782,-1762.019645
419.574788,-6587.832884,-11917.315666,-3064.381992
419.575115,-6291.750507,-10584.944971,-2911.162892
419.575443,-2368.659014,-8808.450710,-536.266849
419.575771,3849.070898,-8068.244768,2528.115143
419.576099,7105.977043,-7031.956449,4366.744339
419.576426,5921.647536,-7846.182985,5056.230287
419.576754,1998.556043,-9326.594869,2834.553343
419.577082,-4441.235652,-9844.739029,0.000000
419.577409,-7254.018232,-11769.274478,-1762.019645
419.577737,-7920.203579,-11103.089130,-2681.334243
419.578065,-4737.318029,-9030.512492,-1762.019645
419.578393,1554.432478,-8364.327145,1378.971896
419.578720,5551.544565,-7105.977043,3677.258390
419.579048,5403.503377,-6809.894666,4826.401637
419.579376,2664.741391,-8068.244768,3064.381992
419.579704,-3108.864956,-9400.615463,0.000000
419.580031,-7179.997637,-10807.006753,-2834.553343
419.580359,-8438.347739,-10807.006753,-3600.648841
419.580687,-6069.688724,-9474.636058,-2374.896044
419.581014,666.185348,-7402.059420,0.000000
419.581342,5995.668130,-6957.935855,2911.162892
419.581670,7846.182985,-6365.771101,4673.182538
419.581998,6069.688724,-7846.182985,3830.477490
419.582325,740.205942,-10362.883188,1991.848295
419.582653,-5921.647536,-10436.903782,-1762.019645
419.582981,-7994.224174,-12435.459826,-2451.505594
419.583309,-5847.626942,-11177.109724,-2987.772442
419.583636,-592.164754,-9104.533087,-766.095498
419.583964,6069.688724,-7328.038826,2145.067394
419.584292,8364.327145,-6957.935855,4136.915689
419.584619,7179.997637,-7254.018232,3907.087040
419.584947,2146.597232,-8660.409521,1455.581446
419.585275,-2960.823768,-10436.903782,-1072.533697
419.585603,-6587.832884,-11621.233289,-3447.429741
419.585930,-6587.832884,-11029.068536,-3370.820191
419.586258,-2072.576638,-9030.512492,-1225.752797
419.586586,3775.050304,-7476.080014,1762.019645
419.586913,7402.059420,-7105.977043,4366.744339
419.587241,6661.853478,-8068.244768,5209.449386
419.587569,2442.679609,-9326.594869,3217.601092
419.587897,-4145.153275,-10436.903782,-612.876398
419.588224,-7772.162391,-11251.130318,-2451.505594
419.588552,-8068.244768,-11103.089130,-3370.820191
419.588880,-4737.318029,-9400.615463,-2068.457845
419.589208,1776.494261,-7550.100608,536.266849
419.589535,5699.585753,-6365.771101,3524.039291
419.589863,6735.874072,-5995.668130,4443.353888
419.590191,3627.009116,-7550.100608,2987.772442
419.590518,-2516.700203,-9844.739029,153.219100
419.590846,-7031.956449,-11251.130318,-2298.286494
419.591174,-8068.244768,-11843.295072,-3370.820191
419.591502,-5181.441594,-10658.965565,-1991.848295
419.591829,962.267725,-8660.409521,1072.533697
419.592157,5329.482782,-7920.203579,3907.087040
419.592485,7254.018232,-7254.018232,5362.668486
419.592813,5329.482782,-7920.203579,4749.792088
419.593140,-370.102971,-9844.739029,1302.362347
419.593468,-6661.853478,-11103.089130,-1991.848295
419.593796,-8068.244768,-11843.295072,-2757.943793
419.594123,-7105.977043,-9844.739029,-3524.039291
419.594451,-666.185348,-8216.285956,-1149.143247
419.594779,5625.565159,-7105.977043,2298.286494
419.595107,7624.121203,-6291.750507,3983.696590
419.595434,6513.812290,-7031.956449,3983.696590
419.595762,1184.329507,-9400.615463,995.924147
419.596090,-5033.400406,-10807.006753,-1532.190996
419.596418,-7772.162391,-11325.150913,-3677.258390
419.596745,-6883.915261,-11769.274478,-2987.772442
419.597073,-2590.720797,-8512.368333,-1302.362347
419.597401,3775.050304,-7772.162391,1608.800546
419.597728,8808.450710,-7920.203579,4903.011187
419.598056,6661.853478,-6735.874072,4519.963438
419.598384,3849.070898,-8290.306550,2298.286494
419.598712,-2516.700203,-11251.130318,-459.657299
419.599039,-6883.915261,-11621.233289,-2834.553343
419.599367,-6587.832884,-11843.295072,-2987.772442
419.599695,-3034.844362,-10955.047942,-842.705048
419.600023,1850.514855,-8216.285956,919.314598
419.600350,7105.977043,-8068.244768,3677.258390
419.600678,7254.018232,-7328.038826,3907.087040
419.601006,3775.050304,-7994.224174,2374.896044
419.601333,-592.164754,-10436.903782,-153.219100
419.601661,-7105.977043,-11325.150913,-3370.820191
419.601989,-8142.265362,-11917.315666,-3064.381992
419.602317,-4885.359217,-10510.924376,-1991.848295
419.602644,-296.082377,-8438.347739,76.609550
419.602972,5329.482782,-6661.853478,3753.867940
419.603300,7624.121203,-6661.853478,5439.278036
419.603628,4145.153275,-7994.224174,4136.915689
419.603955,-1554.432478,-8808.450710,1072.533697
419.604283,-5699.585753,-10436.903782,-2145.067394
419.604611,-7698.141797,-11399.171507,-2987.772442
419.604938,-7179.997637,-9918.759623,-2987.772442
419.605266,-666.185348,-8808.450710,-383.047749
419.605594,4367.215058,-7846.182985,2451.505594
419.605922,7105.977043,-6439.791695,4366.744339
419.606249,6291.750507,-7846.182985,4443.353888
419.606577,1036.288319,-8512.368333,1762.019645
419.606905,-4811.338623,-10140.821405,-1072.533697
419.607233,-6809.894666,-12139.377449,-2451.505594
419.607560,-6439.791695,-9992.780217,-2757.943793
419.607888,-2664.741391,-8512.368333,-766.095498
419.608216,4219.173869,-7920.203579,2987.772442
419.608543,7624.121203,-6587.832884,4903.011187
419.608871,5625.565159,-7105.977043,4749.792088
419.609199,2368.659014,-8586.388927,2757.943793
419.609527,-2886.803174,-9622.677246,0.000000
419.609854,-7105.977043,-10881.027347,-1915.238745
419.610180,-7179.997637,-11103.089130,-2528.115143
419.610508,-3997.112087,-9030.512492,-1455.581446
419.610836,1702.473667,-7402.059420,842.705048
419.611163,5699.585753,-6809.894666,3524.039291
419.611491,6735.874072,-6365.771101,4366.744339
419.611819,3404.947333,-7846.182985,2528.115143
419.612146,-2220.617826,-9400.615463,0.000000
419.612474,-6587.832884,-10288.862594,-2834.553343
419.612802,-7254.018232,-11103.089130,-3370.820191
419.613129,-5181.441594,-9844.739029,-2298.286494
419.613457,1258.350101,-8586.388927,229.828649
419.613785,5625.565159,-7476.080014,3524.039291
419.614112,7254.018232,-7179.997637,4749.792088
419.614440,4589.276840,-8364.327145,3677.258390
419.614767,-888.247130,-10140.821405,536.266849
419.615095,-5625.565159,-11843.295072,-1685.410096
419.615423,-7328.038826,-12139.377449,-2681.334243
419.615750,-6143.709319,-10955.047942,-3217.601092
419.616078,-814.226536,-8882.471304,-842.705048
419.616406,4293.194464,-8290.306550,2145.067394
419.616733,6957.935855,-7179.997637,3907.087040
419.617061,5699.585753,-7328.038826,3447.429741
419.617389,1850.514855,-8956.491898,995.924147
419.617716,-3627.009116,-10881.027347,-1685.410096
419.618044,-6883.915261,-11991.336260,-3294.210641
419.618371,-6291.750507,-11029.068536,-3677.258390
419.618699,-1924.535449,-9326.594869,-1378.971896
419.619027,4737.318029,-8882.471304,2068.457845
419.619354,7105.977043,-7105.977043,4060.306139
419.619682,6513.812290,-7920.203579,4826.401637
419.620010,2812.782580,-9252.574275,2834.553343
419.620337,-2960.823768,-10140.821405,459.657299
419.620665,-6291.750507,-11177.109724,-2145.067394
419.620993,-5995.668130,-11843.295072,-2221.676944
419.621320,-2590.720797,-9696.697840,-1302.362347
419.621648,2072.576638,-8734.430116,919.314598
419.621976,6661.853478,-7328.038826,4136.915689
419.622303,6365.771101,-6661.853478,5209.449386
419.622631,3404.947333,-8364.327145,3370.820191
419.622958,-2812.782580,-9696.697840,536.266849
419.623286,-7105.977043,-11029.068536,-2221.676944
419.623614,-7846.182985,-11473.192101,-2604.724693
419.623941,-5329.482782,-8734.430116,-1608.800546
419.624269,740.205942,-7846.182985,536.266849
419.624597,5625.565159,-7179.997637,3600.648841
419.624924,7105.977043,-6365.771101,4903.011187
419.625252,4293.194464,-7698.141797,4366.744339
419.625580,-1406.391290,-9178.553681,2221.676944
419.625907,-7624.121203,-10436.903782,-1685.410096
419.626235,-8734.430116,-11621.233289,-2604.724693
419.626562,-7105.977043,-10288.862594,-2221.676944
419.626890,-2220.617826,-7772.162391,-689.485948
419.627218,4071.132681,-6439.791695,2298.286494
419.627545,7476.080014,-6143.709319,4443.353888
419.627873,4737.318029,-6735.874072,3217.601092
419.628201,1332.370696,-8364.327145,1838.629195
419.628528,-4071.132681,-9770.718434,-2068.457845
419.628856,-7402.059420,-10510.924376,-3447.429741
419.629184,-6809.894666,-11029.068536,-2757.943793
419.629511,-2442.679609,-9326.594869,-1378.971896
419.629839,2886.803174,-7254.018232,1149.143247
419.630167,7846.182985,-7328.038826,4136.915689
419.630494,7179.997637,-7031.956449,3983.696590
419.630822,3849.070898,-8216.285956,2604.724693
419.631149,-814.226536,-10732.986159,153.219100
419.631477,-6069.688724,-11251.130318,-2604.724693
419.631805,-6587.832884,-11399.171507,-2834.553343
419.632132,-3256.906145,-9992.780217,-2221.676944
419.632460,1776.494261,-7550.100608,229.828649
419.632788,7179.997637,-7550.100608,3294.210641
419.633115,7402.059420,-7105.977043,3907.087040
419.633443,3701.029710,-7994.224174,2451.505594
419.633771,-296.082377,-10140.821405,76.609550
419.634098,-5107.421000,-11103.089130,-2757.943793
419.634426,-7031.956449,-12139.377449,-3447.429741
419.634753,-4885.359217,-10732.986159,-2681.334243
419.635081,-296.082377,-8586.388927,-536.266849
419.635409,5477.523971,-7772.162391,2987.772442
419.635736,7476.080014,-7179.997637,4826.401637
419.636064,4885.359217,-8142.265362,4749.792088
419.636392,0.000000,-10066.800811,1991.848295
419.636719,-6661.853478,-11325.150913,-1378.971896
419.637047,-8512.368333,-12435.459826,-2757.943793
419.637375,-7772.162391,-10658.965565,-2987.772442
419.637702,-3034.844362,-8438.347739,-1072.533697
419.638030,3330.926739,-7846.182985,1532.190996
419.638357,7254.018232,-6957.935855,4443.353888
419.638685,4885.359217,-7105.977043,3907.087040
419.639013,1998.556043,-8364.327145,1608.800546
419.639340,-3997.112087,-10214.842000,-459.657299
419.639668,-7846.182985,-11695.253884,-3370.820191
419.639996,-7994.224174,-11843.295072,-3140.991542
419.640323,-3182.885551,-9992.780217,-1149.143247
419.640651,2664.741391,-7772.162391,2068.457845
419.640979,6883.915261,-6957.935855,4903.011187
419.641306,7846.182985,-7550.100608,5362.668486
419.641634,3775.050304,-7846.182985,2681.334243
419.641962,-2072.576638,-10510.924376,689.485948
419.642289,-6217.729913,-11695.253884,-1378.971896
419.642617,-7846.182985,-11399.171507,-2298.286494
419.642944,-3997.112087,-10288.862594,-1532.190996
419.643272,2072.576638,-8438.347739,1225.752797
419.643600,6883.915261,-7105.977043,3907.087040
419.643927,7476.080014,-6883.915261,5132.839837
419.644255,4071.132681,-8216.285956,3677.258390
419.644583,-1776.494261,-9474.636058,995.924147
419.644910,-6291.750507,-11177.109724,-1762.019645
419.645238,-7624.121203,-11843.295072,-2528.115143
419.645566,-5403.503377,-9400.615463,-2451.505594
419.645893,518.144159,-7476.080014,536.266849
419.646221,6069.688724,-6735.874072,3677.258390
419.646548,7624.121203,-6513.812290,5286.058936
419.646876,4515.256246,-8068.244768,4596.572988
419.647204,-740.205942,-9400.615463,1838.629195
419.647531,-7179.997637,-10732.986159,-1685.410096
419.647859,-8734.430116,-11621.233289,-2451.505594
419.648187,-7550.100608,-9548.656652,-3140.991542
419.648514,-1924.535449,-8142.265362,-1455.581446
419.648842,4367.215058,-7476.080014,1685.410096
419.649170,6883.915261,-6143.709319,3907.087040
419.649497,5033.400406,-6661.853478,3447.429741
419.649825,1110.308913,-8364.327145,995.924147
419.650153,-4885.359217,-9992.780217,-1991.848295
419.650480,-8364.327145,-12065.356855,-3830.477490
419.650808,-8290.306550,-11177.109724,-4519.963438
419.651135,-3330.926739,-8882.471304,-2298.286494
419.651463,3182.885551,-7328.038826,766.095498
419.651791,7402.059420,-6439.791695,2911.162892
419.652118,7994.224174,-6513.812290,3983.696590
419.652446,5107.421000,-8586.388927,2221.676944
419.652774,-1480.411884,-10066.800811,-612.876398
419.653101,-5847.626942,-10658.965565,-2528.115143
419.653429,-5773.606348,-11843.295072,-2757.943793
419.653757,-3552.988522,-9474.636058,-2604.724693
419.654084,2664.741391,-8068.244768,0.000000
419.654412,8512.368333,-7624.121203,3753.867940
419.654739,8068.244768,-5921.647536,4443.353888
419.655067,6439.791695,-7402.059420,3217.601092
419.655395,1258.350101,-10140.821405,689.485948
419.655722,-5033.400406,-11251.130318,-2374.896044
419.656050,-6439.791695,-12287.418637,-2451.505594
419.656378,-4441.235652,-10584.944971,-1915.238745
419.656705,444.123565,-8660.409521,612.876398
419.657033,5107.421000,-7550.100608,3753.867940
419.657361,7105.977043,-7031.956449,5822.325785
419.657688,4515.256246,-7402.059420,4596.572988
419.658016,-814.226536,-9622.677246,2451.505594
419.658344,-7624.121203,-10214.842000,-153.219100
419.658671,-9992.780217,-11843.295072,-1991.848295
419.658999,-8808.450710,-10510.924376,-2604.724693
419.659326,-4293.194464,-8586.388927,-689.485948
419.659654,2590.720797,-6957.935855,2221.676944
419.659982,4811.338623,-6069.688724,3907.087040
419.660309,4071.132681,-6513.812290,4596.572988
419.660637,-666.185348,-7994.224174,1608.800546
419.660965,-5255.462188,-9844.739029,-689.485948
419.661292,-9178.553681,-11251.130318,-2681.334243
419.661620,-9178.553681,-11251.130318,-3140.991542
419.661948,-3849.070898,-9252.574275,-842.705048
419.662275,2072.576638,-7772.162391,1455.581446
419.662603,7328.038826,-7105.977043,4366.744339
419.662930,8216.285956,-7254.018232,5362.668486
419.663258,4885.359217,-8586.388927,3447.429741
419.663586,-2146.597232,-9844.739029,612.876398
419.663913,-5921.647536,-12065.356855,-1762.019645
419.664241,-7105.977043,-12139.377449,-2681.334243
419.664569,-3923.091493,-10362.883188,-2298.286494
419.664896,1924.535449,-8808.450710,153.219100
419.665224,8290.306550,-6439.791695,3600.648841
419.665552,8586.388927,-6883.915261,4136.915689
419.665879,6661.853478,-8290.306550,3600.648841
419.666207,888.247130,-9326.594869,383.047749
419.666535,-5995.668130,-11325.150913,-2451.505594
419.666862,-5995.668130,-11843.295072,-2298.286494
419.667190,-7179.997637,-9104.533087,-4443.353888
419.667517,0.000000,-8734.430116,-306.438199
419.667845,6809.894666,-6587.832884,3064.381992
419.668173,7105.977043,-6587.832884,4060.306139
419.668500,6291.750507,-9178.553681,4213.525239
419.668828,-444.123565,-7624.121203,766.095498
419.669156,-4367.215058,-10955.047942,-536.266849
419.669483,-8290.306550,-12879.583391,-3907.087040
419.669811,-9030.512492,-9252.574275,-3294.210641
419.670139,-2368.659014,-9400.615463,-995.924147
419.670466,2738.761985,-7624.121203,1072.533697
419.670794,6291.750507,-6883.915261,3753.867940
419.671121,5477.523971,-7105.977043,3217.601092
419.671449,1850.514855,-9326.594869,1225.752797
419.671777,-4737.318029,-10436.903782,-842.705048
419.672104,-8660.409521,-12287.418637,-3830.477490
419.672432,-9178.553681,-12657.521608,-4443.353888
419.672760,-3997.112087,-9770.718434,-2374.896044
419.673087,2368.659014,-7179.997637,0.000000
419.673415,7772.162391,-7105.977043,3370.820191
419.673743,6883.915261,-7105.977043,4060.306139
419.674070,4589.276840,-7920.203579,2221.676944
419.674398,-592.164754,-10584.944971,842.705048
419.674725,-5551.544565,-11917.315666,-2604.724693
419.675053,-6883.915261,-11843.295072,-2681.334243
419.675381,-3552.988522,-11695.253884,-1838.629195
419.675708,2368.659014,-8660.409521,1302.362347
419.676036,7031.956449,-7105.977043,3830.477490
419.676364,7920.203579,-7254.018232,4826.401637
419.676691,5625.565159,-7846.182985,3447.429741
419.677019,-222.061783,-10288.862594,612.876398
419.677347,-5107.421000,-11547.212695,-1378.971896
419.677674,-7624.121203,-11843.295072,-2911.162892
419.678002,-5773.606348,-11103.089130,-2221.676944
419.678330,0.000000,-8364.327145,459.657299
419.678657,5699.585753,-6957.935855,3370.820191
419.678985,7550.100608,-6883.915261,6052.154434
419.679312,4885.359217,-7624.121203,4979.620737
419.679640,-1554.432478,-9178.553681,1608.800546
419.679968,-6439.791695,-10807.006753,0.000000
419.680295,-9178.553681,-11695.253884,-2221.676944
419.680623,-8142.265362,-9844.739029,-2068.457845
419.680951,-2220.617826,-7698.141797,0.000000
419.681278,4071.132681,-6809.894666,2834.553343
419.681606,6661.853478,-5847.626942,4903.011187
419.681934,4959.379811,-6809.894666,5132.839837
419.682261,444.123565,-8364.327145,2451.505594
419.682589,-5921.647536,-10510.924376,-689.485948
419.682916,-9104.533087,-11769.274478,-2451.505594
419.683244,-8068.244768,-11547.212695,-2528.115143
419.683572,-3997.112087,-8956.491898,-1608.800546
419.683899,2368.659014,-7920.203579,1455.581446
419.684227,7105.977043,-7105.977043,4366.744339
419.684555,6735.874072,-7031.956449,4290.134789
419.684882,2738.761985,-8290.306550,2451.505594
419.685210,-2812.782580,-9918.759623,-459.657299
419.685538,-7105.977043,-11695.253884,-2681.334243
419.685865,-7624.121203,-11325.150913,-3447.429741
419.686193,-3330.926739,-9030.512492,-2374.896044
419.686521,2368.659014,-7402.059420,-536.266849
419.686848,7328.038826,-6809.894666,3064.381992
419.687176,8512.368333,-6809.894666,4136.915689
419.687503,5403.503377,-7698.141797,2528.115143
419.687831,1184.329507,-9548.656652,919.314598
419.688159,-4071.132681,-10955.047942,-2221.676944
419.688486,-6365.771101,-11843.295072,-3447.429741
419.688814,-3701.029710,-10140.821405,-2451.505594
419.689142,1480.411884,-8364.327145,0.000000
419.689469,6513.812290,-6957.935855,3064.381992
419.689797,9252.574275,-7105.977043,5286.058936
419.690125,5477.523971,-7994.224174,3907.087040
419.690452,370.102971,-9622.677246,1532.190996
419.690780,-4663.297435,-11547.212695,-1072.533697
419.691107,-8068.244768,-11991.336260,-2681.334243
419.691435,-6957.935855,-10732.986159,-2528.115143
419.691763,-1480.411884,-8882.471304,-383.047749
419.692090,2738.761985,-7402.059420,1455.581446
419.692418,5995.668130,-7031.956449,4136.915689
419.692746,4737.318029,-7031.956449,3983.696590
419.693073,0.000000,-8438.347739,1072.533697
419.693401,-5699.585753,-10436.903782,-1225.752797
419.693729,-9030.512492,-11547.212695,-3447.429741
419.694056,-8808.450710,-10807.006753,-3447.429741
419.694384,-4811.338623,-8586.388927,-2068.457845
419.694712,1258.350101,-7105.977043,76.609550
419.695039,6513.812290,-6439.791695,4060.306139
419.695367,5625.565159,-6291.750507,4290.134789
419.695694,2516.700203,-7624.121203,2374.896044
419.696022,-2368.659014,-9844.739029,229.828649
419.696350,-6883.915261,-10955.047942,-1915.238745
419.696677,-7846.182985,-12213.398043,-2604.724693
419.697005,-4811.338623,-10584.944971,-1991.848295
419.697333,1480.411884,-8734.430116,383.047749
419.697660,6957.935855,-7550.100608,3140.991542
419.697988,8364.327145,-6735.874072,4443.353888
419.698316,6735.874072,-7476.080014,3140.991542
419.698643,962.267725,-10214.842000,1072.533697
419.698971,-5107.421000,-11325.150913,-1685.410096
419.699298,-6735.874072,-11621.233289,-2528.115143
419.699626,-5107.421000,-10510.924376,-2757.943793
419.699954,1776.494261,-8734.430116,229.828649
419.700281,7031.956449,-7402.059420,3677.258390
419.700609,7994.224174,-7031.956449,5669.106685
419.700937,5329.482782,-7550.100608,4903.011187
419.701264,0.000000,-9400.615463,2298.286494
419.701592,-5477.523971,-10732.986159,-459.657299
419.701920,-7994.224174,-11325.150913,-2068.457845
419.702247,-6883.915261,-10658.965565,-2298.286494
419.702575,-1924.535449,-8438.347739,-459.657299
419.702903,3404.947333,-7105.977043,2298.286494
419.703230,6587.832884,-5847.626942,4596.572988
419.703558,4885.359217,-7031.956449,4519.963438
419.703885,148.041188,-9030.512492,1838.629195
419.704213,-7105.977043,-10584.944971,-1762.019645
419.704541,-9252.574275,-11621.233289,-2911.162892
419.704868,-8660.409521,-11251.130318,-3294.210641
419.705196,-4663.297435,-9030.512492,-2145.067394
419.705524,1628.453072,-7402.059420,995.924147
419.705851,6957.935855,-7105.977043,3907.087040
419.706179,5181.441594,-6661.853478,3907.087040
419.706507,3108.864956,-7476.080014,2604.724693
419.706834,-2590.720797,-10362.883188,-383.047749
419.707162,-7254.018232,-11917.315666,-2604.724693
419.707489,-7994.224174,-12435.459826,-2987.772442
419.707817,-4589.276840,-10807.006753,-2298.286494
419.708145,962.267725,-7994.224174,-306.438199
419.708472,7105.977043,-6883.915261,2911.162892
419.708800,8956.491898,-7254.018232,4596.572988
419.709128,6143.709319,-7772.162391,2911.162892
419.709455,1036.288319,-9696.697840,536.266849
419.709783,-3849.070898,-11621.233289,-2221.676944
419.710111,-5847.626942,-12213.398043,-2374.896044
419.710438,-3849.070898,-10584.944971,-2145.067394
419.710766,888.247130,-9474.636058,0.000000
419.711093,6883.915261,-7698.141797,3830.477490
419.711421,8882.471304,-7328.038826,5362.668486
419.711749,5403.503377,-8586.388927,4366.744339
419.712076,740.205942,-8882.471304,2451.505594
419.712404,-4367.215058,-11103.089130,-689.485948
419.712732,-7698.141797,-11991.336260,-2145.067394
419.713059,-6883.915261,-10214.842000,-1991.848295
419.713387,-2294.638420,-8142.265362,0.000000
419.713715,3256.906145,-6587.832884,2451.505594
419.714042,5477.523971,-6661.853478,4366.744339
419.714370,3701.029710,-6957.935855,4060.306139
419.714698,-296.082377,-8142.265362,2068.457845
419.715025,-6513.812290,-9770.718434,-995.924147
419.715353,-9474.636058,-10658.965565,-2374.896044
419.715681,-9474.636058,-10584.944971,-3064.381992
419.716008,-5699.585753,-8660.409521,-2221.676944
419.716336,740.205942,-7254.018232,919.314598
419.716664,5995.668130,-6587.832884,3907.087040
419.716991,5995.668130,-5847.626942,4366.744339
419.717319,3330.926739,-8142.265362,2911.162892
419.717646,-1850.514855,-10140.821405,383.047749
419.717974,-7698.141797,-11399.171507,-2528.115143
419.718302,-7550.100608,-12435.459826,-2681.334243
419.718629,-4367.215058,-9326.594869,-3064.381992
419.718957,1110.308913,-7698.141797,-689.485948
419.719285,8068.244768,-7698.141797,3600.648841
419.719612,8882.471304,-5921.647536,4136.915689
419.719940,6143.709319,-7105.977043,3064.381992
419.720268,1924.535449,-9400.615463,689.485948
419.720595,-4145.153275,-10881.027347,-2221.676944
419.720923,-6809.894666,-12065.356855,-3064.381992
419.721251,-4885.359217,-10510.924376,-2911.162892
419.721578,222.061783,-8586.388927,-153.219100
419.721906,6291.750507,-7254.018232,2757.943793
419.722234,8364.327145,-7105.977043,4749.792088
419.722561,6883.915261,-7105.977043,4136.915689
419.722889,1924.535449,-8660.409521,1455.581446
419.723217,-4293.194464,-10955.047942,-995.924147
419.723544,-7105.977043,-11325.150913,-2834.553343
419.723872,-6957.935855,-10955.047942,-2987.772442
419.724199,-2368.659014,-8660.409521,-995.924147
419.724527,3182.885551,-7550.100608,1915.238745
419.724855,6365.771101,-6661.853478,3753.867940
419.725182,4959.379811,-7105.977043,3907.087040
419.725510,1110.308913,-8438.347739,2451.505594
419.725838,-5329.482782,-9992.780217,-1378.971896
419.726165,-8438.347739,-11917.315666,-3217.601092
419.726493,-8438.347739,-11399.171507,-3294.210641
419.726821,-4367.215058,-9326.594869,-2068.457845
419.727148,1924.535449,-8290.306550,1072.533697
419.727476,6587.832884,-7254.018232,3753.867940
419.727804,5847.626942,-7179.997637,4826.401637
419.728131,2886.803174,-8956.491898,3370.820191
419.728459,-2960.823768,-9992.780217,-153.219100
419.728787,-7105.977043,-11769.274478,-2451.505594
419.729114,-7550.100608,-12361.439231,-2911.162892
419.729442,-5033.400406,-10214.842000,-2451.505594
419.729770,518.144159,-8586.388927,-306.438199
419.730097,7179.997637,-7328.038826,3294.210641
419.730425,8290.306550,-7179.997637,4290.134789
419.730752,5181.441594,-8290.306550,2757.943793
419.731080,0.000000,-9770.718434,1072.533697
419.731408,-4811.338623,-11769.274478,-2068.457845
419.731735,-7476.080014,-12213.398043,-3217.601092
419.732063,-5403.503377,-10658.965565,-2451.505594
419.732391,814.226536,-8438.347739,-536.266849
419.732718,6291.750507,-7476.080014,3294.210641
419.733046,8438.347739,-7105.977043,5209.449386
419.733374,6661.853478,-8216.285956,4596.572988
419.733701,2072.576638,-9548.656652,2298.286494
419.734029,-4367.215058,-10732.986159,-766.095498
419.734357,-6957.935855,-11621.233289,-1915.238745
419.734684,-6439.791695,-10807.006753,-2374.896044
419.735012,-1998.556043,-8438.347739,-612.876398
419.735340,3923.091493,-7846.182985,2221.676944
419.735667,6809.894666,-6661.853478,4596.572988
419.735995,5625.565159,-7476.080014,4903.011187
419.736323,1406.391290,-8660.409521,2834.553343
419.736650,-5255.462188,-10140.821405,-766.095498
419.736978,-8438.347739,-11547.212695,-2451.505594
419.737305,-8438.347739,-11547.212695,-2451.505594
419.737633,-4737.318029,-8660.409521,-1608.800546
419.737961,1036.288319,-7179.997637,995.924147
419.738288,5699.585753,-6735.874072,3907.087040
419.738616,5403.503377,-6735.874072,4749.792088
419.738944,2442.679609,-8216.285956,2911.162892
419.739271,-3627.009116,-9252.574275,-459.657299
419.739599,-7105.977043,-10807.006753,-1762.019645
419.739927,-8216.285956,-11769.274478,-2681.334243
419.740254,-6217.729913,-9252.574275,-2451.505594
419.740582,0.000000,-7550.100608,-459.657299
419.740910,5921.647536,-6735.874072,2451.505594
419.741237,7624.121203,-5847.626942,4213.525239
419.741565,5329.482782,-7105.977043,3064.381992
419.741893,888.247130,-9252.574275,689.485948
419.742220,-4737.318029,-10732.986159,-2221.676944
419.742548,-6661.853478,-12287.418637,-3294.210641
419.742875,-4589.276840,-10288.862594,-3217.601092
419.743203,222.061783,-8290.306550,-995.924147
419.743531,7105.977043,-7105.977043,2528.115143
419.743858,9474.636058,-7105.977043,4979.620737
419.744186,6809.894666,-8216.285956,4749.792088
419.744514,3108.864956,-9400.615463,2834.553343
419.744841,-2664.741391,-11399.171507,-459.657299
419.745169,-6439.791695,-11843.295072,-2221.676944
419.745497,-5699.585753,-10881.027347,-2221.676944
419.745824,-1554.432478,-9030.512492,-612.876398
419.746152,2590.720797,-7328.038826,1608.800546
419.746480,6735.874072,-6069.688724,3830.477490
419.746807,5551.544565,-7031.956449,4826.401637
419.747135,1110.308913,-8512.368333,1915.238745
419.747463,-4885.359217,-9770.718434,-383.047749
419.747790,-8882.471304,-11399.171507,-2757.943793
419.748118,-9474.636058,-11177.109724,-3370.820191
419.748446,-5477.523971,-8586.388927,-1915.238745
419.748773,222.061783,-7698.141797,306.438199
419.749101,4589.276840,-6661.853478,3370.820191
419.749428,5107.421000,-6735.874072,4749.792088
419.749756,1480.411884,-7846.182985,3294.210641
419.750084,-4071.132681,-9474.636058,-306.438199
419.750411,-7550.100608,-11547.212695,-2298.286494
419.750739,-8808.450710,-11917.315666,-3140.991542
419.751067,-6291.750507,-9770.718434,-2757.943793
419.751394,296.082377,-8438.347739,-229.828649
419.751722,6587.832884,-7402.059420,2757.943793
419.752050,7698.141797,-6587.832884,3524.039291
419.752377,6365.771101,-8216.285956,3524.039291
419.752705,1776.494261,-10436.903782,919.314598
419.753033,-4663.297435,-11399.171507,-2451.505594
419.753360,-5995.668130,-12509.480420,-3524.039291
419.753688,-4145.153275,-11399.171507,-2757.943793
419.754016,962.267725,-8438.347739,-459.657299
419.754343,7179.997637,-7994.224174,2451.505594
419.754671,10362.883188,-8068.244768,5592.497135
419.754999,7624.121203,-7476.080014,5056.230287
419.755326,2664.741391,-9992.780217,2374.896044
419.755654,-3330.926739,-11769.274478,-459.657299
419.755981,-7402.059420,-11991.336260,-2681.334243
419.756309,-6661.853478,-11621.233289,-2298.286494
419.756637,-1998.556043,-9252.574275,-536.266849
419.756964,3330.926739,-7254.018232,2068.457845
419.757292,6587.832884,-6883.915261,4519.963438
419.757620,5033.400406,-6587.832884,3983.696590
419.757947,962.267725,-8290.306550,1838.629195
419.758275,-4071.132681,-10510.924376,-766.095498
419.758603,-9104.533087,-10732.986159,-3294.210641
419.758930,-8660.409521,-10732.986159,-3217.601092
419.759258,-4515.256246,-9474.636058,-1072.533697
419.759586,666.185348,-7476.080014,1838.629195
419.759913,4737.318029,-7254.018232,4366.744339
419.760241,4441.235652,-7105.977043,4903.011187
419.760569,1184.329507,-8586.388927,2911.162892
419.760896,-3849.070898,-10584.944971,306.438199
419.761224,-8068.244768,-11473.192101,-2451.505594
419.761552,-8512.368333,-11843.295072,-3447.429741
419.761879,-4737.318029,-10510.924376,-3064.381992
419.762207,1258.350101,-8438.347739,-306.438199
419.762534,5921.647536,-6957.935855,2987.772442
419.762862,7624.121203,-6735.874072,4060.306139
419.763190,5847.626942,-7772.162391,2834.553343
419.763517,888.247130,-9474.636058,612.876398
419.763845,-4293.194464,-10955.047942,-2604.724693
419.764173,-5477.523971,-12065.356855,-3064.381992
419.764500,-3552.988522,-10584.944971,-2757.943793
419.764828,1184.329507,-9030.512492,0.000000
419.765156,6957.935855,-8068.244768,3524.039291
419.765483,8956.491898,-7476.080014,5515.887586
419.765811,6809.894666,-7550.100608,4443.353888
419.766139,2294.638420,-9474.636058,2298.286494
419.766466,-3404.947333,-10436.903782,-459.657299
419.766794,-6735.874072,-10732.986159,-2911.162892
419.767122,-5921.647536,-10288.862594,-2681.334243
419.767449,-1258.350101,-8068.244768,-1072.533697
419.767777,3330.926739,-7031.956449,1685.410096
419.768105,7031.956449,-7105.977043,4366.744339
419.768432,4663.297435,-7105.977043,3753.867940
419.768760,592.164754,-7994.224174,2451.505594
419.769087,-5329.482782,-10140.821405,-842.705048
419.769415,-8660.409521,-10436.903782,-2757.943793
419.769743,-8438.347739,-10288.862594,-2451.505594
419.770070,-4737.318029,-8660.409521,-1455.581446
419.770398,148.041188,-7105.977043,1762.019645
419.770726,5477.523971,-6513.812290,4213.525239
419.771053,4811.338623,-6587.832884,4519.963438
419.771381,1850.514855,-8142.265362,3524.039291
419.771709,-3182.885551,-10140.821405,1072.533697
419.772036,-8290.306550,-10732.986159,-2068.457845
419.772364,-8734.430116,-11621.233289,-2451.505594
419.772692,-5329.482782,-9548.656652,-2298.286494
419.773019,0.000000,-7698.141797,-306.438199
419.773347,5847.626942,-7179.997637,2681.334243
419.773675,7698.141797,-6513.812290,3753.867940
419.774002,5033.400406,-7550.100608,2374.896044
419.774330,222.061783,-9770.718434,306.438199
419.774658,-4811.338623,-11621.233289,-2528.115143
419.774985,-7179.997637,-12287.418637,-3983.696590
419.775313,-5995.668130,-11177.109724,-3600.648841
419.775640,-592.164754,-8512.368333,-612.876398
419.775968,5551.544565,-7846.182985,1991.848295
419.776296,8882.471304,-7179.997637,4443.353888
419.776623,7846.182985,-7179.997637,3907.087040
419.776951,3701.029710,-9326.594869,1608.800546
419.777279,-2072.576638,-10881.027347,-383.047749
419.777606,-5329.482782,-11251.130318,-3370.820191
419.777934,-4885.359217,-11547.212695,-2911.162892
419.778262,-1184.329507,-9770.718434,-1072.533697
419.778589,3552.988522,-8216.285956,1915.238745
419.778917,6957.935855,-7328.038826,4290.134789
419.779245,5551.544565,-7105.977043,4290.134789
419.779572,2590.720797,-8882.471304,2451.505594
419.779900,-2738.761985,-10807.006753,-612.876398
419.780228,-7476.080014,-11547.212695,-3294.210641
419.780555,-7476.080014,-11325.150913,-3907.087040
419.780883,-4145.153275,-9918.759623,-1762.019645
419.781211,1702.473667,-8364.327145,1378.971896
419.781538,5255.462188,-7179.997637,3983.696590
419.781866,5107.421000,-7179.997637,4673.182538
419.782193,2072.576638,-8734.430116,3524.039291
419.782521,-3701.029710,-9992.780217,459.657299
419.782849,-8216.285956,-10732.986159,-1991.848295
419.783176,-8364.327145,-11103.089130,-3600.648841
419.783504,-6143.709319,-9844.739029,-2834.553343
419.783832,-592.164754,-8068.244768,0.000000
419.784159,4071.132681,-6883.915261,2911.162892
419.784487,6883.915261,-5773.606348,3677.258390
419.784815,5107.421000,-7179.997637,3524.039291
419.785142,-666.185348,-8956.491898,766.095498
419.785470,-5847.626942,-10658.965565,-1838.629195
419.785798,-7402.059420,-11843.295072,-3600.648841
419.786125,-6291.750507,-9918.759623,-2834.553343
419.786453,222.061783,-7698.141797,-766.095498
419.786781,7105.977043,-7031.956449,2604.724693
419.787108,10288.862594,-6587.832884,5286.058936
419.787436,8438.347739,-7772.162391,5745.716235
419.787764,2812.782580,-9696.697840,3753.867940
419.788091,-3997.112087,-10881.027347,0.000000
419.788419,-6365.771101,-11843.295072,-1762.019645
419.788746,-5921.647536,-11177.109724,-1915.238745
419.789074,-1628.453072,-8956.491898,-153.219100
419.789402,3478.967927,-7476.080014,2374.896044
419.789729,8290.306550,-6735.874072,4519.963438
419.790057,6143.709319,-6883.915261,4596.572988
419.790385,1702.473667,-8586.388927,2528.115143
419.790712,-3997.112087,-9992.780217,0.000000
419.791040,-7994.224174,-10807.006753,-2911.162892
419.791368,-8438.347739,-10510.924376,-3370.820191
419.791695,-5107.421000,-8216.285956,-1991.848295
419.792023,1110.308913,-7105.977043,1225.752797
419.792351,5033.400406,-6439.791695,3907.087040
419.792678,4959.379811,-6883.915261,4749.792088
419.793006,1480.411884,-8438.347739,3447.429741
419.793334,-4663.297435,-10066.800811,0.000000
419.793661,-8142.265362,-11251.130318,-2221.676944
419.793989,-8956.491898,-11843.295072,-3294.210641
419.794316,-6883.915261,-9918.759623,-2834.553343
419.794644,-666.185348,-7994.224174,-689.485948
419.794972,5699.585753,-6883.915261,2528.115143
419.795299,7031.956449,-6735.874072,3600.648841
419.795627,5033.400406,-8290.306550,3064.381992
419.795955,74.020594,-10510.924376,536.266849
419.796282,-4959.379811,-12065.356855,-2834.553343
419.796610,-6587.832884,-12879.583391,-3600.648841
419.796938,-4959.379811,-11621.233289,-2911.162892
419.797265,0.000000,-9252.574275,-1225.752797
419.797593,5995.668130,-7624.121203,2068.457845
419.797921,10288.862594,-7402.059420,5439.278036
419.798248,7179.997637,-7550.100608,4673.182538
419.798576,3552.988522,-9548.656652,2298.286494
419.798904,-2664.741391,-11621.233289,-995.924147
419.799231,-6587.832884,-12361.439231,-2757.943793
419.799559,-5773.606348,-12213.398043,-2528.115143
419.799887,-888.247130,-9474.636058,-842.705048
419.800214,3182.885551,-7476.080014,1532.190996
419.800542,7476.080014,-7550.100608,4826.401637
419.800869,6365.771101,-7031.956449,4136.915689
419.801197,2294.638420,-7846.182985,2145.067394
419.801525,-2442.679609,-10214.842000,-459.657299
419.801852,-7698.141797,-10732.986159,-3294.210641
419.802180,-8364.327145,-10807.006753,-3217.601092
419.802508,-4737.318029,-9696.697840,-1225.752797
419.802835,74.020594,-7254.018232,842.705048
419.803163,4885.359217,-6513.812290,3983.696590
419.803491,5551.544565,-6661.853478,4903.011187
419.803818,1184.329507,-7476.080014,2834.553343
419.804146,-3256.906145,-9252.574275,612.876398
419.804474,-7920.203579,-10955.047942,-2298.286494
419.804801,-9474.636058,-10807.006753,-2987.772442
419.805129,-6291.750507,-10140.821405,-1838.629195
419.805457,-370.102971,-7846.182985,-229.828649
419.805784,4663.297435,-6365.771101,2145.067394
419.806112,7402.059420,-6069.688724,4213.525239
419.806440,4811.338623,-6809.894666,3217.601092
419.806767,0.000000,-9104.533087,1149.143247
419.807095,-5847.626942,-10214.842000,-2374.896044
419.807422,-7550.100608,-11843.295072,-3447.429741
419.807750,-5847.626942,-10362.883188,-3140.991542
419.808078,-148.041188,-8142.265362,-1225.752797
419.808405,6883.915261,-7254.018232,2451.505594
419.808733,9992.780217,-6513.812290,5056.230287
419.809061,7476.080014,-7179.997637,4596.572988
419.809388,2664.741391,-9400.615463,2681.334243
419.809716,-3256.906145,-10658.965565,-842.705048
419.810044,-5995.668130,-11695.253884,-2221.676944
419.810371,-6291.750507,-11399.171507,-3600.648841
419.810699,-1702.473667,-9622.677246,-1149.143247
419.811027,4367.215058,-7624.121203,1838.629195
419.811354,7550.100608,-7031.956449,3907.087040
419.811682,6291.750507,-6735.874072,4213.525239
419.812010,3108.864956,-8142.265362,1302.362347
419.812337,-2812.782580,-11103.089130,-383.047749
419.812665,-7624.121203,-11547.212695,-2834.553343
419.812993,-8586.388927,-11769.274478,-3064.381992
419.813320,-4589.276840,-9770.718434,-1915.238745
419.813647,1406.391290,-7624.121203,842.705048
419.813975,6069.688724,-7550.100608,3830.477490
419.814302,5477.523971,-7550.100608,4596.572988
419.814630,2590.720797,-8290.306550,3294.210641
419.814957,-3182.885551,-10140.821405,459.657299
419.815285,-7476.080014,-11103.089130,-1991.848295
419.815612,-8290.306550,-12139.377449,-2451.505594
419.815940,-5551.544565,-10436.903782,-2221.676944
419.816267,-444.123565,-8660.409521,0.000000
419.816595,4737.318029,-7846.182985,2987.772442
419.816922,6365.771101,-7105.977043,4979.620737
419.817250,4885.359217,-7624.121203,3294.210641
419.817577,74.020594,-10214.842000,689.485948
419.817904,-4959.379811,-11621.233289,-1532.190996
419.818232,-7476.080014,-12213.398043,-2987.772442
419.818559,-5773.606348,-10658.965565,-2451.505594
419.818887,-296.082377,-8216.285956,-229.828649
419.819214,5625.565159,-7105.977043,2987.772442
419.819542,8438.347739,-7179.997637,5209.449386
419.819869,6365.771101,-7846.182985,4826.401637
419.820197,1332.370696,-9326.594869,2221.676944
419.820524,-3923.091493,-10658.965565,-153.219100
419.820852,-6809.894666,-11473.192101,-1991.848295
419.821179,-6735.874072,-11103.089130,-2374.896044
419.821506,-2368.659014,-9030.512492,-842.705048
419.821834,2368.659014,-7179.997637,1378.971896
419.822161,6439.791695,-6957.935855,4903.011187
419.822489,6365.771101,-6661.853478,4136.915689
419.822816,3034.844362,-7698.141797,2145.067394
419.823144,-2812.782580,-9918.759623,0.000000
419.823471,-7476.080014,-11103.089130,-2911.162892
419.823799,-7476.080014,-10732.986159,-2987.772442
419.824126,-3701.029710,-8438.347739,-2298.286494
419.824454,1406.391290,-6883.915261,689.485948
419.824781,6217.729913,-6735.874072,4060.306139
419.825109,6069.688724,-6809.894666,4673.182538
419.825436,2812.782580,-7624.121203,3140.991542
419.825763,-1702.473667,-9400.615463,766.095498
419.826091,-6217.729913,-10807.006753,-1532.190996
419.826418,-7550.100608,-10881.027347,-2451.505594
419.826746,-5329.482782,-9918.759623,-2221.676944
419.827073,0.000000,-8216.285956,0.000000
419.827401,5107.421000,-6809.894666,3447.429741
419.827728,6513.812290,-6069.688724,4366.744339
419.828056,4959.379811,-7254.018232,3370.820191
419.828383,222.061783,-9252.574275,612.876398
419.828711,-5255.462188,-11399.171507,-1532.190996
419.829038,-7105.977043,-11621.233289,-2911.162892
419.829366,-6735.874072,-10214.842000,-3753.867940
419.829693,-1332.370696,-8956.491898,-689.485948
419.830020,4441.235652,-7105.977043,2298.286494
419.830348,7328.038826,-6809.894666,4290.134789
419.830675,6957.935855,-6587.832884,3677.258390
419.831003,2590.720797,-9178.553681,1608.800546
419.831330,-3701.029710,-10881.027347,-612.876398
419.831658,-7846.182985,-11621.233289,-3064.381992
419.831985,-7328.038826,-11473.192101,-3524.039291
419.832313,-3034.844362,-9474.636058,-2681.334243
419.832640,2738.761985,-7476.080014,689.485948
419.832968,7105.977043,-6957.935855,3753.867940
419.833295,6883.915261,-6809.894666,4213.525239
419.833623,3404.947333,-7994.224174,2145.067394
419.833950,-1554.432478,-10362.883188,-383.047749
419.834277,-5329.482782,-11547.212695,-2911.162892
419.834605,-6809.894666,-11399.171507,-2757.943793
419.834932,-3923.091493,-10658.965565,-1762.019645
419.835260,1258.350101,-8586.388927,536.266849
419.835587,5625.565159,-7624.121203,3447.429741
419.835915,7328.038826,-7476.080014,4673.182538
419.836242,4145.153275,-8364.327145,3217.601092
419.836570,-1554.432478,-10436.903782,766.095498
419.836897,-6291.750507,-11473.192101,-1608.800546
419.837225,-7550.100608,-11843.295072,-2834.553343
419.837552,-5847.626942,-10214.842000,-2911.162892
419.837880,-370.102971,-7920.203579,-689.485948
419.838207,4515.256246,-7254.018232,1608.800546
419.838534,7402.059420,-6883.915261,4136.915689
419.838862,4293.194464,-7328.038826,3294.210641
419.839189,-518.144159,-9696.697840,842.705048
419.839517,-5033.400406,-11621.233289,-1455.581446
419.839844,-7846.182985,-12287.418637,-3524.039291
419.840172,-7920.203579,-11177.109724,-3370.820191
419.840499,-1480.411884,-9252.574275,-919.314598
419.840827,3849.070898,-7476.080014,1838.629195
419.841154,7550.100608,-6809.894666,4596.572988
419.841482,6809.894666,-6883.915261,3907.087040
419.841809,2516.700203,-8660.409521,2145.067394
419.842136,-3330.926739,-11177.109724,-689.485948
419.842464,-7254.018232,-11843.295072,-2757.943793
419.842791,-7550.100608,-11473.192101,-3677.258390
419.843119,-2220.617826,-9918.759623,-1532.190996
419.843446,3404.947333,-8142.265362,1149.143247
419.843774,7624.121203,-6809.894666,3753.867940
419.844101,7624.121203,-7179.997637,4519.963438
419.844429,3997.112087,-8660.409521,3140.991542
419.844756,-1184.329507,-10288.862594,1225.752797
419.845084,-5921.647536,-11547.212695,-1838.629195
419.845411,-6957.935855,-12361.439231,-2451.505594
419.845739,-3182.885551,-10140.821405,-919.314598
419.846066,1850.514855,-8364.327145,1302.362347
419.846393,6365.771101,-7328.038826,4136.915689
419.846721,7105.977043,-7476.080014,5209.449386
419.847048,3552.988522,-8734.430116,4060.306139
419.847376,-2220.617826,-9696.697840,1455.581446
419.847703,-6513.812290,-10658.965565,-1302.362347
419.848031,-8068.244768,-11325.150913,-2451.505594
419.848358,-5699.585753,-10214.842000,-1991.848295
419.848686,-296.082377,-8068.244768,383.047749
419.849013,4219.173869,-7105.977043,2757.943793
419.849341,6143.709319,-6365.771101,4596.572988
419.849668,3256.906145,-7402.059420,4213.525239
419.849996,-1184.329507,-9696.697840,1532.190996
419.850323,-7031.956449,-10214.842000,-1608.800546
419.850650,-8734.430116,-11547.212695,-2528.115143
419.850978,-7328.038826,-9844.739029,-2757.943793
419.851305,-1702.473667,-7105.977043,0.000000
419.851633,5181.441594,-6513.812290,2528.115143
419.851960,7920.203579,-5847.626942,4136.915689
419.852288,5995.668130,-7105.977043,4443.353888
419.852615,1776.494261,-9474.636058,2757.943793
419.852943,-4811.338623,-10584.944971,-689.485948
419.853270,-7254.018232,-11621.233289,-1838.629195
419.853598,-7105.977043,-11399.171507,-3217.601092
419.853925,-2368.659014,-9252.574275,-1685.410096
419.854253,2960.823768,-7402.059420,229.828649
419.854580,8216.285956,-6291.750507,2987.772442
419.854907,7550.100608,-6587.832884,4136.915689
419.855235,5033.400406,-8364.327145,2145.067394
419.855562,-1554.432478,-9844.739029,-306.438199
419.855890,-5477.523971,-11547.212695,-2757.943793
419.856217,-6809.894666,-11547.212695,-3753.867940
419.856545,-3552.988522,-9474.636058,-2604.724693
419.856872,1480.411884,-7624.121203,383.047749
419.857200,7105.977043,-7476.080014,3447.429741
419.857527,7105.977043,-6883.915261,4136.915689
419.857855,4515.256246,-8142.265362,3140.991542
419.858182,0.000000,-9992.780217,1225.752797
419.858510,-5329.482782,-10881.027347,-1685.410096
419.858837,-7328.038826,-11695.253884,-2987.772442
419.859164,-4885.359217,-9918.759623,-2681.334243
419.859492,-222.061783,-7920.203579,-919.314598
419.859819,4885.359217,-6587.832884,1991.848295
419.860147,6883.915261,-6365.771101,3830.477490
419.860474,3775.050304,-7402.059420,3217.601092
419.860802,-888.247130,-9252.574275,383.047749
419.861129,-5921.647536,-11251.130318,-2298.286494
419.861457,-8512.368333,-11769.274478,-3907.087040
419.861784,-7328.038826,-10881.027347,-3600.648841
419.862112,-1850.514855,-8438.347739,-1608.800546
419.862439,3997.112087,-6809.894666,1225.752797
419.862766,7994.224174,-6809.894666,4290.134789
419.863094,7105.977043,-7105.977043,4290.134789
419.863421,2516.700203,-9030.512492,2911.162892
419.863749,-3627.009116,-11177.109724,-306.438199
419.864076,-7624.121203,-12583.501014,-2451.505594
419.864404,-7698.141797,-12065.356855,-2451.505594
419.864731,-2812.782580,-9622.677246,-1302.362347
419.865059,3627.009116,-7624.121203,1225.752797
419.865386,7846.182985,-6957.935855,3677.258390
419.865714,7031.956449,-7031.956449,4903.011187
419.866041,3108.864956,-8586.388927,3064.381992
419.866369,-2072.576638,-10807.006753,459.657299
419.866696,-6587.832884,-12065.356855,-2451.505594
419.867023,-7846.182985,-11547.212695,-3140.991542
419.867351,-4589.276840,-10362.883188,-1378.971896
419.867678,1036.288319,-8068.244768,1149.143247
419.868006,5699.585753,-7179.997637,3524.039291
419.868333,6809.894666,-7031.956449,4903.011187
419.868661,4589.276840,-8290.306550,4366.744339
419.868988,-2294.638420,-9474.636058,842.705048
419.869316,-6957.935855,-11029.068536,-1072.533697
419.869643,-8364.327145,-11621.233289,-2221.676944
419.869971,-5847.626942,-9696.697840,-1991.848295
419.870298,-962.267725,-7624.121203,229.828649
419.870626,4663.297435,-6291.750507,3217.601092
419.870953,6809.894666,-6365.771101,4826.401637
419.871280,4441.235652,-7328.038826,3983.696590
419.871608,-444.123565,-9178.553681,1608.800546
419.871935,-5773.606348,-10881.027347,-1608.800546
419.872263,-8512.368333,-11177.109724,-2451.505594
419.872590,-6735.874072,-10362.883188,-2757.943793
419.872918,-1258.350101,-8216.285956,-842.705048
419.873245,3997.112087,-7031.956449,1608.800546
419.873573,8216.285956,-6439.791695,4596.572988
419.873900,7105.977043,-7105.977043,4903.011187
419.874228,1924.535449,-8882.471304,2374.896044
419.874555,-4515.256246,-10510.924376,-689.485948
419.874883,-7846.182985,-12361.439231,-2911.162892
419.875210,-8290.306550,-11473.192101,-3677.258390
419.875537,-2960.823768,-8734.430116,-2068.457845
419.875865,3108.864956,-7402.059420,229.828649
419.876192,7920.203579,-5773.606348,3064.381992
419.876520,7698.141797,-6513.812290,4290.134789
419.876847,4441.235652,-8142.265362,2604.724693
419.877175,-1924.535449,-9474.636058,-229.828649
419.877502,-5551.544565,-11029.068536,-2604.724693
419.877830,-7476.080014,-11917.315666,-3370.820191
419.878157,-3997.112087,-9474.636058,-2528.115143
419.878485,1480.411884,-7698.141797,-306.438199
419.878812,7105.977043,-7105.977043,3370.820191
419.879140,7624.121203,-7105.977043,5515.887586
419.879467,4737.318029,-8586.388927,3447.429741
419.879794,-888.247130,-10140.821405,689.485948
419.880122,-5551.544565,-11473.192101,-1915.238745
419.880449,-7846.182985,-12287.418637,-2911.162892
419.880777,-6217.729913,-9770.718434,-2834.553343
419.881104,-814.226536,-7698.141797,-842.705048
419.881432,5329.482782,-7550.100608,2451.505594
419.881759,7402.059420,-6587.832884,4060.306139
419.882087,4959.379811,-7328.038826,3753.867940
419.882414,296.082377,-8956.491898,1685.410096
419.882742,-5699.585753,-10881.027347,-1378.971896
419.883069,-8216.285956,-12583.501014,-2604.724693
419.883396,-7105.977043,-10732.986159,-2681.334243
419.883724,-1702.473667,-8068.244768,-1225.752797
419.884051,4885.359217,-7254.018232,2604.724693
419.884379,8068.244768,-6291.750507,5362.668486
419.884706,5773.606348,-7624.121203,5132.839837
419.885034,2220.617826,-9770.718434,3370.820191
419.885361,-5107.421000,-10807.006753,-383.047749
419.885689,-8660.409521,-12583.501014,-2068.457845
419.886016,-8216.285956,-12287.418637,-1991.848295
419.886344,-3997.112087,-9252.574275,-1685.410096
419.886671,1850.514855,-7994.224174,612.876398
419.886999,7476.080014,-6883.915261,3983.696590
419.887326,6365.771101,-7031.956449,4366.744339
419.887653,3256.906145,-8364.327145,3447.429741
419.887981,-2368.659014,-9548.656652,229.828649
419.888308,-7328.038826,-11695.253884,-2757.943793
419.888636,-8586.388927,-11843.295072,-3753.867940
419.888963,-4589.276840,-9474.636058,-2451.505594
419.889291,888.247130,-7476.080014,0.000000
419.889618,6217.729913,-6809.894666,3370.820191
419.889946,7105.977043,-7031.956449,5132.839837
419.890273,4293.194464,-7846.182985,3140.991542
419.890601,-1258.350101,-9252.574275,459.657299
419.890928,-5329.482782,-10881.027347,-1915.238745
419.891256,-7328.038826,-11695.253884,-3370.820191
419.891583,-5329.482782,-9474.636058,-3064.381992
419.891910,1036.288319,-7920.203579,-995.924147
419.892238,6143.709319,-7179.997637,1991.848295
419.892565,7772.162391,-6365.771101,3677.258390
419.892893,6069.688724,-7550.100608,3447.429741
419.893220,1110.308913,-9622.677246,1072.533697
419.893548,-5107.421000,-11473.192101,-2068.457845
419.893875,-6883.915261,-12583.501014,-2681.334243
419.894203,-6069.688724,-10955.047942,-2987.772442
419.894530,-296.082377,-7920.203579,-1225.752797
419.894858,5773.606348,-7772.162391,2298.286494
419.895185,8142.265362,-6883.915261,4903.011187
419.895513,5403.503377,-7179.997637,4519.963438
419.895840,2220.617826,-9178.553681,2834.553343
419.896167,-5255.462188,-10510.924376,-995.924147
419.896495,-7994.224174,-11843.295072,-2221.676944
419.896822,-7624.121203,-11621.233289,-2757.943793
419.897150,-3108.864956,-8734.430116,-1302.362347
419.897477,2146.597232,-7105.977043,842.705048
419.897805,7254.018232,-6365.771101,4366.744339
419.898132,5995.668130,-7105.977043,4060.306139
419.898460,2220.617826,-8660.409521,2528.115143
419.898787,-3256.906145,-10140.821405,-153.219100
419.899115,-7698.141797,-11991.336260,-2374.896044
419.899442,-8734.430116,-11991.336260,-2911.162892
419.899770,-4367.215058,-9178.553681,-1608.800546
419.900097,888.247130,-7698.141797,383.047749
419.900424,5995.668130,-7179.997637,3447.429741
419.900752,7179.997637,-7402.059420,4903.011187
419.901079,4367.215058,-8512.368333,3447.429741
419.901407,-1406.391290,-9696.697840,1378.971896
419.901734,-4885.359217,-11769.274478,-1225.752797
419.902062,-6809.894666,-12435.459826,-2298.286494
419.902389,-5033.400406,-10362.883188,-1915.238745
419.902717,1036.288319,-8216.285956,76.609550
419.903044,6069.688724,-7772.162391,3217.601092
419.903372,7698.141797,-6513.812290,4749.792088
419.903699,5625.565159,-7846.182985,4136.915689
419.904026,592.164754,-9622.677246,1532.190996
419.904354,-5551.544565,-11103.089130,-1225.752797
419.904681,-7402.059420,-12731.542202,-2221.676944
419.905009,-6587.832884,-10362.883188,-2451.505594
419.905336,-1110.308913,-7920.203579,-229.828649
419.905664,4959.379811,-7476.080014,2757.943793
419.905991,7550.100608,-6291.750507,4596.572988
419.906319,5107.421000,-7254.018232,4366.744339
419.906646,1702.473667,-9326.594869,3064.381992
419.906974,-5477.523971,-9844.739029,-1225.752797
419.907301,-8438.347739,-12065.356855,-2451.505594
419.907629,-8142.265362,-11547.212695,-2987.772442
419.907956,-3404.947333,-8734.430116,-1915.238745
419.908283,1776.494261,-7179.997637,229.828649
419.908611,6735.874072,-5699.585753,3677.258390
419.908938,6143.709319,-6513.812290,3983.696590
419.909266,2886.803174,-8142.265362,2528.115143
419.909593,-2960.823768,-9400.615463,-536.266849
419.909921,-7179.997637,-11695.253884,-2834.553343
419.910248,-8808.450710,-11695.253884,-3524.039291
419.910576,-4737.318029,-9252.574275,-2451.505594
419.910903,1110.308913,-7772.162391,-766.095498
419.911231,6809.894666,-6735.874072,2681.334243
419.911558,7994.224174,-6883.915261,4136.915689
419.911886,5995.668130,-7994.224174,2604.724693
419.912213,0.000000,-8956.491898,842.705048
419.912540,-4145.153275,-11695.253884,-1608.800546
419.912868,-6957.935855,-12583.501014,-2911.162892
419.913195,-5403.503377,-10732.986159,-2911.162892
419.913523,0.000000,-8364.327145,-995.924147
419.913850,6143.709319,-7328.038826,1915.238745
419.914178,7772.162391,-6291.750507,3983.696590
419.914505,6513.812290,-7179.997637,3830.477490
419.914833,1850.514855,-8956.491898,1532.190996
419.915160,-4959.379811,-10436.903782,-1762.019645
419.915488,-7105.977043,-11843.295072,-3064.381992
419.915815,-7031.956449,-9992.780217,-3370.820191
419.916142,-1702.473667,-7476.080014,-1378.971896
419.916470,5033.400406,-7105.977043,2298.286494
419.916797,7920.203579,-6069.688724,4749.792088
419.917125,6217.729913,-7105.977043,5362.668486
419.917452,2294.638420,-9104.533087,3600.648841
419.917780,-5699.585753,-10362.883188,-229.828649
419.918107,-8956.491898,-12509.480420,-1838.629195
419.918434,-8882.471304,-12583.501014,-2528.115143
419.918762,-4441.235652,-9844.739029,-1915.238745
419.919089,1406.391290,-8068.244768,1302.362347
419.919417,6365.771101,-6883.915261,4290.134789
419.919744,6291.750507,-6809.894666,4673.182538
419.920072,3034.844362,-8438.347739,3140.991542
419.920399,-3108.864956,-9548.656652,-459.657299
419.920727,-7846.182985,-11103.089130,-2604.724693
419.921054,-9178.553681,-12139.377449,-3677.258390
419.921381,-5699.585753,-9548.656652,-2757.943793
419.921709,74.020594,-7772.162391,-306.438199
419.922036,6587.832884,-7105.977043,3524.039291
419.922364,7550.100608,-6439.791695,4903.011187
419.922691,4959.379811,-7846.182985,3753.867940
419.923019,0.000000,-10140.821405,1608.800546
419.923346,-5773.606348,-11621.233289,-1991.848295
419.923673,-7624.121203,-12583.501014,-2911.162892
419.924001,-5477.523971,-10584.944971,-2528.115143
419.924328,74.020594,-8808.450710,-766.095498
419.924656,6365.771101,-7328.038826,2451.505594
419.924983,8882.471304,-7254.018232,4903.011187
419.925311,6513.812290,-8216.285956,3983.696590
419.925638,1480.411884,-9622.677246,1532.190996
419.925965,-3404.947333,-11843.295072,-1455.581446
419.926293,-6809.894666,-12583.501014,-3140.991542
419.926620,-6069.688724,-11473.192101,-3140.991542
419.926948,-962.267725,-8956.491898,-689.485948
419.927275,5329.482782,-7328.038826,2451.505594
419.927603,8438.347739,-7254.018232,5898.935335
419.927930,6883.915261,-7105.977043,5515.887586
419.928258,2294.638420,-9104.533087,3064.381992
419.928585,-4515.256246,-11103.089130,689.485948
419.928912,-9104.533087,-11769.274478,-2221.676944
419.929240,-8956.491898,-10955.047942,-2681.334243
419.929567,-4293.194464,-8364.327145,-1915.238745
419.929895,1850.514855,-6587.832884,1149.143247
419.930222,6365.771101,-5847.626942,4213.525239
419.930550,5551.544565,-5847.626942,4519.963438
419.930877,2146.597232,-7105.977043,2451.505594
419.931204,-3034.844362,-9992.780217,-612.876398
419.931532,-8660.409521,-11177.109724,-3064.381992
419.931859,-9844.739029,-11843.295072,-3907.087040
419.932187,-6439.791695,-9918.759623,-2834.553343
419.932514,-222.061783,-7254.018232,-766.095498
419.932842,6069.688724,-6883.915261,2604.724693
419.933169,7994.224174,-6291.750507,4366.744339
419.933496,5107.421000,-7254.018232,2987.772442
419.933824,0.000000,-9474.636058,1149.143247
419.934151,-6217.729913,-10881.027347,-2528.115143
419.934479,-7179.997637,-12139.377449,-3600.648841
419.934806,-5033.400406,-10584.944971,-3217.601092
419.935134,888.247130,-8364.327145,-919.314598
419.935461,6513.812290,-7402.059420,2451.505594
419.935789,9326.594869,-6143.709319,4213.525239
419.936116,7254.018232,-6883.915261,4060.306139
419.936443,2886.803174,-8660.409521,1838.629195
419.936771,-3552.988522,-10807.006753,-1532.190996
419.937098,-6217.729913,-12213.398043,-2681.334243
419.937426,-5403.503377,-11177.109724,-2911.162892
419.937753,-444.123565,-9326.594869,-612.876398
419.938081,5033.400406,-7550.100608,2604.724693
419.938408,8216.285956,-7402.059420,4979.620737
419.938735,6365.771101,-7920.203579,5056.230287
419.939063,1554.432478,-9474.636058,2911.162892
419.939390,-5551.544565,-10807.006753,-612.876398
419.939718,-8882.471304,-11473.192101,-2604.724693
419.940045,-8364.327145,-11843.295072,-3140.991542
419.940373,-4885.359217,-9104.533087,-2221.676944
419.940700,1110.308913,-7402.059420,766.095498
419.941027,6069.688724,-7105.977043,3907.087040
419.941355,5625.565159,-6735.874072,3294.210641
419.941682,1998.556043,-7994.224174,2374.896044
419.942010,-3701.029710,-10288.862594,-153.219100
419.942337,-8882.471304,-11769.274478,-3294.210641
419.942665,-9178.553681,-11843.295072,-3677.258390
419.942992,-4737.318029,-9918.759623,-2298.286494
419.943320,1110.308913,-7698.141797,0.000000
419.943647,7031.956449,-7254.018232,3524.039291
419.943974,7698.141797,-7179.997637,4826.401637
419.944302,4959.379811,-8364.327145,3600.648841
419.944629,-148.041188,-10140.821405,1149.143247
419.944957,-4885.359217,-12065.356855,-2145.067394
419.945284,-6587.832884,-12435.459826,-2987.772442
419.945612,-4367.215058,-11547.212695,-2298.286494
419.945939,1036.288319,-9178.553681,-153.219100
419.946266,6439.791695,-7402.059420,2757.943793
419.946594,8808.450710,-7179.997637,4519.963438
419.946921,6809.894666,-7772.162391,3830.477490
419.947249,1480.411884,-9844.739029,1532.190996
419.947576,-4737.318029,-11325.150913,-1378.971896
419.947904,-7105.977043,-11843.295072,-2451.505594
419.948231,-5551.544565,-11103.089130,-1762.019645
419.948558,-592.164754,-7698.141797,229.828649
419.948886,4293.194464,-6513.812290,2757.943793
419.949213,7624.121203,-6883.915261,5745.716235
419.949541,4367.215058,-6661.853478,4596.572988
419.949868,0.000000,-8290.306550,2451.505594
419.950196,-5551.544565,-10362.883188,-842.705048
419.950523,-8956.491898,-11103.089130,-2681.334243
419.950851,-9178.553681,-10436.903782,-2911.162892
419.951178,-3701.029710,-8438.347739,-536.266849
419.951505,1110.308913,-6143.709319,689.485948
419.951833,5699.585753,-6069.688724,4213.525239
419.952160,5329.482782,-6809.894666,4136.915689
419.952488,1406.391290,-7105.977043,1685.410096
419.952815,-3701.029710,-10214.842000,-612.876398
419.953143,-7550.100608,-11473.192101,-2451.505594
419.953470,-8142.265362,-11177.109724,-3140.991542
419.953797,-4515.256246,-10066.800811,-1532.190996
419.954125,1998.556043,-7994.224174,919.314598
419.954452,6143.709319,-6513.812290,3140.991542
419.954780,7476.080014,-6883.915261,4903.011187
419.955107,4589.276840,-7179.997637,2604.724693
419.955435,-814.226536,-9474.636058,153.219100
419.955762,-4737.318029,-10881.027347,-2145.067394
419.956090,-6513.812290,-11843.295072,-2681.334243
419.956417,-4441.235652,-10214.842000,-2604.724693
419.956744,1332.370696,-7920.203579,306.438199
419.957072,5921.647536,-7476.080014,2068.457845
419.957399,7328.038826,-7179.997637,3907.087040
419.957727,5699.585753,-7105.977043,2987.772442
419.958054,1184.329507,-9252.574275,306.438199
419.958382,-3404.947333,-11473.192101,-1225.752797
419.958709,-5995.668130,-11917.315666,-2834.553343
419.959036,-5255.462188,-11029.068536,-2834.553343
419.959364,-222.061783,-9400.615463,-383.047749
419.959691,4959.379811,-7846.182985,2298.286494
419.960019,7105.977043,-7105.977043,3907.087040
419.960346,5625.565159,-7476.080014,4366.744339
419.960674,1110.308913,-9104.533087,2145.067394
419.961001,-4663.297435,-10510.924376,-689.485948
419.961328,-7550.100608,-11917.315666,-2451.505594
419.961656,-7179.997637,-11991.336260,-2221.676944
419.961983,-2960.823768,-9252.574275,-1225.752797
419.962311,1998.556043,-7624.121203,919.314598
419.962638,6069.688724,-7254.018232,3907.087040
419.962966,5625.565159,-7179.997637,4213.525239
419.963293,1850.514855,-8660.409521,2604.724693
419.963621,-4145.153275,-9770.718434,0.000000
419.963948,-7698.141797,-11399.171507,-2298.286494
419.964275,-8216.285956,-12213.398043,-2911.162892
419.964603,-5403.503377,-10140.821405,-1991.848295
419.964930,740.205942,-8512.368333,459.657299
419.965258,5181.441594,-7698.141797,2757.943793
419.965585,6587.832884,-6809.894666,4213.525239
419.965913,3997.112087,-8364.327145,3294.210641
419.966240,-1184.329507,-9548.656652,536.266849
419.966567,-5699.585753,-10881.027347,-1915.238745
419.966895,-7105.977043,-12509.480420,-2987.772442
419.967222,-5551.544565,-10807.006753,-3217.601092
419.967550,0.000000,-8438.347739,-689.485948
419.967877,5699.585753,-7772.162391,2221.676944
419.968205,7920.203579,-6735.874072,3600.648841
419.968532,5995.668130,-7550.100608,3140.991542
419.968859,2368.659014,-9548.656652,1149.143247
419.969187,-3849.070898,-10140.821405,-1685.410096
419.969514,-5847.626942,-11843.295072,-2528.115143
419.969842,-5107.421000,-10807.006753,-2451.505594
419.970169,-666.185348,-8364.327145,-766.095498
419.970497,5921.647536,-6957.935855,2068.457845
419.970824,8956.491898,-7920.203579,5056.230287
419.971152,5625.565159,-7994.224174,4826.401637
419.971479,2220.617826,-9104.533087,2911.162892
419.971806,-3849.070898,-11029.068536,-153.219100
419.972134,-7105.977043,-10881.027347,-1532.190996
419.972461,-6809.894666,-11177.109724,-1608.800546
419.972789,-2738.761985,-9104.533087,-536.266849
419.973116,1628.453072,-7031.956449,1685.410096
419.973444,6365.771101,-6735.874072,4749.792088
419.973771,5181.441594,-6735.874072,4826.401637
419.974098,1110.308913,-7624.121203,2451.505594
419.974426,-4515.256246,-9548.656652,-306.438199
419.974753,-8734.430116,-11399.171507,-2298.286494
419.975081,-9992.780217,-11695.253884,-3064.381992
419.975408,-6143.709319,-9030.512492,-2145.067394
419.975736,-592.164754,-7105.977043,306.438199
419.976063,4737.318029,-5921.647536,2834.553343
419.976390,6365.771101,-6217.729913,4290.134789
419.976718,3330.926739,-7254.018232,3064.381992
419.977045,-1332.370696,-8438.347739,76.609550
419.977373,-5403.503377,-10732.986159,-1302.362347
419.977700,-7624.121203,-11695.253884,-2834.553343
419.978028,-5699.585753,-10362.883188,-2757.943793
419.978355,-148.041188,-8660.409521,-995.924147
419.978683,5995.668130,-7254.018232,2068.457845
419.979010,8142.265362,-7402.059420,4443.353888
419.979337,6587.832884,-7476.080014,3294.210641
419.979665,2072.576638,-9104.533087,689.485948
419.979992,-2738.761985,-11399.171507,-1455.581446
419.980320,-5847.626942,-11843.295072,-3064.381992
419.980647,-5181.441594,-10955.047942,-2987.772442
419.980975,518.144159,-8438.347739,-995.924147
419.981302,5847.626942,-7105.977043,1915.238745
419.981629,8290.306550,-6883.915261,4136.915689
419.981957,7179.997637,-7476.080014,4826.401637
419.982284,2294.638420,-9178.553681,2451.505594
419.982612,-3627.009116,-10955.047942,0.000000
419.982939,-7254.018232,-11917.315666,-2221.676944
419.983267,-7772.162391,-11399.171507,-2681.334243
419.983594,-3182.885551,-9918.759623,-612.876398
419.983921,2072.576638,-7402.059420,1685.410096
419.984249,5625.565159,-5995.668130,3907.087040
419.984576,5699.585753,-6883.915261,4596.572988
419.984904,1924.535449,-7846.182985,2451.505594
419.985231,-3627.009116,-9548.656652,-229.828649
419.985559,-8364.327145,-11621.233289,-2528.115143
419.985886,-9474.636058,-11547.212695,-2987.772442
419.986214,-6069.688724,-10288.862594,-1378.971896
419.986541,148.041188,-8142.265362,459.657299
419.986868,4367.215058,-7179.997637,2757.943793
419.987196,7105.977043,-7476.080014,4826.401637
419.987523,3552.988522,-8068.244768,3064.381992
419.987851,-2072.576638,-10140.821405,842.705048
419.988178,-5921.647536,-11843.295072,-1991.848295
419.988506,-7994.224174,-12657.521608,-3064.381992
419.988833,-5847.626942,-11843.295072,-2451.505594
419.989160,-148.041188,-8512.368333,-995.924147
419.989488,5699.585753,-6957.935855,1838.629195
419.989815,8956.491898,-7328.038826,4903.011187
419.990143,6587.832884,-7476.080014,3753.867940
419.990470,1554.432478,-9030.512492,1455.581446
419.990798,-3478.967927,-10658.965565,-2068.457845
419.991125,-5625.565159,-12287.418637,-3140.991542
419.991453,-4737.318029,-11251.130318,-2757.943793
419.991780,-222.061783,-9400.615463,-459.657299
419.992107,5921.647536,-7550.100608,2681.334243
419.992435,9178.553681,-7105.977043,5132.839837
419.992762,7179.997637,-7846.182985,5439.278036
419.993090,2442.679609,-8290.306550,3524.039291
419.993417,-3997.112087,-10510.924376,0.000000
419.993745,-7254.018232,-11399.171507,-1915.238745
419.994072,-7550.100608,-10955.047942,-2145.067394
419.994399,-3478.967927,-9326.594869,-766.095498
419.994727,1850.514855,-6365.771101,1532.190996
419.995054,5625.565159,-5699.585753,4443.353888
419.995382,4219.173869,-6365.771101,4366.744339
419.995709,740.205942,-6883.915261,2374.896044
419.996037,-4663.297435,-9030.512492,-766.095498
419.996364,-9326.594869,-10066.800811,-2757.943793
419.996691,-9770.718434,-10584.944971,-3907.087040
419.997019,-6513.812290,-9622.677246,-2451.505594
419.997346,0.000000,-7624.121203,229.828649
419.997674,5107.421000,-5995.668130,3140.991542
419.998001,6809.894666,-5995.668130,4443.353888
419.998329,4367.215058,-7698.141797,2757.943793
419.998656,-592.164754,-9400.615463,536.266849
419.998984,-6143.709319,-10732.986159,-2528.115143
419.999311,-7328.038826,-11843.295072,-3217.601092
419.999638,-5181.441594,-10732.986159,-3370.820191
419.999966,962.267725,-9030.512492,-1455.581446
420.000293,6735.874072,-7105.977043,2068.457845
420.000621,9178.553681,-7031.956449,3983.696590
420.000948,7550.100608,-7624.121203,3447.429741
420.001276,2738.761985,-9178.553681,612.876398
420.001603,-2960.823768,-11695.253884,-2374.896044
420.001930,-5921.647536,-12361.439231,-3370.820191
420.002258,-5477.523971,-11621.233289,-3447.429741
420.002585,-740.205942,-9918.759623,-1072.533697
420.002913,5403.503377,-8142.265362,1915.238745
420.003240,8808.450710,-7031.956449,4366.744339
420.003568,7476.080014,-7402.059420,4366.744339
420.003895,2590.720797,-9030.512492,2374.896044
420.004222,-3775.050304,-10807.006753,-459.657299
420.004550,-7402.059420,-11621.233289,-2451.505594
420.004877,-7846.182985,-12065.356855,-2757.943793
420.005205,-4293.194464,-9474.636058,-1302.362347
420.005532,2294.638420,-7476.080014,1302.362347
420.005860,6365.771101,-7179.997637,3753.867940
420.006187,5921.647536,-7105.977043,4673.182538
420.006515,2368.659014,-8068.244768,2681.334243
420.006842,-3775.050304,-10510.924376,0.000000
420.007169,-8438.347739,-11769.274478,-1991.848295
420.007497,-9548.656652,-12509.480420,-2987.772442
420.007824,-6217.729913,-11029.068536,-1762.019645
420.008152,0.000000,-8142.265362,919.314598
420.008479,4959.379811,-6217.729913,3370.820191
420.008807,7179.997637,-7476.080014,5362.668486
420.009134,3997.112087,-7624.121203,3600.648841
420.009461,-1924.535449,-8882.471304,536.266849
420.009789,-5847.626942,-11547.212695,-1608.800546
420.010116,-7846.182985,-11843.295072,-2834.553343
420.010444,-5995.668130,-10881.027347,-2528.115143
420.010771,296.082377,-9474.636058,383.047749
420.011099,5403.503377,-7402.059420,2528.115143
420.011426,7624.121203,-6661.853478,4443.353888
420.011753,6735.874072,-7846.182985,4826.401637
420.012081,1554.432478,-8660.409521,1072.533697
420.012408,-3701.029710,-10658.965565,-1685.410096
420.012736,-6069.688724,-12065.356855,-2451.505594
420.013063,-5995.668130,-11325.150913,-2987.772442
420.013391,-370.102971,-9400.615463,-229.828649
420.013718,5773.606348,-7772.162391,2604.724693
420.014045,8216.285956,-6883.915261,4826.401637
420.014373,6883.915261,-8216.285956,5132.839837
420.014700,2220.617826,-9474.636058,2528.115143
420.015028,-4145.153275,-10362.883188,-612.876398
420.015355,-6957.935855,-11177.109724,-1608.800546
420.015682,-6661.853478,-11251.130318,-2834.553343
420.016010,-3108.864956,-9474.636058,-1225.752797
420.016337,2516.700203,-7328.038826,1455.581446
420.016665,6513.812290,-6735.874072,3983.696590
420.016992,5477.523971,-7402.059420,4673.182538
420.017320,1628.453072,-8142.265362,2528.115143
420.017647,-4515.256246,-9696.697840,-1225.752797
420.017974,-7920.203579,-11325.150913,-2757.943793
420.018302,-8586.388927,-11547.212695,-3294.210641
420.018629,-5551.544565,-9178.553681,-2068.457845
420.018957,370.102971,-6439.791695,306.438199
420.019284,5329.482782,-6735.874072,3064.381992
420.019611,6957.935855,-6883.915261,4749.792088
420.019939,3404.947333,-7328.038826,2911.162892
420.020266,-1554.432478,-9992.780217,306.438199
420.020594,-6143.709319,-11029.068536,-1991.848295
420.020921,-7772.162391,-11769.274478,-3294.210641
420.021248,-5921.647536,-11029.068536,-2528.115143
420.021576,592.164754,-8364.327145,-306.438199
420.021903,5699.585753,-7031.956449,2298.286494
420.022231,8438.347739,-6883.915261,4213.525239
420.022558,6291.750507,-6957.935855,2987.772442
420.022886,2368.659014,-8586.388927,383.047749
420.023213,-3701.029710,-11029.068536,-2374.896044
420.023540,-6587.832884,-11251.130318,-3983.696590
420.023868,-5107.421000,-10807.006753,-2987.772442
420.024195,444.123565,-8808.450710,-995.924147
420.024523,5107.421000,-6587.832884,2298.286494
420.024850,8956.491898,-6365.771101,4596.572988
420.025177,7550.100608,-7698.141797,4903.011187
420.025505,2294.638420,-9104.533087,2374.896044
420.025832,-3404.947333,-10436.903782,-383.047749
420.026160,-7105.977043,-11843.295072,-2374.896044
420.026487,-7105.977043,-10955.047942,-2681.334243
420.026814,-2812.782580,-9104.533087,-1455.581446
420.027142,3182.885551,-7254.018232,1685.410096
420.027469,6143.709319,-5995.668130,4443.353888
420.027797,5255.462188,-6957.935855,4903.011187
420.028124,1776.494261,-7994.224174,2451.505594
420.028451,-4441.235652,-9770.718434,-536.266849
420.028779,-8216.285956,-11399.171507,-2834.553343
420.029106,-8364.327145,-10436.903782,-2604.724693
420.029434,-4737.318029,-9474.636058,-1762.019645
420.029761,444.123565,-7846.182985,1149.143247
420.030089,4885.359217,-7031.956449,3524.039291
420.030416,6217.729913,-6365.771101,4903.011187
420.030743,2664.741391,-7772.162391,3524.039291
420.031071,-3182.885551,-10584.944971,1378.971896
420.031398,-7772.162391,-11029.068536,-1608.800546
420.031726,-8734.430116,-11621.233289,-2911.162892
420.032053,-6217.729913,-10881.027347,-2145.067394
420.032380,444.123565,-7994.224174,0.000000
420.032708,5255.462188,-6809.894666,1991.848295
420.033035,7920.203579,-6883.915261,4519.963438
420.033363,5773.606348,-7254.018232,3217.601092
420.033690,518.144159,-9474.636058,383.047749
420.034017,-4367.215058,-11473.192101,-1915.238745
420.034345,-6735.874072,-12139.377449,-2987.772442
420.034672,-5847.626942,-11769.274478,-2757.943793
420.035000,-444.123565,-9474.636058,0.000000
420.035327,5255.462188,-7698.141797,2681.334243
420.035655,7920.203579,-7624.121203,4903.011187
420.035982,7476.080014,-7772.162391,4979.620737
420.036309,2368.659014,-9104.533087,2374.896044
420.036637,-3552.988522,-10807.006753,-612.876398
420.036964,-7031.956449,-11251.130318,-2604.724693
420.037292,-6587.832884,-10955.047942,-3217.601092
420.037619,-2146.597232,-9400.615463,-995.924147
420.037946,3330.926739,-6957.935855,2298.286494
420.038274,6217.729913,-6735.874072,4213.525239
420.038601,5551.544565,-7105.977043,4213.525239
420.038929,2220.617826,-8290.306550,2528.115143
420.039256,-3330.926739,-10140.821405,-459.657299
420.039583,-7402.059420,-11103.089130,-2528.115143
420.039911,-7624.121203,-11473.192101,-2987.772442
420.040238,-4515.256246,-10140.821405,-1455.581446
420.040566,592.164754,-7994.224174,1072.533697
420.040893,4885.359217,-6809.894666,4136.915689
420.041220,6143.709319,-7254.018232,4903.011187
420.041548,2664.741391,-8808.450710,3524.039291
420.041875,-3182.885551,-9474.636058,76.609550
420.042203,-7254.018232,-10658.965565,-2681.334243
420.042530,-8216.285956,-11843.295072,-3217.601092
420.042858,-6143.709319,-9400.615463,-2451.505594
420.043185,-666.185348,-7994.224174,-1149.143247
420.043512,5329.482782,-6735.874072,1915.238745
420.043840,7179.997637,-6735.874072,3907.087040
420.044167,5181.441594,-7698.141797,3370.820191
420.044495,-296.082377,-8956.491898,536.266849
420.044822,-4737.318029,-10807.006753,-1608.800546
420.045149,-6735.874072,-11695.253884,-2987.772442
420.045477,-5625.565159,-10288.862594,-2757.943793
420.045804,0.000000,-8660.409521,-766.095498
420.046132,5625.565159,-7550.100608,2681.334243
420.046459,8364.327145,-6587.832884,4903.011187
420.046786,6735.874072,-7328.038826,4213.525239
420.047114,2738.761985,-9548.656652,2451.505594
420.047441,-3034.844362,-11029.068536,-459.657299
420.047769,-6661.853478,-11695.253884,-2451.505594
420.048096,-6365.771101,-11103.089130,-2451.505594
420.048424,-2368.659014,-9252.574275,-1685.410096
420.048751,3701.029710,-8142.265362,1685.410096
420.049078,7254.018232,-6809.894666,4290.134789
420.049406,5995.668130,-6661.853478,4213.525239
420.049733,2072.576638,-8808.450710,2528.115143
420.050061,-3627.009116,-9770.718434,-306.438199
420.050388,-7624.121203,-10955.047942,-2911.162892
420.050715,-7624.121203,-11029.068536,-3140.991542
420.051043,-4811.338623,-9252.574275,-1915.238745
420.051370,666.185348,-7624.121203,1455.581446
420.051698,4515.256246,-6587.832884,4213.525239
420.052025,4811.338623,-6735.874072,4903.011187
420.052352,2442.679609,-7846.182985,3294.210641
420.052680,-2738.761985,-9622.677246,229.828649
420.053007,-7254.018232,-10732.986159,-2221.676944
420.053335,-7994.224174,-11843.295072,-2528.115143
420.053662,-5995.668130,-10066.800811,-2987.772442
420.053990,-444.123565,-8290.306550,-383.047749
420.054317,4885.359217,-7254.018232,1991.848295
420.054644,7254.018232,-7105.977043,3983.696590
420.054972,4885.359217,-8142.265362,3217.601092
420.055299,0.000000,-9844.739029,229.828649
420.055627,-4663.297435,-11473.192101,-1915.238745
420.055954,-6883.915261,-12805.562797,-3830.477490
420.056281,-6069.688724,-11177.109724,-3677.258390
420.056609,518.144159,-8882.471304,-1072.533697
420.056936,6809.894666,-7698.141797,2145.067394
420.057264,8956.491898,-7105.977043,4673.182538
420.057591,7698.141797,-8068.244768,4903.011187
420.057918,3256.906145,-9474.636058,2911.162892
420.058246,-3404.947333,-10881.027347,-612.876398
420.058573,-5329.482782,-11843.295072,-1532.190996
420.058901,-5773.606348,-11473.192101,-2757.943793
420.059228,-1850.514855,-9400.615463,-766.095498
420.059555,3701.029710,-7698.141797,1608.800546
420.059883,7328.038826,-6809.894666,4136.915689
420.060210,6365.771101,-7105.977043,5056.230287
420.060538,2442.679609,-8586.388927,3217.601092
420.060865,-3775.050304,-10214.842000,-536.266849
420.061193,-7698.141797,-11399.171507,-2298.286494
420.061520,-8586.388927,-11399.171507,-2834.553343
420.061847,-5477.523971,-9622.677246,-842.705048
420.062175,814.226536,-7550.100608,1149.143247
420.062502,4441.235652,-7031.956449,3907.087040
420.062830,5181.441594,-6439.791695,4826.401637
420.063157,2516.700203,-7772.162391,3600.648841
420.063484,-2886.803174,-9696.697840,766.095498
420.063812,-8142.265362,-10436.903782,-1991.848295
420.064139,-9030.512492,-11473.192101,-2834.553343
420.064467,-6439.791695,-10140.821405,-2374.896044
420.064794,-592.164754,-7772.162391,0.000000
420.065121,4367.215058,-6513.812290,1915.238745
420.065449,7550.100608,-6069.688724,4136.915689
420.065776,4811.338623,-7105.977043,3447.429741
420.066104,370.102971,-8956.491898,306.438199
420.066431,-4145.153275,-10658.965565,-2221.676944
420.066759,-6809.894666,-11695.253884,-3830.477490
420.067086,-5477.523971,-11029.068536,-3294.210641
420.067413,296.082377,-8808.450710,-536.266849
420.067741,5033.400406,-7550.100608,1685.410096
420.068068,9252.574275,-7328.038826,4673.182538
420.068396,7994.224174,-7328.038826,3983.696590
420.068723,3775.050304,-9474.636058,2145.067394
420.069050,-1998.556043,-11399.171507,0.000000
420.069378,-5847.626942,-11769.274478,-2757.943793
420.069705,-5773.606348,-11769.274478,-3140.991542
420.070033,-1258.350101,-10066.800811,-1225.752797
420.070360,3034.844362,-7624.121203,1685.410096
420.070687,7254.018232,-6809.894666,4213.525239
420.071015,6513.812290,-6587.832884,4366.744339
420.071342,2516.700203,-8142.265362,2221.676944
420.071670,-2886.803174,-9622.677246,-153.219100
420.071997,-7254.018232,-11029.068536,-3064.381992
420.072324,-8290.306550,-11325.150913,-3983.696590
420.072652,-4811.338623,-9474.636058,-2451.505594
420.072979,296.082377,-7772.162391,842.705048
420.073307,4959.379811,-6957.935855,3830.477490
420.073634,5625.565159,-6587.832884,4826.401637
420.073962,2812.782580,-7698.141797,3753.867940
420.074289,-2664.741391,-10140.821405,995.924147
420.074616,-7920.203579,-11103.089130,-1915.238745
420.074944,-8882.471304,-11843.295072,-3064.381992
420.075271,-6365.771101,-10436.903782,-2604.724693
420.075599,-1332.370696,-8586.388927,76.609550
420.075926,4293.194464,-7772.162391,2221.676944
420.076253,7105.977043,-7105.977043,4366.744339
420.076581,5477.523971,-7105.977043,3064.381992
420.076908,592.164754,-9326.594869,995.924147
420.077236,-4737.318029,-10881.027347,-1762.019645
420.077563,-7772.162391,-11917.315666,-4213.525239
420.077890,-6513.812290,-10881.027347,-3830.477490
420.078218,-518.144159,-8734.430116,-1225.752797
420.078545,5403.503377,-7179.997637,1455.581446
420.078873,9326.594869,-7179.997637,4826.401637
420.079200,7698.141797,-7476.080014,4673.182538
420.079528,3330.926739,-9548.656652,2681.334243
420.079855,-3256.906145,-11029.068536,-612.876398
420.080182,-6513.812290,-11695.253884,-2987.772442
420.080510,-6217.729913,-11695.253884,-2681.334243
420.080837,-1776.494261,-8956.491898,-1378.971896
420.081165,3034.844362,-7402.059420,1225.752797
420.081492,8438.347739,-7105.977043,4596.572988
420.081819,7402.059420,-6809.894666,4213.525239
420.082147,2812.782580,-8216.285956,2604.724693
420.082474,-1850.514855,-9992.780217,0.000000
420.082802,-7624.121203,-11029.068536,-2834.553343
420.083129,-8512.368333,-11473.192101,-3140.991542
420.083456,-4811.338623,-9326.594869,-1991.848295
420.083784,592.164754,-7624.121203,689.485948
420.084111,5477.523971,-6957.935855,4213.525239
420.084439,6439.791695,-6809.894666,5362.668486
420.084766,1924.535449,-8068.244768,3677.258390
420.085093,-3478.967927,-9844.739029,612.876398
420.085421,-7105.977043,-11103.089130,-1991.848295
420.085748,-9252.574275,-11399.171507,-3140.991542
420.086076,-7328.038826,-8956.491898,-2451.505594
420.086403,-444.123565,-7994.224174,0.000000
420.086731,4663.297435,-6735.874072,2451.505594
420.087058,6291.750507,-5403.503377,3830.477490
420.087385,5181.441594,-7105.977043,3753.867940
420.087713,0.000000,-9326.594869,1762.019645
420.088040,-4885.359217,-10732.986159,-1608.800546
420.088368,-6809.894666,-12361.439231,-2604.724693
420.088695,-5699.585753,-10955.047942,-2528.115143
420.089022,-740.205942,-8586.388927,-229.828649
420.089350,5033.400406,-7624.121203,3217.601092
420.089677,8808.450710,-7624.121203,5439.278036
420.090005,6291.750507,-7994.224174,4903.011187
420.090332,2368.659014,-9474.636058,2451.505594
420.090659,-3701.029710,-11029.068536,-766.095498
420.090987,-7105.977043,-11843.295072,-2681.334243
420.091314,-6587.832884,-11251.130318,-3217.601092
420.091642,-2294.638420,-8882.471304,-1608.800546
420.091969,3256.906145,-7105.977043,1149.143247
420.092297,7402.059420,-7031.956449,3907.087040
420.092624,6439.791695,-6661.853478,3907.087040
420.092951,2960.823768,-8290.306550,2221.676944
420.093279,-3182.885551,-10807.006753,153.219100
420.093606,-7550.100608,-11251.130318,-2451.505594
420.093934,-7772.162391,-11769.274478,-2757.943793
420.094261,-4737.318029,-9918.759623,-1915.238745
420.094588,1184.329507,-7846.182985,919.314598
420.094916,6291.750507,-7031.956449,3983.696590
420.095243,6365.771101,-7105.977043,5056.230287
420.095571,2960.823768,-8364.327145,3600.648841
420.095898,-2516.700203,-10362.883188,536.266849
420.096225,-6587.832884,-10955.047942,-1225.752797
420.096553,-7772.162391,-11917.315666,-2834.553343
420.096880,-5551.544565,-10288.862594,-2528.115143
420.097208,148.041188,-8216.285956,0.000000
420.097535,5403.503377,-6735.874072,2298.286494
420.097862,6735.874072,-6439.791695,3753.867940
420.098190,5847.626942,-7846.182985,3600.648841
420.098517,-296.082377,-9474.636058,766.095498
420.098845,-5921.647536,-11399.171507,-1685.410096
420.099172,-7846.182985,-12805.562797,-2911.162892
420.099500,-6587.832884,-10658.965565,-3217.601092
420.099827,-740.205942,-8438.347739,-1149.143247
420.100154,5181.441594,-6883.915261,2221.676944
420.100482,8216.285956,-6439.791695,4673.182538
420.100809,6735.874072,-7402.059420,4443.353888
420.101137,2146.597232,-8882.471304,1838.629195
420.101464,-3701.029710,-10658.965565,-383.047749
420.101791,-7328.038826,-12361.439231,-2911.162892
420.102119,-7328.038826,-11547.212695,-3524.039291
420.102446,-2664.741391,-9400.615463,-1532.190996
420.102774,2960.823768,-7476.080014,1149.143247
420.103101,7105.977043,-6661.853478,4060.306139
420.103428,7328.038826,-6883.915261,4213.525239
420.103756,3923.091493,-7994.224174,1762.019645
420.104083,-2368.659014,-10436.903782,-689.485948
420.104411,-6439.791695,-11695.253884,-2604.724693
420.104738,-7105.977043,-11621.233289,-3064.381992
420.105066,-4367.215058,-9918.759623,-766.095498
420.105393,1702.473667,-7920.203579,1378.971896
420.105720,5551.544565,-6809.894666,3753.867940
420.106048,6957.935855,-7031.956449,5362.668486
420.106375,3256.906145,-7920.203579,3677.258390
420.106703,-2146.597232,-9178.553681,306.438199
420.107030,-6661.853478,-10214.842000,-1685.410096
420.107357,-7698.141797,-11621.233289,-2604.724693
420.107685,-5255.462188,-9548.656652,-2298.286494
420.108012,-222.061783,-7550.100608,0.000000
420.108340,4441.235652,-6291.750507,3447.429741
420.108667,6587.832884,-6365.771101,5132.839837
420.108994,3997.112087,-8068.244768,3907.087040
420.109322,-1480.411884,-9104.533087,536.266849
420.109649,-6143.709319,-11251.130318,-1991.848295
420.109977,-7920.203579,-12287.418637,-2604.724693
420.110304,-7179.997637,-10140.821405,-2451.505594
420.110631,-888.247130,-8586.388927,-689.485948
420.110959,4959.379811,-7624.121203,2374.896044
420.111286,7550.100608,-6069.688724,4366.744339
420.111614,5847.626942,-7476.080014,4366.744339
420.111941,2072.576638,-9770.718434,2451.505594
420.112269,-4737.318029,-10288.862594,-1149.143247
420.112596,-7254.018232,-12583.501014,-2451.505594
420.112923,-7328.038826,-11843.295072,-2911.162892
420.113251,-2368.659014,-9474.636058,-1302.362347
420.113578,3552.988522,-7698.141797,1225.752797
420.113906,7624.121203,-6217.729913,3830.477490
420.114233,7105.977043,-7105.977043,3983.696590
420.114561,3849.070898,-9178.553681,2221.676944
420.114888,-2220.617826,-10066.800811,-459.657299
420.115216,-5921.647536,-12213.398043,-2681.334243
420.115543,-7031.956449,-11769.274478,-2987.772442
420.115871,-3330.926739,-9548.656652,-1838.629195
420.116198,2220.617826,-8142.265362,612.876398
420.116526,6513.812290,-7179.997637,3524.039291
420.116853,7105.977043,-7698.141797,4903.011187
420.117181,3775.050304,-8660.409521,3294.210641
420.117509,-1850.514855,-9696.697840,459.657299
420.117836,-5847.626942,-11473.192101,-1838.629195
420.118164,-7254.018232,-12213.398043,-2757.943793
420.118491,-5847.626942,-10214.842000,-2298.286494
420.118819,296.082377,-7994.224174,153.219100
420.119146,4959.379811,-7105.977043,2528.115143
420.119474,6513.812290,-6143.709319,3830.477490
420.119801,4811.338623,-7550.100608,3294.210641
420.120129,0.000000,-9474.636058,1302.362347
420.120457,-6587.832884,-10214.842000,-1915.238745
420.120784,-8290.306550,-11843.295072,-2604.724693
420.121112,-6883.915261,-10510.924376,-2757.943793
420.121439,-2368.659014,-8142.265362,-1378.971896
420.121767,4589.276840,-7031.956449,2221.676944
420.122094,7624.121203,-6217.729913,4826.401637
420.122422,5773.606348,-7031.956449,4060.306139
420.122749,1628.453072,-9252.574275,2681.334243
420.123077,-3923.091493,-10807.006753,-536.266849
420.123405,-7698.141797,-11843.295072,-2757.943793
420.123732,-7179.997637,-11991.336260,-2451.505594
420.124060,-3256.906145,-9918.759623,-1991.848295
420.124387,2368.659014,-7328.038826,612.876398
420.124715,7846.182985,-6439.791695,3830.477490
420.125042,7550.100608,-6661.853478,4596.572988
420.125370,3552.988522,-8364.327145,2298.286494
420.125697,-1998.556043,-9770.718434,689.485948
420.126025,-6735.874072,-11251.130318,-2681.334243
420.126353,-7402.059420,-11843.295072,-3140.991542
420.126680,-4367.215058,-10066.800811,-1685.410096
420.127008,1702.473667,-7328.038826,612.876398
420.127335,5625.565159,-6365.771101,3447.429741
420.127663,8068.244768,-6957.935855,6128.763984
420.127990,3923.091493,-7772.162391,3370.820191
420.128318,-1776.494261,-9326.594869,612.876398
420.128645,-5995.668130,-11473.192101,-1915.238745
420.128973,-7994.224174,-12139.377449,-3140.991542
420.129301,-6735.874072,-10288.862594,-2757.943793
420.129628,-370.102971,-8290.306550,0.000000
420.129956,4441.235652,-7254.018232,2221.676944
420.130283,6809.894666,-6439.791695,4443.353888
420.130611,5033.400406,-7105.977043,3447.429741
420.130938,1258.350101,-9548.656652,1072.533697
420.131266,-5107.421000,-11251.130318,-1762.019645
420.131593,-7846.182985,-11843.295072,-3677.258390
420.131921,-6809.894666,-11769.274478,-3140.991542
420.132249,-1406.391290,-9400.615463,-536.266849
420.132576,4663.297435,-7105.977043,2374.896044
420.132904,8290.306550,-6513.812290,4673.182538
420.133231,6809.894666,-7105.977043,4903.011187
420.133559,1924.535449,-9104.533087,2528.115143
420.133886,-3627.009116,-10732.986159,-383.047749
420.134214,-7624.121203,-11695.253884,-2987.772442
420.134541,-7772.162391,-11843.295072,-3524.039291
420.134869,-3478.967927,-9770.718434,-1838.629195
420.135197,3256.906145,-7476.080014,919.314598
420.135524,6957.935855,-6291.750507,3830.477490
420.135852,6957.935855,-7179.997637,4519.963438
420.136179,3552.988522,-7994.224174,2528.115143
420.136507,-2442.679609,-9696.697840,-612.876398
420.136834,-6587.832884,-11769.274478,-2911.162892
420.137162,-7550.100608,-11547.212695,-3370.820191
420.137489,-4515.256246,-10214.842000,-1915.238745
420.137817,1332.370696,-8068.244768,1225.752797
420.138145,6587.832884,-7031.956449,4136.915689
420.138472,7105.977043,-7550.100608,4979.620737
420.138800,4219.173869,-7772.162391,3677.258390
420.139127,-1184.329507,-10214.842000,1072.533697
420.139455,-6883.915261,-11399.171507,-1302.362347
420.139782,-8216.285956,-11177.109724,-2757.943793
420.140110,-5625.565159,-11029.068536,-2221.676944
420.140437,0.000000,-8216.285956,229.828649
420.140765,5107.421000,-6291.750507,3064.381992
420.141093,7105.977043,-6661.853478,4060.306139
420.141420,4737.318029,-7105.977043,4749.792088
420.141748,0.000000,-8882.471304,1225.752797
420.142075,-5921.647536,-10584.944971,-1838.629195
420.142403,-8290.306550,-11547.212695,-3294.210641
420.142730,-6809.894666,-11029.068536,-2374.896044
420.143058,-1332.370696,-9178.553681,0.000000
420.143385,3923.091493,-7105.977043,2681.334243
420.143713,7550.100608,-6587.832884,4749.792088
420.144041,6365.771101,-7624.121203,4749.792088
420.144368,1332.370696,-8956.491898,2451.505594
420.144696,-4441.235652,-10066.800811,-995.924147
420.145023,-7179.997637,-11991.336260,-2451.505594
420.145351,-7179.997637,-10955.047942,-2604.724693
420.145678,-3330.926739,-8956.491898,-1685.410096
420.146006,2960.823768,-7476.080014,1225.752797
420.146333,7402.059420,-6883.915261,3524.039291
420.146661,6587.832884,-7402.059420,4749.792088
420.146989,2664.741391,-8438.347739,2528.115143
420.147316,-3256.906145,-10288.862594,-842.705048
420.147644,-6735.874072,-11769.274478,-3064.381992
420.147971,-7328.038826,-11325.150913,-2911.162892
420.148299,-4663.297435,-9400.615463,-2681.334243
420.148626,1776.494261,-7772.162391,459.657299
420.148954,6883.915261,-7031.956449,3370.820191
420.149281,7254.018232,-6217.729913,4213.525239
420.149609,4515.256246,-8290.306550,3370.820191
420.149937,-296.082377,-9770.718434,1225.752797
420.150264,-6217.729913,-10955.047942,-2374.896044
420.150592,-7328.038826,-11917.315666,-2681.334243
420.150919,-5107.421000,-10066.800811,-2987.772442
420.151247,444.123565,-8438.347739,-383.047749
420.151574,6439.791695,-7328.038826,3140.991542
420.151902,7254.018232,-6883.915261,4596.572988
420.152229,4811.338623,-7994.224174,3830.477490
420.152557,0.000000,-9474.636058,1072.533697
420.152885,-5181.441594,-11473.192101,-1915.238745
420.153212,-7772.162391,-11917.315666,-3217.601092
420.153540,-6513.812290,-11029.068536,-2604.724693
420.153867,-1924.535449,-8290.306550,-1072.533697
420.154195,4515.256246,-7105.977043,2298.286494
420.154522,7179.997637,-6439.791695,4366.744339
420.154850,6217.729913,-6957.935855,4749.792088
420.155177,1776.494261,-8808.450710,2451.505594
420.155505,-4663.297435,-10732.986159,-383.047749
420.155833,-7846.182985,-11695.253884,-2681.334243
420.156160,-7328.038826,-11843.295072,-2834.553343
420.156488,-3923.091493,-9030.512492,-1608.800546
420.156815,2590.720797,-6957.935855,1532.190996
420.157143,7105.977043,-6661.853478,3983.696590
420.157470,6439.791695,-6069.688724,4519.963438
420.157798,3182.885551,-7846.182985,2681.334243
420.158125,-2368.659014,-10510.924376,-306.438199
420.158453,-6513.812290,-11547.212695,-3447.429741
420.158781,-7031.956449,-11843.295072,-3140.991542
420.159108,-4441.235652,-10436.903782,-2068.457845
420.159436,1110.308913,-7994.224174,612.876398
420.159763,6069.688724,-7254.018232,3600.648841
420.160091,7254.018232,-7105.977043,4290.134789
420.160418,4293.194464,-7476.080014,3140.991542
420.160746,-592.164754,-9992.780217,995.924147
420.161073,-5921.647536,-11547.212695,-1915.238745
420.161401,-7402.059420,-11991.336260,-2681.334243
420.161729,-5477.523971,-10807.006753,-2221.676944
420.162056,0.000000,-8956.491898,536.266849
420.162384,5033.400406,-7105.977043,2987.772442
420.162711,6883.915261,-6217.729913,3983.696590
420.163039,5255.462188,-7402.059420,3830.477490
420.163366,148.041188,-8808.450710,842.705048
420.163694,-5181.441594,-10510.924376,-1838.629195
420.164021,-7624.121203,-11843.295072,-3447.429741
420.164349,-7105.977043,-11177.109724,-3370.820191
420.164677,-1850.514855,-8808.450710,-995.924147
420.165004,4293.194464,-7105.977043,2145.067394
420.165332,7254.018232,-6439.791695,4826.401637
420.165659,6291.750507,-7402.059420,4826.401637
420.165987,1776.494261,-9178.553681,2834.553343
420.166314,-4959.379811,-10288.862594,-459.657299
420.166642,-7698.141797,-12139.377449,-2757.943793
420.166969,-7402.059420,-11769.274478,-2987.772442
420.167297,-3182.885551,-9400.615463,-1838.629195
420.167625,1924.535449,-7846.182985,459.657299
420.167952,7105.977043,-6883.915261,3524.039291
420.168280,7105.977043,-6661.853478,4443.353888
420.168607,3404.947333,-7698.141797,2604.724693
420.168935,-1924.535449,-9400.615463,-536.266849
420.169262,-6439.791695,-11473.192101,-2987.772442
420.169590,-7550.100608,-12287.418637,-3140.991542
420.169917,-5033.400406,-9770.718434,-2374.896044
420.170245,888.247130,-8142.265362,0.000000
420.170573,6809.894666,-6809.894666,3907.087040
420.170900,8290.306550,-6587.832884,4749.792088
420.171228,4441.235652,-8216.285956,3600.648841
420.171555,296.082377,-10436.903782,2145.067394
420.171883,-6143.709319,-10955.047942,-2068.457845
420.172210,-7105.977043,-11843.295072,-2374.896044
420.172538,-5255.462188,-10510.924376,-2681.334243
420.172865,-666.185348,-8512.368333,-153.219100
420.173193,5329.482782,-6587.832884,2374.896044
420.173521,7920.203579,-6513.812290,4443.353888
420.173848,5181.441594,-7031.956449,3753.867940
420.174176,1184.329507,-8364.327145,1608.800546
420.174503,-4367.215058,-10584.944971,-1685.410096
420.174831,-7402.059420,-11621.233289,-2911.162892
420.175158,-6587.832884,-11251.130318,-2374.896044
420.175486,-2072.576638,-8882.471304,0.000000
420.175813,4071.132681,-6513.812290,2681.334243
420.176141,6957.935855,-6957.935855,5286.058936
420.176469,5625.565159,-6957.935855,4749.792088
420.176796,1184.329507,-8586.388927,2528.115143
420.177124,-4145.153275,-10584.944971,0.000000
420.177451,-8660.409521,-11547.212695,-3140.991542
420.177779,-8734.430116,-11251.130318,-3064.381992
420.178106,-4515.256246,-9326.594869,-1608.800546
420.178434,1776.494261,-7105.977043,766.095498
420.178761,6661.853478,-6587.832884,3983.696590
420.179089,6143.709319,-6439.791695,4443.353888
420.179417,2368.659014,-7476.080014,3064.381992
420.179744,-2442.679609,-10288.862594,-153.219100
420.180072,-6809.894666,-11473.192101,-2987.772442
420.180399,-8216.285956,-11695.253884,-3600.648841
420.180727,-4441.235652,-10658.965565,-1455.581446
420.181054,1406.391290,-8216.285956,383.047749
420.181382,6069.688724,-7105.977043,3294.210641
420.181709,7994.224174,-7105.977043,4749.792088
420.182037,5699.585753,-7846.182985,3294.210641
420.182365,148.041188,-10288.862594,1225.752797
420.182692,-5773.606348,-11177.109724,-1838.629195
420.183020,-7698.141797,-12435.459826,-3064.381992
420.183347,-5107.421000,-11251.130318,-3294.210641
420.183675,888.247130,-9104.533087,-919.314598
420.184002,6143.709319,-7105.977043,2145.067394
420.184330,8512.368333,-7031.956449,4673.182538
420.184657,5995.668130,-7772.162391,3600.648841
420.184985,518.144159,-9104.533087,1149.143247
420.185313,-4663.297435,-11769.274478,-1685.410096
420.185640,-7254.018232,-12065.356855,-3064.381992
420.185968,-6513.812290,-10955.047942,-2681.334243
420.186295,-1110.308913,-8882.471304,-1149.143247
420.186623,4737.318029,-7179.997637,2298.286494
420.186950,7698.141797,-6809.894666,4903.011187
420.187278,6439.791695,-7105.977043,4749.792088
420.187605,1480.411884,-9474.636058,2604.724693
420.187933,-4737.318029,-11103.089130,153.219100
420.188261,-9178.553681,-11325.150913,-2604.724693
420.188588,-7550.100608,-11843.295072,-2374.896044
420.188916,-4515.256246,-9104.533087,-1762.019645
420.189243,2072.576638,-6809.894666,1149.143247
420.189571,7031.956449,-6217.729913,4136.915689
420.189898,6365.771101,-5847.626942,3983.696590
420.190226,2294.638420,-7476.080014,1915.238745
420.190553,-3034.844362,-10066.800811,-536.266849
420.190881,-8364.327145,-11399.171507,-3064.381992
420.191209,-8956.491898,-11695.253884,-2757.943793
420.191536,-5773.606348,-9918.759623,-2834.553343
420.191864,-222.061783,-7476.080014,383.047749
420.192191,5847.626942,-6587.832884,3140.991542
420.192519,7772.162391,-5995.668130,4290.134789
420.192846,5255.462188,-7105.977043,3677.258390
420.193174,444.123565,-9548.656652,1455.581446
420.193501,-4737.318029,-10807.006753,-1915.238745
420.193829,-7031.956449,-11399.171507,-3370.820191
420.194157,-4737.318029,-11621.233289,-1991.848295
420.194484,0.000000,-8734.430116,0.000000
420.194812,5403.503377,-6957.935855,2834.553343
420.195139,9030.512492,-6957.935855,4903.011187
420.195467,5995.668130,-6587.832884,3600.648841
420.195794,1332.370696,-9178.553681,1302.362347
420.196122,-3404.947333,-11251.130318,-1608.800546
420.196449,-6291.750507,-11177.109724,-3064.381992
420.196777,-5477.523971,-11621.233289,-2374.896044
420.197105,-814.226536,-9252.574275,76.609550
420.197432,3849.070898,-6735.874072,2374.896044
420.197760,7846.182985,-6661.853478,4826.401637
420.198087,6217.729913,-7402.059420,4903.011187
420.198415,444.123565,-8734.430116,2834.553343
420.198742,-4959.379811,-10584.944971,0.000000
420.199070,-9030.512492,-12361.439231,-2681.334243
420.199397,-8808.450710,-11473.192101,-2987.772442
420.199725,-4145.153275,-9770.718434,-1302.362347
420.200052,1924.535449,-7698.141797,1378.971896
420.200380,6143.709319,-6143.709319,3753.867940
420.200708,6365.771101,-5995.668130,4213.525239
420.201035,1702.473667,-7772.162391,2221.676944
420.201363,-3701.029710,-9474.636058,-536.266849
420.201690,-7254.018232,-10955.047942,-1915.238745
420.202018,-8808.450710,-12213.398043,-3370.820191
420.202345,-5995.668130,-10214.842000,-2451.505594
420.202673,666.185348,-8364.327145,459.657299
420.203000,6291.750507,-7105.977043,3600.648841
420.203328,8068.244768,-6957.935855,4826.401637
420.203656,5477.523971,-8216.285956,3830.477490
420.203983,-222.061783,-9844.739029,1225.752797
420.204311,-5847.626942,-11695.253884,-1685.410096
420.204638,-7031.956449,-12213.398043,-3064.381992
420.204966,-5107.421000,-11399.171507,-2451.505594
420.205293,518.144159,-8808.450710,-766.095498
420.205621,5699.585753,-7105.977043,2451.505594
420.205948,8068.244768,-6661.853478,3983.696590
420.206276,6661.853478,-7624.121203,4136.915689
420.206604,1850.514855,-9474.636058,1378.971896
420.206931,-4367.215058,-10510.924376,-1685.410096
420.207259,-6735.874072,-12139.377449,-2911.162892
420.207586,-5995.668130,-11695.253884,-2451.505594
420.207914,-1924.535449,-9104.533087,-153.219100
420.208241,3923.091493,-7402.059420,2604.724693
420.208569,7624.121203,-6661.853478,4673.182538
420.208896,6365.771101,-7254.018232,4903.011187
420.209224,1258.350101,-8808.450710,2757.943793
420.209552,-4145.153275,-10140.821405,0.000000
420.209879,-7846.182985,-11399.171507,-2604.724693
420.210207,-7994.224174,-10807.006753,-2911.162892
420.210534,-4663.297435,-9252.574275,-1762.019645
420.210862,1702.473667,-7254.018232,1302.362347
420.211189,5477.523971,-6365.771101,3753.867940
420.211517,4885.359217,-6661.853478,4596.572988
420.211844,1554.432478,-7920.203579,2681.334243
420.212172,-4441.235652,-9844.739029,-612.876398
420.212500,-7920.203579,-11843.295072,-2834.553343
420.212827,-9104.533087,-11843.295072,-3447.429741
420.213155,-5847.626942,-9622.677246,-2451.505594
420.213482,370.102971,-7846.182985,306.438199
420.213810,6291.750507,-6735.874072,3370.820191
420.214137,7476.080014,-5995.668130,4366.744339
420.214465,5181.441594,-7550.100608,3370.820191
420.214792,370.102971,-9548.656652,1072.533697
420.215120,-5847.626942,-10955.047942,-2221.676944
420.215448,-7476.080014,-11991.336260,-2451.505594
420.215775,-4589.276840,-10955.047942,-2604.724693
420.216103,518.144159,-8586.388927,-689.485948
420.216430,6069.688724,-7105.977043,2374.896044
420.216758,9030.512492,-6883.915261,4749.792088
420.217085,6069.688724,-7402.059420,3830.477490
420.217413,1480.411884,-9252.574275,842.705048
420.217740,-3552.988522,-11103.089130,-1149.143247
420.218067,-6809.894666,-11991.336260,-3294.210641
420.218395,-5477.523971,-11103.089130,-2757.943793
420.218722,-666.185348,-8586.388927,-612.876398
420.219050,4589.276840,-6809.894666,1915.238745
420.219377,8068.244768,-6587.832884,4443.353888
420.219705,7105.977043,-7105.977043,4673.182538
420.220032,1702.473667,-9030.512492,2298.286494
420.220360,-3627.009116,-11399.171507,153.219100
420.220687,-8512.368333,-11991.336260,-2528.115143
420.221015,-8438.347739,-11917.315666,-2757.943793
420.221342,-3552.988522,-9326.594869,-1838.629195
420.221670,2294.638420,-7772.162391,612.876398
420.221997,6217.729913,-6439.791695,3217.601092
420.222325,6291.750507,-6217.729913,4596.572988
420.222652,2294.638420,-8586.388927,2374.896044
420.222980,-3478.967927,-9844.739029,-536.266849
420.223307,-7105.977043,-11547.212695,-2911.162892
420.223634,-8290.306550,-12065.356855,-3294.210641
420.223962,-5329.482782,-9844.739029,-2145.067394
420.224289,1036.288319,-7476.080014,-229.828649
420.224617,6365.771101,-7328.038826,3064.381992
420.224944,7031.956449,-6439.791695,3677.258390
420.225272,4663.297435,-8512.368333,3294.210641
420.225599,518.144159,-10658.965565,1302.362347
420.225927,-5477.523971,-11177.109724,-1915.238745
420.226254,-6883.915261,-12583.501014,-2528.115143
420.226582,-4811.338623,-10955.047942,-2451.505594
420.226909,-148.041188,-7994.224174,-995.924147
420.227237,6217.729913,-7031.956449,2451.505594
420.227564,9400.615463,-6143.709319,4519.963438
420.227892,5403.503377,-7105.977043,3983.696590
420.228219,1702.473667,-9400.615463,2145.067394
420.228547,-3923.091493,-10955.047942,-1225.752797
420.228874,-6513.812290,-11991.336260,-2451.505594
420.229201,-5773.606348,-10881.027347,-1532.190996
420.229529,-814.226536,-8660.409521,-306.438199
420.229856,3775.050304,-7105.977043,2451.505594
420.230184,7254.018232,-6513.812290,5132.839837
420.230511,5921.647536,-7476.080014,5439.278036
420.230839,1184.329507,-8660.409521,3217.601092
420.231166,-4885.359217,-10066.800811,459.657299
420.231494,-8364.327145,-11991.336260,-1608.800546
420.231821,-8808.450710,-11029.068536,-2068.457845
420.232149,-4293.194464,-8660.409521,-1072.533697
420.232476,1554.432478,-7179.997637,1915.238745
420.232804,5699.585753,-5995.668130,4060.306139
420.233131,5181.441594,-6291.750507,4519.963438
420.233459,1628.453072,-7772.162391,3064.381992
420.233786,-4441.235652,-9548.656652,-689.485948
420.234114,-8216.285956,-11399.171507,-2221.676944
420.234441,-8586.388927,-12065.356855,-2374.896044
420.234768,-6069.688724,-9696.697840,-2451.505594
420.235096,296.082377,-7328.038826,306.438199
420.235423,5551.544565,-6883.915261,2987.772442
420.235751,6661.853478,-5995.668130,4366.744339
420.236078,5699.585753,-7105.977043,3983.696590
420.236406,222.061783,-10214.842000,1149.143247
420.236733,-5329.482782,-11103.089130,-1838.629195
420.237061,-7105.977043,-12435.459826,-2834.553343
420.237388,-5625.565159,-11325.150913,-2757.943793
420.237716,0.000000,-9400.615463,-306.438199
420.238043,6217.729913,-6883.915261,1915.238745
420.238371,8586.388927,-6883.915261,4060.306139
420.238698,6513.812290,-7254.018232,3294.210641
420.239026,2442.679609,-9474.636058,1378.971896
420.239353,-3034.844362,-11029.068536,-1378.971896
420.239681,-6291.750507,-12139.377449,-2987.772442
420.240008,-6069.688724,-11547.212695,-2987.772442
420.240335,-1184.329507,-9400.615463,-1378.971896
420.240663,3478.967927,-7328.038826,1378.971896
420.240990,7846.182985,-6291.750507,4213.525239
420.241318,6513.812290,-7105.977043,4749.792088
420.241645,2368.659014,-8660.409521,2757.943793
420.241973,-4515.256246,-10807.006753,-383.047749
420.242300,-7550.100608,-12065.356855,-2068.457845
420.242628,-8290.306550,-11769.274478,-2757.943793
420.242955,-4811.338623,-9104.533087,-2604.724693
420.243283,962.267725,-7179.997637,459.657299
420.243610,6587.832884,-6883.915261,3677.258390
420.243938,5921.647536,-5699.585753,4213.525239
420.244265,2664.741391,-7254.018232,2911.162892
420.244593,-2072.576638,-9918.759623,229.828649
420.244920,-7254.018232,-11325.150913,-2528.115143
420.245248,-8882.471304,-12065.356855,-3064.381992
420.245575,-5995.668130,-10362.883188,-2451.505594
420.245902,-666.185348,-8068.244768,76.609550
420.246230,4959.379811,-7402.059420,3294.210641
420.246557,7179.997637,-6217.729913,4903.011187
420.246885,4737.318029,-6735.874072,3370.820191
420.247212,444.123565,-9548.656652,1149.143247
420.247540,-5329.482782,-11399.171507,-1378.971896
420.247867,-7994.224174,-11917.315666,-3524.039291
420.248195,-6661.853478,-11177.109724,-3217.601092
420.248522,-888.247130,-9178.553681,-1225.752797
420.248850,4737.318029,-7550.100608,1072.533697
420.249177,8438.347739,-6587.832884,3753.867940
420.249505,7328.038826,-6957.935855,3830.477490
420.249832,3108.864956,-8882.471304,1915.238745
420.250160,-2368.659014,-10955.047942,-689.485948
420.250487,-6217.729913,-12435.459826,-2681.334243
420.250815,-5847.626942,-11843.295072,-2681.334243
420.251142,-1184.329507,-9474.636058,-1225.752797
420.251469,4515.256246,-7846.182985,2298.286494
420.251797,8734.430116,-7105.977043,4673.182538
420.252124,7624.121203,-7254.018232,5362.668486
420.252452,3478.967927,-8734.430116,3677.258390
420.252779,-3182.885551,-10658.965565,459.657299
420.253107,-6809.894666,-11843.295072,-1302.362347
420.253434,-7994.224174,-10881.027347,-2681.334243
420.253762,-4737.318029,-10066.800811,-1225.752797
420.254089,592.164754,-7624.121203,842.705048
420.254417,5181.441594,-6661.853478,3753.867940
420.254744,6069.688724,-6513.812290,4596.572988
420.255072,2738.761985,-7624.121203,3217.601092
420.255399,-3404.947333,-9844.739029,689.485948
420.255727,-8586.388927,-11251.130318,-2145.067394
