#time,accel_x,accel_y,accel_z
498.846656,0.000000,-9030.512492,536.266849
498.846984,-370.102971,-9104.533087,536.266849
498.847312,0.000000,-9474.636058,689.485948
498.847640,-518.144159,-9030.512492,612.876398
498.847968,0.000000,-9252.574275,459.657299
498.848295,-296.082377,-9030.512492,306.438199
498.848623,-296.082377,-9178.553681,612.876398
498.848951,-370.102971,-8956.491898,766.095498
498.849279,0.000000,-9178.553681,536.266849
498.849607,-296.082377,-9252.574275,689.485948
498.849935,-296.082377,-9030.512492,842.705048
498.850263,-222.061783,-9104.533087,536.266849
498.850591,-296.082377,-9030.512492,536.266849
498.850919,-222.061783,-8956.491898,536.266849
498.851246,-370.102971,-8956.491898,842.705048
498.851574,-148.041188,-9030.512492,459.657299
498.851902,-296.082377,-9178.553681,536.266849
498.852230,-370.102971,-9104.533087,1072.533697
498.852558,-222.061783,-9548.656652,689.485948
498.852886,-296.082377,-8956.491898,536.266849
498.853214,-222.061783,-9252.574275,612.876398
498.853542,-222.061783,-9178.553681,766.095498
498.853870,-296.082377,-9178.553681,766.095498
498.854198,0.000000,-9252.574275,689.485948
498.854525,-370.102971,-9030.512492,459.657299
498.854853,-592.164754,-9030.512492,536.266849
498.855181,-296.082377,-9030.512492,766.095498
498.855509,-222.061783,-9104.533087,383.047749
498.855837,-148.041188,-8512.368333,153.219100
498.856165,74.020594,-8956.491898,612.876398
498.856493,-296.082377,-9252.574275,766.095498
498.856821,-296.082377,-9326.594869,459.657299
498.857149,-222.061783,-8956.491898,612.876398
498.857476,0.000000,-9030.512492,536.266849
498.857804,-222.061783,-9104.533087,536.266849
498.858132,0.000000,-9326.594869,459.657299
498.858460,-296.082377,-9104.533087,766.095498
498.858788,-444.123565,-9030.512492,459.657299
498.859116,-444.123565,-9104.533087,459.657299
498.859444,-148.041188,-9252.574275,229.828649
498.859772,-518.144159,-9030.512492,612.876398
498.860100,0.000000,-8956.491898,536.266849
498.860427,-148.041188,-9178.553681,536.266849
498.860755,-740.205942,-9326.594869,76.609550
498.861083,-1110.308913,-9474.636058,-383.047749
498.861411,-1480.411884,-9548.656652,-153.219100
498.861739,-1258.350101,-9178.553681,-459.657299
498.862067,-740.205942,-8882.471304,-306.438199
498.862395,-296.082377,-9104.533087,-459.657299
498.862723,-962.267725,-9252.574275,229.828649
498.863051,-962.267725,-9178.553681,-1302.362347
498.863378,-1036.288319,-9030.512492,-1149.143247
498.863706,-1110.308913,-8956.491898,-1149.143247
498.864034,-1184.329507,-9104.533087,-1302.362347
498.864362,-1406.391290,-9326.594869,-842.705048
498.864690,0.000000,-9326.594869,-1072.533697
498.865018,-222.061783,-9030.512492,-1225.752797
498.865346,0.000000,-9178.553681,-1378.971896
498.865674,0.000000,-9252.574275,-1378.971896
498.866002,148.041188,-9326.594869,-1608.800546
498.866330,148.041188,-9178.553681,-1455.581446
498.866657,0.000000,-9104.533087,-1608.800546
498.866985,222.061783,-9326.594869,-1685.410096
498.867313,148.041188,-9474.636058,-1608.800546
498.867641,296.082377,-9104.533087,-1532.190996
498.867969,666.185348,-8734.430116,-1302.362347
498.868297,666.185348,-9104.533087,-1378.971896
498.868625,148.041188,-9252.574275,-1608.800546
498.868953,74.020594,-9400.615463,-1915.238745
498.869281,0.000000,-9252.574275,-1608.800546
498.869608,0.000000,-9030.512492,-1532.190996
498.869936,222.061783,-9326.594869,-1838.629195
498.870264,-370.102971,-9252.574275,-1685.410096
498.870592,-296.082377,-9178.553681,-1532.190996
498.870920,-592.164754,-8956.491898,-1762.019645
498.871248,-888.247130,-8734.430116,-1608.800546
498.871576,-1480.411884,-8882.471304,-2374.896044
498.871904,-1850.514855,-9104.533087,-2451.505594
498.872232,-2072.576638,-9178.553681,-2681.334243
498.872559,-2072.576638,-9104.533087,-3140.991542
498.872887,-2220.617826,-8808.450710,-3217.601092
498.873215,-2294.638420,-8882.471304,-3600.648841
498.873543,-1850.514855,-9326.594869,-3600.648841
498.873871,-2072.576638,-8808.450710,-3907.087040
498.874199,-1850.514855,-8586.388927,-3983.696590
498.874527,-1776.494261,-8882.471304,-4366.744339
498.874855,-1628.453072,-8586.388927,-3447.429741
498.875183,-518.144159,-9104.533087,-4060.306139
498.875510,74.020594,-9104.533087,-3677.258390
498.875838,740.205942,-8882.471304,-3294.210641
498.876166,1628.453072,-8956.491898,-2987.772442
498.876494,2516.700203,-9104.533087,-2451.505594
498.876822,2886.803174,-9326.594869,-1915.238745
498.877150,2516.700203,-9474.636058,-1991.848295
498.877478,2220.617826,-9844.739029,-2068.457845
498.877806,1036.288319,-10140.821405,-2604.724693
498.878134,0.000000,-10510.924376,-2604.724693
498.878462,-740.205942,-10658.965565,-3677.258390
498.878789,-1628.453072,-10362.883188,-4136.915689
498.879117,-2368.659014,-9918.759623,-4903.011187
498.879445,-1480.411884,-9400.615463,-4979.620737
498.879773,-444.123565,-8512.368333,-4826.401637
498.880101,888.247130,-7179.997637,-3753.867940
498.880429,2664.741391,-6957.935855,-3370.820191
498.880757,3256.906145,-7105.977043,-2298.286494
498.881085,2590.720797,-7772.162391,-2145.067394
498.881413,740.205942,-8808.450710,-1915.238745
498.881740,-1184.329507,-9844.739029,-2528.115143
498.882068,-3849.070898,-10510.924376,-2221.676944
498.882396,-4367.215058,-11177.109724,-2604.724693
498.882724,-3849.070898,-10807.006753,-2604.724693
498.883052,-518.144159,-8808.450710,-1225.752797
498.883380,4811.338623,-6439.791695,1378.971896
498.883708,9844.739029,-5255.462188,2911.162892
498.884036,10955.047942,-5551.544565,4596.572988
498.884364,7846.182985,-7846.182985,4596.572988
498.884691,2516.700203,-10288.862594,3370.820191
498.885019,-3849.070898,-12139.377449,1302.362347
498.885347,-9326.594869,-13915.871710,-612.876398
498.885675,-12213.398043,-14508.036463,-2298.286494
498.886003,-11991.336260,-13471.748144,-3677.258390
498.886331,-11843.295072,-11843.295072,-4060.306139
498.886659,-4737.318029,-8438.347739,-3753.867940
498.886987,-3849.070898,-5107.421000,-3447.429741
498.887315,666.185348,-3627.009116,-4290.134789
498.887643,296.082377,-4811.338623,-4673.182538
498.887970,-4145.153275,-6291.750507,-5898.935335
498.888298,-7846.182985,-8142.265362,-7354.516781
498.888626,-11325.150913,-9252.574275,-8044.002729
498.888954,-11103.089130,-10214.842000,-8810.098227
498.889282,-8364.327145,-9326.594869,-7431.126331
498.889610,-2516.700203,-7994.224174,-5975.544884
498.889938,4367.215058,-7550.100608,-4519.963438
498.890266,7550.100608,-6587.832884,-3064.381992
498.890594,8808.450710,-7846.182985,-3064.381992
498.890921,6735.874072,-10066.800811,-4673.182538
498.891249,4367.215058,-11473.192101,-5822.325785
498.891577,4663.297435,-11325.150913,-6205.373534
498.891905,7920.203579,-9992.780217,-4903.011187
498.892233,11177.109724,-8512.368333,-2604.724693
498.892561,12953.603985,-9696.697840,-306.438199
498.892889,11991.336260,-10140.821405,-306.438199
498.893217,8512.368333,-10066.800811,-2451.505594
498.893545,7105.977043,-11029.068536,-1532.190996
498.893872,7105.977043,-10214.842000,-1915.238745
498.894200,5699.585753,-11547.212695,-2298.286494
498.894528,1628.453072,-11769.274478,-1991.848295
498.894856,-3923.091493,-13249.686362,-3677.258390
498.895184,-10955.047942,-12805.562797,-5975.544884
498.895512,-12879.583391,-8734.430116,-8120.612279
498.895840,-9104.533087,-4737.318029,-7277.907231
498.896168,-4145.153275,-2072.576638,-5898.935335
498.896496,1628.453072,-888.247130,-3983.696590
498.896823,2294.638420,-1702.473667,-2604.724693
498.897151,2368.659014,-2960.823768,-995.924147
498.897479,-1628.453072,-4219.173869,-842.705048
498.897807,-2664.741391,-5847.626942,-306.438199
498.898135,-3256.906145,-9030.512492,0.000000
498.898463,-3108.864956,-10955.047942,2451.505594
498.898791,-2886.803174,-11769.274478,3447.429741
498.899119,-2738.761985,-11621.233289,5745.716235
498.899447,814.226536,-10436.903782,6971.469032
498.899775,3256.906145,-9992.780217,6588.421283
498.900102,3627.009116,-10955.047942,4673.182538
498.900430,740.205942,-11843.295072,2911.162892
498.900758,-2146.597232,-12065.356855,1455.581446
498.901086,-3404.947333,-10658.965565,1149.143247
498.901414,-1480.411884,-8142.265362,1455.581446
498.901742,666.185348,-7402.059420,1991.848295
498.902070,0.000000,-8364.327145,1838.629195
498.902398,-2072.576638,-9252.574275,1991.848295
498.902726,-5699.585753,-9252.574275,536.266849
498.903053,-8882.471304,-9178.553681,919.314598
498.903381,-5773.606348,-9918.759623,0.000000
498.903709,-5033.400406,-9918.759623,-153.219100
498.904037,-5699.585753,-10584.944971,-766.095498
498.904365,-5699.585753,-9474.636058,-1378.971896
498.904693,-6661.853478,-7624.121203,-1532.190996
498.905021,-4441.235652,-5255.462188,-1378.971896
498.905349,0.000000,-5403.503377,-1378.971896
498.905677,2072.576638,-6957.935855,-2757.943793
498.906004,2738.761985,-8882.471304,-2911.162892
498.906332,3552.988522,-9252.574275,-2528.115143
498.906660,3997.112087,-8734.430116,-1685.410096
498.906988,6957.935855,-10362.883188,153.219100
498.907316,8068.244768,-12509.480420,842.705048
498.907644,7105.977043,-14804.118840,153.219100
498.907971,4367.215058,-15322.262999,689.485948
498.908299,2442.679609,-13027.624579,842.705048
498.908627,2960.823768,-12139.377449,1608.800546
498.908955,3552.988522,-11917.315666,1455.581446
498.909282,3256.906145,-11917.315666,612.876398
498.909610,3182.885551,-11547.212695,1225.752797
498.909938,2146.597232,-8660.409521,0.000000
498.910266,2072.576638,-5329.482782,1072.533697
498.910593,3034.844362,-5107.421000,-229.828649
498.910921,0.000000,-7624.121203,-536.266849
498.911249,-3849.070898,-7994.224174,-1915.238745
498.911576,-6291.750507,-7179.997637,-2221.676944
498.911904,-7031.956449,-6069.688724,-1915.238745
498.912232,-6291.750507,-6291.750507,-1532.190996
498.912560,-5329.482782,-7772.162391,-1225.752797
498.912887,-5107.421000,-8956.491898,-2374.896044
498.913215,-3923.091493,-8142.265362,-1302.362347
498.913543,-2516.700203,-6513.812290,-689.485948
498.913871,-1850.514855,-5847.626942,0.000000
498.914198,-2146.597232,-6883.915261,-383.047749
498.914526,-2220.617826,-9178.553681,-459.657299
498.914854,-2294.638420,-9844.739029,-229.828649
498.915181,-222.061783,-8142.265362,383.047749
498.915509,2368.659014,-7476.080014,1762.019645
498.915837,4071.132681,-8438.347739,2528.115143
498.916165,4145.153275,-10436.903782,2757.943793
498.916492,3775.050304,-11251.130318,2834.553343
498.916820,4293.194464,-9474.636058,2834.553343
498.917148,4885.359217,-8586.388927,3370.820191
498.917476,3775.050304,-8808.450710,3140.991542
498.917803,1184.329507,-10362.883188,2145.067394
498.918131,-444.123565,-10955.047942,2068.457845
498.918459,0.000000,-9474.636058,1532.190996
498.918786,148.041188,-7254.018232,1685.410096
498.919114,-1332.370696,-7105.977043,689.485948
498.919442,-1332.370696,-8512.368333,766.095498
498.919770,-1850.514855,-7772.162391,0.000000
498.920097,-1406.391290,-7624.121203,153.219100
498.920425,74.020594,-6883.915261,306.438199
498.920753,-222.061783,-7402.059420,842.705048
498.921081,-3701.029710,-9474.636058,536.266849
498.921408,-4737.318029,-11251.130318,153.219100
498.921736,-5847.626942,-11103.089130,153.219100
498.922064,-3997.112087,-9622.677246,76.609550
498.922391,-1480.411884,-9178.553681,0.000000
498.922719,-1406.391290,-9622.677246,306.438199
498.923047,-740.205942,-10510.924376,229.828649
498.923375,-148.041188,-9918.759623,919.314598
498.923702,814.226536,-8438.347739,1149.143247
498.924030,1776.494261,-7994.224174,1302.362347
498.924358,1110.308913,-9252.574275,842.705048
498.924686,-1110.308913,-10362.883188,383.047749
498.925013,-1776.494261,-11029.068536,229.828649
498.925341,-666.185348,-10140.821405,153.219100
498.925669,962.267725,-9178.553681,842.705048
498.925996,1628.453072,-9252.574275,1072.533697
498.926324,1332.370696,-10881.027347,766.095498
498.926652,740.205942,-10658.965565,995.924147
498.926980,962.267725,-9474.636058,1149.143247
498.927307,1850.514855,-8586.388927,995.924147
498.927635,1258.350101,-9622.677246,995.924147
498.927963,-666.185348,-11251.130318,689.485948
498.928291,-2368.659014,-11251.130318,153.219100
498.928618,-3404.947333,-9918.759623,306.438199
498.928946,-592.164754,-8586.388927,-229.828649
498.929274,740.205942,-8438.347739,612.876398
498.929601,740.205942,-8808.450710,76.609550
498.929929,222.061783,-8734.430116,0.000000
498.930257,0.000000,-8364.327145,459.657299
498.930585,444.123565,-7698.141797,229.828649
498.930912,444.123565,-7920.203579,153.219100
498.931240,-1110.308913,-9178.553681,0.000000
498.931568,-2368.659014,-10214.842000,-612.876398
498.931896,-2516.700203,-9844.739029,-383.047749
498.932223,-1554.432478,-8438.347739,0.000000
498.932551,0.000000,-7698.141797,536.266849
498.932879,74.020594,-8364.327145,229.828649
498.933206,-370.102971,-9252.574275,76.609550
498.933534,0.000000,-9178.553681,383.047749
498.933862,1036.288319,-7105.977043,689.485948
498.934190,1850.514855,-6809.894666,995.924147
498.934517,1554.432478,-8068.244768,842.705048
498.934845,-518.144159,-9992.780217,612.876398
498.935173,-1332.370696,-10288.862594,229.828649
498.935500,-1110.308913,-8660.409521,842.705048
498.935828,0.000000,-8142.265362,1149.143247
498.936156,1036.288319,-8438.347739,1302.362347
498.936484,296.082377,-9474.636058,766.095498
498.936811,148.041188,-9326.594869,459.657299
498.937139,444.123565,-7846.182985,1991.848295
498.937467,1332.370696,-7179.997637,1455.581446
498.937795,0.000000,-8216.285956,1762.019645
498.938122,-962.267725,-9326.594869,919.314598
498.938450,-3034.844362,-10658.965565,536.266849
498.938778,-2738.761985,-9178.553681,612.876398
498.939105,-1184.329507,-7994.224174,306.438199
498.939433,-370.102971,-8142.265362,536.266849
498.939761,-518.144159,-9104.533087,0.000000
498.940089,-962.267725,-9918.759623,0.000000
498.940416,-814.226536,-8512.368333,153.219100
498.940744,814.226536,-7179.997637,459.657299
498.941072,1554.432478,-7328.038826,689.485948
498.941400,888.247130,-8956.491898,76.609550
498.941727,-740.205942,-10362.883188,0.000000
498.942055,-1924.535449,-10288.862594,76.609550
498.942383,-740.205942,-9400.615463,459.657299
498.942710,148.041188,-9252.574275,612.876398
498.943038,296.082377,-10288.862594,689.485948
498.943366,0.000000,-11621.233289,459.657299
498.943694,0.000000,-10510.924376,536.266849
498.944021,1406.391290,-9326.594869,995.924147
498.944349,2072.576638,-8808.450710,1532.190996
498.944677,1406.391290,-9400.615463,1378.971896
498.945005,-444.123565,-11177.109724,1072.533697
498.945332,-2368.659014,-11473.192101,536.266849
498.945660,-2146.597232,-10066.800811,0.000000
498.945988,-1406.391290,-9474.636058,1072.533697
498.946315,148.041188,-9252.574275,612.876398
498.946643,-740.205942,-10066.800811,383.047749
498.946971,-1480.411884,-10214.842000,383.047749
498.947299,-296.082377,-8956.491898,1532.190996
498.947626,1036.288319,-7179.997637,1149.143247
498.947954,1036.288319,-7920.203579,1072.533697
498.948282,0.000000,-9696.697840,1072.533697
498.948610,-2886.803174,-10955.047942,153.219100
498.948937,-2442.679609,-10140.821405,229.828649
498.949265,-1036.288319,-8142.265362,689.485948
498.949593,-370.102971,-7920.203579,689.485948
498.949920,-222.061783,-9104.533087,842.705048
498.950248,-740.205942,-9696.697840,689.485948
498.950576,-296.082377,-8512.368333,1149.143247
498.950904,1258.350101,-7105.977043,1149.143247
498.951231,1628.453072,-7179.997637,1532.190996
498.951559,518.144159,-8882.471304,766.095498
498.951887,-1258.350101,-10214.842000,229.828649
498.952215,-1998.556043,-9474.636058,229.828649
498.952542,-370.102971,-7994.224174,842.705048
498.952870,592.164754,-7920.203579,1072.533697
498.953198,518.144159,-8956.491898,842.705048
498.953525,-296.082377,-9770.718434,459.657299
498.953853,-592.164754,-9622.677246,536.266849
498.954181,74.020594,-8142.265362,1072.533697
498.954509,1036.288319,-7476.080014,1072.533697
498.954836,1258.350101,-8660.409521,1149.143247
498.955164,-740.205942,-10140.821405,0.000000
498.955492,-2146.597232,-9770.718434,-229.828649
498.955820,-1924.535449,-8364.327145,76.609550
498.956147,-148.041188,-7254.018232,0.000000
498.956475,296.082377,-7624.121203,-306.438199
498.956803,222.061783,-8364.327145,-306.438199
498.957130,-370.102971,-8734.430116,-459.657299
498.957458,962.267725,-7994.224174,76.609550
498.957786,2072.576638,-7179.997637,612.876398
498.958114,2146.597232,-7920.203579,612.876398
498.958441,888.247130,-9548.656652,153.219100
498.958769,-1036.288319,-11103.089130,0.000000
498.959097,-1480.411884,-11103.089130,306.438199
498.959425,-518.144159,-9474.636058,536.266849
498.959752,148.041188,-9326.594869,842.705048
498.960080,222.061783,-10436.903782,612.876398
498.960408,-592.164754,-11325.150913,229.828649
498.960735,-444.123565,-10288.862594,383.047749
498.961063,740.205942,-8364.327145,842.705048
498.961391,1554.432478,-8142.265362,919.314598
498.961719,444.123565,-9548.656652,536.266849
498.962046,-1776.494261,-10881.027347,0.000000
498.962374,-3108.864956,-10807.006753,-306.438199
498.962702,-1924.535449,-8808.450710,0.000000
498.963029,-518.144159,-8512.368333,229.828649
498.963357,-296.082377,-9030.512492,383.047749
498.963685,-444.123565,-10288.862594,612.876398
498.964013,-1110.308913,-9992.780217,842.705048
498.964340,-222.061783,-8808.450710,612.876398
498.964668,518.144159,-7624.121203,919.314598
498.964996,370.102971,-8438.347739,1302.362347
498.965324,-1184.329507,-9918.759623,766.095498
498.965651,-2146.597232,-10510.924376,383.047749
498.965979,-1850.514855,-9400.615463,689.485948
498.966307,74.020594,-7920.203579,1455.581446
498.966634,666.185348,-7624.121203,842.705048
498.966962,444.123565,-9178.553681,919.314598
498.967290,0.000000,-10066.800811,689.485948
498.967618,370.102971,-9400.615463,1149.143247
498.967945,1110.308913,-7846.182985,1532.190996
498.968273,1184.329507,-8512.368333,1608.800546
498.968601,-1480.411884,-10658.965565,689.485948
498.968929,-3552.988522,-11547.212695,153.219100
498.969256,-3849.070898,-10288.862594,0.000000
498.969584,-2220.617826,-8068.244768,0.000000
498.969912,-148.041188,-7624.121203,383.047749
498.970239,518.144159,-8142.265362,229.828649
498.970567,-296.082377,-9104.533087,229.828649
498.970895,222.061783,-8216.285956,153.219100
498.971223,1258.350101,-7031.956449,306.438199
498.971550,1776.494261,-6661.853478,612.876398
498.971878,962.267725,-8068.244768,612.876398
498.972206,-592.164754,-10436.903782,536.266849
498.972534,-1776.494261,-10288.862594,383.047749
498.972861,0.000000,-9326.594869,766.095498
498.973189,1332.370696,-7994.224174,995.924147
498.973517,1702.473667,-9178.553681,1532.190996
498.973844,1554.432478,-10140.821405,1302.362347
498.974172,1480.411884,-9548.656652,1149.143247
498.974500,2072.576638,-8512.368333,1762.019645
498.974828,3182.885551,-7550.100608,2604.724693
498.975155,2072.576638,-8438.347739,1532.190996
498.975483,-444.123565,-9992.780217,1149.143247
498.975811,-2294.638420,-10732.986159,306.438199
498.976139,-2960.823768,-9474.636058,383.047749
498.976466,-1628.453072,-8290.306550,612.876398
498.976794,-1480.411884,-7846.182985,-306.438199
498.977122,-2072.576638,-9104.533087,0.000000
498.977449,-2664.741391,-9474.636058,-536.266849
498.977777,-2220.617826,-7772.162391,-536.266849
498.978105,-962.267725,-7179.997637,0.000000
498.978433,-518.144159,-6883.915261,-76.609550
498.978760,-2072.576638,-8290.306550,-306.438199
498.979088,-3478.967927,-9696.697840,-919.314598
498.979416,-3849.070898,-9326.594869,-995.924147
498.979744,-2146.597232,-8216.285956,-536.266849
498.980071,-592.164754,-7698.141797,229.828649
498.980399,296.082377,-9252.574275,0.000000
498.980727,222.061783,-9918.759623,153.219100
498.981054,888.247130,-9474.636058,306.438199
498.981382,2960.823768,-8660.409521,1378.971896
498.981710,3997.112087,-8142.265362,1608.800546
498.982038,3552.988522,-9474.636058,1455.581446
498.982365,740.205942,-11399.171507,612.876398
498.982693,-666.185348,-11695.253884,306.438199
498.983021,0.000000,-10288.862594,383.047749
498.983349,1110.308913,-9474.636058,995.924147
498.983676,1258.350101,-9548.656652,383.047749
498.984004,444.123565,-10658.965565,306.438199
498.984332,444.123565,-10066.800811,229.828649
498.984659,518.144159,-8808.450710,459.657299
498.984987,1554.432478,-7698.141797,459.657299
498.985315,1628.453072,-8586.388927,689.485948
498.985643,-1184.329507,-10288.862594,153.219100
498.985970,-3182.885551,-10732.986159,0.000000
498.986298,-3034.844362,-9844.739029,0.000000
498.986626,-1850.514855,-8364.327145,306.438199
498.986954,-222.061783,-7994.224174,995.924147
498.987281,-296.082377,-9326.594869,1072.533697
498.987609,74.020594,-10066.800811,995.924147
498.987937,444.123565,-8882.471304,1532.190996
498.988264,1776.494261,-7920.203579,2221.676944
498.988592,962.267725,-8290.306550,2451.505594
498.988920,-296.082377,-10658.965565,1608.800546
498.989248,-2664.741391,-11843.295072,919.314598
498.989575,-3256.906145,-11325.150913,995.924147
498.989903,-2516.700203,-9770.718434,1149.143247
498.990231,-1184.329507,-8956.491898,1072.533697
498.990558,-1110.308913,-9696.697840,1072.533697
498.990886,-1628.453072,-9844.739029,0.000000
498.991214,-1258.350101,-9326.594869,76.609550
498.991542,-370.102971,-7105.977043,229.828649
498.991869,518.144159,-6439.791695,459.657299
498.992197,-222.061783,-7550.100608,0.000000
498.992525,-1850.514855,-8660.409521,-153.219100
498.992853,-2960.823768,-9178.553681,-153.219100
498.993180,-2072.576638,-7550.100608,0.000000
498.993508,0.000000,-6957.935855,919.314598
498.993836,888.247130,-7179.997637,1302.362347
498.994163,1406.391290,-8512.368333,1838.629195
498.994491,1332.370696,-8956.491898,1685.410096
498.994819,2146.597232,-8068.244768,2145.067394
498.995147,3182.885551,-7402.059420,2221.676944
498.995474,2368.659014,-7772.162391,2451.505594
498.995802,592.164754,-9770.718434,1072.533697
498.996130,-1406.391290,-10955.047942,383.047749
498.996458,-1776.494261,-9622.677246,76.609550
498.996785,-888.247130,-8660.409521,229.828649
498.997113,-296.082377,-8586.388927,76.609550
498.997441,-962.267725,-9474.636058,-383.047749
498.997768,-1998.556043,-10140.821405,-689.485948
498.998096,-1554.432478,-8956.491898,-612.876398
498.998424,-888.247130,-7402.059420,-459.657299
498.998752,0.000000,-7105.977043,-383.047749
498.999079,-888.247130,-8068.244768,0.000000
498.999407,-3034.844362,-9104.533087,-919.314598
498.999735,-3997.112087,-8660.409521,-995.924147
499.000063,-2738.761985,-7254.018232,-689.485948
499.000390,-1110.308913,-6957.935855,-383.047749
499.000718,-370.102971,-7476.080014,-612.876398
499.001046,0.000000,-8882.471304,0.000000
499.001373,444.123565,-8512.368333,76.609550
499.001701,1850.514855,-7846.182985,766.095498
499.002029,3923.091493,-7698.141797,1532.190996
499.002357,2220.617826,-7772.162391,1302.362347
499.002684,2072.576638,-11843.295072,1149.143247
499.003012,222.061783,-12065.356855,536.266849
499.003340,0.000000,-11473.192101,536.266849
499.003668,740.205942,-10436.903782,0.000000
499.003995,1258.350101,-11103.089130,612.876398
499.004323,518.144159,-11917.315666,0.000000
499.004651,-444.123565,-12657.521608,229.828649
499.004978,0.000000,-10436.903782,459.657299
499.005306,444.123565,-8734.430116,153.219100
499.005634,888.247130,-9104.533087,766.095498
499.005962,-740.205942,-9770.718434,229.828649
499.006289,-2664.741391,-10658.965565,-153.219100
499.006617,-3256.906145,-9178.553681,-383.047749
499.006945,-1554.432478,-7698.141797,153.219100
499.007273,-148.041188,-7254.018232,383.047749
499.007600,-148.041188,-7994.224174,766.095498
499.007928,0.000000,-9474.636058,689.485948
499.008256,148.041188,-9178.553681,1762.019645
499.008583,1480.411884,-8216.285956,2298.286494
499.008911,1776.494261,-8734.430116,2681.334243
499.009239,592.164754,-10362.883188,2528.115143
499.009567,-1406.391290,-11769.274478,1378.971896
499.009894,-2072.576638,-11695.253884,1455.581446
499.010222,-1480.411884,-10362.883188,1685.410096
499.010550,0.000000,-9696.697840,1608.800546
499.010878,-296.082377,-9992.780217,1762.019645
499.011205,-740.205942,-11325.150913,1302.362347
499.011533,-1480.411884,-10066.800811,612.876398
499.011861,-888.247130,-8660.409521,995.924147
499.012189,0.000000,-7846.182985,1225.752797
499.012516,-518.144159,-8364.327145,919.314598
499.012844,-2442.679609,-9548.656652,306.438199
499.013172,-3701.029710,-9622.677246,0.000000
499.013499,-2886.803174,-7846.182985,0.000000
499.013827,-1258.350101,-6291.750507,383.047749
499.014155,222.061783,-6513.812290,689.485948
499.014483,148.041188,-7328.038826,842.705048
499.014810,296.082377,-7698.141797,842.705048
499.015138,962.267725,-6735.874072,1225.752797
499.015466,2442.679609,-5921.647536,1532.190996
499.015794,2886.803174,-7105.977043,1455.581446
499.016121,1036.288319,-8734.430116,1149.143247
499.016449,-592.164754,-10510.924376,612.876398
499.016777,-444.123565,-9770.718434,689.485948
499.017105,814.226536,-8512.368333,536.266849
499.017432,1702.473667,-8586.388927,612.876398
499.017760,1332.370696,-9844.739029,229.828649
499.018088,296.082377,-10584.944971,0.000000
499.018415,-148.041188,-9474.636058,-306.438199
499.018743,370.102971,-8068.244768,0.000000
499.019071,814.226536,-7846.182985,153.219100
499.019399,-518.144159,-9400.615463,-229.828649
499.019726,-2960.823768,-9992.780217,-1225.752797
499.020054,-3701.029710,-9030.512492,-1608.800546
499.020382,-2812.782580,-7476.080014,-1225.752797
499.020710,-1406.391290,-6735.874072,-995.924147
499.021037,-148.041188,-7031.956449,-766.095498
499.021365,-888.247130,-8068.244768,-842.705048
499.021693,370.102971,-8142.265362,-459.657299
499.022021,1184.329507,-7105.977043,306.438199
499.022348,2294.638420,-6957.935855,612.876398
499.022676,2146.597232,-8512.368333,766.095498
499.023004,444.123565,-10584.944971,612.876398
499.023331,-592.164754,-11473.192101,229.828649
499.023659,74.020594,-11177.109724,612.876398
499.023987,1628.453072,-10362.883188,1455.581446
499.024315,2220.617826,-10436.903782,1455.581446
499.024642,1924.535449,-11843.295072,1378.971896
499.024970,592.164754,-12139.377449,842.705048
499.025298,0.000000,-10510.924376,842.705048
499.025626,518.144159,-9474.636058,995.924147
499.025953,518.144159,-9400.615463,842.705048
499.026281,-1850.514855,-10436.903782,0.000000
499.026609,-3775.050304,-10658.965565,-306.438199
499.026937,-3775.050304,-9622.677246,-306.438199
499.027264,-2368.659014,-7920.203579,0.000000
499.027592,-592.164754,-7328.038826,766.095498
499.027920,-370.102971,-8290.306550,919.314598
499.028247,-888.247130,-9104.533087,1072.533697
499.028575,-444.123565,-8882.471304,1302.362347
499.028903,444.123565,-7624.121203,2145.067394
499.029231,1036.288319,-7698.141797,2298.286494
499.029558,592.164754,-9474.636058,2374.896044
499.029886,-1184.329507,-11177.109724,2221.676944
499.030214,-1554.432478,-10807.006753,1762.019645
499.030542,-740.205942,-9844.739029,2451.505594
499.030869,148.041188,-9326.594869,2374.896044
499.031197,0.000000,-10362.883188,2068.457845
499.031525,-1258.350101,-11251.130318,919.314598
499.031853,-1184.329507,-10807.006753,1072.533697
499.032180,-740.205942,-9548.656652,1225.752797
499.032508,222.061783,-8660.409521,1149.143247
499.032836,-814.226536,-9252.574275,995.924147
499.033164,-2664.741391,-9918.759623,0.000000
499.033491,-3923.091493,-9622.677246,-229.828649
499.033819,-3256.906145,-8068.244768,-306.438199
499.034147,-2368.659014,-6735.874072,-612.876398
499.034474,-888.247130,-6513.812290,0.000000
499.034802,-666.185348,-7476.080014,0.000000
499.035130,-1036.288319,-7254.018232,536.266849
499.035458,740.205942,-6735.874072,766.095498
499.035785,2220.617826,-5921.647536,1455.581446
499.036113,2738.761985,-6513.812290,1532.190996
499.036441,1776.494261,-8586.388927,1072.533697
499.036769,222.061783,-9696.697840,383.047749
499.037096,0.000000,-9400.615463,76.609550
499.037424,1480.411884,-8882.471304,766.095498
499.037752,2146.597232,-8660.409521,612.876398
499.038080,1702.473667,-9992.780217,0.000000
499.038407,814.226536,-11029.068536,-153.219100
499.038735,148.041188,-9992.780217,-612.876398
499.039063,1036.288319,-8882.471304,-383.047749
499.039390,1036.288319,-8660.409521,-306.438199
499.039718,-518.144159,-9770.718434,-689.485948
499.040046,-3330.926739,-11029.068536,-2145.067394
499.040374,-4663.297435,-9918.759623,-2145.067394
499.040701,-3404.947333,-8068.244768,-2451.505594
499.041029,-1332.370696,-6957.935855,-1225.752797
499.041357,0.000000,-7402.059420,-1378.971896
499.041685,-518.144159,-8512.368333,-1149.143247
499.042012,-518.144159,-8438.347739,-459.657299
499.042340,1036.288319,-6735.874072,-612.876398
499.042668,2368.659014,-6143.709319,383.047749
499.042996,2590.720797,-7698.141797,766.095498
499.043323,1332.370696,-9992.780217,536.266849
499.043651,222.061783,-11029.068536,919.314598
499.043979,888.247130,-10362.883188,919.314598
499.044306,1776.494261,-9548.656652,1838.629195
499.044634,2220.617826,-10362.883188,1608.800546
499.044962,1554.432478,-11843.295072,1455.581446
499.045290,444.123565,-12287.418637,1225.752797
499.045617,740.205942,-10732.986159,2145.067394
499.045945,1332.370696,-9770.718434,1685.410096
499.046273,444.123565,-10066.800811,1762.019645
499.046601,-1036.288319,-11325.150913,1225.752797
499.046928,-3627.009116,-11843.295072,383.047749
499.047256,-4515.256246,-10436.903782,306.438199
499.047584,-3404.947333,-7920.203579,76.609550
499.047912,-2294.638420,-7550.100608,459.657299
499.048239,-1776.494261,-7920.203579,766.095498
499.048567,-1924.535449,-8068.244768,919.314598
499.048895,-1998.556043,-7328.038826,1225.752797
499.049222,0.000000,-5921.647536,1915.238745
499.049550,518.144159,-6217.729913,2374.896044
499.049878,0.000000,-7698.141797,2221.676944
499.050206,-1258.350101,-9770.718434,2145.067394
499.050533,-2294.638420,-10140.821405,2068.457845
499.050861,-1554.432478,-9548.656652,2681.334243
499.051189,-370.102971,-8956.491898,2145.067394
499.051517,-148.041188,-9622.677246,1915.238745
499.051844,-518.144159,-10955.047942,1608.800546
499.052172,-888.247130,-10881.027347,1225.752797
499.052500,-444.123565,-8956.491898,995.924147
499.052828,592.164754,-8068.244768,919.314598
499.053155,74.020594,-9030.512492,536.266849
499.053483,-2368.659014,-10510.924376,-459.657299
499.053811,-4293.194464,-10955.047942,-995.924147
499.054139,-4515.256246,-8734.430116,-1072.533697
499.054466,-2072.576638,-7698.141797,-919.314598
499.054794,-962.267725,-7328.038826,-536.266849
499.055122,-370.102971,-8216.285956,-689.485948
499.055449,-666.185348,-8364.327145,-383.047749
499.055777,962.267725,-6661.853478,76.609550
499.056105,2368.659014,-5625.565159,766.095498
499.056433,3330.926739,-6069.688724,612.876398
499.056760,2812.782580,-8364.327145,536.266849
499.057088,1036.288319,-9770.718434,383.047749
499.057416,888.247130,-9770.718434,842.705048
499.057744,1628.453072,-8882.471304,306.438199
499.058071,2442.679609,-9252.574275,919.314598
499.058399,2220.617826,-10658.965565,229.828649
499.058727,1480.411884,-11991.336260,229.828649
499.059055,1406.391290,-11251.130318,0.000000
499.059382,1924.535449,-9992.780217,459.657299
499.059710,2368.659014,-9474.636058,153.219100
499.060038,962.267725,-10510.924376,0.000000
499.060365,-1628.453072,-11843.295072,-919.314598
499.060693,-3478.967927,-11621.233289,-1532.190996
499.061021,-3552.988522,-9474.636058,-1302.362347
499.061349,-2590.720797,-8142.265362,-1455.581446
499.061676,-1850.514855,-8216.285956,-1149.143247
499.062004,-2442.679609,-8882.471304,-1149.143247
499.062332,-1776.494261,-8586.388927,-766.095498
499.062660,-592.164754,-6957.935855,-766.095498
499.062987,888.247130,-5699.585753,76.609550
499.063315,1776.494261,-6587.832884,612.876398
499.063643,296.082377,-8512.368333,995.924147
499.063971,-962.267725,-9918.759623,766.095498
499.064298,-1110.308913,-9548.656652,919.314598
499.064626,592.164754,-9104.533087,1915.238745
499.064954,1258.350101,-9474.636058,2374.896044
499.065281,1480.411884,-10955.047942,2298.286494
499.065609,1036.288319,-11769.274478,2374.896044
499.065937,1702.473667,-10881.027347,2604.724693
499.066265,2442.679609,-9474.636058,3064.381992
499.066592,2146.597232,-9622.677246,2911.162892
499.066920,-666.185348,-10881.027347,1915.238745
499.067248,-3997.112087,-11399.171507,1072.533697
499.067576,-4441.235652,-9844.739029,153.219100
499.067903,-3701.029710,-7772.162391,383.047749
499.068231,-2442.679609,-7105.977043,919.314598
499.068559,-2368.659014,-7105.977043,306.438199
499.068887,-2442.679609,-7476.080014,153.219100
499.069214,-2812.782580,-6661.853478,459.657299
499.069542,-888.247130,-5181.441594,842.705048
499.069870,0.000000,-4441.235652,842.705048
499.070197,0.000000,-5847.626942,1149.143247
499.070525,-1628.453072,-8068.244768,919.314598
499.070853,-2738.761985,-8956.491898,689.485948
499.071181,-1702.473667,-8142.265362,842.705048
499.071508,74.020594,-7920.203579,1225.752797
499.071836,1110.308913,-8734.430116,1302.362347
499.072164,1036.288319,-10732.986159,1072.533697
499.072492,1258.350101,-11177.109724,995.924147
499.072819,2368.659014,-10140.821405,1225.752797
499.073147,3478.967927,-9474.636058,1532.190996
499.073475,2738.761985,-10214.842000,689.485948
499.073803,444.123565,-11769.274478,-153.219100
499.074130,-1480.411884,-12583.501014,-995.924147
499.074458,-1628.453072,-11251.130318,-766.095498
499.074786,-740.205942,-9474.636058,-383.047749
499.075113,74.020594,-8512.368333,-766.095498
499.075441,74.020594,-9400.615463,-536.266849
499.075769,-592.164754,-9992.780217,-612.876398
499.076097,0.000000,-8216.285956,-229.828649
499.076424,1554.432478,-6587.832884,306.438199
499.076752,2664.741391,-6365.771101,229.828649
499.077080,1406.391290,-7920.203579,919.314598
499.077408,-666.185348,-9474.636058,229.828649
499.077735,-1702.473667,-9400.615463,459.657299
499.078063,-1332.370696,-8512.368333,689.485948
499.078391,74.020594,-8734.430116,1455.581446
499.078719,74.020594,-9844.739029,536.266849
499.079046,74.020594,-11103.089130,612.876398
499.079374,296.082377,-10732.986159,919.314598
499.079702,1184.329507,-9474.636058,1072.533697
499.080030,2294.638420,-9474.636058,1225.752797
499.080357,888.247130,-10214.842000,766.095498
499.080685,-1776.494261,-11769.274478,-383.047749
499.081013,-3775.050304,-11695.253884,-766.095498
499.081340,-3701.029710,-10362.883188,-612.876398
499.081668,-2664.741391,-8956.491898,-229.828649
499.081996,-1850.514855,-8734.430116,229.828649
499.082324,-2368.659014,-9548.656652,0.000000
499.082651,-2146.597232,-9030.512492,0.000000
499.082979,-814.226536,-7402.059420,153.219100
499.083307,888.247130,-6069.688724,919.314598
499.083635,1628.453072,-5921.647536,1532.190996
499.083962,296.082377,-7994.224174,1225.752797
499.084290,-1110.308913,-9326.594869,1072.533697
499.084618,-1480.411884,-8956.491898,1072.533697
499.084946,-222.061783,-8068.244768,1455.581446
499.085273,1110.308913,-8216.285956,995.924147
499.085601,1406.391290,-9326.594869,1378.971896
499.085929,1036.288319,-10807.006753,1608.800546
499.086256,1628.453072,-10066.800811,1838.629195
499.086584,2368.659014,-8956.491898,2145.067394
499.086912,2368.659014,-9104.533087,2221.676944
499.087240,370.102971,-10510.924376,766.095498
499.087567,-2590.720797,-11991.336260,0.000000
499.087895,-3478.967927,-10881.027347,-306.438199
499.088223,-2812.782580,-9252.574275,0.000000
499.088551,-1110.308913,-8364.327145,0.000000
499.088878,-1036.288319,-8438.347739,306.438199
499.089206,-1998.556043,-8808.450710,-459.657299
499.089534,-1850.514855,-7846.182985,-383.047749
499.089862,-444.123565,-6143.709319,-153.219100
499.090189,962.267725,-5403.503377,306.438199
499.090517,740.205942,-6513.812290,919.314598
499.090845,-1036.288319,-8512.368333,306.438199
499.091172,-2072.576638,-9178.553681,229.828649
499.091500,-1776.494261,-8438.347739,383.047749
499.091828,0.000000,-7846.182985,995.924147
499.092156,1258.350101,-8734.430116,1072.533697
499.092483,1776.494261,-10362.883188,766.095498
499.092811,1258.350101,-10807.006753,919.314598
499.093139,2072.576638,-9992.780217,1149.143247
499.093467,3034.844362,-9104.533087,919.314598
499.093794,2664.741391,-9326.594869,1149.143247
499.094122,1406.391290,-11251.130318,229.828649
499.094450,-1110.308913,-12287.418637,-306.438199
499.094778,-1628.453072,-11399.171507,0.000000
499.095105,-518.144159,-9844.739029,-153.219100
499.095433,0.000000,-9178.553681,229.828649
499.095761,-518.144159,-9474.636058,306.438199
499.096088,-1036.288319,-10436.903782,76.609550
499.096416,-962.267725,-9104.533087,153.219100
499.096744,148.041188,-7476.080014,919.314598
499.097072,740.205942,-6883.915261,919.314598
499.097399,74.020594,-7402.059420,1072.533697
499.097727,-1702.473667,-8882.471304,229.828649
499.098055,-2590.720797,-8586.388927,383.047749
499.098383,-2146.597232,-7772.162391,383.047749
499.098710,-814.226536,-7698.141797,536.266849
499.099038,0.000000,-8438.347739,536.266849
499.099366,-222.061783,-9696.697840,766.095498
499.099694,0.000000,-10066.800811,842.705048
499.100021,1110.308913,-9104.533087,1378.971896
499.100349,1554.432478,-8956.491898,1685.410096
499.100677,1110.308913,-9918.759623,1302.362347
499.101005,-814.226536,-11177.109724,1915.238745
499.101332,-2664.741391,-11843.295072,536.266849
499.101660,-2368.659014,-10510.924376,766.095498
499.101988,-1184.329507,-9474.636058,1225.752797
499.102315,-444.123565,-9030.512492,1378.971896
499.102643,-1036.288319,-9548.656652,1072.533697
499.102971,-1924.535449,-9548.656652,459.657299
499.103299,-962.267725,-7402.059420,536.266849
499.103626,370.102971,-5995.668130,995.924147
499.103954,1332.370696,-5699.585753,842.705048
499.104282,0.000000,-6809.894666,689.485948
499.104610,-1776.494261,-8438.347739,229.828649
499.104937,-2368.659014,-7994.224174,-306.438199
499.105265,-1258.350101,-7105.977043,0.000000
499.105593,518.144159,-7179.997637,459.657299
499.105921,1110.308913,-8364.327145,612.876398
499.106248,666.185348,-10436.903782,383.047749
499.106576,592.164754,-9918.759623,689.485948
499.106904,1628.453072,-9030.512492,1072.533697
499.107231,1998.556043,-8808.450710,1072.533697
499.107559,1036.288319,-10362.883188,536.266849
499.107887,-740.205942,-11843.295072,0.000000
499.108215,-2146.597232,-11399.171507,-689.485948
499.108542,-1036.288319,-9770.718434,-306.438199
499.108870,444.123565,-9178.553681,-153.219100
499.109198,444.123565,-9252.574275,-76.609550
499.109526,-370.102971,-10288.862594,-766.095498
499.109853,-1036.288319,-9844.739029,-995.924147
499.110181,-222.061783,-8068.244768,-689.485948
499.110509,1110.308913,-7328.038826,76.609550
499.110836,888.247130,-8142.265362,0.000000
499.111164,-740.205942,-9696.697840,459.657299
499.111491,-2368.659014,-10066.800811,-536.266849
499.111819,-2516.700203,-9030.512492,-536.266849
499.112146,-666.185348,-8512.368333,0.000000
499.112474,592.164754,-8586.388927,153.219100
499.112801,1110.308913,-9992.780217,536.266849
499.113129,1258.350101,-10807.006753,766.095498
499.113456,1110.308913,-9844.739029,766.095498
499.113784,2368.659014,-9178.553681,1378.971896
499.114111,2220.617826,-10066.800811,1532.190996
499.114439,1406.391290,-11473.192101,1915.238745
499.114766,-592.164754,-12213.398043,1225.752797
499.115093,-1036.288319,-11843.295072,1225.752797
499.115421,74.020594,-10510.924376,1685.410096
499.115748,370.102971,-9548.656652,1991.848295
499.116076,222.061783,-10140.821405,1378.971896
499.116403,-888.247130,-9918.759623,306.438199
499.116731,-1110.308913,-9178.553681,1225.752797
499.117058,0.000000,-7476.080014,1838.629195
499.117386,592.164754,-7031.956449,1991.848295
499.117713,-666.185348,-7846.182985,1762.019645
499.118041,-2812.782580,-9178.553681,1455.581446
499.118368,-4737.318029,-8734.430116,229.828649
499.118696,-3849.070898,-7624.121203,536.266849
499.119023,-1924.535449,-6735.874072,766.095498
499.119351,-1184.329507,-7105.977043,1302.362347
499.119678,-962.267725,-9326.594869,1608.800546
499.120006,-1036.288319,-8808.450710,1302.362347
499.120333,-740.205942,-8142.265362,1149.143247
499.120661,74.020594,-7624.121203,1532.190996
499.120988,0.000000,-8734.430116,995.924147
499.121315,-1850.514855,-10288.862594,536.266849
499.121643,-2590.720797,-10955.047942,229.828649
499.121970,-1702.473667,-9326.594869,0.000000
499.122298,370.102971,-8142.265362,842.705048
499.122625,1480.411884,-8438.347739,1072.533697
499.122953,1110.308913,-9030.512492,612.876398
499.123280,518.144159,-9178.553681,229.828649
499.123608,1110.308913,-7920.203579,306.438199
499.123935,2220.617826,-6661.853478,842.705048
499.124263,2368.659014,-7476.080014,995.924147
499.124590,740.205942,-8882.471304,612.876398
499.124918,-1110.308913,-10140.821405,0.000000
499.125245,-1924.535449,-8956.491898,-306.438199
499.125573,-666.185348,-8142.265362,76.609550
499.125900,592.164754,-7846.182985,153.219100
499.126228,888.247130,-8660.409521,0.000000
499.126555,222.061783,-10214.842000,-306.438199
499.126883,0.000000,-8956.491898,-383.047749
499.127210,888.247130,-8068.244768,0.000000
499.127538,1924.535449,-7846.182985,153.219100
499.127865,1110.308913,-8882.471304,0.000000
499.128192,-1036.288319,-10362.883188,-459.657299
499.128520,-2220.617826,-10807.006753,-612.876398
499.128847,-1702.473667,-9918.759623,-383.047749
499.129175,-444.123565,-8956.491898,76.609550
499.129502,0.000000,-9326.594869,76.609550
499.129830,-740.205942,-10362.883188,0.000000
499.130157,-814.226536,-10436.903782,229.828649
499.130485,296.082377,-8660.409521,306.438199
499.130812,1480.411884,-7402.059420,1455.581446
499.131140,1628.453072,-8142.265362,1302.362347
499.131467,-148.041188,-9400.615463,689.485948
499.131795,-1998.556043,-10214.842000,229.828649
499.132122,-1924.535449,-9178.553681,306.438199
499.132450,-592.164754,-8290.306550,612.876398
499.132777,666.185348,-8512.368333,995.924147
499.133105,148.041188,-9474.636058,842.705048
499.133432,-370.102971,-10362.883188,766.095498
499.133760,222.061783,-9252.574275,612.876398
499.134087,740.205942,-8290.306550,1455.581446
499.134415,814.226536,-8290.306550,1225.752797
499.134742,-444.123565,-9696.697840,766.095498
499.135069,-2368.659014,-10955.047942,612.876398
499.135397,-2072.576638,-9992.780217,0.000000
499.135724,-814.226536,-8808.450710,766.095498
499.136052,592.164754,-8290.306550,1608.800546
499.136379,666.185348,-9030.512492,1608.800546
499.136707,0.000000,-9992.780217,1378.971896
499.137034,148.041188,-9104.533087,1455.581446
499.137362,814.226536,-8142.265362,1991.848295
499.137689,1554.432478,-8216.285956,2298.286494
499.138017,0.000000,-9400.615463,1915.238745
499.138344,-2146.597232,-11029.068536,1225.752797
499.138672,-3552.988522,-10658.965565,229.828649
499.138999,-2590.720797,-9326.594869,1072.533697
499.139327,-1036.288319,-8216.285956,766.095498
499.139654,-222.061783,-8438.347739,612.876398
499.139982,-592.164754,-9400.615463,0.000000
499.140309,-1110.308913,-9622.677246,76.609550
499.140637,-1184.329507,-8216.285956,-536.266849
499.140964,444.123565,-8068.244768,0.000000
499.141292,74.020594,-8438.347739,0.000000
499.141619,-1554.432478,-9770.718434,-383.047749
499.141946,-3108.864956,-10732.986159,-459.657299
499.142274,-2368.659014,-9252.574275,-1072.533697
499.142601,-518.144159,-8882.471304,0.000000
499.142929,740.205942,-8808.450710,153.219100
499.143256,740.205942,-9474.636058,153.219100
499.143584,370.102971,-9548.656652,0.000000
499.143911,1406.391290,-8216.285956,689.485948
499.144239,2738.761985,-7328.038826,1149.143247
499.144566,3330.926739,-7476.080014,1302.362347
499.144894,1776.494261,-8660.409521,766.095498
499.145221,-296.082377,-10436.903782,306.438199
499.145549,-814.226536,-10288.862594,536.266849
499.145876,-444.123565,-8956.491898,0.000000
499.146204,814.226536,-8882.471304,536.266849
499.146531,814.226536,-9696.697840,459.657299
499.146859,0.000000,-10807.006753,306.438199
499.147186,-740.205942,-10066.800811,689.485948
499.147514,444.123565,-8956.491898,842.705048
499.147841,592.164754,-7772.162391,919.314598
499.148168,370.102971,-9178.553681,919.314598
499.148496,-1332.370696,-10140.821405,76.609550
499.148823,-2294.638420,-9918.759623,76.609550
499.149151,-1850.514855,-8586.388927,612.876398
499.149478,-518.144159,-7994.224174,766.095498
499.149806,-592.164754,-8364.327145,536.266849
499.150133,-1480.411884,-9326.594869,612.876398
499.150461,-1406.391290,-9696.697840,689.485948
499.150788,444.123565,-8438.347739,1149.143247
499.151116,1776.494261,-7254.018232,1608.800546
499.151443,1850.514855,-7920.203579,2298.286494
499.151771,-222.061783,-9400.615463,1225.752797
499.152098,-2368.659014,-10658.965565,689.485948
499.152426,-2590.720797,-9622.677246,306.438199
499.152753,-1332.370696,-8734.430116,689.485948
499.153081,-296.082377,-8882.471304,689.485948
499.153408,-592.164754,-9696.697840,306.438199
499.153736,-1332.370696,-10436.903782,153.219100
499.154063,-888.247130,-9474.636058,-306.438199
499.154391,296.082377,-8364.327145,459.657299
499.154718,814.226536,-8512.368333,842.705048
499.155045,-148.041188,-9400.615463,459.657299
499.155373,-1998.556043,-10881.027347,-153.219100
499.155700,-2220.617826,-10288.862594,-306.438199
499.156028,-592.164754,-8734.430116,306.438199
499.156355,1036.288319,-7846.182985,536.266849
499.156683,1258.350101,-7920.203579,766.095498
499.157010,888.247130,-8808.450710,459.657299
499.157338,1332.370696,-8142.265362,689.485948
499.157665,2442.679609,-6365.771101,1532.190996
499.157993,3256.906145,-6735.874072,1991.848295
499.158320,2220.617826,-8216.285956,1685.410096
499.158648,-1036.288319,-10288.862594,1378.971896
499.158975,-2664.741391,-11103.089130,766.095498
499.159303,-2442.679609,-9844.739029,919.314598
499.159630,-1036.288319,-9252.574275,766.095498
499.159958,-666.185348,-9178.553681,536.266849
499.160285,-1110.308913,-9770.718434,0.000000
499.160613,-1702.473667,-9622.677246,-536.266849
499.160940,-962.267725,-7698.141797,-842.705048
499.161268,666.185348,-6883.915261,153.219100
499.161595,0.000000,-7476.080014,-459.657299
499.161922,-1776.494261,-9178.553681,-842.705048
499.162250,-3330.926739,-9992.780217,-1378.971896
499.162577,-3108.864956,-9474.636058,-995.924147
499.162905,-1480.411884,-8216.285956,153.219100
499.163232,148.041188,-8660.409521,306.438199
499.163560,148.041188,-9548.656652,842.705048
499.163887,74.020594,-10066.800811,766.095498
499.164215,1110.308913,-9326.594869,1302.362347
499.164542,3256.906145,-8290.306550,1762.019645
499.164870,3775.050304,-8586.388927,2298.286494
499.165197,2442.679609,-9770.718434,2068.457845
499.165525,148.041188,-11029.068536,1072.533697
499.165852,-666.185348,-10584.944971,842.705048
499.166180,0.000000,-9474.636058,383.047749
499.166507,370.102971,-8808.450710,1225.752797
499.166835,1036.288319,-10140.821405,689.485948
499.167162,-814.226536,-11621.233289,306.438199
499.167490,-1924.535449,-10658.965565,76.609550
499.167817,-962.267725,-9548.656652,229.828649
499.168144,-592.164754,-8586.388927,919.314598
499.168472,-1480.411884,-9178.553681,229.828649
499.168799,-3108.864956,-9844.739029,0.000000
499.169127,-4663.297435,-9474.636058,-383.047749
499.169454,-3256.906145,-8364.327145,-536.266849
499.169782,-1776.494261,-6957.935855,459.657299
499.170109,-444.123565,-7031.956449,306.438199
499.170437,-296.082377,-8216.285956,689.485948
499.170764,-592.164754,-8364.327145,689.485948
499.171092,888.247130,-7550.100608,1378.971896
499.171419,2368.659014,-7254.018232,2221.676944
499.171747,2812.782580,-7994.224174,1991.848295
499.172074,666.185348,-9696.697840,1378.971896
499.172402,-888.247130,-11177.109724,766.095498
499.172729,-1332.370696,-10362.883188,383.047749
499.173057,296.082377,-9400.615463,689.485948
499.173384,1628.453072,-9252.574275,689.485948
499.173712,1036.288319,-10066.800811,536.266849
499.174039,74.020594,-10881.027347,229.828649
499.174367,74.020594,-9844.739029,0.000000
499.174694,814.226536,-8290.306550,153.219100
499.175021,962.267725,-7846.182985,1302.362347
499.175349,370.102971,-8882.471304,612.876398
499.175676,-2220.617826,-10140.821405,-229.828649
499.176004,-2812.782580,-9548.656652,0.000000
499.176331,-1628.453072,-8216.285956,229.828649
499.176659,-370.102971,-7179.997637,995.924147
499.176986,0.000000,-7402.059420,459.657299
499.177314,-296.082377,-8512.368333,153.219100
499.177641,0.000000,-8364.327145,306.438199
499.177969,1332.370696,-7179.997637,1149.143247
499.178296,2516.700203,-6957.935855,2145.067394
499.178624,2368.659014,-7624.121203,1378.971896
499.178951,148.041188,-10140.821405,1378.971896
499.179279,-1554.432478,-11251.130318,842.705048
499.179606,-1628.453072,-11177.109724,612.876398
499.179934,-962.267725,-10436.903782,689.485948
499.180261,0.000000,-10214.842000,1302.362347
499.180589,-962.267725,-11399.171507,153.219100
499.180916,-1924.535449,-11399.171507,0.000000
499.181244,-1332.370696,-9844.739029,0.000000
499.181571,0.000000,-8142.265362,459.657299
499.181898,592.164754,-7772.162391,919.314598
499.182226,-1184.329507,-8956.491898,0.000000
499.182553,-3404.947333,-10288.862594,-995.924147
499.182881,-3552.988522,-9252.574275,-612.876398
499.183208,-2146.597232,-7550.100608,-459.657299
499.183536,0.000000,-7402.059420,76.609550
499.183863,74.020594,-8068.244768,383.047749
499.184191,0.000000,-8882.471304,612.876398
499.184518,888.247130,-8364.327145,1225.752797
499.184846,2516.700203,-7179.997637,1762.019645
499.185173,3552.988522,-7328.038826,2298.286494
499.185501,2368.659014,-8512.368333,2221.676944
499.185828,370.102971,-10732.986159,1455.581446
499.186156,-1036.288319,-10807.006753,919.314598
499.186483,0.000000,-10140.821405,1378.971896
499.186811,1628.453072,-9400.615463,1608.800546
499.187138,888.247130,-10066.800811,1072.533697
499.187466,-666.185348,-11473.192101,919.314598
499.187793,-1776.494261,-11029.068536,-153.219100
499.188121,-1184.329507,-9326.594869,0.000000
499.188448,-666.185348,-8438.347739,0.000000
499.188775,-740.205942,-8586.388927,229.828649
499.189103,-2516.700203,-9696.697840,-536.266849
499.189430,-4071.132681,-9918.759623,-1225.752797
499.189758,-3552.988522,-8290.306550,-1455.581446
499.190085,-2072.576638,-7105.977043,-536.266849
499.190413,-444.123565,-6365.771101,-229.828649
499.190740,-666.185348,-7624.121203,-306.438199
499.191068,-740.205942,-8364.327145,-306.438199
499.191395,666.185348,-7476.080014,459.657299
499.191723,2590.720797,-7105.977043,1378.971896
499.192050,3849.070898,-7624.121203,2298.286494
499.192378,2294.638420,-9548.656652,1762.019645
499.192705,444.123565,-11473.192101,1225.752797
499.193033,296.082377,-11177.109724,1072.533697
499.193360,1702.473667,-10436.903782,1608.800546
499.193688,2368.659014,-10362.883188,1838.629195
499.194015,1850.514855,-11103.089130,1685.410096
499.194343,592.164754,-12213.398043,919.314598
499.194670,0.000000,-11177.109724,689.485948
499.194997,814.226536,-9696.697840,689.485948
499.195325,666.185348,-8808.450710,842.705048
499.195652,-592.164754,-9178.553681,766.095498
499.195980,-3256.906145,-10288.862594,-229.828649
499.196307,-4811.338623,-9770.718434,-766.095498
499.196635,-3849.070898,-8216.285956,-536.266849
499.196962,-2516.700203,-6809.894666,-306.438199
499.197290,-1776.494261,-6587.832884,0.000000
499.197617,-1850.514855,-7105.977043,76.609550
499.197945,-1628.453072,-7105.977043,229.828649
499.198272,-296.082377,-6513.812290,919.314598
499.198600,962.267725,-5847.626942,1225.752797
499.198927,1036.288319,-7105.977043,1149.143247
499.199255,-222.061783,-8364.327145,1608.800546
499.199582,-1332.370696,-10436.903782,842.705048
499.199910,-740.205942,-9918.759623,1378.971896
499.200237,1184.329507,-9474.636058,1991.848295
499.200565,1998.556043,-9770.718434,1762.019645
499.200892,1110.308913,-10510.924376,1762.019645
499.201220,0.000000,-11695.253884,612.876398
499.201547,148.041188,-10658.965565,536.266849
499.201874,1036.288319,-9474.636058,919.314598
499.202202,1258.350101,-9252.574275,842.705048
499.202529,-888.247130,-9474.636058,0.000000
499.202857,-2664.741391,-10140.821405,-689.485948
499.203184,-2738.761985,-9252.574275,-995.924147
499.203512,-2146.597232,-8142.265362,-766.095498
499.203839,-666.185348,-7179.997637,-153.219100
499.204167,74.020594,-7402.059420,383.047749
499.204494,-666.185348,-8438.347739,0.000000
499.204822,296.082377,-7920.203579,459.657299
499.205149,1554.432478,-7105.977043,1072.533697
499.205477,2368.659014,-7105.977043,1991.848295
499.205804,1998.556043,-7772.162391,1838.629195
499.206132,0.000000,-9474.636058,1455.581446
499.206459,-1406.391290,-10807.006753,1072.533697
499.206787,-370.102971,-9770.718434,1149.143247
499.207114,740.205942,-9252.574275,1072.533697
499.207442,666.185348,-9770.718434,689.485948
499.207769,-444.123565,-11251.130318,1072.533697
499.208097,-962.267725,-11251.130318,153.219100
499.208424,-666.185348,-10066.800811,76.609550
499.208751,222.061783,-8956.491898,536.266849
499.209079,0.000000,-9474.636058,306.438199
499.209407,-2146.597232,-10214.842000,76.609550
499.209734,-4441.235652,-10732.986159,-1072.533697
499.210062,-4219.173869,-9104.533087,-1455.581446
499.210390,-2442.679609,-7328.038826,-1072.533697
499.210717,-888.247130,-6809.894666,-229.828649
499.211045,-444.123565,-7624.121203,153.219100
499.211372,-888.247130,-8068.244768,0.000000
499.211700,370.102971,-7105.977043,306.438199
499.212028,2220.617826,-6217.729913,1149.143247
499.212355,3034.844362,-6513.812290,1838.629195
499.212683,1776.494261,-8808.450710,1991.848295
499.213011,0.000000,-10510.924376,766.095498
499.213338,-518.144159,-10584.944971,995.924147
499.213666,962.267725,-10140.821405,1302.362347
499.213993,1998.556043,-9918.759623,1455.581446
499.214321,1924.535449,-10510.924376,995.924147
499.214649,148.041188,-11991.336260,306.438199
499.214976,0.000000,-11251.130318,536.266849
499.215304,148.041188,-10066.800811,383.047749
499.215631,740.205942,-9400.615463,689.485948
499.215959,0.000000,-10066.800811,306.438199
499.216287,-2368.659014,-10510.924376,0.000000
499.216614,-4071.132681,-10436.903782,-1072.533697
499.216942,-3775.050304,-8882.471304,-1072.533697
499.217270,-2442.679609,-7698.141797,-459.657299
499.217597,-2220.617826,-7846.182985,-306.438199
499.217925,-2072.576638,-7994.224174,0.000000
499.218252,-1702.473667,-8216.285956,0.000000
499.218580,74.020594,-7031.956449,612.876398
499.218908,2072.576638,-6291.750507,1378.971896
499.219235,2664.741391,-7328.038826,2068.457845
499.219563,1110.308913,-9474.636058,1608.800546
499.219891,-666.185348,-10658.965565,1302.362347
499.220218,-222.061783,-10140.821405,1378.971896
499.220546,814.226536,-9844.739029,1991.848295
499.220873,1702.473667,-10584.944971,1685.410096
499.221201,1110.308913,-11917.315666,1685.410096
499.221529,370.102971,-12065.356855,1762.019645
499.221856,592.164754,-11251.130318,1302.362347
499.222184,1258.350101,-10436.903782,1685.410096
499.222511,1406.391290,-10436.903782,1455.581446
499.222839,-518.144159,-11177.109724,536.266849
499.223167,-3478.967927,-11325.150913,0.000000
499.223494,-3627.009116,-10658.965565,-766.095498
499.223822,-2812.782580,-8364.327145,-459.657299
499.224150,-1850.514855,-7254.018232,-153.219100
499.224477,-592.164754,-7105.977043,229.828649
499.224805,-1406.391290,-7105.977043,0.000000
499.225132,-888.247130,-6809.894666,76.609550
499.225460,370.102971,-5995.668130,689.485948
499.225788,1776.494261,-5847.626942,1149.143247
499.226115,1332.370696,-7105.977043,1149.143247
499.226443,-518.144159,-8586.388927,689.485948
499.226771,-1406.391290,-9770.718434,842.705048
499.227098,-444.123565,-9326.594869,995.924147
499.227426,1036.288319,-8586.388927,1149.143247
499.227753,2072.576638,-9178.553681,1378.971896
499.228081,1628.453072,-10436.903782,689.485948
499.228409,1258.350101,-10807.006753,383.047749
499.228736,1258.350101,-9696.697840,229.828649
499.229064,1850.514855,-9030.512492,689.485948
499.229391,1406.391290,-9326.594869,612.876398
499.229719,-888.247130,-10658.965565,-306.438199
499.230047,-2886.803174,-10807.006753,-1455.581446
499.230374,-3108.864956,-9104.533087,-1378.971896
499.230702,-1850.514855,-7476.080014,-536.266849
499.231030,-888.247130,-6735.874072,-383.047749
499.231357,-592.164754,-7550.100608,-153.219100
499.231685,-1554.432478,-7846.182985,-689.485948
499.232012,-592.164754,-6439.791695,229.828649
499.232340,592.164754,-6069.688724,842.705048
499.232668,1480.411884,-5921.647536,1225.752797
499.232995,740.205942,-7254.018232,919.314598
499.233323,-1036.288319,-8956.491898,229.828649
499.233651,-888.247130,-9252.574275,536.266849
499.233978,-444.123565,-8660.409521,919.314598
499.234306,1110.308913,-9030.512492,1149.143247
499.234633,1184.329507,-9844.739029,1149.143247
499.234961,518.144159,-11251.130318,536.266849
499.235289,222.061783,-11103.089130,1072.533697
499.235616,1406.391290,-10066.800811,1072.533697
499.235944,1702.473667,-9474.636058,1378.971896
499.236271,1258.350101,-10436.903782,1225.752797
499.236599,-1332.370696,-11547.212695,689.485948
499.236927,-3404.947333,-11547.212695,76.609550
499.237254,-2590.720797,-9992.780217,-153.219100
499.237582,-2220.617826,-8808.450710,0.000000
499.237910,-1702.473667,-8438.347739,153.219100
499.238237,-2072.576638,-8956.491898,0.000000
499.238565,-1924.535449,-8438.347739,459.657299
499.238892,-592.164754,-7476.080014,689.485948
499.239220,370.102971,-6661.853478,1149.143247
499.239548,1110.308913,-7105.977043,1455.581446
499.239875,-444.123565,-8512.368333,919.314598
499.240203,-1406.391290,-9622.677246,1072.533697
499.240530,-1850.514855,-9474.636058,1302.362347
499.240858,-518.144159,-9030.512492,1455.581446
499.241186,296.082377,-9178.553681,1149.143247
499.241513,518.144159,-10362.883188,1225.752797
499.241841,0.000000,-11177.109724,919.314598
499.242169,444.123565,-10214.842000,1608.800546
499.242496,1776.494261,-9474.636058,1225.752797
499.242824,1406.391290,-9622.677246,1455.581446
499.243151,-222.061783,-10584.944971,612.876398
499.243479,-2738.761985,-11547.212695,-153.219100
499.243807,-3330.926739,-10807.006753,-459.657299
499.244134,-2516.700203,-9178.553681,-536.266849
499.244462,-1110.308913,-8364.327145,0.000000
499.244790,-740.205942,-8512.368333,-229.828649
499.245117,-888.247130,-8438.347739,0.000000
499.245445,-222.061783,-7698.141797,153.219100
499.245772,1554.432478,-6587.832884,383.047749
499.246100,1850.514855,-5995.668130,995.924147
499.246428,1924.535449,-7105.977043,1225.752797
499.246755,0.000000,-8660.409521,536.266849
499.247083,-814.226536,-9474.636058,76.609550
499.247410,-666.185348,-9326.594869,689.485948
499.247738,814.226536,-9104.533087,1455.581446
499.248066,962.267725,-9474.636058,1302.362347
499.248393,1332.370696,-10140.821405,1532.190996
499.248721,518.144159,-10807.006753,995.924147
499.249049,1480.411884,-9918.759623,842.705048
499.249376,1776.494261,-9622.677246,1149.143247
499.249704,1480.411884,-9696.697840,919.314598
499.250031,-814.226536,-10807.006753,76.609550
499.250359,-2886.803174,-11399.171507,-153.219100
499.250687,-3552.988522,-9992.780217,-306.438199
499.251014,-2442.679609,-8438.347739,-383.047749
499.251342,-1776.494261,-7698.141797,-459.657299
499.251670,-1628.453072,-7698.141797,-612.876398
499.251997,-1924.535449,-7920.203579,-766.095498
499.252325,-1184.329507,-6661.853478,-995.924147
499.252652,370.102971,-5477.523971,76.609550
499.252980,1258.350101,-6143.709319,612.876398
499.253308,370.102971,-7179.997637,383.047749
499.253635,-962.267725,-8808.450710,153.219100
499.253963,-1406.391290,-9030.512492,153.219100
499.254290,0.000000,-8808.450710,459.657299
499.254618,1776.494261,-8586.388927,1378.971896
499.254946,2368.659014,-9400.615463,1378.971896
499.255273,1998.556043,-10807.006753,1302.362347
499.255601,1998.556043,-10881.027347,1302.362347
499.255929,2368.659014,-9844.739029,2221.676944
499.256256,2516.700203,-9992.780217,1838.629195
499.256584,1036.288319,-11103.089130,995.924147
499.256911,-1406.391290,-12139.377449,306.438199
499.257239,-2886.803174,-12213.398043,-612.876398
499.257567,-3108.864956,-10066.800811,-229.828649
499.257894,-1776.494261,-9178.553681,0.000000
499.258222,-740.205942,-8808.450710,76.609550
499.258550,-1406.391290,-8956.491898,-153.219100
499.258877,-1480.411884,-8734.430116,-229.828649
499.259205,-888.247130,-7550.100608,76.609550
499.259532,148.041188,-6587.832884,766.095498
499.259860,592.164754,-7105.977043,842.705048
499.260188,-666.185348,-8216.285956,383.047749
499.260515,-1998.556043,-9326.594869,229.828649
499.260843,-1628.453072,-8882.471304,383.047749
499.261170,-148.041188,-7846.182985,919.314598
499.261498,740.205942,-8216.285956,919.314598
499.261826,1110.308913,-9326.594869,919.314598
499.262153,592.164754,-10362.883188,995.924147
499.262481,814.226536,-10362.883188,766.095498
499.262809,1628.453072,-10066.800811,1302.362347
499.263136,2220.617826,-10140.821405,1532.190996
499.263464,814.226536,-10955.047942,1225.752797
499.263791,-1184.329507,-11843.295072,383.047749
499.264119,-2368.659014,-11399.171507,229.828649
499.264447,-1776.494261,-10214.842000,842.705048
499.264774,-740.205942,-9030.512492,229.828649
499.265102,-962.267725,-9400.615463,229.828649
499.265430,-1036.288319,-9474.636058,-153.219100
499.265757,-1480.411884,-8142.265362,0.000000
499.266085,74.020594,-7031.956449,0.000000
499.266412,1110.308913,-6291.750507,536.266849
499.266740,814.226536,-6513.812290,1149.143247
499.267068,-444.123565,-7624.121203,995.924147
499.267395,-1998.556043,-8660.409521,459.657299
499.267723,-1776.494261,-8438.347739,689.485948
499.268050,-962.267725,-7920.203579,1149.143247
499.268378,518.144159,-8808.450710,919.314598
499.268706,148.041188,-9548.656652,919.314598
499.269033,222.061783,-10140.821405,995.924147
499.269361,1184.329507,-9548.656652,1225.752797
499.269689,2072.576638,-9178.553681,2374.896044
499.270016,2146.597232,-9696.697840,1532.190996
499.270344,-296.082377,-10807.006753,612.876398
499.270671,-2442.679609,-11399.171507,-306.438199
499.270999,-2886.803174,-10510.924376,-612.876398
499.271327,-1406.391290,-9178.553681,0.000000
499.271654,222.061783,-8290.306550,306.438199
499.271982,-148.041188,-8660.409521,76.609550
499.272310,-1036.288319,-9030.512492,153.219100
499.272637,-740.205942,-7920.203579,153.219100
499.272965,148.041188,-6735.874072,766.095498
499.273292,740.205942,-6365.771101,536.266849
499.273620,0.000000,-7920.203579,459.657299
499.273948,-1850.514855,-9474.636058,0.000000
499.274275,-2368.659014,-8956.491898,0.000000
499.274603,-1184.329507,-8438.347739,153.219100
499.274930,814.226536,-8438.347739,1149.143247
499.275258,1110.308913,-8512.368333,919.314598
499.275586,592.164754,-9844.739029,459.657299
499.275913,518.144159,-9400.615463,306.438199
499.276241,1332.370696,-8734.430116,766.095498
499.276569,2442.679609,-8364.327145,1072.533697
499.276896,1850.514855,-9474.636058,766.095498
499.277224,-222.061783,-10955.047942,459.657299
499.277551,-1850.514855,-11177.109724,153.219100
499.277879,-1776.494261,-10288.862594,383.047749
499.278207,-814.226536,-9622.677246,995.924147
499.278534,0.000000,-9400.615463,919.314598
499.278862,-1110.308913,-9844.739029,536.266849
499.279190,-1628.453072,-9474.636058,459.657299
499.279517,-814.226536,-8216.285956,383.047749
499.279845,518.144159,-6809.894666,919.314598
499.280172,1036.288319,-6513.812290,1378.971896
499.280500,-148.041188,-7994.224174,766.095498
499.280828,-1924.535449,-8808.450710,536.266849
499.281155,-2442.679609,-8438.347739,229.828649
499.281483,-1554.432478,-8290.306550,306.438199
499.281810,-518.144159,-8216.285956,383.047749
499.282138,-296.082377,-9178.553681,536.266849
499.282466,-666.185348,-10140.821405,536.266849
499.282793,74.020594,-9622.677246,766.095498
499.283121,1480.411884,-9400.615463,1072.533697
499.283449,2368.659014,-9104.533087,1378.971896
499.283776,1332.370696,-10214.842000,842.705048
499.284104,-592.164754,-11251.130318,536.266849
499.284431,-1628.453072,-11103.089130,76.609550
499.284759,-888.247130,-10140.821405,306.438199
499.285087,0.000000,-9030.512492,536.266849
499.285414,370.102971,-8734.430116,919.314598
499.285742,-148.041188,-9326.594869,229.828649
499.286070,-444.123565,-8956.491898,306.438199
499.286397,370.102971,-7920.203579,612.876398
499.286725,1110.308913,-7476.080014,1225.752797
499.287052,814.226536,-7920.203579,1685.410096
499.287380,-740.205942,-9474.636058,842.705048
499.287708,-2368.659014,-9770.718434,306.438199
499.288035,-2368.659014,-9178.553681,153.219100
499.288363,-1184.329507,-8734.430116,612.876398
499.288690,0.000000,-8216.285956,1072.533697
499.289018,0.000000,-9326.594869,383.047749
499.289346,-370.102971,-9622.677246,153.219100
499.289673,74.020594,-8882.471304,153.219100
499.290001,1110.308913,-8364.327145,459.657299
499.290329,1332.370696,-8808.450710,1225.752797
499.290656,-370.102971,-9918.759623,459.657299
499.290984,-1998.556043,-11325.150913,0.000000
499.291311,-2294.638420,-10881.027347,76.609550
499.291639,-1332.370696,-9918.759623,459.657299
499.291967,-222.061783,-9252.574275,919.314598
499.292294,-370.102971,-9474.636058,689.485948
499.292622,-370.102971,-9844.739029,459.657299
499.292950,0.000000,-8734.430116,76.609550
499.293277,1036.288319,-7402.059420,919.314598
499.293605,1850.514855,-7179.997637,1149.143247
499.293932,1036.288319,-7698.141797,612.876398
499.294260,-1332.370696,-9252.574275,153.219100
499.294588,-2294.638420,-9252.574275,0.000000
499.294915,-1776.494261,-8438.347739,-229.828649
499.295243,0.000000,-8142.265362,306.438199
499.295570,814.226536,-8586.388927,612.876398
499.295898,0.000000,-9474.636058,536.266849
499.296226,0.000000,-9844.739029,459.657299
499.296553,222.061783,-9252.574275,766.095498
499.296881,814.226536,-8808.450710,1072.533697
499.297209,592.164754,-9474.636058,919.314598
499.297536,-962.267725,-11029.068536,766.095498
499.297864,-2442.679609,-11029.068536,153.219100
499.298191,-1850.514855,-9918.759623,76.609550
499.298519,-444.123565,-9030.512492,459.657299
499.298847,518.144159,-8142.265362,842.705048
499.299174,222.061783,-8882.471304,1149.143247
499.299502,-222.061783,-9252.574275,459.657299
499.299830,0.000000,-8364.327145,766.095498
499.300157,1036.288319,-7920.203579,1225.752797
499.300485,1184.329507,-7624.121203,1455.581446
499.300812,0.000000,-8586.388927,612.876398
499.301140,-1406.391290,-9474.636058,842.705048
499.301468,-2072.576638,-9252.574275,306.438199
499.301795,-1406.391290,-8734.430116,689.485948
499.302123,-222.061783,-8512.368333,995.924147
499.302450,0.000000,-8734.430116,229.828649
499.302778,-888.247130,-9548.656652,689.485948
499.303106,-518.144159,-9696.697840,612.876398
499.303433,222.061783,-8512.368333,459.657299
499.303761,740.205942,-8216.285956,689.485948
499.304089,518.144159,-9104.533087,1302.362347
499.304416,-814.226536,-10066.800811,383.047749
499.304744,-2368.659014,-10288.862594,0.000000
499.305071,-1924.535449,-9474.636058,0.000000
499.305399,-1036.288319,-9104.533087,306.438199
499.305727,-148.041188,-9104.533087,842.705048
499.306054,-370.102971,-9548.656652,995.924147
499.306382,-444.123565,-9548.656652,383.047749
499.306710,740.205942,-8364.327145,919.314598
499.307037,1628.453072,-7772.162391,1302.362347
499.307365,1702.473667,-7994.224174,995.924147
499.307692,0.000000,-8956.491898,919.314598
499.308020,-1554.432478,-9548.656652,-306.438199
499.308348,-1554.432478,-9104.533087,229.828649
499.308675,0.000000,-8660.409521,306.438199
499.309003,888.247130,-8438.347739,689.485948
499.309330,814.226536,-9474.636058,459.657299
499.309658,0.000000,-9474.636058,229.828649
499.309986,222.061783,-9252.574275,229.828649
499.310313,666.185348,-8882.471304,612.876398
499.310641,1110.308913,-8956.491898,995.924147
499.310968,0.000000,-10066.800811,919.314598
499.311296,-1776.494261,-10881.027347,-229.828649
499.311623,-2590.720797,-10436.903782,0.000000
499.311951,-1628.453072,-9622.677246,76.609550
499.312278,-592.164754,-9030.512492,153.219100
499.312606,-518.144159,-8290.306550,0.000000
499.312933,-592.164754,-8734.430116,-306.438199
499.313261,-592.164754,-8216.285956,0.000000
499.313589,814.226536,-7402.059420,459.657299
499.313916,1924.535449,-7254.018232,919.314598
499.314244,1332.370696,-7994.224174,919.314598
499.314571,-296.082377,-9474.636058,995.924147
499.314899,-1776.494261,-9918.759623,459.657299
499.315226,-2072.576638,-9622.677246,229.828649
499.315554,-962.267725,-9400.615463,383.047749
499.315881,-592.164754,-9400.615463,459.657299
499.316209,-962.267725,-9622.677246,383.047749
499.316536,-962.267725,-9844.739029,0.000000
499.316864,0.000000,-8808.450710,229.828649
499.317191,1702.473667,-8216.285956,766.095498
499.317519,1406.391290,-8438.347739,306.438199
499.317846,0.000000,-9474.636058,0.000000
499.318174,-1554.432478,-10658.965565,-459.657299
499.318501,-1702.473667,-9696.697840,-229.828649
499.318829,-518.144159,-9178.553681,153.219100
499.319156,814.226536,-8734.430116,919.314598
499.319484,1036.288319,-9178.553681,1302.362347
499.319811,666.185348,-8956.491898,1149.143247
499.320139,1184.329507,-8438.347739,1838.629195
499.320466,2072.576638,-7476.080014,2068.457845
499.320794,2220.617826,-7920.203579,2145.067394
499.321122,518.144159,-9030.512492,1608.800546
499.321449,-1554.432478,-9918.759623,1685.410096
499.321777,-2886.803174,-9770.718434,459.657299
499.322104,-1924.535449,-9104.533087,766.095498
499.322432,-518.144159,-8586.388927,1149.143247
499.322759,0.000000,-8882.471304,995.924147
499.323087,-962.267725,-9770.718434,689.485948
499.323414,-1110.308913,-9252.574275,766.095498
499.323742,-962.267725,-8512.368333,306.438199
499.324069,-296.082377,-8438.347739,229.828649
499.324397,-592.164754,-9104.533087,153.219100
499.324724,-2590.720797,-10066.800811,-229.828649
499.325052,-3701.029710,-9992.780217,-689.485948
499.325379,-2960.823768,-9178.553681,-153.219100
499.325707,-1258.350101,-8586.388927,229.828649
499.326034,-296.082377,-8290.306550,612.876398
499.326362,-222.061783,-9030.512492,536.266849
499.326689,-148.041188,-8956.491898,689.485948
499.327017,1110.308913,-8216.285956,919.314598
499.327344,2294.638420,-7846.182985,1608.800546
499.327672,2442.679609,-8216.285956,1915.238745
499.327999,1332.370696,-9326.594869,1378.971896
499.328327,-148.041188,-9844.739029,536.266849
499.328654,-592.164754,-9844.739029,689.485948
499.328982,-222.061783,-9474.636058,612.876398
499.329310,222.061783,-9030.512492,536.266849
499.329637,0.000000,-9992.780217,689.485948
499.329965,0.000000,-10288.862594,459.657299
499.330292,-518.144159,-9548.656652,229.828649
499.330620,666.185348,-8660.409521,229.828649
499.330947,888.247130,-8512.368333,306.438199
499.331275,-518.144159,-9400.615463,229.828649
499.331602,-1850.514855,-10510.924376,0.000000
499.331930,-3034.844362,-9696.697840,-842.705048
499.332257,-1998.556043,-8364.327145,-536.266849
499.332585,0.000000,-8142.265362,0.000000
499.332912,740.205942,-7846.182985,459.657299
499.333240,1184.329507,-8438.347739,766.095498
499.333567,1184.329507,-7846.182985,1072.533697
499.333895,1924.535449,-7476.080014,1378.971896
499.334222,2220.617826,-7476.080014,1991.848295
499.334550,1332.370696,-8660.409521,1838.629195
499.334877,-666.185348,-10066.800811,1072.533697
499.335205,-1554.432478,-10881.027347,1072.533697
499.335532,-1702.473667,-9474.636058,612.876398
499.335860,-666.185348,-9178.553681,842.705048
499.336187,0.000000,-9252.574275,612.876398
499.336515,-740.205942,-9918.759623,0.000000
499.336843,-2294.638420,-10140.821405,-229.828649
499.337170,-962.267725,-8438.347739,0.000000
499.337498,-518.144159,-8216.285956,0.000000
499.337825,222.061783,-7994.224174,76.609550
499.338153,-888.247130,-8956.491898,76.609550
499.338480,-2738.761985,-9992.780217,-612.876398
499.338808,-2812.782580,-9252.574275,0.000000
499.339135,-1998.556043,-8956.491898,0.000000
499.339463,-740.205942,-8364.327145,766.095498
499.339790,-296.082377,-8734.430116,766.095498
499.340118,74.020594,-9326.594869,919.314598
499.340445,814.226536,-8438.347739,1532.190996
499.340773,2220.617826,-7476.080014,1762.019645
499.341100,2738.761985,-7550.100608,1991.848295
499.341428,1998.556043,-8290.306550,1991.848295
499.341755,0.000000,-10140.821405,995.924147
499.342083,-740.205942,-10881.027347,842.705048
499.342410,-444.123565,-9548.656652,76.609550
499.342738,0.000000,-10140.821405,842.705048
499.343065,296.082377,-10510.924376,689.485948
499.343393,-1036.288319,-11325.150913,306.438199
499.343720,-814.226536,-10807.006753,383.047749
499.344048,-148.041188,-9548.656652,995.924147
499.344376,370.102971,-9178.553681,383.047749
499.344703,0.000000,-9548.656652,76.609550
499.345031,-1924.535449,-10214.842000,-153.219100
499.345358,-3404.947333,-10140.821405,-536.266849
499.345686,-2812.782580,-8882.471304,-919.314598
499.346013,-1406.391290,-7772.162391,76.609550
499.346341,74.020594,-7402.059420,76.609550
499.346668,74.020594,-7920.203579,306.438199
499.346996,296.082377,-8216.285956,459.657299
499.347323,1110.308913,-7476.080014,766.095498
499.347651,1924.535449,-7031.956449,1378.971896
499.347978,1998.556043,-8068.244768,1302.362347
499.348306,222.061783,-9770.718434,995.924147
499.348633,-1110.308913,-11103.089130,995.924147
499.348961,-1332.370696,-10955.047942,612.876398
499.349288,-148.041188,-9622.677246,536.266849
499.349616,740.205942,-9696.697840,995.924147
499.349943,592.164754,-9992.780217,766.095498
499.350271,-592.164754,-10288.862594,0.000000
499.350598,-1258.350101,-9844.739029,306.438199
499.350926,296.082377,-8364.327145,459.657299
499.351253,740.205942,-8216.285956,229.828649
499.351581,0.000000,-8882.471304,229.828649
499.351908,-1850.514855,-9844.739029,0.000000
499.352236,-3108.864956,-9622.677246,-383.047749
499.352564,-2146.597232,-8142.265362,229.828649
499.352891,-962.267725,-7254.018232,459.657299
499.353219,-370.102971,-7772.162391,536.266849
499.353546,-444.123565,-7994.224174,995.924147
499.353874,0.000000,-8068.244768,842.705048
499.354201,740.205942,-6365.771101,1532.190996
499.354529,2442.679609,-6513.812290,2145.067394
499.354856,1554.432478,-7846.182985,1838.629195
499.355184,0.000000,-9326.594869,1302.362347
499.355511,-1406.391290,-9844.739029,842.705048
499.355839,-1110.308913,-9104.533087,842.705048
499.356166,74.020594,-8808.450710,995.924147
499.356494,1036.288319,-9252.574275,1149.143247
499.356821,740.205942,-9992.780217,1072.533697
499.357149,-592.164754,-10584.944971,689.485948
499.357476,-222.061783,-9548.656652,919.314598
499.357804,222.061783,-9178.553681,459.657299
499.358131,0.000000,-9474.636058,689.485948
499.358459,-1628.453072,-10288.862594,0.000000
499.358786,-3256.906145,-10658.965565,-306.438199
499.359114,-3404.947333,-9326.594869,-842.705048
499.359441,-1702.473667,-7772.162391,-689.485948
499.359769,-148.041188,-6587.832884,229.828649
499.360097,296.082377,-6957.935855,459.657299
499.360424,296.082377,-7698.141797,459.657299
499.360752,74.020594,-7402.059420,459.657299
499.361079,1036.288319,-6661.853478,1302.362347
499.361407,1702.473667,-7254.018232,1532.190996
499.361734,666.185348,-9178.553681,1455.581446
499.362062,-888.247130,-10807.006753,1302.362347
499.362389,-1702.473667,-11547.212695,995.924147
499.362717,-1036.288319,-10658.965565,1378.971896
499.363044,148.041188,-9992.780217,1532.190996
499.363372,444.123565,-10658.965565,536.266849
499.363699,-222.061783,-11399.171507,383.047749
499.364027,-1702.473667,-11251.130318,-306.438199
499.364354,-814.226536,-9844.739029,-459.657299
499.364682,0.000000,-8586.388927,0.000000
499.365009,222.061783,-9030.512492,-229.828649
499.365337,-1184.329507,-10066.800811,-612.876398
499.365664,-2812.782580,-10584.944971,-1149.143247
499.365992,-3034.844362,-9548.656652,-766.095498
499.366319,-1480.411884,-8586.388927,0.000000
499.366647,296.082377,-7772.162391,612.876398
499.366974,1110.308913,-8660.409521,995.924147
499.367302,1702.473667,-9104.533087,1225.752797
499.367630,2294.638420,-8808.450710,2145.067394
499.367957,4219.173869,-7476.080014,2911.162892
499.368285,5107.421000,-7476.080014,4060.306139
499.368612,4367.215058,-8956.491898,4290.134789
499.368940,2368.659014,-10658.965565,3907.087040
499.369267,814.226536,-11103.089130,3600.648841
499.369595,814.226536,-9918.759623,3753.867940
499.369922,1776.494261,-9696.697840,3983.696590
499.370250,1480.411884,-10658.965565,3907.087040
499.370577,-666.185348,-11769.274478,2987.772442
499.370905,-1998.556043,-11621.233289,2681.334243
499.371232,-2368.659014,-9918.759623,2451.505594
499.371560,-1850.514855,-8808.450710,3217.601092
499.371887,-1480.411884,-8438.347739,2834.553343
499.372215,-3182.885551,-9400.615463,2374.896044
499.372542,-5773.606348,-10066.800811,1532.190996
499.372870,-7031.956449,-9030.512492,842.705048
499.373197,-6365.771101,-6883.915261,536.266849
499.373525,-3923.091493,-5699.585753,1225.752797
499.373852,-2146.597232,-6069.688724,1915.238745
499.374180,-1554.432478,-6957.935855,1991.848295
499.374507,-1702.473667,-7105.977043,1915.238745
499.374835,-814.226536,-5773.606348,2757.943793
499.375162,1702.473667,-5847.626942,2987.772442
499.375490,3627.009116,-7254.018232,4443.353888
499.375818,4145.153275,-9104.533087,4673.182538
499.376145,3627.009116,-11399.171507,4903.011187
499.376473,2442.679609,-11695.253884,4519.963438
499.376800,1776.494261,-10584.944971,4979.620737
499.377128,3256.906145,-11029.068536,4979.620737
499.377455,4663.297435,-11473.192101,5132.839837
499.377783,3849.070898,-11917.315666,4443.353888
499.378110,2368.659014,-11843.295072,4596.572988
499.378438,74.020594,-10436.903782,3677.258390
499.378765,-1554.432478,-10066.800811,2911.162892
499.379093,-1036.288319,-8882.471304,2528.115143
499.379420,296.082377,-8438.347739,2834.553343
499.379748,-222.061783,-8364.327145,2757.943793
499.380075,-2146.597232,-8142.265362,2451.505594
499.380403,-5107.421000,-8068.244768,2451.505594
499.380730,-7846.182985,-7698.141797,919.314598
499.381058,-7105.977043,-7846.182985,76.609550
499.381385,-4885.359217,-7402.059420,153.219100
499.381713,-1776.494261,-5699.585753,995.924147
499.382040,222.061783,-5995.668130,2528.115143
499.382368,222.061783,-6365.771101,3140.991542
499.382695,-370.102971,-7624.121203,2911.162892
499.383023,-1110.308913,-9030.512492,2068.457845
499.383351,-1332.370696,-10140.821405,1378.971896
499.383678,0.000000,-10510.924376,1608.800546
499.384006,2146.597232,-9844.739029,3294.210641
499.384333,4589.276840,-10140.821405,5286.058936
499.384661,6217.729913,-10807.006753,6435.202183
499.384988,6069.688724,-11769.274478,6588.421283
499.385316,4219.173869,-11991.336260,5362.668486
499.385643,814.226536,-12657.521608,4136.915689
499.385971,-1110.308913,-11917.315666,3294.210641
499.386298,-518.144159,-11029.068536,3294.210641
499.386626,814.226536,-9918.759623,4366.744339
499.386953,3997.112087,-8734.430116,5362.668486
499.387281,3627.009116,-7624.121203,6128.763984
499.387608,0.000000,-7254.018232,5209.449386
499.387936,-3256.906145,-7920.203579,3677.258390
499.388263,-5699.585753,-8216.285956,2221.676944
499.388591,-6957.935855,-8438.347739,1225.752797
499.388918,-4737.318029,-7254.018232,1838.629195
499.389246,-2664.741391,-7031.956449,2604.724693
499.389573,-222.061783,-6365.771101,4596.572988
499.389901,888.247130,-6587.832884,5515.887586
499.390228,0.000000,-7254.018232,5439.278036
499.390556,-1406.391290,-8734.430116,4136.915689
499.390883,-3701.029710,-10140.821405,2528.115143
499.391211,-5181.441594,-11251.130318,1378.971896
499.391539,-4663.297435,-11177.109724,1455.581446
499.391866,-2294.638420,-10658.965565,2221.676944
499.392194,888.247130,-10066.800811,3064.381992
499.392521,2960.823768,-8512.368333,4366.744339
499.392849,3478.967927,-8586.388927,4290.134789
499.393176,2886.803174,-8956.491898,3447.429741
499.393504,1406.391290,-9548.656652,3064.381992
499.393831,814.226536,-10066.800811,2145.067394
499.394159,222.061783,-9770.718434,2834.553343
499.394486,888.247130,-10066.800811,3064.381992
499.394814,1036.288319,-9622.677246,3983.696590
499.395141,1332.370696,-8512.368333,4443.353888
499.395469,1554.432478,-8068.244768,3753.867940
499.395796,74.020594,-8068.244768,3294.210641
499.396124,518.144159,-8512.368333,2528.115143
499.396451,296.082377,-7772.162391,2145.067394
499.396779,222.061783,-8068.244768,2374.896044
499.397106,1258.350101,-8142.265362,2604.724693
499.397434,1406.391290,-7846.182985,3524.039291
499.397761,1332.370696,-8882.471304,3677.258390
499.398089,1332.370696,-9030.512492,3677.258390
499.398416,74.020594,-10066.800811,4060.306139
499.398744,-962.267725,-10214.842000,3140.991542
499.399072,-1258.350101,-10362.883188,3140.991542
499.399399,-2368.659014,-10510.924376,3217.601092
499.399727,-1702.473667,-10288.862594,2834.553343
499.400054,-1702.473667,-9696.697840,3217.601092
499.400382,-1258.350101,-9030.512492,2987.772442
499.400709,-888.247130,-8216.285956,3140.991542
499.401037,-814.226536,-7698.141797,2528.115143
499.401364,-1258.350101,-7550.100608,2451.505594
499.401692,-1184.329507,-7476.080014,2757.943793
499.402019,-1480.411884,-7476.080014,2374.896044
499.402347,-1184.329507,-7476.080014,2757.943793
499.402674,0.000000,-8438.347739,3753.867940
499.403002,444.123565,-9178.553681,3600.648841
499.403329,740.205942,-9622.677246,4136.915689
499.403657,888.247130,-10140.821405,3830.477490
499.403984,222.061783,-10362.883188,4060.306139
499.404312,-444.123565,-9918.759623,3983.696590
499.404639,-666.185348,-10140.821405,3677.258390
499.404967,74.020594,-10140.821405,3447.429741
499.405294,888.247130,-9400.615463,2987.772442
499.405622,370.102971,-9474.636058,3294.210641
499.405949,1406.391290,-9474.636058,3370.820191
499.406277,296.082377,-9844.739029,2911.162892
499.406605,-296.082377,-9844.739029,2681.334243
499.406932,-592.164754,-9918.759623,2298.286494
499.407260,-962.267725,-9622.677246,2528.115143
499.407587,-370.102971,-9178.553681,2451.505594
499.407915,-370.102971,-8882.471304,2145.067394
499.408242,-888.247130,-8956.491898,2145.067394
499.408570,-1258.350101,-8882.471304,1915.238745
499.408897,-1480.411884,-8956.491898,1915.238745
499.409225,-1702.473667,-8216.285956,1838.629195
499.409552,-1036.288319,-8142.265362,1685.410096
499.409880,-592.164754,-7994.224174,1838.629195
499.410207,-370.102971,-7772.162391,1149.143247
499.410535,222.061783,-8142.265362,1302.362347
499.410862,0.000000,-8364.327145,1378.971896
499.411190,0.000000,-9178.553681,1072.533697
499.411517,-296.082377,-9622.677246,1225.752797
499.411845,0.000000,-10214.842000,1608.800546
499.412172,370.102971,-10658.965565,1532.190996
499.412500,666.185348,-10584.944971,1762.019645
499.412828,1184.329507,-10584.944971,1838.629195
499.413155,1332.370696,-10214.842000,1915.238745
499.413483,888.247130,-10214.842000,1762.019645
499.413811,444.123565,-9696.697840,1685.410096
499.414138,0.000000,-9326.594869,919.314598
499.414466,-962.267725,-9030.512492,1072.533697
499.414793,0.000000,-8290.306550,689.485948
499.415121,-296.082377,-8364.327145,689.485948
499.415449,-666.185348,-8068.244768,229.828649
499.415776,-222.061783,-8068.244768,689.485948
499.416104,-666.185348,-8290.306550,689.485948
499.416432,-888.247130,-8068.244768,153.219100
499.416759,-1036.288319,-8216.285956,76.609550
499.417087,-814.226536,-8364.327145,0.000000
499.417414,-666.185348,-8586.388927,229.828649
499.417742,-296.082377,-8882.471304,536.266849
499.418070,0.000000,-9104.533087,612.876398
499.418397,-222.061783,-9474.636058,766.095498
499.418725,-296.082377,-9474.636058,612.876398
499.419053,0.000000,-9548.656652,766.095498
499.419380,0.000000,-9400.615463,383.047749
499.419708,74.020594,-9474.636058,153.219100
499.420036,222.061783,-9104.533087,383.047749
499.420363,222.061783,-9474.636058,766.095498
499.420691,0.000000,-9178.553681,1225.752797
499.421018,0.000000,-9400.615463,1225.752797
499.421346,-148.041188,-9326.594869,1532.190996
499.421674,-296.082377,-9474.636058,1225.752797
499.422001,-148.041188,-8956.491898,919.314598
499.422329,0.000000,-8290.306550,766.095498
499.422657,-370.102971,-8364.327145,842.705048
499.422984,296.082377,-8586.388927,842.705048
499.423312,-296.082377,-8364.327145,1302.362347
499.423639,-444.123565,-8290.306550,995.924147
499.423967,-1036.288319,-8586.388927,1149.143247
499.424295,-1036.288319,-8956.491898,919.314598
499.424622,-1184.329507,-9474.636058,536.266849
499.424950,-1036.288319,-8882.471304,842.705048
499.425278,-740.205942,-9104.533087,306.438199
499.425605,-444.123565,-9326.594869,612.876398
499.425933,-444.123565,-9400.615463,536.266849
499.426260,-148.041188,-9474.636058,766.095498
499.426588,74.020594,-9844.739029,536.266849
499.426916,444.123565,-9696.697840,612.876398
499.427243,-444.123565,-9474.636058,383.047749
499.427571,-370.102971,-9992.780217,612.876398
499.427899,-592.164754,-9918.759623,306.438199
499.428226,0.000000,-9474.636058,612.876398
499.428554,0.000000,-9474.636058,536.266849
499.428881,-148.041188,-9548.656652,536.266849
499.429209,148.041188,-9326.594869,842.705048
499.429537,222.061783,-8882.471304,536.266849
499.429864,370.102971,-8734.430116,842.705048
499.430192,0.000000,-8882.471304,306.438199
499.430520,296.082377,-9474.636058,459.657299
499.430847,0.000000,-9326.594869,536.266849
499.431175,0.000000,-9474.636058,459.657299
499.431502,370.102971,-9400.615463,383.047749
499.431830,222.061783,-9400.615463,459.657299
499.432158,148.041188,-9252.574275,229.828649
499.432485,74.020594,-9326.594869,306.438199
499.432813,0.000000,-9104.533087,229.828649
499.433141,-370.102971,-8882.471304,306.438199
499.433468,-518.144159,-8956.491898,306.438199
499.433796,-740.205942,-8956.491898,229.828649
499.434123,-666.185348,-9030.512492,229.828649
499.434451,-740.205942,-9252.574275,229.828649
499.434779,-962.267725,-8882.471304,306.438199
499.435106,-666.185348,-8660.409521,0.000000
499.435434,-444.123565,-7994.224174,1302.362347
499.435762,-592.164754,-8364.327145,459.657299
499.436089,-518.144159,-8364.327145,306.438199
499.436417,-444.123565,-8660.409521,536.266849
499.436744,-592.164754,-8734.430116,919.314598
499.437072,-592.164754,-9030.512492,1149.143247
499.437400,-1036.288319,-9326.594869,1072.533697
499.437727,-740.205942,-9474.636058,459.657299
499.438055,-592.164754,-9400.615463,689.485948
499.438383,-518.144159,-9030.512492,689.485948
499.438710,-444.123565,-8808.450710,766.095498
499.439038,-222.061783,-8956.491898,459.657299
499.439366,0.000000,-9400.615463,689.485948
499.439693,-148.041188,-9030.512492,612.876398
499.440021,-518.144159,-9252.574275,689.485948
499.440348,-370.102971,-9548.656652,689.485948
499.440676,-592.164754,-9400.615463,1072.533697
499.441004,-296.082377,-9178.553681,689.485948
499.441331,0.000000,-9104.533087,383.047749
499.441659,-222.061783,-8956.491898,383.047749
499.441987,0.000000,-9104.533087,0.000000
499.442314,-370.102971,-8512.368333,689.485948
499.442642,-370.102971,-8956.491898,612.876398
499.442969,-666.185348,-8956.491898,459.657299
499.443297,-666.185348,-9326.594869,306.438199
499.443625,-962.267725,-9030.512492,76.609550
499.443952,-444.123565,-8882.471304,76.609550
499.444280,-296.082377,-9030.512492,306.438199
499.444608,-740.205942,-9030.512492,459.657299
499.444935,-370.102971,-8956.491898,459.657299
499.445263,0.000000,-8956.491898,689.485948
499.445590,-222.061783,-9104.533087,842.705048
499.445918,-444.123565,-9400.615463,842.705048
499.446246,-444.123565,-9622.677246,612.876398
499.446573,-518.144159,-9622.677246,689.485948
499.446901,-518.144159,-9548.656652,536.266849
499.447229,-74.020594,-9252.574275,1072.533697
499.447556,-222.061783,-9104.533087,1072.533697
499.447884,0.000000,-8734.430116,766.095498
499.448211,-370.102971,-8512.368333,383.047749
499.448539,-666.185348,-8512.368333,536.266849
499.448867,-592.164754,-8438.347739,842.705048
499.449194,-814.226536,-8660.409521,536.266849
499.449522,-888.247130,-8660.409521,383.047749
499.449850,-666.185348,-8512.368333,612.876398
499.450177,-444.123565,-8734.430116,689.485948
499.450505,0.000000,-8586.388927,229.828649
499.450832,0.000000,-8290.306550,-383.047749
499.451160,148.041188,-8734.430116,383.047749
499.451488,0.000000,-9326.594869,536.266849
499.451815,-296.082377,-9474.636058,689.485948
499.452143,0.000000,-9844.739029,1072.533697
499.452471,0.000000,-10436.903782,1532.190996
499.452798,-74.020594,-9696.697840,995.924147
499.453126,148.041188,-9474.636058,612.876398
499.453453,592.164754,-8956.491898,306.438199
499.453781,740.205942,-8512.368333,153.219100
499.454109,518.144159,-8734.430116,383.047749
499.454436,444.123565,-8142.265362,0.000000
499.454764,0.000000,-8808.450710,153.219100
499.455092,-370.102971,-8660.409521,536.266849
499.455419,-296.082377,-9030.512492,612.876398
499.455747,0.000000,-9104.533087,919.314598
499.456074,74.020594,-8808.450710,306.438199
499.456402,222.061783,-8882.471304,612.876398
499.456730,370.102971,-8512.368333,306.438199
499.457057,296.082377,-8660.409521,229.828649
499.457385,222.061783,-8808.450710,306.438199
499.457713,222.061783,-9104.533087,0.000000
499.458040,-222.061783,-9252.574275,689.485948
499.458368,-296.082377,-9474.636058,536.266849
499.458695,-296.082377,-9770.718434,536.266849
499.459023,-296.082377,-9918.759623,612.876398
499.459351,-222.061783,-9622.677246,689.485948
499.459678,0.000000,-9178.553681,689.485948
499.460006,74.020594,-9104.533087,153.219100
499.460334,148.041188,-9326.594869,536.266849
499.460661,0.000000,-9622.677246,536.266849
499.460989,148.041188,-9770.718434,1072.533697
499.461317,296.082377,-9622.677246,536.266849
499.461644,-148.041188,-9622.677246,995.924147
499.461972,-444.123565,-9844.739029,919.314598
499.462299,-444.123565,-9400.615463,919.314598
499.462627,0.000000,-8660.409521,612.876398
499.462955,0.000000,-8882.471304,766.095498
499.463282,-518.144159,-8882.471304,459.657299
499.463610,-592.164754,-9326.594869,689.485948
499.463938,-740.205942,-9400.615463,612.876398
499.464265,-666.185348,-9548.656652,842.705048
499.464593,-370.102971,-9474.636058,995.924147
499.464920,-592.164754,-9474.636058,766.095498
499.465248,-592.164754,-9326.594869,459.657299
499.465576,-592.164754,-9178.553681,153.219100
499.465903,-666.185348,-9178.553681,536.266849
499.466231,-740.205942,-9178.553681,766.095498
499.466559,-1036.288319,-9474.636058,612.876398
499.466886,-1110.308913,-9474.636058,536.266849
499.467214,-814.226536,-9696.697840,766.095498
499.467541,-962.267725,-9548.656652,612.876398
499.467869,-518.144159,-9178.553681,1072.533697
499.468197,0.000000,-8808.450710,612.876398
499.468524,-444.123565,-8956.491898,536.266849
499.468852,-370.102971,-8808.450710,612.876398
499.469180,-444.123565,-8808.450710,536.266849
499.469507,-592.164754,-8586.388927,766.095498
499.469835,-444.123565,-8734.430116,766.095498
499.470162,-666.185348,-9178.553681,689.485948
499.470490,-518.144159,-9326.594869,689.485948
499.470818,-370.102971,-9030.512492,612.876398
499.471145,-148.041188,-9104.533087,459.657299
499.471473,-74.020594,-8438.347739,306.438199
499.471801,-222.061783,-8512.368333,76.609550
499.472128,0.000000,-8734.430116,459.657299
499.472456,-222.061783,-8956.491898,229.828649
499.472783,-444.123565,-9104.533087,536.266849
499.473111,-370.102971,-9178.553681,995.924147
499.473439,-814.226536,-8882.471304,766.095498
499.473766,-296.082377,-8882.471304,536.266849
499.474094,-148.041188,-8734.430116,536.266849
499.474422,0.000000,-8586.388927,383.047749
499.474749,0.000000,-8364.327145,766.095498
499.475077,74.020594,-8586.388927,306.438199
499.475404,74.020594,-8808.450710,459.657299
499.475732,74.020594,-8808.450710,536.266849
499.476060,74.020594,-9326.594869,612.876398
499.476387,0.000000,-8956.491898,612.876398
499.476715,0.000000,-9252.574275,995.924147
499.477043,74.020594,-9252.574275,383.047749
499.477370,222.061783,-8956.491898,689.485948
499.477698,0.000000,-8956.491898,459.657299
499.478025,74.020594,-9104.533087,229.828649
499.478353,0.000000,-8808.450710,995.924147
499.478681,296.082377,-8660.409521,306.438199
499.479008,0.000000,-9030.512492,536.266849
499.479336,-222.061783,-9030.512492,459.657299
499.479664,-370.102971,-9104.533087,536.266849
499.479991,-518.144159,-8586.388927,612.876398
499.480319,-222.061783,-9030.512492,459.657299
499.480647,-518.144159,-9178.553681,459.657299
499.480974,-370.102971,-9252.574275,536.266849
499.481302,-296.082377,-9400.615463,612.876398
499.481629,222.061783,-9252.574275,536.266849
499.481957,-74.020594,-9400.615463,842.705048
499.482285,74.020594,-9400.615463,536.266849
499.482612,0.000000,-9326.594869,689.485948
499.482940,74.020594,-9252.574275,459.657299
499.483268,0.000000,-9474.636058,536.266849
499.483595,0.000000,-9326.594869,995.924147
499.483923,-148.041188,-9622.677246,689.485948
499.484250,-222.061783,-9622.677246,689.485948
499.484578,0.000000,-9696.697840,536.266849
499.484906,0.000000,-9622.677246,612.876398
499.485233,-518.144159,-9252.574275,1072.533697
499.485561,0.000000,-9474.636058,229.828649
499.485889,0.000000,-9400.615463,536.266849
499.486216,-296.082377,-9252.574275,459.657299
499.486544,-370.102971,-9178.553681,459.657299
499.486871,-444.123565,-8956.491898,383.047749
499.487199,-444.123565,-9178.553681,536.266849
499.487527,-296.082377,-9326.594869,459.657299
499.487854,-444.123565,-9178.553681,612.876398
499.488182,-370.102971,-9030.512492,689.485948
499.488510,0.000000,-9400.615463,306.438199
499.488837,-296.082377,-9030.512492,459.657299
499.489165,-222.061783,-9030.512492,689.485948
499.489492,-444.123565,-9104.533087,383.047749
499.489820,0.000000,-9252.574275,612.876398
499.490148,0.000000,-9030.512492,766.095498
499.490475,148.041188,-8808.450710,1072.533697
499.490803,0.000000,-9030.512492,612.876398
499.491131,0.000000,-9178.553681,689.485948
499.491458,0.000000,-9400.615463,536.266849
499.491786,-296.082377,-8956.491898,536.266849
499.492113,-370.102971,-8882.471304,689.485948
499.492441,0.000000,-8956.491898,689.485948
499.492769,-444.123565,-9178.553681,689.485948
499.493096,-592.164754,-8956.491898,536.266849
499.493424,-444.123565,-9178.553681,536.266849
499.493752,-444.123565,-8734.430116,842.705048
499.494079,0.000000,-8956.491898,612.876398
499.494407,-666.185348,-8808.450710,459.657299
499.494734,-370.102971,-8734.430116,612.876398
499.495062,-222.061783,-8882.471304,383.047749
499.495390,0.000000,-8438.347739,383.047749
499.495717,0.000000,-8808.450710,536.266849
499.496045,0.000000,-9104.533087,459.657299
499.496373,-370.102971,-8956.491898,689.485948
499.496700,-296.082377,-9400.615463,766.095498
499.497028,-370.102971,-9104.533087,766.095498
499.497355,-444.123565,-8734.430116,842.705048
499.497683,-296.082377,-9104.533087,536.266849
499.498011,-444.123565,-9104.533087,612.876398
499.498338,-444.123565,-8882.471304,459.657299
499.498666,-222.061783,-9030.512492,689.485948
499.498994,-148.041188,-8882.471304,689.485948
499.499321,-370.102971,-8956.491898,229.828649
499.499649,-518.144159,-8956.491898,459.657299
499.499976,-370.102971,-8956.491898,459.657299
499.500304,-518.144159,-8808.450710,612.876398
499.500632,-814.226536,-8956.491898,536.266849
499.500959,-370.102971,-8956.491898,459.657299
499.501287,-370.102971,-9104.533087,459.657299
499.501615,-518.144159,-9178.553681,459.657299
499.501942,-370.102971,-9104.533087,459.657299
499.502270,-518.144159,-9104.533087,0.000000
499.502598,-148.041188,-9400.615463,459.657299
499.502925,-518.144159,-9104.533087,536.266849
499.503253,-296.082377,-9030.512492,612.876398
499.503580,-370.102971,-8808.450710,536.266849
499.503908,-592.164754,-8808.450710,612.876398
499.504236,-444.123565,-8808.450710,766.095498
499.504563,-444.123565,-9030.512492,536.266849
499.504891,-444.123565,-9030.512492,459.657299
499.505219,-370.102971,-8734.430116,383.047749
499.505546,-296.082377,-9178.553681,229.828649
499.505874,-222.061783,-8808.450710,612.876398
499.506201,-592.164754,-8808.450710,383.047749
499.506529,-296.082377,-8808.450710,383.047749
499.506857,-592.164754,-8660.409521,536.266849
499.507184,-592.164754,-8882.471304,306.438199
499.507512,-888.247130,-8734.430116,459.657299
499.507840,-518.144159,-8882.471304,689.485948
499.508167,-370.102971,-8808.450710,612.876398
499.508495,-444.123565,-8882.471304,459.657299
499.508822,-518.144159,-9178.553681,229.828649
499.509150,-296.082377,-9252.574275,1072.533697
499.509478,0.000000,-8882.471304,919.314598
499.509805,-148.041188,-9104.533087,536.266849
499.510133,0.000000,-9252.574275,689.485948
499.510460,0.000000,-9400.615463,536.266849
499.510788,0.000000,-9252.574275,536.266849
499.511116,296.082377,-9474.636058,536.266849
499.511443,74.020594,-9400.615463,306.438199
499.511771,0.000000,-9326.594869,229.828649
499.512098,-222.061783,-9252.574275,383.047749
499.512426,0.000000,-9252.574275,383.047749
499.512753,0.000000,-8882.471304,689.485948
499.513081,0.000000,-8808.450710,689.485948
499.513408,-222.061783,-9104.533087,459.657299
499.513736,-370.102971,-9030.512492,0.000000
499.514064,-370.102971,-9252.574275,459.657299
499.514391,-222.061783,-9030.512492,0.000000
499.514719,-518.144159,-9178.553681,612.876398
499.515046,-222.061783,-9326.594869,306.438199
499.515374,0.000000,-9474.636058,459.657299
499.515701,0.000000,-9400.615463,766.095498
499.516029,0.000000,-9696.697840,842.705048
499.516357,74.020594,-9104.533087,919.314598
499.516684,222.061783,-9474.636058,383.047749
499.517012,74.020594,-9696.697840,383.047749
499.517339,74.020594,-9548.656652,612.876398
499.517667,74.020594,-9770.718434,995.924147
499.517994,296.082377,-9400.615463,383.047749
499.518322,0.000000,-9548.656652,612.876398
499.518649,0.000000,-9548.656652,383.047749
499.518977,0.000000,-9474.636058,689.485948
499.519305,-370.102971,-9326.594869,383.047749
499.519632,0.000000,-9178.553681,766.095498
499.519960,-444.123565,-9104.533087,689.485948
499.520287,-296.082377,-9030.512492,612.876398
499.520615,-592.164754,-8882.471304,459.657299
499.520942,-518.144159,-9178.553681,459.657299
499.521270,-296.082377,-9030.512492,536.266849
499.521597,-296.082377,-8660.409521,459.657299
499.521925,-592.164754,-9030.512492,536.266849
499.522253,-518.144159,-9252.574275,459.657299
499.522580,-370.102971,-9326.594869,612.876398
499.522908,-518.144159,-9326.594869,612.876398
499.523235,-370.102971,-9178.553681,1302.362347
499.523563,-370.102971,-9252.574275,612.876398
499.523890,-370.102971,-9178.553681,766.095498
499.524218,-296.082377,-9252.574275,689.485948
499.524545,-370.102971,-9104.533087,536.266849
499.524873,-518.144159,-9030.512492,459.657299
499.525201,-370.102971,-9252.574275,306.438199
499.525528,-444.123565,-9030.512492,689.485948
499.525856,-518.144159,-8808.450710,536.266849
499.526183,-592.164754,-8734.430116,536.266849
499.526511,-370.102971,-8512.368333,0.000000
499.526838,-814.226536,-8290.306550,766.095498
499.527166,-518.144159,-8512.368333,383.047749
499.527493,-370.102971,-8364.327145,459.657299
499.527821,-518.144159,-8512.368333,306.438199
499.528149,-296.082377,-8438.347739,383.047749
499.528476,-518.144159,-8734.430116,1149.143247
499.528804,-370.102971,-8734.430116,306.438199
499.529131,-592.164754,-8734.430116,459.657299
499.529459,-444.123565,-8808.450710,306.438199
499.529786,-370.102971,-8882.471304,536.266849
499.530114,0.000000,-8586.388927,842.705048
499.530441,-222.061783,-8882.471304,306.438199
499.530769,-222.061783,-8882.471304,536.266849
499.531097,0.000000,-9030.512492,612.876398
499.531424,-222.061783,-8956.491898,766.095498
499.531752,0.000000,-8808.450710,919.314598
499.532079,-370.102971,-9104.533087,536.266849
499.532407,-444.123565,-8882.471304,766.095498
499.532734,-592.164754,-9030.512492,689.485948
499.533062,-222.061783,-8956.491898,536.266849
499.533389,-296.082377,-8438.347739,766.095498
499.533717,-148.041188,-9030.512492,229.828649
499.534045,-296.082377,-8956.491898,306.438199
499.534372,-370.102971,-8882.471304,306.438199
499.534700,-370.102971,-9030.512492,306.438199
499.535027,-148.041188,-8956.491898,229.828649
499.535355,0.000000,-9252.574275,1072.533697
499.535682,-444.123565,-9252.574275,306.438199
499.536010,-296.082377,-9474.636058,306.438199
499.536337,-296.082377,-9252.574275,536.266849
499.536665,0.000000,-9400.615463,459.657299
499.536993,148.041188,-9252.574275,306.438199
499.537320,222.061783,-9474.636058,842.705048
499.537648,222.061783,-9400.615463,612.876398
499.537975,0.000000,-9474.636058,383.047749
499.538303,0.000000,-9696.697840,612.876398
499.538630,0.000000,-9252.574275,842.705048
499.538958,222.061783,-9474.636058,536.266849
499.539286,0.000000,-9474.636058,459.657299
499.539613,0.000000,-9474.636058,689.485948
499.539941,0.000000,-9474.636058,459.657299
499.540268,444.123565,-8956.491898,766.095498
499.540596,-148.041188,-8956.491898,459.657299
499.540923,-296.082377,-9030.512492,612.876398
499.541251,-296.082377,-9252.574275,612.876398
499.541578,-296.082377,-9104.533087,306.438199
499.541906,-296.082377,-9178.553681,612.876398
499.542234,0.000000,-9622.677246,766.095498
499.542561,-444.123565,-9474.636058,459.657299
499.542889,-370.102971,-9474.636058,612.876398
499.543216,-296.082377,-9474.636058,689.485948
499.543544,-444.123565,-9252.574275,536.266849
499.543871,0.000000,-9030.512492,689.485948
499.544199,148.041188,-9252.574275,536.266849
499.544526,0.000000,-9326.594869,842.705048
499.544854,0.000000,-9178.553681,995.924147
499.545182,-222.061783,-9326.594869,842.705048
499.545509,0.000000,-9030.512492,919.314598
499.545837,-222.061783,-9178.553681,536.266849
499.546164,-222.061783,-9104.533087,842.705048
499.546492,-370.102971,-8956.491898,459.657299
499.546819,-296.082377,-8956.491898,766.095498
499.547147,0.000000,-8808.450710,842.705048
499.547474,-148.041188,-8808.450710,153.219100
499.547802,-222.061783,-8882.471304,383.047749
499.548130,-296.082377,-9030.512492,459.657299
499.548457,-444.123565,-9178.553681,383.047749
499.548785,-370.102971,-9326.594869,612.876398
499.549112,0.000000,-9252.574275,612.876398
499.549440,-444.123565,-8956.491898,536.266849
499.549767,-296.082377,-9104.533087,536.266849
499.550095,0.000000,-9178.553681,536.266849
499.550422,0.000000,-9178.553681,383.047749
499.550750,0.000000,-8808.450710,383.047749
499.551078,-222.061783,-9400.615463,766.095498
499.551405,-296.082377,-9252.574275,536.266849
499.551733,-370.102971,-9400.615463,459.657299
499.552060,-148.041188,-9252.574275,689.485948
499.552388,0.000000,-9104.533087,153.219100
499.552715,-296.082377,-9178.553681,612.876398
499.553043,-296.082377,-9104.533087,612.876398
499.553370,-148.041188,-8956.491898,306.438199
499.553698,-222.061783,-8808.450710,383.047749
499.554026,-444.123565,-8660.409521,1072.533697
499.554353,-370.102971,-8660.409521,306.438199
499.554681,-518.144159,-8956.491898,536.266849
499.555008,-592.164754,-9104.533087,766.095498
499.555336,-814.226536,-8956.491898,536.266849
499.555663,-666.185348,-9252.574275,383.047749
499.555991,-370.102971,-9252.574275,0.000000
499.556318,-444.123565,-8882.471304,689.485948
499.556646,-296.082377,-8956.491898,536.266849
499.556974,-370.102971,-8956.491898,536.266849
499.557301,-370.102971,-9030.512492,383.047749
499.557629,-296.082377,-9104.533087,229.828649
499.557956,-444.123565,-8956.491898,459.657299
499.558284,-370.102971,-9252.574275,459.657299
499.558611,-370.102971,-9104.533087,842.705048
499.558939,0.000000,-9104.533087,842.705048
499.559266,148.041188,-8882.471304,1072.533697
499.559594,0.000000,-8808.450710,842.705048
499.559922,-296.082377,-8882.471304,459.657299
499.560249,0.000000,-8808.450710,536.266849
499.560577,0.000000,-8808.450710,689.485948
499.560904,148.041188,-8660.409521,842.705048
499.561232,-74.020594,-8734.430116,766.095498
499.561559,-296.082377,-9104.533087,612.876398
499.561887,-592.164754,-8956.491898,536.266849
499.562214,-444.123565,-8956.491898,689.485948
499.562542,-370.102971,-9030.512492,612.876398
499.562870,0.000000,-9252.574275,689.485948
499.563197,-296.082377,-8956.491898,536.266849
499.563525,0.000000,-9104.533087,689.485948
499.563852,-296.082377,-9252.574275,383.047749
499.564180,-296.082377,-9252.574275,612.876398
499.564507,-296.082377,-9252.574275,76.609550
499.564835,-222.061783,-9252.574275,919.314598
499.565163,-296.082377,-9474.636058,766.095498
499.565490,-148.041188,-9474.636058,536.266849
499.565818,0.000000,-9326.594869,689.485948
499.566145,0.000000,-9104.533087,153.219100
499.566473,-148.041188,-9474.636058,766.095498
499.566800,0.000000,-9252.574275,766.095498
499.567128,-148.041188,-9474.636058,536.266849
499.567455,0.000000,-9252.574275,536.266849
499.567783,0.000000,-9178.553681,919.314598
499.568111,0.000000,-9252.574275,919.314598
499.568438,-222.061783,-9548.656652,306.438199
499.568766,-222.061783,-9326.594869,459.657299
499.569093,0.000000,-9252.574275,536.266849
499.569421,0.000000,-9326.594869,229.828649
499.569748,-222.061783,-9178.553681,842.705048
499.570076,0.000000,-9400.615463,459.657299
499.570403,-222.061783,-9326.594869,459.657299
499.570731,-148.041188,-9474.636058,459.657299
499.571059,0.000000,-9474.636058,612.876398
499.571386,0.000000,-9400.615463,76.609550
499.571714,0.000000,-9400.615463,612.876398
499.572041,-148.041188,-9400.615463,536.266849
499.572369,-148.041188,-9326.594869,536.266849
499.572696,-222.061783,-9326.594869,689.485948
499.573024,-222.061783,-9030.512492,536.266849
499.573351,0.000000,-9178.553681,536.266849
499.573679,-148.041188,-9104.533087,229.828649
499.574007,-592.164754,-9252.574275,536.266849
499.574334,-444.123565,-9030.512492,229.828649
499.574662,-370.102971,-8734.430116,459.657299
499.574989,-370.102971,-8586.388927,383.047749
499.575317,-222.061783,-8882.471304,459.657299
499.575644,-370.102971,-8882.471304,459.657299
499.575972,-518.144159,-9104.533087,536.266849
499.576299,-740.205942,-9178.553681,766.095498
499.576627,-666.185348,-9104.533087,1225.752797
499.576955,-444.123565,-9326.594869,766.095498
499.577282,-222.061783,-9030.512492,919.314598
499.577610,-296.082377,-9252.574275,536.266849
499.577937,-222.061783,-9104.533087,689.485948
499.578265,-222.061783,-9104.533087,919.314598
499.578592,0.000000,-8956.491898,689.485948
499.578920,0.000000,-9030.512492,612.876398
499.579247,-296.082377,-8808.450710,689.485948
499.579575,-296.082377,-8956.491898,383.047749
499.579903,-370.102971,-8956.491898,842.705048
499.580230,-222.061783,-8586.388927,0.000000
499.580558,-592.164754,-9030.512492,612.876398
499.580885,-296.082377,-8734.430116,383.047749
499.581213,-222.061783,-9104.533087,459.657299
499.581540,-740.205942,-8956.491898,536.266849
499.581868,-518.144159,-8734.430116,459.657299
499.582195,-444.123565,-8808.450710,536.266849
499.582523,-370.102971,-9104.533087,766.095498
499.582851,-444.123565,-8956.491898,536.266849
499.583178,-444.123565,-9104.533087,612.876398
499.583506,-518.144159,-8882.471304,689.485948
499.583833,-370.102971,-8956.491898,689.485948
499.584161,0.000000,-9030.512492,383.047749
499.584488,-148.041188,-8956.491898,689.485948
499.584816,-222.061783,-9030.512492,612.876398
499.585143,-148.041188,-8808.450710,689.485948
499.585471,-296.082377,-9252.574275,383.047749
499.585799,-518.144159,-9104.533087,766.095498
499.586126,-444.123565,-9178.553681,689.485948
499.586454,-370.102971,-9104.533087,766.095498
499.586781,-74.020594,-8734.430116,459.657299
499.587109,0.000000,-8586.388927,612.876398
499.587436,-444.123565,-8734.430116,766.095498
499.587764,-592.164754,-9030.512492,689.485948
499.588091,-740.205942,-8808.450710,536.266849
499.588419,-666.185348,-8956.491898,919.314598
499.588747,-962.267725,-8512.368333,229.828649
499.589074,-740.205942,-9178.553681,612.876398
499.589402,-740.205942,-9030.512492,689.485948
499.589729,-592.164754,-9252.574275,612.876398
499.590057,-444.123565,-9474.636058,459.657299
499.590384,-370.102971,-8956.491898,842.705048
499.590712,-370.102971,-8882.471304,536.266849
499.591040,-148.041188,-9326.594869,689.485948
499.591367,-148.041188,-9326.594869,536.266849
499.591695,-296.082377,-9326.594869,536.266849
499.592022,-370.102971,-8882.471304,1378.971896
499.592350,0.000000,-9178.553681,612.876398
499.592677,-444.123565,-8956.491898,536.266849
499.593005,-296.082377,-9326.594869,536.266849
499.593332,-222.061783,-9178.553681,536.266849
499.593660,0.000000,-8956.491898,612.876398
499.593988,0.000000,-9030.512492,766.095498
499.594315,-222.061783,-8956.491898,536.266849
499.594643,0.000000,-9252.574275,536.266849
499.594970,-222.061783,-9252.574275,459.657299
499.595298,-222.061783,-9252.574275,383.047749
499.595625,0.000000,-9252.574275,383.047749
499.595953,0.000000,-9178.553681,536.266849
499.596280,0.000000,-9104.533087,383.047749
499.596608,-222.061783,-9252.574275,459.657299
499.596936,0.000000,-9326.594869,459.657299
499.597263,0.000000,-9548.656652,766.095498
499.597591,0.000000,-9326.594869,536.266849
499.597918,148.041188,-9326.594869,536.266849
499.598246,0.000000,-9474.636058,766.095498
499.598573,0.000000,-9400.615463,459.657299
499.598901,74.020594,-9104.533087,612.876398
499.599228,0.000000,-9104.533087,0.000000
499.599556,-148.041188,-9326.594869,612.876398
499.599884,0.000000,-9400.615463,306.438199
499.600211,0.000000,-9178.553681,612.876398
499.600539,0.000000,-9104.533087,536.266849
499.600866,222.061783,-9252.574275,612.876398
499.601194,-148.041188,-9252.574275,536.266849
499.601521,-222.061783,-9326.594869,612.876398
499.601849,-148.041188,-9326.594869,459.657299
499.602176,0.000000,-9252.574275,306.438199
499.602504,0.000000,-9326.594869,0.000000
499.602832,0.000000,-9252.574275,383.047749
499.603159,-148.041188,-9178.553681,459.657299
499.603487,0.000000,-9252.574275,689.485948
499.603814,0.000000,-9178.553681,536.266849
499.604142,-222.061783,-8734.430116,612.876398
499.604469,0.000000,-9548.656652,536.266849
499.604797,-370.102971,-9326.594869,612.876398
499.605124,0.000000,-9326.594869,459.657299
499.605452,0.000000,-9326.594869,536.266849
499.605780,0.000000,-8882.471304,459.657299
499.606107,-592.164754,-9030.512492,612.876398
499.606435,-296.082377,-9104.533087,536.266849
499.606762,-296.082377,-9252.574275,689.485948
499.607090,-370.102971,-9104.533087,842.705048
499.607417,-222.061783,-9252.574275,306.438199
499.607745,-518.144159,-9326.594869,1225.752797
499.608072,-444.123565,-8956.491898,612.876398
499.608400,-296.082377,-8882.471304,842.705048
499.608728,-518.144159,-8734.430116,689.485948
499.609055,-518.144159,-8734.430116,1072.533697
499.609383,-666.185348,-8882.471304,766.095498
499.609710,-888.247130,-9104.533087,536.266849
499.610038,-1110.308913,-9030.512492,995.924147
499.610365,-740.205942,-9252.574275,612.876398
499.610693,-666.185348,-9178.553681,766.095498
499.611020,0.000000,-8734.430116,919.314598
499.611348,-444.123565,-8956.491898,842.705048
499.611676,-296.082377,-8660.409521,612.876398
499.612006,-296.082377,-8660.409521,689.485948
499.612334,-222.061783,-8734.430116,612.876398
499.612661,-148.041188,-9104.533087,766.095498
499.612989,0.000000,-8660.409521,766.095498
499.613317,-222.061783,-9252.574275,766.095498
499.613644,-222.061783,-9104.533087,842.705048
499.613972,-148.041188,-9178.553681,766.095498
499.614299,0.000000,-8660.409521,459.657299
499.614627,0.000000,-8660.409521,383.047749
499.614955,0.000000,-8808.450710,306.438199
499.615282,-370.102971,-8882.471304,459.657299
499.615610,-222.061783,-9030.512492,306.438199
499.615937,-444.123565,-8808.450710,383.047749
499.616265,-518.144159,-8438.347739,689.485948
499.616593,-148.041188,-9252.574275,459.657299
499.616920,-370.102971,-9178.553681,229.828649
499.617248,-370.102971,-8956.491898,229.828649
499.617575,-296.082377,-8808.450710,459.657299
499.617903,0.000000,-8734.430116,612.876398
499.618230,0.000000,-8586.388927,383.047749
499.618558,-222.061783,-9178.553681,689.485948
499.618886,0.000000,-9400.615463,459.657299
499.619213,0.000000,-9400.615463,689.485948
499.619541,0.000000,-9400.615463,995.924147
499.619868,-296.082377,-9326.594869,612.876398
499.620196,-370.102971,-9252.574275,689.485948
499.620524,0.000000,-9400.615463,536.266849
499.620851,-222.061783,-9104.533087,536.266849
499.621179,-222.061783,-9178.553681,612.876398
499.621506,-222.061783,-8882.471304,842.705048
499.621834,-296.082377,-9178.553681,612.876398
499.622162,-296.082377,-9326.594869,536.266849
499.622489,-296.082377,-9474.636058,459.657299
499.622817,-370.102971,-9400.615463,383.047749
499.623144,-370.102971,-9326.594869,842.705048
499.623472,-370.102971,-9400.615463,383.047749
499.623800,-296.082377,-9326.594869,536.266849
499.624127,-222.061783,-9400.615463,229.828649
499.624455,-148.041188,-9474.636058,383.047749
499.624782,0.000000,-9178.553681,536.266849
499.625110,0.000000,-9400.615463,306.438199
499.625438,0.000000,-9474.636058,536.266849
499.625765,-296.082377,-9400.615463,612.876398
499.626093,0.000000,-9474.636058,383.047749
499.626420,0.000000,-9326.594869,229.828649
499.626748,0.000000,-9326.594869,76.609550
499.627075,-222.061783,-9326.594869,383.047749
499.627403,0.000000,-9474.636058,383.047749
499.627731,0.000000,-9252.574275,536.266849
499.628058,74.020594,-9178.553681,306.438199
499.628386,-370.102971,-8882.471304,689.485948
499.628713,0.000000,-9030.512492,536.266849
499.629041,-222.061783,-9030.512492,536.266849
499.629369,-296.082377,-9030.512492,459.657299
499.629696,-444.123565,-9104.533087,612.876398
499.630024,-518.144159,-9252.574275,689.485948
499.630351,0.000000,-9030.512492,612.876398
499.630679,-518.144159,-9030.512492,459.657299
499.631007,-370.102971,-9030.512492,612.876398
499.631334,0.000000,-9178.553681,689.485948
499.631662,0.000000,-8956.491898,919.314598
499.631989,-148.041188,-8808.450710,842.705048
499.632317,-296.082377,-9178.553681,612.876398
499.632645,-296.082377,-9252.574275,842.705048
499.632972,-370.102971,-9326.594869,919.314598
499.633300,-444.123565,-8956.491898,1072.533697
499.633627,-296.082377,-8956.491898,995.924147
499.633955,-444.123565,-9030.512492,919.314598
499.634283,-222.061783,-9030.512492,689.485948
499.634610,-296.082377,-8956.491898,612.876398
499.634938,-592.164754,-8808.450710,536.266849
499.635265,-370.102971,-9030.512492,766.095498
499.635593,-518.144159,-8808.450710,766.095498
499.635921,-222.061783,-8956.491898,459.657299
499.636248,-370.102971,-8882.471304,612.876398
499.636576,-444.123565,-9030.512492,536.266849
499.636903,-814.226536,-9178.553681,1302.362347
499.637231,0.000000,-9326.594869,229.828649
499.637558,-518.144159,-9178.553681,459.657299
499.637886,-148.041188,-9178.553681,612.876398
499.638214,0.000000,-9474.636058,459.657299
499.638541,0.000000,-9622.677246,459.657299
499.638869,74.020594,-9030.512492,459.657299
499.639196,0.000000,-9252.574275,383.047749
499.639524,-148.041188,-9178.553681,306.438199
499.639852,-222.061783,-9252.574275,306.438199
499.640179,-444.123565,-9326.594869,76.609550
499.640507,0.000000,-9252.574275,76.609550
499.640834,-444.123565,-8956.491898,536.266849
499.641162,0.000000,-9030.512492,459.657299
499.641490,-222.061783,-9030.512492,306.438199
499.641817,-148.041188,-8956.491898,306.438199
499.642145,0.000000,-8660.409521,766.095498
499.642472,-666.185348,-8586.388927,229.828649
499.642800,-592.164754,-8808.450710,383.047749
499.643128,-518.144159,-8808.450710,383.047749
499.643455,-592.164754,-8956.491898,536.266849
499.643783,-370.102971,-8956.491898,766.095498
499.644110,-888.247130,-8808.450710,612.876398
499.644438,-740.205942,-8882.471304,459.657299
499.644766,-518.144159,-8956.491898,459.657299
499.645093,-222.061783,-8808.450710,459.657299
499.645421,-296.082377,-9104.533087,919.314598
499.645748,0.000000,-8882.471304,536.266849
499.646076,-222.061783,-8882.471304,536.266849
499.646404,-592.164754,-9178.553681,536.266849
499.646731,-666.185348,-9252.574275,689.485948
499.647059,-740.205942,-9030.512492,612.876398
499.647386,-148.041188,-8956.491898,459.657299
499.647714,-296.082377,-9178.553681,612.876398
499.648041,-370.102971,-8956.491898,612.876398
499.648369,-296.082377,-8808.450710,536.266849
499.648697,-148.041188,-8808.450710,612.876398
499.649024,0.000000,-8586.388927,306.438199
499.649352,-814.226536,-8660.409521,153.219100
499.649679,-444.123565,-8956.491898,459.657299
499.650007,-666.185348,-8882.471304,229.828649
499.650335,-296.082377,-9030.512492,153.219100
499.650662,0.000000,-9400.615463,383.047749
499.650990,0.000000,-9104.533087,459.657299
499.651317,0.000000,-9252.574275,383.047749
499.651645,0.000000,-9178.553681,383.047749
499.651973,0.000000,-9400.615463,306.438199
499.652300,0.000000,-9326.594869,1072.533697
499.652628,0.000000,-9474.636058,766.095498
499.652955,74.020594,-9474.636058,612.876398
499.653283,0.000000,-9474.636058,689.485948
499.653611,0.000000,-9622.677246,383.047749
499.653938,0.000000,-9622.677246,536.266849
499.654266,0.000000,-9104.533087,0.000000
499.654593,74.020594,-9178.553681,536.266849
499.654921,0.000000,-9252.574275,383.047749
499.655249,-148.041188,-9326.594869,459.657299
499.655576,-222.061783,-9400.615463,383.047749
499.655904,0.000000,-9474.636058,612.876398
499.656231,-666.185348,-9400.615463,459.657299
499.656559,-740.205942,-9326.594869,536.266849
499.656886,-296.082377,-9400.615463,459.657299
499.657214,-296.082377,-9400.615463,459.657299
499.657542,-148.041188,-9400.615463,1149.143247
499.657869,-148.041188,-8808.450710,459.657299
499.658197,-370.102971,-9178.553681,536.266849
499.658524,-518.144159,-9178.553681,536.266849
499.658852,-370.102971,-9474.636058,766.095498
499.659180,-518.144159,-9178.553681,842.705048
499.659507,-148.041188,-9104.533087,995.924147
499.659835,-296.082377,-9326.594869,612.876398
499.660162,-148.041188,-9326.594869,919.314598
499.660490,-296.082377,-9252.574275,766.095498
499.660818,-222.061783,-9104.533087,842.705048
499.661145,-222.061783,-8734.430116,229.828649
499.661473,-296.082377,-9030.512492,766.095498
499.661800,-296.082377,-8956.491898,612.876398
499.662128,-296.082377,-9030.512492,536.266849
499.662456,-444.123565,-8882.471304,766.095498
499.662783,-370.102971,-8882.471304,153.219100
499.663111,-592.164754,-8808.450710,766.095498
499.663438,-592.164754,-8438.347739,536.266849
499.663766,-296.082377,-8734.430116,306.438199
499.664094,-444.123565,-8882.471304,459.657299
499.664421,-148.041188,-9178.553681,612.876398
499.664749,-222.061783,-9104.533087,919.314598
499.665076,-370.102971,-9104.533087,612.876398
499.665404,-370.102971,-9030.512492,612.876398
499.665732,-296.082377,-9252.574275,536.266849
499.666059,0.000000,-8956.491898,919.314598
499.666387,-296.082377,-9178.553681,1149.143247
499.666714,0.000000,-8882.471304,306.438199
499.667042,0.000000,-8956.491898,229.828649
499.667369,0.000000,-8882.471304,459.657299
499.667697,-148.041188,-8956.491898,306.438199
499.668025,-592.164754,-8660.409521,536.266849
499.668352,-370.102971,-8734.430116,536.266849
499.668680,-444.123565,-8882.471304,383.047749
499.669007,-444.123565,-8734.430116,459.657299
499.669335,-148.041188,-8882.471304,536.266849
499.669663,-296.082377,-8586.388927,153.219100
499.669990,-296.082377,-8734.430116,766.095498
499.670318,-518.144159,-8956.491898,766.095498
499.670645,-666.185348,-9178.553681,536.266849
499.670973,-666.185348,-9178.553681,842.705048
499.671301,-592.164754,-9178.553681,612.876398
499.671628,-296.082377,-9252.574275,229.828649
499.671956,-370.102971,-9178.553681,536.266849
499.672283,-296.082377,-9474.636058,536.266849
499.672611,-444.123565,-9326.594869,612.876398
499.672939,-74.020594,-9104.533087,383.047749
499.673266,0.000000,-9104.533087,459.657299
499.673594,-296.082377,-9400.615463,536.266849
499.673921,0.000000,-9400.615463,689.485948
499.674249,0.000000,-9326.594869,689.485948
499.674577,0.000000,-9326.594869,383.047749
499.674904,0.000000,-8956.491898,612.876398
499.675232,0.000000,-9252.574275,459.657299
499.675559,-296.082377,-9104.533087,306.438199
499.675887,-148.041188,-9104.533087,536.266849
499.676214,-444.123565,-9104.533087,536.266849
499.676542,-296.082377,-8882.471304,536.266849
499.676870,-222.061783,-9178.553681,459.657299
499.677197,-518.144159,-9030.512492,536.266849
499.677525,-444.123565,-9178.553681,383.047749
499.677852,-296.082377,-9326.594869,612.876398
499.678180,0.000000,-8956.491898,459.657299
499.678508,-222.061783,-8956.491898,536.266849
499.678835,0.000000,-9178.553681,153.219100
499.679163,0.000000,-9474.636058,536.266849
499.679490,0.000000,-9252.574275,536.266849
499.679818,0.000000,-9474.636058,536.266849
499.680146,74.020594,-9474.636058,306.438199
499.680473,-296.082377,-9474.636058,919.314598
499.680801,0.000000,-9252.574275,766.095498
