#time,accel_x,accel_y,accel_z
495.696585,-296.082377,-9326.594869,459.657299
495.696913,0.000000,-9104.533087,612.876398
495.697241,0.000000,-9178.553681,612.876398
495.697569,-296.082377,-9104.533087,536.266849
495.697897,-296.082377,-9252.574275,766.095498
495.698225,0.000000,-9104.533087,689.485948
495.698553,0.000000,-9030.512492,536.266849
495.698881,-296.082377,-9178.553681,306.438199
495.699209,-222.061783,-9400.615463,383.047749
495.699537,-444.123565,-9030.512492,383.047749
495.699864,0.000000,-8882.471304,689.485948
495.700192,-148.041188,-8956.491898,536.266849
495.700520,-296.082377,-8956.491898,689.485948
495.700848,-592.164754,-9030.512492,306.438199
495.701176,-518.144159,-9178.553681,536.266849
495.701504,0.000000,-9178.553681,766.095498
495.701832,-296.082377,-9104.533087,536.266849
495.702160,-222.061783,-9178.553681,612.876398
495.702488,-148.041188,-9252.574275,459.657299
495.702816,-296.082377,-9252.574275,306.438199
495.703144,-296.082377,-8808.450710,995.924147
495.703471,-222.061783,-8956.491898,306.438199
495.703799,-296.082377,-8956.491898,689.485948
495.704127,-296.082377,-9178.553681,766.095498
495.704455,0.000000,-9252.574275,612.876398
495.704783,0.000000,-9178.553681,919.314598
495.705111,-296.082377,-8808.450710,612.876398
495.705439,-296.082377,-8956.491898,612.876398
495.705767,-370.102971,-8956.491898,536.266849
495.706095,-370.102971,-8956.491898,766.095498
495.706423,-222.061783,-8882.471304,689.485948
495.706751,0.000000,-9326.594869,536.266849
495.707078,-888.247130,-9400.615463,229.828649
495.707406,-1480.411884,-9474.636058,0.000000
495.707734,-1480.411884,-9474.636058,-229.828649
495.708062,-1110.308913,-9252.574275,-306.438199
495.708390,0.000000,-9030.512492,-306.438199
495.708718,-518.144159,-8956.491898,-612.876398
495.709046,-814.226536,-9252.574275,-689.485948
495.709374,-1110.308913,-9252.574275,-842.705048
495.709702,-1110.308913,-9030.512492,-995.924147
495.710030,-888.247130,-8586.388927,-1225.752797
495.710358,-666.185348,-9104.533087,-1608.800546
495.710685,-592.164754,-9400.615463,-1532.190996
495.711013,-518.144159,-9474.636058,-1532.190996
495.711341,-370.102971,-9104.533087,-1302.362347
495.711669,0.000000,-8808.450710,-1455.581446
495.711997,148.041188,-9104.533087,-1149.143247
495.712325,74.020594,-9400.615463,-1762.019645
495.712653,222.061783,-9400.615463,-1838.629195
495.712981,370.102971,-9178.553681,-1762.019645
495.713309,148.041188,-8956.491898,-1685.410096
495.713637,518.144159,-9030.512492,-1378.971896
495.713965,0.000000,-9252.574275,-1532.190996
495.714292,444.123565,-9400.615463,-1762.019645
495.714620,296.082377,-9326.594869,-1608.800546
495.714948,296.082377,-9474.636058,-1915.238745
495.715276,74.020594,-9104.533087,-1532.190996
495.715604,222.061783,-9400.615463,-1685.410096
495.715932,0.000000,-9104.533087,-1532.190996
495.716260,0.000000,-9178.553681,-1762.019645
495.716588,-296.082377,-9400.615463,-1608.800546
495.716916,-740.205942,-9178.553681,-1532.190996
495.717244,-666.185348,-8586.388927,-2374.896044
495.717572,-962.267725,-8956.491898,-2374.896044
495.717900,-1184.329507,-9104.533087,-2298.286494
495.718227,-1628.453072,-9178.553681,-2528.115143
495.718555,-1628.453072,-8808.450710,-2834.553343
495.718883,-1776.494261,-9030.512492,-3140.991542
495.719211,-2146.597232,-8882.471304,-3217.601092
495.719539,-2072.576638,-8956.491898,-3600.648841
495.719867,-1554.432478,-8956.491898,-3677.258390
495.720195,-1776.494261,-8808.450710,-4060.306139
495.720523,-1702.473667,-8512.368333,-3524.039291
495.720851,-1406.391290,-8882.471304,-3907.087040
495.721179,-1036.288319,-8956.491898,-4060.306139
495.721507,-148.041188,-9104.533087,-3753.867940
495.721834,444.123565,-9030.512492,-3524.039291
495.722162,1406.391290,-8882.471304,-2374.896044
495.722490,1924.535449,-9030.512492,-2911.162892
495.722818,2368.659014,-9178.553681,-2145.067394
495.723146,2368.659014,-9252.574275,-2068.457845
495.723474,1998.556043,-9474.636058,-1991.848295
495.723802,1332.370696,-9770.718434,-1685.410096
495.724130,592.164754,-10288.862594,-2834.553343
495.724458,-666.185348,-10362.883188,-3217.601092
495.724786,-1850.514855,-10584.944971,-3830.477490
495.725114,-1998.556043,-10140.821405,-4366.744339
495.725441,-1924.535449,-9252.574275,-4903.011187
495.725769,-1258.350101,-8808.450710,-4903.011187
495.726097,74.020594,-7772.162391,-4443.353888
495.726425,1776.494261,-7105.977043,-3677.258390
495.726753,2516.700203,-6883.915261,-3064.381992
495.727081,2960.823768,-7328.038826,-2451.505594
495.727409,1924.535449,-8290.306550,-2298.286494
495.727737,0.000000,-9178.553681,-1838.629195
495.728065,-1924.535449,-10584.944971,-2068.457845
495.728393,-3849.070898,-11029.068536,-2374.896044
495.728721,-4071.132681,-11251.130318,-2604.724693
495.729048,-1998.556043,-9992.780217,-2451.505594
495.729376,2368.659014,-7624.121203,-306.438199
495.729704,7105.977043,-5921.647536,1915.238745
495.730032,10510.924376,-5329.482782,3524.039291
495.730360,9992.780217,-6735.874072,4366.744339
495.730688,5773.606348,-8660.409521,3677.258390
495.731016,0.000000,-10732.986159,2374.896044
495.731344,-6365.771101,-13101.645173,76.609550
495.731672,-10140.821405,-14285.974681,-1378.971896
495.732000,-11991.336260,-14137.933492,-3524.039291
495.732328,-11325.150913,-12361.439231,-3140.991542
495.732655,-8586.388927,-9770.718434,-3983.696590
495.732983,-3701.029710,-7328.038826,-2681.334243
495.733311,-1998.556043,-4367.215058,-4290.134789
495.733639,1184.329507,-4293.194464,-3294.210641
495.733967,-1776.494261,-5255.462188,-5286.058936
495.734295,-5181.441594,-6883.915261,-6971.469032
495.734623,-9844.739029,-8956.491898,-7967.393179
495.734951,-12287.418637,-9474.636058,-9116.536426
495.735279,-10362.883188,-9622.677246,-7890.783629
495.735607,-6439.791695,-8808.450710,-7048.078582
495.735935,518.144159,-7031.956449,-4903.011187
495.736262,5699.585753,-6957.935855,-3370.820191
495.736590,8512.368333,-7179.997637,-3524.039291
495.736918,8142.265362,-9178.553681,-3447.429741
495.737246,4885.359217,-10658.965565,-5209.449386
495.737574,4071.132681,-11399.171507,-6588.421283
495.737902,5551.544565,-10658.965565,-5439.278036
495.738230,9548.656652,-9918.759623,-3753.867940
495.738558,12435.459826,-9178.553681,-1762.019645
495.738886,12657.521608,-9918.759623,0.000000
495.739214,11473.192101,-10140.821405,76.609550
495.739542,9030.512492,-10881.027347,-459.657299
495.739870,6143.709319,-10658.965565,-2374.896044
495.740197,5551.544565,-10732.986159,-1532.190996
495.740525,4663.297435,-10288.862594,-1532.190996
495.740853,-1332.370696,-12139.377449,-2221.676944
495.741181,-7031.956449,-12139.377449,-3830.477490
495.741509,-11843.295072,-11843.295072,-6358.592633
495.741837,-12287.418637,-7624.121203,-7124.688131
495.742165,-7698.141797,-3552.988522,-6511.811733
495.742493,-1036.288319,-1036.288319,-5515.887586
495.742821,1850.514855,-1628.453072,-2528.115143
495.743149,2294.638420,-1924.535449,-1762.019645
495.743477,444.123565,-3923.091493,-536.266849
495.743804,-2368.659014,-5699.585753,-689.485948
495.744132,-2886.803174,-7179.997637,153.219100
495.744460,-4145.153275,-9548.656652,612.876398
495.744788,-3330.926739,-10881.027347,3064.381992
495.745116,-3478.967927,-11917.315666,4136.915689
495.745444,-2368.659014,-11325.150913,6052.154434
495.745772,1480.411884,-9178.553681,6511.811733
495.746100,3775.050304,-9770.718434,5975.544884
495.746428,3404.947333,-11029.068536,4060.306139
495.746756,0.000000,-11843.295072,2374.896044
495.747084,-2664.741391,-11769.274478,842.705048
495.747411,-2960.823768,-9918.759623,1378.971896
495.747739,-296.082377,-7846.182985,1838.629195
495.748067,1184.329507,-8068.244768,1685.410096
495.748395,-740.205942,-8808.450710,1225.752797
495.748723,-3775.050304,-10362.883188,2145.067394
495.749051,-6143.709319,-9326.594869,919.314598
495.749379,-8216.285956,-9326.594869,76.609550
495.749707,-4737.318029,-10066.800811,459.657299
495.750035,-2960.823768,-10214.842000,306.438199
495.750363,-4959.379811,-10140.821405,-1225.752797
495.750691,-5477.523971,-9178.553681,-995.924147
495.751018,-5033.400406,-7105.977043,-1302.362347
495.751346,-3404.947333,-5403.503377,-1378.971896
495.751674,592.164754,-6291.750507,-1225.752797
495.752002,2220.617826,-7846.182985,-3294.210641
495.752330,2146.597232,-9992.780217,-2987.772442
495.752658,2368.659014,-9844.739029,-2221.676944
495.752986,3701.029710,-9030.512492,-1378.971896
495.753313,7105.977043,-9696.697840,459.657299
495.753641,8660.409521,-12879.583391,1608.800546
495.753969,6217.729913,-14063.912898,766.095498
495.754297,2516.700203,-14211.954086,383.047749
495.754625,2146.597232,-12509.480420,1149.143247
495.754953,2442.679609,-11399.171507,1225.752797
495.755280,3182.885551,-11251.130318,1532.190996
495.755608,3997.112087,-11843.295072,1302.362347
495.755936,2960.823768,-10955.047942,919.314598
495.756264,1332.370696,-7846.182985,229.828649
495.756592,1924.535449,-5995.668130,1685.410096
495.756920,2368.659014,-5181.441594,153.219100
495.757247,-1258.350101,-7550.100608,-766.095498
495.757575,-3404.947333,-8734.430116,-2374.896044
495.757903,-7254.018232,-7402.059420,-1915.238745
495.758231,-7179.997637,-6291.750507,-1532.190996
495.758559,-4959.379811,-5921.647536,-536.266849
495.758887,-4145.153275,-7698.141797,-459.657299
495.759214,-4589.276840,-9474.636058,-1302.362347
495.759542,-4071.132681,-8956.491898,-1378.971896
495.759870,-3478.967927,-6513.812290,-995.924147
495.760198,-2442.679609,-5107.421000,229.828649
495.760526,-2220.617826,-6513.812290,0.000000
495.760854,-1924.535449,-9252.574275,-229.828649
495.761181,-2072.576638,-10140.821405,0.000000
495.761509,-1110.308913,-8586.388927,0.000000
495.761837,740.205942,-7550.100608,1762.019645
495.762165,3701.029710,-8216.285956,2145.067394
495.762493,4219.173869,-9992.780217,2374.896044
495.762821,3775.050304,-10955.047942,2068.457845
495.763148,4145.153275,-9622.677246,2451.505594
495.763476,4737.318029,-7698.141797,3294.210641
495.763804,4367.215058,-8068.244768,3447.429741
495.764132,2294.638420,-10066.800811,2604.724693
495.764460,74.020594,-11695.253884,1532.190996
495.764788,-1036.288319,-10732.986159,842.705048
495.765115,-1628.453072,-8068.244768,0.000000
495.765443,-1998.556043,-6439.791695,1378.971896
495.765771,814.226536,-7402.059420,919.314598
495.766099,-370.102971,-9474.636058,-153.219100
495.766427,-740.205942,-8438.347739,229.828649
495.766755,-222.061783,-7698.141797,229.828649
495.767082,-740.205942,-7105.977043,1072.533697
495.767410,-2442.679609,-9030.512492,919.314598
495.767738,-3478.967927,-10881.027347,383.047749
495.768066,-5033.400406,-12065.356855,229.828649
495.768394,-3923.091493,-10362.883188,0.000000
495.768722,-2368.659014,-8660.409521,229.828649
495.769049,-1332.370696,-8956.491898,459.657299
495.769377,-814.226536,-9696.697840,612.876398
495.769705,-1702.473667,-10584.944971,306.438199
495.770033,-518.144159,-9252.574275,153.219100
495.770361,1110.308913,-7624.121203,383.047749
495.770689,1702.473667,-7328.038826,1608.800546
495.771016,888.247130,-9178.553681,842.705048
495.771344,-1036.288319,-11399.171507,76.609550
495.771672,-1628.453072,-11399.171507,229.828649
495.772000,-518.144159,-9992.780217,229.828649
495.772328,740.205942,-9252.574275,689.485948
495.772655,814.226536,-9992.780217,766.095498
495.772983,296.082377,-11547.212695,842.705048
495.773311,74.020594,-11103.089130,689.485948
495.773639,1036.288319,-9326.594869,766.095498
495.773967,2664.741391,-7920.203579,1455.581446
495.774295,2368.659014,-9252.574275,1838.629195
495.774622,-370.102971,-10881.027347,459.657299
495.774950,-2220.617826,-11251.130318,306.438199
495.775278,-1776.494261,-9474.636058,0.000000
495.775606,-814.226536,-8808.450710,153.219100
495.775934,444.123565,-7624.121203,459.657299
495.776262,1184.329507,-8882.471304,689.485948
495.776589,222.061783,-9548.656652,306.438199
495.776917,444.123565,-8364.327145,536.266849
495.777245,592.164754,-7402.059420,612.876398
495.777573,1110.308913,-7328.038826,1302.362347
495.777901,-296.082377,-8882.471304,383.047749
495.778229,-2368.659014,-10140.821405,-383.047749
495.778556,-3256.906145,-9992.780217,-306.438199
495.778884,-2146.597232,-8364.327145,0.000000
495.779212,-962.267725,-7328.038826,536.266849
495.779540,370.102971,-7846.182985,612.876398
495.779868,0.000000,-8956.491898,383.047749
495.780196,0.000000,-8734.430116,229.828649
495.780523,592.164754,-7328.038826,229.828649
495.780851,1332.370696,-6513.812290,766.095498
495.781179,1480.411884,-7920.203579,1149.143247
495.781507,-148.041188,-9622.677246,919.314598
495.781835,-1554.432478,-10732.986159,459.657299
495.782163,-1850.514855,-9622.677246,766.095498
495.782490,-370.102971,-8438.347739,1685.410096
495.782818,888.247130,-8142.265362,1072.533697
495.783146,888.247130,-8586.388927,689.485948
495.783474,0.000000,-9474.636058,459.657299
495.783802,222.061783,-8660.409521,995.924147
495.784130,1554.432478,-7105.977043,1072.533697
495.784457,1258.350101,-7105.977043,1072.533697
495.784785,1258.350101,-8586.388927,1302.362347
495.785113,-1110.308913,-10584.944971,919.314598
495.785441,-2368.659014,-10288.862594,536.266849
495.785769,-2072.576638,-8956.491898,229.828649
495.786097,-888.247130,-8142.265362,919.314598
495.786424,-814.226536,-8882.471304,459.657299
495.786752,-1554.432478,-10362.883188,-229.828649
495.787080,-2294.638420,-10140.821405,-689.485948
495.787408,-1110.308913,-8142.265362,-612.876398
495.787736,1184.329507,-7105.977043,306.438199
495.788064,1258.350101,-7772.162391,-306.438199
495.788391,444.123565,-9474.636058,0.000000
495.788719,-1406.391290,-10881.027347,-383.047749
495.789047,-2220.617826,-9844.739029,-612.876398
495.789375,-1332.370696,-9178.553681,0.000000
495.789703,370.102971,-9252.574275,76.609550
495.790031,592.164754,-10732.986159,76.609550
495.790358,370.102971,-11621.233289,306.438199
495.790686,518.144159,-10658.965565,1225.752797
495.791014,1406.391290,-9104.533087,1378.971896
495.791342,2664.741391,-8660.409521,1991.848295
495.791670,1628.453072,-9992.780217,1532.190996
495.791998,-444.123565,-11695.253884,689.485948
495.792325,-1998.556043,-11325.150913,76.609550
495.792653,-1110.308913,-9918.759623,919.314598
495.792981,444.123565,-8290.306550,1072.533697
495.793309,74.020594,-9326.594869,1072.533697
495.793637,148.041188,-10288.862594,536.266849
495.793965,-814.226536,-10436.903782,689.485948
495.794292,-296.082377,-8586.388927,1302.362347
495.794620,592.164754,-7105.977043,1225.752797
495.794948,518.144159,-7476.080014,1455.581446
495.795276,-814.226536,-9770.718434,1149.143247
495.795604,-3034.844362,-10807.006753,153.219100
495.795932,-3627.009116,-9474.636058,306.438199
495.796259,-2886.803174,-7328.038826,689.485948
495.796587,-888.247130,-7179.997637,1149.143247
495.796915,-1332.370696,-8586.388927,766.095498
495.797243,-1702.473667,-9474.636058,459.657299
495.797571,-1628.453072,-8660.409521,383.047749
495.797898,-296.082377,-7105.977043,689.485948
495.798226,592.164754,-6365.771101,1225.752797
495.798554,592.164754,-8364.327145,842.705048
495.798882,-666.185348,-10140.821405,612.876398
495.799210,-1924.535449,-10066.800811,0.000000
495.799538,-1110.308913,-8512.368333,306.438199
495.799865,444.123565,-7402.059420,919.314598
495.800193,1258.350101,-8364.327145,1225.752797
495.800521,518.144159,-10140.821405,689.485948
495.800849,222.061783,-10362.883188,842.705048
495.801177,1258.350101,-9104.533087,1149.143247
495.801505,2442.679609,-7624.121203,1378.971896
495.801832,2368.659014,-7328.038826,995.924147
495.802160,1554.432478,-9400.615463,1072.533697
495.802488,-444.123565,-10510.924376,229.828649
495.802816,-1480.411884,-9178.553681,-153.219100
495.803144,-814.226536,-7328.038826,76.609550
495.803472,444.123565,-6957.935855,153.219100
495.803799,222.061783,-8364.327145,0.000000
495.804127,-444.123565,-9474.636058,-612.876398
495.804455,-888.247130,-9178.553681,-612.876398
495.804783,74.020594,-7772.162391,-229.828649
495.805111,1184.329507,-7031.956449,612.876398
495.805439,370.102971,-8882.471304,383.047749
495.805766,-888.247130,-11177.109724,0.000000
495.806094,-2516.700203,-11695.253884,-306.438199
495.806422,-2368.659014,-10362.883188,0.000000
495.806750,-1110.308913,-9104.533087,383.047749
495.807078,-740.205942,-9696.697840,153.219100
495.807406,-814.226536,-11103.089130,0.000000
495.807733,-888.247130,-11547.212695,0.000000
495.808061,74.020594,-9696.697840,-153.219100
495.808389,1850.514855,-8290.306550,229.828649
495.808717,2220.617826,-7624.121203,919.314598
495.809045,1036.288319,-9844.739029,536.266849
495.809373,-962.267725,-11325.150913,0.000000
495.809700,-1702.473667,-10881.027347,0.000000
495.810028,-814.226536,-9252.574275,612.876398
495.810356,148.041188,-8290.306550,1149.143247
495.810684,444.123565,-9696.697840,995.924147
495.811012,148.041188,-10658.965565,919.314598
495.811340,-222.061783,-9992.780217,766.095498
495.811667,370.102971,-8364.327145,1149.143247
495.811995,888.247130,-7550.100608,2068.457845
495.812323,814.226536,-8882.471304,1302.362347
495.812651,-1258.350101,-10214.842000,766.095498
495.812979,-2368.659014,-10584.944971,0.000000
495.813307,-2220.617826,-9030.512492,153.219100
495.813634,-444.123565,-7994.224174,1149.143247
495.813962,74.020594,-7698.141797,842.705048
495.814290,-222.061783,-9400.615463,995.924147
495.814618,-666.185348,-9992.780217,689.485948
495.814946,-370.102971,-8956.491898,919.314598
495.815274,74.020594,-7402.059420,1532.190996
495.815601,444.123565,-7476.080014,1838.629195
495.815929,-1332.370696,-9844.739029,995.924147
495.816257,-3256.906145,-11103.089130,536.266849
495.816585,-3330.926739,-10140.821405,306.438199
495.816913,-2442.679609,-8142.265362,229.828649
495.817241,-296.082377,-7179.997637,536.266849
495.817568,0.000000,-7920.203579,306.438199
495.817896,-222.061783,-9252.574275,76.609550
495.818224,0.000000,-8512.368333,0.000000
495.818552,1036.288319,-6957.935855,306.438199
495.818880,1998.556043,-6809.894666,842.705048
495.819208,1628.453072,-7698.141797,612.876398
495.819535,0.000000,-10214.842000,383.047749
495.819863,-1480.411884,-10732.986159,153.219100
495.820191,-1036.288319,-9696.697840,612.876398
495.820519,148.041188,-8512.368333,1455.581446
495.820847,1850.514855,-8290.306550,1532.190996
495.821175,1110.308913,-10288.862594,1608.800546
495.821502,1406.391290,-10288.862594,1225.752797
495.821830,1850.514855,-9326.594869,1455.581446
495.822158,3034.844362,-7846.182985,1838.629195
495.822486,2812.782580,-7624.121203,1378.971896
495.822814,444.123565,-9474.636058,1149.143247
495.823141,-1776.494261,-10732.986159,229.828649
495.823469,-2812.782580,-10362.883188,-153.219100
495.823797,-2368.659014,-8586.388927,0.000000
495.824125,-1480.411884,-7476.080014,153.219100
495.824453,-1110.308913,-8660.409521,-153.219100
495.824781,-2220.617826,-9696.697840,-689.485948
495.825108,-2368.659014,-9252.574275,-766.095498
495.825436,-1554.432478,-7550.100608,-842.705048
495.825764,-814.226536,-6661.853478,153.219100
495.826092,0.000000,-7476.080014,0.000000
495.826420,-1406.391290,-9326.594869,-612.876398
495.826748,-2960.823768,-10066.800811,-536.266849
495.827075,-2812.782580,-9178.553681,-459.657299
495.827403,-1406.391290,-8290.306550,-229.828649
495.827731,-148.041188,-8438.347739,-306.438199
495.828059,0.000000,-9992.780217,0.000000
495.828387,0.000000,-10658.965565,-153.219100
495.828715,1184.329507,-9252.574275,76.609550
495.829042,2960.823768,-7550.100608,1225.752797
495.829370,3997.112087,-7550.100608,1302.362347
495.829698,2738.761985,-9400.615463,1225.752797
495.830026,740.205942,-11547.212695,612.876398
495.830354,-888.247130,-11029.068536,536.266849
495.830682,-518.144159,-9770.718434,459.657299
495.831009,518.144159,-9326.594869,842.705048
495.831337,74.020594,-9622.677246,995.924147
495.831665,814.226536,-10732.986159,306.438199
495.831993,0.000000,-10362.883188,689.485948
495.832321,1036.288319,-8586.388927,842.705048
495.832649,1998.556043,-6957.935855,1455.581446
495.832976,814.226536,-8068.244768,1072.533697
495.833304,-592.164754,-10140.821405,612.876398
495.833632,-2738.761985,-10955.047942,0.000000
495.833960,-2960.823768,-9770.718434,383.047749
495.834288,-1480.411884,-7698.141797,842.705048
495.834616,0.000000,-8142.265362,1225.752797
495.834943,-296.082377,-9252.574275,1149.143247
495.835271,-296.082377,-9992.780217,1302.362347
495.835599,148.041188,-9104.533087,1149.143247
495.835927,1332.370696,-7476.080014,2068.457845
495.836255,1406.391290,-7920.203579,2451.505594
495.836583,-148.041188,-9992.780217,1915.238745
495.836910,-2146.597232,-11917.315666,1455.581446
495.837238,-3478.967927,-11547.212695,1149.143247
495.837566,-3034.844362,-9918.759623,995.924147
495.837894,-1776.494261,-9104.533087,1378.971896
495.838222,-1702.473667,-9474.636058,383.047749
495.838550,-2072.576638,-10214.842000,153.219100
495.838877,-2368.659014,-9696.697840,-536.266849
495.839205,-1406.391290,-7402.059420,-306.438199
495.839533,222.061783,-6069.688724,306.438199
495.839861,740.205942,-6661.853478,153.219100
495.840189,-592.164754,-8364.327145,-153.219100
495.840517,-2072.576638,-9474.636058,-919.314598
495.840844,-2294.638420,-8142.265362,-612.876398
495.841172,-222.061783,-7179.997637,0.000000
495.841500,1776.494261,-6513.812290,306.438199
495.841828,2146.597232,-8068.244768,842.705048
495.842156,2368.659014,-9474.636058,1455.581446
495.842484,2664.741391,-8882.471304,1762.019645
495.842811,3330.926739,-7624.121203,2451.505594
495.843139,3701.029710,-7476.080014,2911.162892
495.843467,2738.761985,-9252.574275,1991.848295
495.843795,0.000000,-11251.130318,1072.533697
495.844123,-1258.350101,-10584.944971,153.219100
495.844451,-962.267725,-9178.553681,76.609550
495.844778,74.020594,-8438.347739,919.314598
495.845106,148.041188,-8512.368333,153.219100
495.845434,-962.267725,-10066.800811,-153.219100
495.845762,-1924.535449,-9918.759623,-842.705048
495.846090,-2220.617826,-8290.306550,-766.095498
495.846418,-1184.329507,-7105.977043,0.000000
495.846745,-1406.391290,-7254.018232,-383.047749
495.847073,-3182.885551,-9178.553681,-766.095498
495.847401,-4663.297435,-9770.718434,-1149.143247
495.847729,-4737.318029,-8586.388927,-1149.143247
495.848057,-3108.864956,-6513.812290,-919.314598
495.848384,-592.164754,-5773.606348,459.657299
495.848712,370.102971,-7476.080014,0.000000
495.849040,74.020594,-8808.450710,0.000000
495.849368,1554.432478,-8586.388927,459.657299
495.849696,2590.720797,-7254.018232,1302.362347
495.850024,4515.256246,-7698.141797,2145.067394
495.850351,3330.926739,-9030.512492,1762.019645
495.850679,1998.556043,-11843.295072,1991.848295
495.851007,592.164754,-12953.603985,1378.971896
495.851335,518.144159,-11177.109724,1685.410096
495.851663,592.164754,-10288.862594,1455.581446
495.851991,1850.514855,-12065.356855,1685.410096
495.852318,222.061783,-12361.439231,459.657299
495.852646,-1998.556043,-12287.418637,306.438199
495.852974,0.000000,-9992.780217,153.219100
495.853302,0.000000,-8438.347739,0.000000
495.853630,0.000000,-8660.409521,919.314598
495.853958,-1850.514855,-9918.759623,-459.657299
495.854285,-3552.988522,-11103.089130,-383.047749
495.854613,-3849.070898,-9178.553681,-842.705048
495.854941,-2516.700203,-7476.080014,-229.828649
495.855269,-1628.453072,-7254.018232,612.876398
495.855596,-296.082377,-8364.327145,229.828649
495.855924,-666.185348,-9622.677246,766.095498
495.856252,0.000000,-9326.594869,1072.533697
495.856580,1036.288319,-8216.285956,1915.238745
495.856908,1628.453072,-8216.285956,2528.115143
495.857235,1036.288319,-9918.759623,1685.410096
495.857563,-296.082377,-11917.315666,2145.067394
495.857891,-1332.370696,-11843.295072,1378.971896
495.858219,-296.082377,-10732.986159,1378.971896
495.858546,370.102971,-9474.636058,1838.629195
495.858874,1184.329507,-10066.800811,2145.067394
495.859202,222.061783,-11325.150913,1072.533697
495.859530,-962.267725,-11177.109724,919.314598
495.859858,-888.247130,-9326.594869,383.047749
495.860185,-518.144159,-8216.285956,1149.143247
495.860513,-444.123565,-7994.224174,689.485948
495.860841,-2146.597232,-9696.697840,0.000000
495.861169,-3849.070898,-9696.697840,-459.657299
495.861496,-3701.029710,-8438.347739,-612.876398
495.861824,-1998.556043,-6143.709319,0.000000
495.862152,0.000000,-5403.503377,76.609550
495.862480,666.185348,-6439.791695,536.266849
495.862808,222.061783,-7698.141797,76.609550
495.863135,888.247130,-7476.080014,766.095498
495.863463,1702.473667,-6439.791695,1225.752797
495.863791,2590.720797,-6661.853478,1915.238745
495.864119,1998.556043,-7994.224174,1532.190996
495.864446,518.144159,-10584.944971,919.314598
495.864774,-370.102971,-10732.986159,612.876398
495.865102,-296.082377,-9474.636058,766.095498
495.865430,1184.329507,-8142.265362,1149.143247
495.865758,1554.432478,-9326.594869,919.314598
495.866085,370.102971,-10510.924376,76.609550
495.866413,-666.185348,-10362.883188,0.000000
495.866741,-666.185348,-8660.409521,-306.438199
495.867069,740.205942,-6883.915261,459.657299
495.867396,1184.329507,-7402.059420,0.000000
495.867724,-592.164754,-9030.512492,-153.219100
495.868052,-2886.803174,-9770.718434,-766.095498
495.868380,-3552.988522,-8882.471304,-1072.533697
495.868708,-2812.782580,-7105.977043,-766.095498
495.869035,-1406.391290,-6439.791695,-536.266849
495.869363,-740.205942,-7402.059420,-766.095498
495.869691,-666.185348,-8660.409521,-383.047749
495.870019,0.000000,-8068.244768,-153.219100
495.870346,1184.329507,-6883.915261,459.657299
495.870674,2664.741391,-6365.771101,1072.533697
495.871002,2590.720797,-8216.285956,1225.752797
495.871330,1036.288319,-10807.006753,842.705048
495.871658,-222.061783,-11991.336260,766.095498
495.871985,0.000000,-11547.212695,995.924147
495.872313,1406.391290,-10436.903782,1685.410096
495.872641,1776.494261,-10881.027347,2145.067394
495.872969,814.226536,-12213.398043,1149.143247
495.873296,-296.082377,-13175.665768,689.485948
495.873624,-592.164754,-11103.089130,459.657299
495.873952,444.123565,-9326.594869,842.705048
495.874280,296.082377,-8290.306550,689.485948
495.874608,-888.247130,-9992.780217,76.609550
495.874935,-3256.906145,-11399.171507,-383.047749
495.875263,-3997.112087,-10066.800811,-459.657299
495.875591,-3182.885551,-7846.182985,-153.219100
495.875919,-1406.391290,-6809.894666,-306.438199
495.876246,-1036.288319,-8142.265362,612.876398
495.876574,-888.247130,-9474.636058,612.876398
495.876902,-888.247130,-9252.574275,1072.533697
495.877230,740.205942,-7402.059420,1762.019645
495.877558,2072.576638,-7179.997637,2451.505594
495.877885,1406.391290,-9178.553681,2068.457845
495.878213,-296.082377,-11177.109724,1608.800546
495.878541,-1110.308913,-11621.233289,1608.800546
495.878869,-444.123565,-10510.924376,1991.848295
495.879196,518.144159,-9918.759623,2451.505594
495.879524,740.205942,-9844.739029,2068.457845
495.879852,444.123565,-11399.171507,1532.190996
495.880180,-740.205942,-11695.253884,919.314598
495.880508,-666.185348,-10214.842000,766.095498
495.880835,0.000000,-8512.368333,1455.581446
495.881163,444.123565,-8364.327145,1149.143247
495.881491,-1480.411884,-9844.739029,459.657299
495.881819,-3849.070898,-10140.821405,-459.657299
495.882146,-4441.235652,-8734.430116,-995.924147
495.882474,-3404.947333,-6365.771101,-842.705048
495.882802,-1332.370696,-5107.421000,-383.047749
495.883130,-814.226536,-5995.668130,0.000000
495.883458,-1110.308913,-7402.059420,0.000000
495.883785,-444.123565,-6957.935855,0.000000
495.884113,444.123565,-5847.626942,612.876398
495.884441,2220.617826,-5773.606348,766.095498
495.884769,1628.453072,-7254.018232,1072.533697
495.885096,370.102971,-9548.656652,536.266849
495.885424,-444.123565,-10214.842000,153.219100
495.885752,518.144159,-9252.574275,383.047749
495.886080,2072.576638,-8512.368333,689.485948
495.886408,3108.864956,-8438.347739,612.876398
495.886735,2516.700203,-10288.862594,459.657299
495.887063,1406.391290,-10881.027347,76.609550
495.887391,666.185348,-9918.759623,0.000000
495.887719,1406.391290,-8364.327145,383.047749
495.888046,1184.329507,-8142.265362,306.438199
495.888374,-1184.329507,-10066.800811,-689.485948
495.888702,-3108.864956,-11251.130318,-1072.533697
495.889030,-4515.256246,-10140.821405,-1455.581446
495.889358,-2960.823768,-7698.141797,-1225.752797
495.889685,-1036.288319,-6735.874072,-612.876398
495.890013,0.000000,-7476.080014,-766.095498
495.890341,-444.123565,-8438.347739,-1149.143247
495.890669,-666.185348,-8438.347739,-842.705048
495.890996,740.205942,-6957.935855,0.000000
495.891324,1850.514855,-6513.812290,306.438199
495.891652,2368.659014,-7328.038826,1149.143247
495.891980,1184.329507,-10214.842000,842.705048
495.892308,74.020594,-11547.212695,995.924147
495.892635,0.000000,-10955.047942,1378.971896
495.892963,666.185348,-9918.759623,1455.581446
495.893291,1406.391290,-10658.965565,1685.410096
495.893619,444.123565,-12361.439231,1532.190996
495.893946,-370.102971,-12953.603985,995.924147
495.894274,-370.102971,-11621.233289,1302.362347
495.894602,740.205942,-9696.697840,1685.410096
495.894930,1406.391290,-8808.450710,1608.800546
495.895258,-888.247130,-10658.965565,1378.971896
495.895585,-2368.659014,-11473.192101,536.266849
495.895913,-3849.070898,-10658.965565,306.438199
495.896241,-3552.988522,-8438.347739,76.609550
495.896569,-2072.576638,-7772.162391,0.000000
495.896896,-1776.494261,-8364.327145,612.876398
495.897224,-2294.638420,-9252.574275,459.657299
495.897552,-1776.494261,-8660.409521,766.095498
495.897880,0.000000,-7031.956449,1455.581446
495.898208,1258.350101,-5773.606348,2068.457845
495.898535,1702.473667,-7179.997637,2528.115143
495.898863,444.123565,-9474.636058,2374.896044
495.899191,-962.267725,-10807.006753,1991.848295
495.899519,-1258.350101,-9918.759623,1838.629195
495.899846,-370.102971,-9252.574275,1532.190996
495.900174,222.061783,-9326.594869,1915.238745
495.900502,0.000000,-10807.006753,1149.143247
495.900830,-814.226536,-11103.089130,919.314598
495.901158,-518.144159,-9696.697840,689.485948
495.901485,222.061783,-7624.121203,1072.533697
495.901813,592.164754,-7772.162391,766.095498
495.902141,-962.267725,-9252.574275,0.000000
495.902469,-3330.926739,-10436.903782,-919.314598
495.902796,-4885.359217,-9548.656652,-1455.581446
495.903124,-3627.009116,-7772.162391,-1378.971896
495.903452,-1850.514855,-6069.688724,-1072.533697
495.903780,-444.123565,-7031.956449,-459.657299
495.904108,-222.061783,-7920.203579,-689.485948
495.904435,-296.082377,-7476.080014,-459.657299
495.904763,1184.329507,-6217.729913,76.609550
495.905091,3108.864956,-5625.565159,76.609550
495.905419,3256.906145,-6587.832884,1225.752797
495.905746,3034.844362,-9252.574275,995.924147
495.906074,1406.391290,-10658.965565,689.485948
495.906402,1332.370696,-9918.759623,766.095498
495.906730,2072.576638,-9326.594869,1225.752797
495.907058,2368.659014,-9400.615463,1302.362347
495.907385,1850.514855,-10807.006753,459.657299
495.907713,1110.308913,-12139.377449,76.609550
495.908041,1184.329507,-10584.944971,0.000000
495.908369,1554.432478,-9474.636058,536.266849
495.908696,1480.411884,-8660.409521,153.219100
495.909024,148.041188,-10066.800811,-229.828649
495.909352,-3108.864956,-11843.295072,-1302.362347
495.909680,-4515.256246,-11325.150913,-2068.457845
495.910008,-4515.256246,-9104.533087,-1838.629195
495.910335,-2738.761985,-6883.915261,-689.485948
495.910663,-1110.308913,-7624.121203,-766.095498
495.910991,-1110.308913,-8808.450710,-536.266849
495.911319,-962.267725,-8586.388927,-459.657299
495.911646,148.041188,-7254.018232,76.609550
495.911974,1332.370696,-5995.668130,919.314598
495.912302,1628.453072,-7105.977043,1149.143247
495.912630,518.144159,-9622.677246,1149.143247
495.912958,-444.123565,-11547.212695,995.924147
495.913285,-740.205942,-10732.986159,1455.581446
495.913613,666.185348,-9622.677246,2528.115143
495.913941,1406.391290,-9696.697840,2451.505594
495.914269,1554.432478,-11251.130318,2451.505594
495.914596,1332.370696,-12435.459826,2298.286494
495.914924,1406.391290,-11399.171507,2374.896044
495.915252,1258.350101,-9770.718434,2528.115143
495.915580,1406.391290,-9400.615463,2757.943793
495.915908,-444.123565,-10214.842000,1991.848295
495.916235,-3701.029710,-11325.150913,995.924147
495.916563,-4885.359217,-10214.842000,229.828649
495.916891,-4737.318029,-8364.327145,459.657299
495.917219,-3034.844362,-6513.812290,612.876398
495.917546,-2590.720797,-6439.791695,153.219100
495.917874,-2664.741391,-7105.977043,76.609550
495.918202,-2886.803174,-7105.977043,0.000000
495.918530,-1776.494261,-5625.565159,76.609550
495.918858,0.000000,-4515.256246,995.924147
495.919185,222.061783,-5329.482782,919.314598
495.919513,-444.123565,-7550.100608,842.705048
495.919841,-1924.535449,-9474.636058,383.047749
495.920169,-1702.473667,-9104.533087,766.095498
495.920497,0.000000,-8364.327145,919.314598
495.920824,1332.370696,-8512.368333,842.705048
495.921152,1924.535449,-10066.800811,1149.143247
495.921480,1924.535449,-11769.274478,1072.533697
495.921808,1998.556043,-11103.089130,1072.533697
495.922135,3034.844362,-9622.677246,1455.581446
495.922463,3404.947333,-9474.636058,689.485948
495.922791,962.267725,-10510.924376,229.828649
495.923119,-1184.329507,-11843.295072,-612.876398
495.923447,-2590.720797,-11473.192101,-1302.362347
495.923774,-2146.597232,-9252.574275,-1378.971896
495.924102,-444.123565,-8068.244768,-842.705048
495.924430,1036.288319,-7846.182985,-229.828649
495.924758,0.000000,-9104.533087,-842.705048
495.925085,0.000000,-8808.450710,-459.657299
495.925413,148.041188,-7105.977043,-459.657299
495.925741,1184.329507,-5699.585753,766.095498
495.926069,2294.638420,-6587.832884,612.876398
495.926397,592.164754,-8808.450710,766.095498
495.926724,-962.267725,-10066.800811,536.266849
495.927052,-1110.308913,-9992.780217,459.657299
495.927380,-444.123565,-9178.553681,842.705048
495.927708,222.061783,-8734.430116,995.924147
495.928035,888.247130,-10288.862594,842.705048
495.928363,518.144159,-11769.274478,766.095498
495.928691,666.185348,-11325.150913,612.876398
495.929019,1258.350101,-9622.677246,1072.533697
495.929347,1480.411884,-8512.368333,1455.581446
495.929674,518.144159,-10362.883188,766.095498
495.930002,-2146.597232,-11917.315666,76.609550
495.930330,-3849.070898,-11843.295072,-459.657299
495.930658,-3923.091493,-10140.821405,-459.657299
495.930985,-2738.761985,-8216.285956,153.219100
495.931313,-2146.597232,-8512.368333,76.609550
495.931641,-2220.617826,-8956.491898,-229.828649
495.931969,-2368.659014,-9178.553681,0.000000
495.932297,-1184.329507,-6735.874072,0.000000
495.932624,518.144159,-5625.565159,612.876398
495.932952,1702.473667,-6143.709319,1532.190996
495.933280,592.164754,-7920.203579,1072.533697
495.933608,-962.267725,-9844.739029,1072.533697
495.933935,-1702.473667,-9770.718434,995.924147
495.934263,-296.082377,-8808.450710,1532.190996
495.934591,814.226536,-8364.327145,1532.190996
495.934919,1480.411884,-9844.739029,1838.629195
495.935247,1480.411884,-11547.212695,1838.629195
495.935574,1184.329507,-11251.130318,1991.848295
495.935902,2146.597232,-9400.615463,2145.067394
495.936230,2516.700203,-9104.533087,2221.676944
495.936558,962.267725,-9918.759623,1608.800546
495.936885,-1776.494261,-11473.192101,536.266849
495.937213,-3552.988522,-11399.171507,0.000000
495.937541,-3256.906145,-9252.574275,0.000000
495.937869,-1850.514855,-7624.121203,459.657299
495.938197,-1036.288319,-7402.059420,76.609550
495.938524,-1702.473667,-8290.306550,0.000000
495.938852,-1850.514855,-8142.265362,-459.657299
495.939180,-1110.308913,-6513.812290,-229.828649
495.939508,666.185348,-4737.318029,536.266849
495.939835,1184.329507,-5403.503377,766.095498
495.940163,740.205942,-7624.121203,459.657299
495.940491,-814.226536,-9400.615463,383.047749
495.940819,-1998.556043,-9400.615463,459.657299
495.941147,-1184.329507,-8956.491898,766.095498
495.941474,148.041188,-9030.512492,995.924147
495.941802,666.185348,-9696.697840,919.314598
495.942130,888.247130,-11177.109724,229.828649
495.942458,1184.329507,-11029.068536,306.438199
495.942785,2294.638420,-9326.594869,536.266849
495.943113,3108.864956,-8586.388927,459.657299
495.943441,1850.514855,-9474.636058,689.485948
495.943769,0.000000,-11769.274478,-153.219100
495.944097,-2294.638420,-11917.315666,-1149.143247
495.944424,-2146.597232,-10510.924376,-766.095498
495.944752,-444.123565,-8956.491898,0.000000
495.945080,962.267725,-8734.430116,612.876398
495.945408,296.082377,-9474.636058,76.609550
495.945735,0.000000,-9696.697840,229.828649
495.946063,-444.123565,-8438.347739,306.438199
495.946391,740.205942,-6439.791695,1608.800546
495.946719,1184.329507,-6439.791695,1149.143247
495.947047,296.082377,-8290.306550,842.705048
495.947374,-1184.329507,-9622.677246,306.438199
495.947702,-2294.638420,-9400.615463,459.657299
495.948030,-1184.329507,-7846.182985,766.095498
495.948358,148.041188,-7179.997637,1072.533697
495.948685,444.123565,-8808.450710,919.314598
495.949013,0.000000,-10732.986159,766.095498
495.949341,0.000000,-10436.903782,689.485948
495.949669,444.123565,-9104.533087,995.924147
495.949997,1332.370696,-8512.368333,1991.848295
495.950324,148.041188,-9474.636058,1608.800546
495.950652,-1554.432478,-11547.212695,842.705048
495.950980,-3330.926739,-11695.253884,383.047749
495.951308,-3182.885551,-9844.739029,612.876398
495.951635,-1924.535449,-8438.347739,1149.143247
495.951963,-1184.329507,-7772.162391,536.266849
495.952291,-1702.473667,-9178.553681,1072.533697
495.952619,-2146.597232,-9252.574275,153.219100
495.952947,-1702.473667,-7624.121203,536.266849
495.953274,296.082377,-5477.523971,383.047749
495.953602,1480.411884,-5329.482782,919.314598
495.953930,1258.350101,-7105.977043,1072.533697
495.954258,-592.164754,-8882.471304,536.266849
495.954585,-1628.453072,-9400.615463,229.828649
495.954913,-1258.350101,-8660.409521,0.000000
495.955241,148.041188,-8364.327145,76.609550
495.955569,814.226536,-9326.594869,536.266849
495.955896,444.123565,-11029.068536,383.047749
495.956224,296.082377,-11029.068536,536.266849
495.956552,1110.308913,-9770.718434,689.485948
495.956879,1628.453072,-8660.409521,919.314598
495.957207,1554.432478,-9104.533087,919.314598
495.957535,-370.102971,-10955.047942,-306.438199
495.957863,-1924.535449,-11325.150913,-842.705048
495.958190,-1850.514855,-9622.677246,-612.876398
495.958518,0.000000,-7994.224174,-612.876398
495.958846,814.226536,-7994.224174,0.000000
495.959173,740.205942,-9326.594869,-383.047749
495.959501,-1110.308913,-9622.677246,-612.876398
495.959829,-444.123565,-8512.368333,-536.266849
495.960157,444.123565,-7402.059420,-306.438199
495.960484,1258.350101,-7179.997637,153.219100
495.960812,1110.308913,-8956.491898,229.828649
495.961140,-1258.350101,-10732.986159,-383.047749
495.961467,-1776.494261,-10807.006753,-229.828649
495.961795,-1332.370696,-9474.636058,-459.657299
495.962123,0.000000,-8142.265362,536.266849
495.962451,1036.288319,-9548.656652,612.876398
495.962778,962.267725,-10955.047942,536.266849
495.963106,814.226536,-11029.068536,612.876398
495.963434,1332.370696,-9770.718434,919.314598
495.963761,2368.659014,-9474.636058,1225.752797
495.964089,1554.432478,-10066.800811,2221.676944
495.964417,-296.082377,-11769.274478,1378.971896
495.964744,-1628.453072,-12361.439231,1072.533697
495.965072,-1850.514855,-10584.944971,1225.752797
495.965400,-148.041188,-9104.533087,1685.410096
495.965728,222.061783,-8512.368333,1915.238745
495.966055,-296.082377,-8956.491898,1378.971896
495.966383,-1332.370696,-9326.594869,1072.533697
495.966711,-962.267725,-7920.203579,1149.143247
495.967038,0.000000,-6365.771101,1532.190996
495.967366,666.185348,-5995.668130,2451.505594
495.967694,0.000000,-7698.141797,1762.019645
495.968022,-2516.700203,-9622.677246,1225.752797
495.968349,-3923.091493,-10140.821405,536.266849
495.968677,-3404.947333,-8660.409521,919.314598
495.969005,-1924.535449,-7698.141797,1225.752797
495.969332,-1406.391290,-8290.306550,995.924147
495.969660,-1924.535449,-10066.800811,766.095498
495.969988,-1850.514855,-10066.800811,689.485948
495.970316,-740.205942,-8438.347739,766.095498
495.970643,296.082377,-7550.100608,1378.971896
495.970971,666.185348,-7994.224174,919.314598
495.971299,-1036.288319,-9992.780217,153.219100
495.971626,-2442.679609,-10510.924376,-306.438199
495.971954,-1702.473667,-9104.533087,-306.438199
495.972282,0.000000,-7624.121203,229.828649
495.972610,1406.391290,-7920.203579,842.705048
495.972937,1110.308913,-8882.471304,306.438199
495.973265,444.123565,-9252.574275,76.609550
495.973593,592.164754,-8068.244768,153.219100
495.973920,2072.576638,-6809.894666,612.876398
495.974248,3108.864956,-7105.977043,1072.533697
495.974576,2220.617826,-8290.306550,1072.533697
495.974903,0.000000,-9918.759623,306.438199
495.975231,-1480.411884,-10066.800811,-153.219100
495.975559,-962.267725,-9030.512492,0.000000
495.975887,74.020594,-7772.162391,0.000000
495.976214,592.164754,-8586.388927,306.438199
495.976542,0.000000,-10362.883188,-306.438199
495.976870,-444.123565,-10436.903782,-766.095498
495.977197,0.000000,-8808.450710,-612.876398
495.977525,1850.514855,-7920.203579,76.609550
495.977853,1776.494261,-8068.244768,306.438199
495.978181,74.020594,-9992.780217,-229.828649
495.978508,-2072.576638,-11029.068536,-536.266849
495.978836,-2368.659014,-10140.821405,-689.485948
495.979164,-1628.453072,-8734.430116,0.000000
495.979491,-222.061783,-7698.141797,459.657299
495.979819,-370.102971,-9252.574275,153.219100
495.980147,-814.226536,-10066.800811,76.609550
495.980475,-518.144159,-9030.512492,383.047749
495.980802,814.226536,-7105.977043,919.314598
495.981130,1628.453072,-7105.977043,1532.190996
495.981458,1258.350101,-8438.347739,919.314598
495.981785,-740.205942,-10066.800811,229.828649
495.982113,-2072.576638,-10584.944971,0.000000
495.982441,-1258.350101,-9104.533087,536.266849
495.982768,148.041188,-7920.203579,1302.362347
495.983096,962.267725,-9030.512492,1378.971896
495.983424,444.123565,-10510.924376,1225.752797
495.983752,0.000000,-10732.986159,1072.533697
495.984079,0.000000,-9622.677246,1302.362347
495.984407,74.020594,-8216.285956,1762.019645
495.984735,0.000000,-8808.450710,1608.800546
495.985062,-1776.494261,-10584.944971,842.705048
495.985390,-2738.761985,-10732.986159,306.438199
495.985718,-2664.741391,-9400.615463,536.266849
495.986046,-1036.288319,-7698.141797,842.705048
495.986373,222.061783,-7105.977043,1685.410096
495.986701,148.041188,-8660.409521,1378.971896
495.987029,-592.164754,-9622.677246,842.705048
495.987356,-666.185348,-8734.430116,842.705048
495.987684,666.185348,-7624.121203,1225.752797
495.988012,1258.350101,-7772.162391,1225.752797
495.988340,296.082377,-9030.512492,2145.067394
495.988667,-1480.411884,-11473.192101,1378.971896
495.988995,-3034.844362,-11621.233289,689.485948
495.989323,-2368.659014,-9992.780217,536.266849
495.989650,-962.267725,-8734.430116,383.047749
495.989978,0.000000,-8734.430116,842.705048
495.990306,0.000000,-10288.862594,306.438199
495.990633,-592.164754,-10732.986159,76.609550
495.990961,0.000000,-8660.409521,0.000000
495.991289,888.247130,-7994.224174,0.000000
495.991617,666.185348,-7624.121203,0.000000
495.991944,-666.185348,-9400.615463,-536.266849
495.992272,-2294.638420,-10807.006753,-919.314598
495.992600,-2368.659014,-9474.636058,-995.924147
495.992927,-1258.350101,-8586.388927,-612.876398
495.993255,444.123565,-7698.141797,-229.828649
495.993583,296.082377,-8660.409521,0.000000
495.993911,296.082377,-9548.656652,0.000000
495.994238,814.226536,-8956.491898,0.000000
495.994566,2146.597232,-7476.080014,306.438199
495.994894,3182.885551,-6957.935855,1225.752797
495.995221,2960.823768,-7994.224174,919.314598
495.995549,740.205942,-10288.862594,612.876398
495.995877,-666.185348,-10955.047942,229.828649
495.996205,-962.267725,-9918.759623,0.000000
495.996532,74.020594,-9104.533087,153.219100
495.996860,1110.308913,-9474.636058,919.314598
495.997188,0.000000,-10955.047942,229.828649
495.997515,-370.102971,-11177.109724,153.219100
495.997843,-222.061783,-9474.636058,0.000000
495.998171,592.164754,-7920.203579,306.438199
495.998499,592.164754,-7476.080014,766.095498
495.998826,-370.102971,-9104.533087,536.266849
495.999154,-1850.514855,-9992.780217,0.000000
495.999482,-2368.659014,-8956.491898,0.000000
495.999809,-1776.494261,-7624.121203,536.266849
496.000137,-740.205942,-7105.977043,1378.971896
496.000465,-666.185348,-8364.327145,1225.752797
496.000792,-1554.432478,-9696.697840,995.924147
496.001120,-740.205942,-9178.553681,1378.971896
496.001448,814.226536,-7624.121203,1915.238745
496.001776,2220.617826,-7179.997637,2451.505594
496.002103,1850.514855,-8290.306550,2451.505594
496.002431,-444.123565,-10510.924376,1608.800546
496.002759,-2072.576638,-11103.089130,1072.533697
496.003086,-2220.617826,-9918.759623,766.095498
496.003414,-888.247130,-9030.512492,995.924147
496.003742,-222.061783,-9178.553681,689.485948
496.004070,-1184.329507,-10436.903782,842.705048
496.004397,-1406.391290,-10807.006753,229.828649
496.004725,-1184.329507,-9474.636058,383.047749
496.005053,-370.102971,-8216.285956,1225.752797
496.005380,0.000000,-8290.306550,612.876398
496.005708,-1480.411884,-9770.718434,306.438199
496.006036,-2886.803174,-10510.924376,-459.657299
496.006364,-2812.782580,-9474.636058,-383.047749
496.006691,-1332.370696,-7920.203579,0.000000
496.007019,962.267725,-6587.832884,689.485948
496.007347,1406.391290,-6957.935855,612.876398
496.007674,1036.288319,-8216.285956,229.828649
496.008002,1258.350101,-7772.162391,689.485948
496.008330,2886.803174,-6661.853478,1225.752797
496.008657,3552.988522,-6143.709319,1915.238745
496.008985,2590.720797,-8068.244768,2068.457845
496.009313,148.041188,-11177.109724,1608.800546
496.009641,-1628.453072,-12139.377449,1072.533697
496.009968,-1998.556043,-10807.006753,689.485948
496.010296,-740.205942,-9622.677246,1072.533697
496.010624,444.123565,-9326.594869,689.485948
496.010951,-1406.391290,-10658.965565,0.000000
496.011279,-1480.411884,-10436.903782,-995.924147
496.011607,-1554.432478,-8734.430116,-1378.971896
496.011935,0.000000,-7031.956449,-689.485948
496.012262,0.000000,-6661.853478,-842.705048
496.012590,-1332.370696,-8216.285956,-842.705048
496.012918,-3034.844362,-9474.636058,-1608.800546
496.013245,-3701.029710,-9030.512492,-1608.800546
496.013573,-2146.597232,-7920.203579,-689.485948
496.013901,-592.164754,-7698.141797,-306.438199
496.014229,0.000000,-8512.368333,459.657299
496.014556,0.000000,-9918.759623,842.705048
496.014884,296.082377,-9622.677246,919.314598
496.015212,2368.659014,-8142.265362,1685.410096
496.015539,3775.050304,-7698.141797,3064.381992
496.015867,4219.173869,-9030.512492,2834.553343
496.016195,1850.514855,-10732.986159,1838.629195
496.016522,0.000000,-11473.192101,1225.752797
496.016850,0.000000,-10362.883188,995.924147
496.017178,444.123565,-9474.636058,1455.581446
496.017506,518.144159,-10140.821405,1685.410096
496.017833,-148.041188,-11473.192101,842.705048
496.018161,-1554.432478,-12361.439231,383.047749
496.018489,-1702.473667,-10436.903782,229.828649
496.018816,-1258.350101,-9178.553681,536.266849
496.019144,-962.267725,-8512.368333,919.314598
496.019472,-2146.597232,-9030.512492,153.219100
496.019800,-3775.050304,-9844.739029,-306.438199
496.020127,-4663.297435,-8734.430116,-459.657299
496.020455,-2738.761985,-6957.935855,-153.219100
496.020783,-1480.411884,-6365.771101,383.047749
496.021110,-592.164754,-6883.915261,612.876398
496.021438,-814.226536,-8438.347739,536.266849
496.021766,-444.123565,-8068.244768,842.705048
496.022094,1110.308913,-7031.956449,1532.190996
496.022421,2368.659014,-6957.935855,2374.896044
496.022749,2368.659014,-8068.244768,2145.067394
496.023077,370.102971,-10658.965565,1532.190996
496.023404,-888.247130,-11843.295072,766.095498
496.023732,-814.226536,-10584.944971,459.657299
496.024060,370.102971,-9622.677246,1072.533697
496.024388,1480.411884,-9474.636058,1455.581446
496.024715,1258.350101,-10807.006753,536.266849
496.025043,0.000000,-11325.150913,0.000000
496.025371,0.000000,-9844.739029,-306.438199
496.025698,666.185348,-8068.244768,76.609550
496.026026,740.205942,-7624.121203,612.876398
496.026354,148.041188,-8734.430116,383.047749
496.026681,-2072.576638,-9992.780217,0.000000
496.027009,-2664.741391,-9326.594869,-229.828649
496.027337,-1554.432478,-7624.121203,-153.219100
496.027665,-814.226536,-6291.750507,383.047749
496.027992,0.000000,-6957.935855,229.828649
496.028320,-444.123565,-8142.265362,0.000000
496.028648,-444.123565,-8290.306550,0.000000
496.028975,1332.370696,-7105.977043,689.485948
496.029303,2590.720797,-6883.915261,1532.190996
496.029631,2812.782580,-7846.182985,2145.067394
496.029959,814.226536,-10288.862594,1455.581446
496.030286,-1258.350101,-11917.315666,536.266849
496.030614,-2146.597232,-11325.150913,229.828649
496.030942,-1110.308913,-10584.944971,689.485948
496.031269,-592.164754,-10362.883188,1072.533697
496.031597,-814.226536,-11177.109724,459.657299
496.031925,-1628.453072,-11769.274478,0.000000
496.032253,-1480.411884,-9992.780217,-153.219100
496.032580,-296.082377,-7994.224174,842.705048
496.032908,444.123565,-7402.059420,229.828649
496.033236,-740.205942,-8142.265362,0.000000
496.033563,-2812.782580,-9548.656652,-842.705048
496.033891,-3478.967927,-9178.553681,-1072.533697
496.034219,-2442.679609,-7476.080014,-689.485948
496.034546,-296.082377,-6661.853478,229.828649
496.034874,518.144159,-6809.894666,1149.143247
496.035202,370.102971,-8734.430116,766.095498
496.035530,740.205942,-8956.491898,1072.533697
496.035857,2220.617826,-7624.121203,1302.362347
496.036185,3478.967927,-7105.977043,2528.115143
496.036513,3552.988522,-8586.388927,2604.724693
496.036840,1554.432478,-10955.047942,1838.629195
496.037168,0.000000,-11917.315666,1225.752797
496.037496,-370.102971,-10955.047942,1072.533697
496.037824,666.185348,-10288.862594,1762.019645
496.038151,1110.308913,-10140.821405,1532.190996
496.038479,0.000000,-11473.192101,1149.143247
496.038807,-1702.473667,-11843.295072,153.219100
496.039134,-2146.597232,-10658.965565,-306.438199
496.039462,-1184.329507,-8882.471304,0.000000
496.039790,-666.185348,-7698.141797,153.219100
496.040118,-1258.350101,-8586.388927,229.828649
496.040445,-3256.906145,-9474.636058,-536.266849
496.040773,-4219.173869,-9178.553681,-842.705048
496.041101,-3552.988522,-7550.100608,-995.924147
496.041428,-2072.576638,-6217.729913,229.828649
496.041756,-1110.308913,-6587.832884,-459.657299
496.042084,-962.267725,-8364.327145,-383.047749
496.042411,-518.144159,-8586.388927,0.000000
496.042739,1406.391290,-7402.059420,689.485948
496.043067,3552.988522,-7328.038826,1608.800546
496.043395,3849.070898,-8216.285956,2221.676944
496.043722,2294.638420,-10584.944971,1455.581446
496.044050,222.061783,-12213.398043,1072.533697
496.044378,518.144159,-11843.295072,842.705048
496.044705,1776.494261,-10510.924376,1302.362347
496.045033,2664.741391,-10732.986159,2068.457845
496.045361,2072.576638,-11769.274478,1685.410096
496.045689,296.082377,-12361.439231,842.705048
496.046016,-518.144159,-11177.109724,383.047749
496.046344,296.082377,-9030.512492,229.828649
496.046672,444.123565,-8512.368333,536.266849
496.046999,-1184.329507,-8808.450710,153.219100
496.047327,-3552.988522,-9770.718434,-459.657299
496.047655,-4885.359217,-9030.512492,-919.314598
496.047983,-3923.091493,-7328.038826,-612.876398
496.048310,-2442.679609,-5551.544565,229.828649
496.048638,-962.267725,-5477.523971,76.609550
496.048966,-1258.350101,-6883.915261,76.609550
496.049293,-888.247130,-7254.018232,383.047749
496.049621,-296.082377,-6735.874072,383.047749
496.049949,1184.329507,-5477.523971,1608.800546
496.050277,1554.432478,-6735.874072,1685.410096
496.050604,370.102971,-9548.656652,1685.410096
496.050932,-666.185348,-11177.109724,995.924147
496.051260,-222.061783,-10658.965565,1378.971896
496.051587,888.247130,-9474.636058,1991.848295
496.051915,1702.473667,-9474.636058,1915.238745
496.052243,1776.494261,-10955.047942,1608.800546
496.052570,296.082377,-11695.253884,766.095498
496.052898,0.000000,-10807.006753,306.438199
496.053226,0.000000,-9326.594869,766.095498
496.053554,518.144159,-8956.491898,1072.533697
496.053881,-148.041188,-8734.430116,459.657299
496.054209,-2590.720797,-9770.718434,-383.047749
496.054537,-3108.864956,-9030.512492,-1302.362347
496.054864,-3182.885551,-8142.265362,-612.876398
496.055192,-1850.514855,-6883.915261,0.000000
496.055520,-296.082377,-6587.832884,0.000000
496.055848,0.000000,-7920.203579,306.438199
496.056175,-148.041188,-8364.327145,0.000000
496.056503,888.247130,-7698.141797,766.095498
496.056831,2294.638420,-6883.915261,1991.848295
496.057158,2516.700203,-7402.059420,2068.457845
496.057486,1258.350101,-9622.677246,1532.190996
496.057814,-666.185348,-11547.212695,995.924147
496.058141,-814.226536,-11325.150913,842.705048
496.058469,370.102971,-9474.636058,1149.143247
496.058797,1998.556043,-9474.636058,1455.581446
496.059124,1332.370696,-10732.986159,1532.190996
496.059452,0.000000,-12213.398043,536.266849
496.059779,-1110.308913,-11399.171507,306.438199
496.060107,0.000000,-9622.677246,229.828649
496.060435,-296.082377,-9104.533087,612.876398
496.060762,-1776.494261,-9474.636058,306.438199
496.061090,-3627.009116,-10955.047942,-766.095498
496.061418,-4959.379811,-10066.800811,-1378.971896
496.061745,-4219.173869,-7698.141797,-1378.971896
496.062073,-2072.576638,-6439.791695,-612.876398
496.062401,-592.164754,-6217.729913,0.000000
496.062728,-518.144159,-7476.080014,0.000000
496.063056,-370.102971,-7846.182985,0.000000
496.063384,0.000000,-6735.874072,383.047749
496.063711,2072.576638,-6365.771101,1072.533697
496.064039,2738.761985,-7402.059420,2221.676944
496.064367,1924.535449,-9400.615463,1685.410096
496.064694,222.061783,-11621.233289,1532.190996
496.065022,0.000000,-11325.150913,1225.752797
496.065350,1110.308913,-10436.903782,1455.581446
496.065677,1924.535449,-9770.718434,1225.752797
496.066005,1258.350101,-10807.006753,612.876398
496.066332,518.144159,-12065.356855,459.657299
496.066660,-222.061783,-11399.171507,-229.828649
496.066988,0.000000,-9548.656652,306.438199
496.067315,962.267725,-8216.285956,612.876398
496.067643,444.123565,-9030.512492,459.657299
496.067971,-1924.535449,-9918.759623,-536.266849
496.068298,-3701.029710,-9992.780217,-919.314598
496.068626,-4145.153275,-8512.368333,-1072.533697
496.068954,-2590.720797,-7105.977043,-995.924147
496.069281,-1850.514855,-7179.997637,0.000000
496.069609,-1332.370696,-8216.285956,-153.219100
496.069937,-962.267725,-8660.409521,0.000000
496.070264,222.061783,-7402.059420,459.657299
496.070592,2146.597232,-6735.874072,2068.457845
496.070920,2812.782580,-7105.977043,1838.629195
496.071247,1776.494261,-9326.594869,1532.190996
496.071575,444.123565,-11177.109724,1608.800546
496.071903,0.000000,-11325.150913,1149.143247
496.072230,888.247130,-10436.903782,1915.238745
496.072558,1332.370696,-10214.842000,1225.752797
496.072885,1332.370696,-11177.109724,1915.238745
496.073213,0.000000,-12657.521608,1378.971896
496.073541,-592.164754,-11843.295072,842.705048
496.073868,296.082377,-10140.821405,995.924147
496.074196,1184.329507,-9622.677246,1608.800546
496.074524,-370.102971,-9548.656652,1149.143247
496.074851,-2368.659014,-11029.068536,76.609550
496.075179,-4441.235652,-10510.924376,-766.095498
496.075507,-3849.070898,-8734.430116,-689.485948
496.075834,-2220.617826,-7254.018232,0.000000
496.076162,-814.226536,-6661.853478,153.219100
496.076490,-1332.370696,-7254.018232,-229.828649
496.076817,-1036.288319,-7550.100608,0.000000
496.077145,0.000000,-6587.832884,0.000000
496.077473,1480.411884,-5773.606348,1149.143247
496.077800,2886.803174,-6365.771101,2068.457845
496.078128,1850.514855,-8660.409521,1378.971896
496.078456,74.020594,-10807.006753,1072.533697
496.078783,-370.102971,-11103.089130,766.095498
496.079111,444.123565,-10066.800811,1225.752797
496.079438,1924.535449,-9474.636058,1378.971896
496.079766,1702.473667,-10362.883188,1455.581446
496.080094,888.247130,-11621.233289,383.047749
496.080421,296.082377,-10807.006753,229.828649
496.080749,1184.329507,-9030.512492,383.047749
496.081077,2146.597232,-7772.162391,536.266849
496.081404,1184.329507,-8364.327145,306.438199
496.081732,-1406.391290,-9400.615463,-306.438199
496.082060,-3404.947333,-9770.718434,-689.485948
496.082387,-3997.112087,-7772.162391,-1302.362347
496.082715,-2368.659014,-6217.729913,-1072.533697
496.083043,-1850.514855,-6439.791695,-919.314598
496.083370,-1776.494261,-7624.121203,-612.876398
496.083698,-2072.576638,-8068.244768,-689.485948
496.084026,-814.226536,-6661.853478,-229.828649
496.084353,814.226536,-5329.482782,612.876398
496.084681,2368.659014,-5847.626942,1149.143247
496.085009,1554.432478,-7920.203579,1072.533697
496.085336,0.000000,-9992.780217,689.485948
496.085664,-666.185348,-10214.842000,612.876398
496.085991,0.000000,-9400.615463,689.485948
496.086319,1850.514855,-9474.636058,1991.848295
496.086647,1998.556043,-10732.986159,1302.362347
496.086974,1184.329507,-11917.315666,1225.752797
496.087302,740.205942,-11843.295072,842.705048
496.087630,1258.350101,-9844.739029,1455.581446
496.087957,1850.514855,-9252.574275,1915.238745
496.088285,1184.329507,-9548.656652,1838.629195
496.088613,-1480.411884,-10955.047942,536.266849
496.088940,-3330.926739,-11103.089130,-459.657299
496.089268,-3849.070898,-9178.553681,-536.266849
496.089596,-2664.741391,-7698.141797,0.000000
496.089923,-1702.473667,-7031.956449,229.828649
496.090251,-1702.473667,-8068.244768,459.657299
496.090579,-2294.638420,-8512.368333,0.000000
496.090906,-1406.391290,-7624.121203,153.219100
496.091234,-222.061783,-6365.771101,229.828649
496.091562,666.185348,-6809.894666,1225.752797
496.091889,0.000000,-8586.388927,995.924147
496.092217,-1702.473667,-10732.986159,842.705048
496.092544,-2294.638420,-10807.006753,766.095498
496.092872,-1036.288319,-9770.718434,842.705048
496.093200,444.123565,-9474.636058,1149.143247
496.093527,1036.288319,-9992.780217,1762.019645
496.093855,740.205942,-11399.171507,1302.362347
496.094183,370.102971,-11399.171507,995.924147
496.094510,1332.370696,-9844.739029,1225.752797
496.094838,1776.494261,-8734.430116,1608.800546
496.095166,1258.350101,-9474.636058,1915.238745
496.095493,-814.226536,-10955.047942,995.924147
496.095821,-2812.782580,-11473.192101,0.000000
496.096149,-3182.885551,-9844.739029,0.000000
496.096476,-2146.597232,-7846.182985,-766.095498
496.096804,-1184.329507,-7698.141797,536.266849
496.097132,-1332.370696,-8216.285956,0.000000
496.097459,-1258.350101,-8512.368333,-229.828649
496.097787,-296.082377,-7402.059420,-306.438199
496.098115,1554.432478,-6291.750507,612.876398
496.098442,2590.720797,-6587.832884,1302.362347
496.098770,1332.370696,-7624.121203,1225.752797
496.099097,-222.061783,-9622.677246,612.876398
496.099425,-962.267725,-10436.903782,459.657299
496.099753,-814.226536,-9770.718434,919.314598
496.100080,592.164754,-9548.656652,459.657299
496.100408,666.185348,-10362.883188,1762.019645
496.100736,814.226536,-11399.171507,1072.533697
496.101063,0.000000,-11399.171507,919.314598
496.101391,1184.329507,-9696.697840,842.705048
496.101719,2072.576638,-8882.471304,1149.143247
496.102046,1554.432478,-9326.594869,1302.362347
496.102374,-740.205942,-10214.842000,229.828649
496.102702,-2738.761985,-10658.965565,-536.266849
496.103029,-3034.844362,-9474.636058,-995.924147
496.103357,-2146.597232,-7772.162391,76.609550
496.103685,-1184.329507,-7105.977043,0.000000
496.104012,-1184.329507,-7698.141797,-459.657299
496.104340,-1702.473667,-7994.224174,-383.047749
496.104668,-888.247130,-7105.977043,-383.047749
496.104995,592.164754,-6143.709319,153.219100
496.105323,2072.576638,-6069.688724,842.705048
496.105650,1110.308913,-7550.100608,1149.143247
496.105978,0.000000,-9622.677246,536.266849
496.106306,-814.226536,-10140.821405,689.485948
496.106633,0.000000,-9622.677246,842.705048
496.106961,1406.391290,-9400.615463,1149.143247
496.107289,1776.494261,-9918.759623,1378.971896
496.107616,1036.288319,-11103.089130,612.876398
496.107944,740.205942,-11473.192101,842.705048
496.108272,1332.370696,-9918.759623,842.705048
496.108599,2516.700203,-8882.471304,1302.362347
496.108927,1776.494261,-9548.656652,1302.362347
496.109255,-370.102971,-10658.965565,766.095498
496.109582,-2516.700203,-11399.171507,0.000000
496.109910,-3627.009116,-9992.780217,-229.828649
496.110238,-2738.761985,-8956.491898,-689.485948
496.110565,-2294.638420,-8364.327145,612.876398
496.110893,-2368.659014,-8734.430116,-306.438199
496.111221,-2738.761985,-9030.512492,-536.266849
496.111548,-1332.370696,-7920.203579,-306.438199
496.111876,0.000000,-6587.832884,0.000000
496.112203,1184.329507,-6069.688724,766.095498
496.112531,888.247130,-7698.141797,459.657299
496.112859,-814.226536,-9622.677246,153.219100
496.113186,-1628.453072,-10214.842000,0.000000
496.113514,-592.164754,-9400.615463,0.000000
496.113842,1036.288319,-8586.388927,1225.752797
496.114169,1776.494261,-9770.718434,995.924147
496.114497,1480.411884,-10732.986159,1149.143247
496.114825,1406.391290,-11103.089130,1225.752797
496.115152,1850.514855,-10436.903782,1455.581446
496.115480,2442.679609,-9918.759623,1991.848295
496.115808,1776.494261,-10140.821405,1838.629195
496.116135,0.000000,-11547.212695,842.705048
496.116463,-2442.679609,-11547.212695,76.609550
496.116791,-2368.659014,-10140.821405,-153.219100
496.117118,-1480.411884,-8438.347739,459.657299
496.117446,0.000000,-7550.100608,1072.533697
496.117774,-370.102971,-8142.265362,459.657299
496.118101,-1036.288319,-8512.368333,229.828649
496.118429,-1036.288319,-7328.038826,0.000000
496.118756,-148.041188,-6365.771101,612.876398
496.119084,222.061783,-6143.709319,1072.533697
496.119412,0.000000,-7550.100608,1149.143247
496.119739,-1554.432478,-9178.553681,842.705048
496.120067,-2590.720797,-9844.739029,842.705048
496.120395,-1776.494261,-9104.533087,995.924147
496.120722,-666.185348,-8734.430116,1608.800546
496.121050,0.000000,-9030.512492,1608.800546
496.121378,-222.061783,-10362.883188,1072.533697
496.121705,0.000000,-10066.800811,842.705048
496.122033,740.205942,-9252.574275,842.705048
496.122361,2146.597232,-8364.327145,1225.752797
496.122688,1776.494261,-8882.471304,1685.410096
496.123016,148.041188,-10362.883188,1072.533697
496.123344,-1776.494261,-10881.027347,459.657299
496.123671,-2072.576638,-9918.759623,153.219100
496.123999,-1110.308913,-8586.388927,383.047749
496.124327,-666.185348,-8068.244768,766.095498
496.124654,0.000000,-8660.409521,306.438199
496.124982,-962.267725,-9104.533087,306.438199
496.125309,-888.247130,-7994.224174,76.609550
496.125637,222.061783,-6883.915261,306.438199
496.125965,1406.391290,-7179.997637,1072.533697
496.126292,666.185348,-7846.182985,536.266849
496.126620,-1184.329507,-9326.594869,-229.828649
496.126948,-2368.659014,-9622.677246,-612.876398
496.127275,-1554.432478,-8882.471304,-229.828649
496.127603,0.000000,-8734.430116,76.609550
496.127931,740.205942,-8808.450710,229.828649
496.128258,1184.329507,-10140.821405,689.485948
496.128586,592.164754,-10658.965565,612.876398
496.128914,1036.288319,-9696.697840,842.705048
496.129241,1628.453072,-9326.594869,1378.971896
496.129569,1702.473667,-9400.615463,1072.533697
496.129897,-370.102971,-10362.883188,306.438199
496.130224,-2072.576638,-11251.130318,0.000000
496.130552,-2368.659014,-10214.842000,0.000000
496.130880,-1110.308913,-8882.471304,612.876398
496.131207,296.082377,-7846.182985,1072.533697
496.131535,74.020594,-8660.409521,919.314598
496.131862,-592.164754,-9326.594869,306.438199
496.132190,-1036.288319,-8512.368333,229.828649
496.132518,-222.061783,-7328.038826,459.657299
496.132845,814.226536,-7476.080014,1455.581446
496.133173,666.185348,-7920.203579,995.924147
496.133501,-1036.288319,-9400.615463,842.705048
496.133828,-2146.597232,-9844.739029,383.047749
496.134156,-2072.576638,-9178.553681,229.828649
496.134484,-1110.308913,-8660.409521,1149.143247
496.134811,0.000000,-9030.512492,1072.533697
496.135139,-666.185348,-10288.862594,229.828649
496.135467,-444.123565,-10658.965565,153.219100
496.135794,222.061783,-9400.615463,612.876398
496.136122,1406.391290,-8586.388927,842.705048
496.136450,1998.556043,-8660.409521,1915.238745
496.136777,592.164754,-9992.780217,919.314598
496.137105,-888.247130,-10807.006753,383.047749
496.137433,-1628.453072,-9844.739029,153.219100
496.137760,-444.123565,-9104.533087,536.266849
496.138088,0.000000,-8068.244768,919.314598
496.138415,0.000000,-8882.471304,459.657299
496.138743,-518.144159,-9474.636058,459.657299
496.139071,-666.185348,-8438.347739,229.828649
496.139398,370.102971,-7402.059420,995.924147
496.139726,1554.432478,-7105.977043,1072.533697
496.140054,888.247130,-8142.265362,1455.581446
496.140381,-592.164754,-9696.697840,612.876398
496.140709,-1998.556043,-10214.842000,306.438199
496.141037,-1850.514855,-9474.636058,153.219100
496.141364,-444.123565,-8808.450710,306.438199
496.141692,370.102971,-9104.533087,689.485948
496.142020,0.000000,-10066.800811,383.047749
496.142347,-592.164754,-10436.903782,0.000000
496.142675,74.020594,-9474.636058,229.828649
496.143003,888.247130,-8142.265362,229.828649
496.143330,1036.288319,-8142.265362,1608.800546
496.143658,-222.061783,-9770.718434,306.438199
496.143986,-1850.514855,-11029.068536,153.219100
496.144313,-2368.659014,-10288.862594,0.000000
496.144641,-1258.350101,-8956.491898,459.657299
496.144968,0.000000,-7846.182985,842.705048
496.145296,0.000000,-8882.471304,842.705048
496.145624,-444.123565,-9474.636058,153.219100
496.145951,-666.185348,-8660.409521,0.000000
496.146279,740.205942,-7550.100608,383.047749
496.146607,2368.659014,-7328.038826,612.876398
496.146934,1480.411884,-7846.182985,995.924147
496.147262,0.000000,-9622.677246,459.657299
496.147590,-1554.432478,-10436.903782,153.219100
496.147917,-1702.473667,-9474.636058,153.219100
496.148245,-370.102971,-9104.533087,76.609550
496.148573,-222.061783,-9030.512492,842.705048
496.148900,-592.164754,-10288.862594,306.438199
496.149228,-1110.308913,-10584.944971,76.609550
496.149556,-740.205942,-9622.677246,306.438199
496.149883,740.205942,-8216.285956,995.924147
496.150211,1110.308913,-8142.265362,1455.581446
496.150539,740.205942,-9474.636058,1149.143247
496.150866,-1406.391290,-10436.903782,383.047749
496.151194,-2220.617826,-10214.842000,153.219100
496.151521,-1776.494261,-9030.512492,383.047749
496.151849,-370.102971,-7624.121203,766.095498
496.152177,-148.041188,-8734.430116,536.266849
496.152504,-592.164754,-9474.636058,459.657299
496.152832,-518.144159,-8882.471304,536.266849
496.153160,444.123565,-7402.059420,842.705048
496.153487,1554.432478,-7105.977043,1302.362347
496.153815,1480.411884,-7994.224174,1149.143247
496.154143,-740.205942,-9622.677246,612.876398
496.154470,-2072.576638,-10066.800811,0.000000
496.154798,-1998.556043,-9400.615463,76.609550
496.155126,0.000000,-8438.347739,306.438199
496.155453,592.164754,-8734.430116,766.095498
496.155781,222.061783,-9696.697840,919.314598
496.156109,-148.041188,-10140.821405,459.657299
496.156436,74.020594,-9326.594869,766.095498
496.156764,666.185348,-8068.244768,919.314598
496.157092,740.205942,-8068.244768,1302.362347
496.157419,0.000000,-9474.636058,995.924147
496.157747,-1702.473667,-10288.862594,459.657299
496.158074,-2146.597232,-9992.780217,229.828649
496.158402,-1036.288319,-8512.368333,383.047749
496.158730,0.000000,-8068.244768,1072.533697
496.159057,518.144159,-8660.409521,1149.143247
496.159385,0.000000,-9252.574275,842.705048
496.159712,0.000000,-9030.512492,766.095498
496.160040,740.205942,-8142.265362,919.314598
496.160367,1554.432478,-7846.182985,1685.410096
496.160695,1036.288319,-8290.306550,1685.410096
496.161022,-814.226536,-9770.718434,766.095498
496.161350,-2220.617826,-10510.924376,0.000000
496.161677,-2146.597232,-9696.697840,0.000000
496.162005,-814.226536,-8882.471304,153.219100
496.162332,0.000000,-8808.450710,689.485948
496.162660,0.000000,-9400.615463,153.219100
496.162987,-518.144159,-9844.739029,0.000000
496.163315,-296.082377,-9178.553681,0.000000
496.163642,444.123565,-8364.327145,383.047749
496.163970,814.226536,-8290.306550,1149.143247
496.164297,0.000000,-9474.636058,383.047749
496.164625,-1702.473667,-10732.986159,-153.219100
496.164952,-2516.700203,-10362.883188,-383.047749
496.165280,-1628.453072,-9474.636058,0.000000
496.165607,0.000000,-8586.388927,689.485948
496.165935,666.185348,-8290.306550,0.000000
496.166262,296.082377,-9178.553681,229.828649
496.166590,444.123565,-8956.491898,306.438199
496.166917,1036.288319,-7920.203579,612.876398
496.167245,1628.453072,-7772.162391,919.314598
496.167572,1110.308913,-7994.224174,919.314598
496.167900,-518.144159,-9918.759623,306.438199
496.168227,-1924.535449,-11029.068536,0.000000
496.168555,-2220.617826,-10140.821405,0.000000
496.168882,-666.185348,-9400.615463,536.266849
496.169210,592.164754,-8882.471304,536.266849
496.169537,666.185348,-9770.718434,459.657299
496.169865,-296.082377,-10584.944971,306.438199
496.170192,-444.123565,-9400.615463,153.219100
496.170520,518.144159,-8438.347739,459.657299
496.170847,1036.288319,-7920.203579,612.876398
496.171175,-148.041188,-9030.512492,536.266849
496.171502,-1554.432478,-10362.883188,383.047749
496.171830,-2220.617826,-9992.780217,0.000000
496.172157,-1258.350101,-8734.430116,383.047749
496.172485,0.000000,-8216.285956,766.095498
496.172812,740.205942,-8216.285956,995.924147
496.173140,296.082377,-9104.533087,995.924147
496.173467,370.102971,-9030.512492,995.924147
496.173795,1110.308913,-7402.059420,1378.971896
496.174122,2146.597232,-7031.956449,2145.067394
496.174450,1850.514855,-7624.121203,2604.724693
496.174777,0.000000,-9474.636058,1915.238745
496.175105,-1850.514855,-10732.986159,1302.362347
496.175432,-2738.761985,-10140.821405,919.314598
496.175760,-1924.535449,-9474.636058,842.705048
496.176087,-1480.411884,-8660.409521,1072.533697
496.176415,-1332.370696,-9992.780217,306.438199
496.176742,-2368.659014,-10362.883188,0.000000
496.177070,-1850.514855,-9326.594869,76.609550
496.177397,-222.061783,-7402.059420,0.000000
496.177725,666.185348,-7550.100608,76.609550
496.178052,0.000000,-7772.162391,76.609550
496.178380,-1480.411884,-9548.656652,-229.828649
496.178707,-2738.761985,-9548.656652,-612.876398
496.179035,-1924.535449,-8734.430116,-383.047749
496.179362,-740.205942,-8512.368333,536.266849
496.179690,148.041188,-8216.285956,842.705048
496.180017,222.061783,-9474.636058,766.095498
496.180345,666.185348,-9844.739029,1072.533697
496.180672,1554.432478,-8290.306550,1302.362347
496.181000,2812.782580,-7624.121203,2068.457845
496.181327,3404.947333,-8364.327145,2298.286494
496.181655,1480.411884,-9844.739029,1072.533697
496.181982,-296.082377,-10807.006753,536.266849
496.182310,-1036.288319,-9918.759623,76.609550
496.182637,-370.102971,-9696.697840,459.657299
496.182965,222.061783,-9326.594869,229.828649
496.183292,0.000000,-9844.739029,0.000000
496.183620,-1554.432478,-10807.006753,-306.438199
496.183947,-1406.391290,-9992.780217,-536.266849
496.184275,-740.205942,-8364.327145,-306.438199
496.184602,296.082377,-7920.203579,0.000000
496.184930,-444.123565,-8586.388927,0.000000
496.185257,-1924.535449,-10066.800811,0.000000
496.185585,-3182.885551,-9844.739029,-766.095498
496.185912,-2220.617826,-8364.327145,-612.876398
496.186240,-814.226536,-7476.080014,306.438199
496.186567,296.082377,-6883.915261,306.438199
496.186895,814.226536,-8364.327145,766.095498
496.187222,740.205942,-8586.388927,1072.533697
496.187550,2072.576638,-7624.121203,1302.362347
496.187878,2886.803174,-7179.997637,1915.238745
496.188205,2368.659014,-7846.182985,2145.067394
496.188533,1480.411884,-10140.821405,1838.629195
496.188860,-222.061783,-11547.212695,1149.143247
496.189188,-1184.329507,-11029.068536,995.924147
496.189515,-518.144159,-10066.800811,1225.752797
496.189843,-148.041188,-9696.697840,995.924147
496.190170,-296.082377,-10214.842000,229.828649
496.190498,-1850.514855,-10881.027347,76.609550
496.190825,-1406.391290,-9474.636058,0.000000
496.191153,-888.247130,-8216.285956,0.000000
496.191480,0.000000,-7402.059420,919.314598
496.191808,-148.041188,-7920.203579,459.657299
496.192135,-2294.638420,-9474.636058,76.609550
496.192463,-3552.988522,-9474.636058,-383.047749
496.192790,-3478.967927,-8364.327145,-153.219100
496.193118,-2146.597232,-7105.977043,0.000000
496.193445,-1406.391290,-7550.100608,842.705048
496.193773,-592.164754,-8808.450710,689.485948
496.194100,-444.123565,-9104.533087,612.876398
496.194428,962.267725,-7846.182985,995.924147
496.194755,2516.700203,-7402.059420,1762.019645
496.195083,2812.782580,-7624.121203,1532.190996
496.195410,1554.432478,-9770.718434,1225.752797
496.195738,-222.061783,-11547.212695,459.657299
496.196065,-888.247130,-10881.027347,536.266849
496.196393,-222.061783,-10288.862594,842.705048
496.196720,444.123565,-10288.862594,1378.971896
496.197048,222.061783,-10881.027347,842.705048
496.197375,-370.102971,-12287.418637,383.047749
496.197703,-666.185348,-11029.068536,306.438199
496.198030,0.000000,-9474.636058,459.657299
496.198358,740.205942,-8586.388927,689.485948
496.198685,-370.102971,-9030.512492,842.705048
496.199013,-2368.659014,-10066.800811,-229.828649
496.199340,-3404.947333,-9844.739029,-1302.362347
496.199668,-2516.700203,-7920.203579,-995.924147
496.199995,-1110.308913,-6883.915261,0.000000
496.200323,296.082377,-6883.915261,76.609550
496.200650,444.123565,-7994.224174,306.438199
496.200978,592.164754,-8216.285956,536.266849
496.201305,1406.391290,-7994.224174,766.095498
496.201633,2368.659014,-7402.059420,1149.143247
496.201960,2368.659014,-8290.306550,1915.238745
496.202288,888.247130,-10214.842000,1455.581446
496.202615,-592.164754,-11695.253884,1302.362347
496.202943,-1406.391290,-11103.089130,842.705048
496.203270,-444.123565,-10214.842000,1072.533697
496.203598,296.082377,-9474.636058,842.705048
496.203925,0.000000,-10214.842000,689.485948
496.204253,-1184.329507,-10584.944971,0.000000
496.204580,-1776.494261,-10066.800811,0.000000
496.204908,-296.082377,-8290.306550,-229.828649
496.205235,444.123565,-7698.141797,306.438199
496.205563,222.061783,-8068.244768,229.828649
496.205890,-1924.535449,-9400.615463,-229.828649
496.206218,-3404.947333,-9252.574275,-459.657299
496.206545,-3330.926739,-7994.224174,-459.657299
496.206873,-2072.576638,-6587.832884,-306.438199
496.207200,-296.082377,-7179.997637,383.047749
496.207528,-222.061783,-7772.162391,766.095498
496.207855,74.020594,-8290.306550,919.314598
496.208183,1036.288319,-7402.059420,1225.752797
496.208510,2072.576638,-6883.915261,1915.238745
496.208838,2886.803174,-7624.121203,1762.019645
496.209165,1628.453072,-8882.471304,2068.457845
496.209493,0.000000,-10658.965565,1608.800546
496.209820,-592.164754,-10436.903782,1378.971896
496.210148,222.061783,-9252.574275,1608.800546
496.210475,740.205942,-9252.574275,1302.362347
496.210803,666.185348,-10362.883188,1532.190996
496.211130,-888.247130,-11251.130318,612.876398
496.211458,-1554.432478,-10732.986159,229.828649
496.211785,-888.247130,-9104.533087,229.828649
496.212113,0.000000,-8068.244768,1072.533697
496.212440,-740.205942,-8734.430116,766.095498
496.212768,-1924.535449,-9770.718434,0.000000
496.213095,-3552.988522,-9474.636058,-612.876398
496.213423,-3478.967927,-7772.162391,-1072.533697
496.213750,-1924.535449,-6809.894666,0.000000
496.214078,-592.164754,-6143.709319,0.000000
496.214405,-518.144159,-7476.080014,76.609550
496.214733,-296.082377,-8068.244768,153.219100
496.215060,296.082377,-7402.059420,612.876398
496.215388,1628.453072,-6735.874072,995.924147
496.215715,2442.679609,-8438.347739,1838.629195
496.216043,1332.370696,-10140.821405,1378.971896
496.216371,-518.144159,-12139.377449,995.924147
496.216698,-1110.308913,-11917.315666,689.485948
496.217026,-222.061783,-10955.047942,919.314598
496.217353,1480.411884,-10140.821405,1072.533697
496.217681,888.247130,-11251.130318,995.924147
496.218008,0.000000,-11917.315666,153.219100
496.218336,-740.205942,-11103.089130,0.000000
496.218663,-1110.308913,-9474.636058,-306.438199
496.218991,444.123565,-8734.430116,0.000000
496.219318,-296.082377,-8586.388927,0.000000
496.219646,-1998.556043,-10436.903782,-689.485948
496.219973,-4071.132681,-10362.883188,-1378.971896
496.220301,-3849.070898,-8956.491898,-1225.752797
496.220628,-1776.494261,-7402.059420,-459.657299
496.220956,666.185348,-6809.894666,842.705048
496.221283,1332.370696,-7624.121203,919.314598
496.221611,2368.659014,-8808.450710,1149.143247
496.221938,2368.659014,-7994.224174,1915.238745
496.222266,3627.009116,-7254.018232,2681.334243
496.222593,4145.153275,-7994.224174,2987.772442
496.222921,3182.885551,-9696.697840,3370.820191
496.223248,1480.411884,-11843.295072,2987.772442
496.223576,518.144159,-11991.336260,3064.381992
496.223903,148.041188,-10732.986159,3294.210641
496.224231,1998.556043,-9844.739029,4060.306139
496.224558,2664.741391,-10362.883188,3677.258390
496.224886,592.164754,-11695.253884,3064.381992
496.225213,-592.164754,-11547.212695,2604.724693
496.225541,-1702.473667,-10140.821405,2221.676944
496.225868,-1554.432478,-8586.388927,2451.505594
496.226196,-1628.453072,-7920.203579,3140.991542
496.226523,-2664.741391,-9400.615463,2681.334243
496.226851,-5477.523971,-10214.842000,1685.410096
496.227178,-7254.018232,-9400.615463,995.924147
496.227506,-6587.832884,-7031.956449,995.924147
496.227833,-4737.318029,-5403.503377,1302.362347
496.228161,-2294.638420,-5551.544565,1532.190996
496.228488,-1184.329507,-6587.832884,1455.581446
496.228816,-1406.391290,-6661.853478,1532.190996
496.229143,-962.267725,-6069.688724,1915.238745
496.229471,888.247130,-5181.441594,2987.772442
496.229798,2886.803174,-6661.853478,3753.867940
496.230126,3849.070898,-8956.491898,4596.572988
496.230453,3404.947333,-11473.192101,4826.401637
496.230781,2294.638420,-12139.377449,4596.572988
496.231108,1406.391290,-11621.233289,4519.963438
496.231436,2516.700203,-11473.192101,5132.839837
496.231763,4071.132681,-11843.295072,5056.230287
496.232091,4515.256246,-11917.315666,4979.620737
496.232418,3182.885551,-11621.233289,4213.525239
496.232746,592.164754,-11029.068536,3907.087040
496.233073,-592.164754,-9030.512492,3600.648841
496.233401,-370.102971,-8734.430116,2834.553343
496.233728,148.041188,-7846.182985,2987.772442
496.234056,666.185348,-8142.265362,3064.381992
496.234383,-1184.329507,-8068.244768,3294.210641
496.234711,-4515.256246,-7846.182985,2374.896044
496.235038,-6661.853478,-8068.244768,1838.629195
496.235366,-7476.080014,-8142.265362,842.705048
496.235693,-5477.523971,-7920.203579,229.828649
496.236021,-2516.700203,-7179.997637,1072.533697
496.236348,-740.205942,-6587.832884,1762.019645
496.236676,-444.123565,-6439.791695,3064.381992
496.237003,-962.267725,-7550.100608,2528.115143
496.237331,-1110.308913,-9104.533087,2145.067394
496.237658,-1036.288319,-10214.842000,1378.971896
496.237986,-296.082377,-10288.862594,1762.019645
496.238313,1776.494261,-9622.677246,3064.381992
496.238641,3997.112087,-9770.718434,4673.182538
496.238968,5699.585753,-10584.944971,5669.106685
496.239296,6143.709319,-11547.212695,6358.592633
496.239623,4367.215058,-12213.398043,5515.887586
496.239951,1406.391290,-12435.459826,4443.353888
496.240278,-814.226536,-12435.459826,3600.648841
496.240606,-1776.494261,-11843.295072,3140.991542
496.240933,814.226536,-10140.821405,4519.963438
496.241261,3552.988522,-8586.388927,5209.449386
496.241588,3034.844362,-7624.121203,5975.544884
496.241916,2072.576638,-7550.100608,5056.230287
496.242243,-2072.576638,-7698.141797,4136.915689
496.242571,-5255.462188,-8364.327145,2451.505594
496.242898,-6439.791695,-8586.388927,1072.533697
496.243226,-5255.462188,-8216.285956,1225.752797
496.243553,-3108.864956,-7402.059420,2451.505594
496.243881,-444.123565,-6809.894666,4060.306139
496.244208,666.185348,-6735.874072,5745.716235
496.244536,444.123565,-7476.080014,5592.497135
496.244864,-1332.370696,-8586.388927,4596.572988
496.245191,-3849.070898,-9474.636058,2757.943793
496.245519,-5107.421000,-10955.047942,1608.800546
496.245846,-5625.565159,-10881.027347,1302.362347
496.246174,-3034.844362,-10288.862594,2145.067394
496.246501,74.020594,-9252.574275,3064.381992
496.246829,2442.679609,-8142.265362,4136.915689
496.247156,3330.926739,-7920.203579,4213.525239
496.247484,3108.864956,-8290.306550,3370.820191
496.247811,1332.370696,-8956.491898,2757.943793
496.248139,592.164754,-9992.780217,2451.505594
496.248466,148.041188,-9696.697840,3217.601092
496.248794,888.247130,-9918.759623,2987.772442
496.249121,1702.473667,-9770.718434,3983.696590
496.249449,1480.411884,-9326.594869,4443.353888
496.249776,592.164754,-8882.471304,3830.477490
496.250104,814.226536,-9252.574275,3600.648841
496.250431,1036.288319,-8808.450710,2604.724693
496.250759,-592.164754,-8956.491898,2298.286494
496.251086,1110.308913,-8512.368333,1991.848295
496.251414,1258.350101,-7994.224174,2604.724693
496.251741,1258.350101,-8438.347739,3217.601092
496.252069,1480.411884,-8660.409521,3753.867940
496.252396,814.226536,-9474.636058,3830.477490
496.252724,0.000000,-9474.636058,3370.820191
496.253051,-666.185348,-9992.780217,3370.820191
496.253379,-1776.494261,-10436.903782,3524.039291
496.253706,-2146.597232,-10214.842000,3294.210641
496.254034,-1924.535449,-10066.800811,3140.991542
496.254361,-1776.494261,-9474.636058,2911.162892
496.254689,-1110.308913,-8808.450710,2757.943793
496.255016,-1110.308913,-8586.388927,2911.162892
496.255344,-1036.288319,-8364.327145,2451.505594
496.255671,-962.267725,-7994.224174,2451.505594
496.255999,-1332.370696,-7698.141797,2451.505594
496.256326,-1258.350101,-7846.182985,2681.334243
496.256654,-666.185348,-8068.244768,2834.553343
496.256981,-370.102971,-7772.162391,3753.867940
496.257309,518.144159,-8882.471304,3753.867940
496.257636,962.267725,-9548.656652,3983.696590
496.257964,740.205942,-10288.862594,4136.915689
496.258291,222.061783,-10584.944971,4060.306139
496.258619,-296.082377,-10584.944971,3524.039291
496.258946,-592.164754,-9770.718434,4136.915689
496.259274,148.041188,-9696.697840,3447.429741
496.259601,-148.041188,-9474.636058,3140.991542
496.259929,1184.329507,-9400.615463,3064.381992
496.260256,1184.329507,-8956.491898,3064.381992
496.260584,0.000000,-9252.574275,3217.601092
496.260911,0.000000,-9400.615463,2528.115143
496.261239,-666.185348,-9622.677246,2298.286494
496.261566,-1258.350101,-9474.636058,2221.676944
496.261894,-370.102971,-9030.512492,2374.896044
496.262221,-814.226536,-8364.327145,2911.162892
496.262549,-666.185348,-8734.430116,2374.896044
496.262876,-962.267725,-9104.533087,2221.676944
496.263203,-1776.494261,-9104.533087,1915.238745
496.263531,-1480.411884,-9030.512492,1685.410096
496.263858,-888.247130,-8512.368333,1915.238745
496.264186,-444.123565,-8660.409521,1685.410096
496.264513,-222.061783,-8068.244768,1225.752797
496.264841,444.123565,-8364.327145,1149.143247
496.265168,444.123565,-8364.327145,1072.533697
496.265496,370.102971,-9030.512492,1455.581446
496.265823,370.102971,-9474.636058,1378.971896
496.266151,-222.061783,-10140.821405,1302.362347
496.266478,-222.061783,-10584.944971,1072.533697
496.266806,666.185348,-10732.986159,1532.190996
496.267133,1110.308913,-10214.842000,1838.629195
496.267461,1628.453072,-10140.821405,1838.629195
496.267788,1480.411884,-9548.656652,1915.238745
496.268116,888.247130,-9178.553681,1685.410096
496.268443,-148.041188,-9252.574275,1302.362347
496.268771,0.000000,-8956.491898,842.705048
496.269098,-518.144159,-8586.388927,919.314598
496.269425,-814.226536,-8364.327145,689.485948
496.269753,-370.102971,-8438.347739,842.705048
496.270080,-296.082377,-8068.244768,766.095498
496.270408,-444.123565,-8512.368333,766.095498
496.270735,-148.041188,-8142.265362,536.266849
496.271063,-518.144159,-7846.182985,536.266849
496.271390,-814.226536,-8142.265362,306.438199
496.271718,-444.123565,-8586.388927,612.876398
496.272045,-592.164754,-9178.553681,383.047749
496.272373,-296.082377,-9400.615463,766.095498
496.272700,-444.123565,-9326.594869,1302.362347
496.273028,-370.102971,-9474.636058,995.924147
496.273355,-370.102971,-9474.636058,919.314598
496.273683,-370.102971,-9400.615463,689.485948
496.274010,0.000000,-9400.615463,1302.362347
496.274338,-740.205942,-8882.471304,612.876398
496.274665,148.041188,-9030.512492,766.095498
496.274992,-444.123565,-8808.450710,1072.533697
496.275320,-444.123565,-9400.615463,1302.362347
496.275647,-518.144159,-9326.594869,1302.362347
496.275975,-444.123565,-8364.327145,1455.581446
496.276302,0.000000,-8956.491898,612.876398
496.276630,0.000000,-8660.409521,689.485948
496.276957,0.000000,-8586.388927,689.485948
496.277285,-222.061783,-8660.409521,612.876398
496.277612,370.102971,-8660.409521,1072.533697
496.277940,-222.061783,-8586.388927,842.705048
496.278267,-888.247130,-9030.512492,995.924147
496.278595,-814.226536,-9326.594869,766.095498
496.278922,-814.226536,-9178.553681,842.705048
496.279250,-888.247130,-9400.615463,536.266849
496.279577,-370.102971,-9030.512492,306.438199
496.279905,-444.123565,-9474.636058,689.485948
496.280232,-222.061783,-9178.553681,459.657299
496.280560,-148.041188,-9178.553681,689.485948
496.280887,0.000000,-9252.574275,536.266849
496.281214,222.061783,-9252.574275,842.705048
496.281542,-296.082377,-9622.677246,306.438199
496.281869,-518.144159,-9548.656652,536.266849
496.282197,-740.205942,-9548.656652,612.876398
496.282524,-518.144159,-9696.697840,766.095498
496.282852,-148.041188,-9622.677246,459.657299
496.283179,0.000000,-9474.636058,766.095498
496.283507,74.020594,-9252.574275,306.438199
496.283834,222.061783,-9104.533087,612.876398
496.284162,0.000000,-8882.471304,612.876398
496.284489,0.000000,-8956.491898,536.266849
496.284817,370.102971,-9252.574275,383.047749
496.285144,-222.061783,-9474.636058,689.485948
496.285472,0.000000,-9622.677246,612.876398
496.285799,0.000000,-9474.636058,919.314598
496.286127,740.205942,-9548.656652,766.095498
496.286454,74.020594,-8882.471304,306.438199
496.286782,148.041188,-9252.574275,153.219100
496.287109,74.020594,-9030.512492,306.438199
496.287436,-222.061783,-8808.450710,459.657299
496.287764,-370.102971,-8734.430116,459.657299
496.288091,-296.082377,-9030.512492,229.828649
496.288419,-814.226536,-8734.430116,459.657299
496.288746,-518.144159,-9104.533087,383.047749
496.289074,-888.247130,-8512.368333,153.219100
496.289401,-592.164754,-8586.388927,459.657299
496.289729,-444.123565,-8290.306550,536.266849
496.290056,-518.144159,-8586.388927,383.047749
496.290384,-518.144159,-8438.347739,0.000000
496.290711,-370.102971,-8660.409521,536.266849
496.291039,-666.185348,-8956.491898,306.438199
496.291366,-814.226536,-8808.450710,842.705048
496.291694,-888.247130,-9326.594869,1149.143247
496.292021,-888.247130,-9474.636058,766.095498
496.292349,-518.144159,-9326.594869,766.095498
496.292676,-370.102971,-9400.615463,459.657299
496.293003,-222.061783,-8882.471304,536.266849
496.293331,-444.123565,-8438.347739,766.095498
496.293658,-148.041188,-8882.471304,536.266849
496.293986,-370.102971,-9178.553681,612.876398
496.294313,-592.164754,-9252.574275,842.705048
496.294641,-592.164754,-9400.615463,919.314598
496.294968,-444.123565,-9252.574275,1225.752797
496.295296,-222.061783,-9178.553681,766.095498
496.295623,0.000000,-9178.553681,536.266849
496.295951,0.000000,-9030.512492,612.876398
496.296278,-222.061783,-8660.409521,536.266849
496.296606,-222.061783,-8882.471304,1302.362347
496.296933,-444.123565,-9030.512492,536.266849
496.297261,-888.247130,-9104.533087,612.876398
496.297588,-814.226536,-9178.553681,612.876398
496.297916,-666.185348,-9178.553681,536.266849
496.298243,-814.226536,-9104.533087,459.657299
496.298571,-666.185348,-9252.574275,766.095498
496.298898,-592.164754,-9104.533087,306.438199
496.299225,-370.102971,-9030.512492,229.828649
496.299553,-296.082377,-8882.471304,306.438199
496.299880,-296.082377,-9252.574275,383.047749
496.300208,-666.185348,-9178.553681,689.485948
496.300535,-518.144159,-9474.636058,689.485948
496.300863,-370.102971,-9622.677246,612.876398
496.301190,-518.144159,-9548.656652,612.876398
496.301518,-296.082377,-9474.636058,612.876398
496.301845,-592.164754,-8586.388927,612.876398
496.302173,-148.041188,-8882.471304,306.438199
496.302500,-222.061783,-8438.347739,536.266849
496.302828,-222.061783,-8438.347739,536.266849
496.303155,-592.164754,-8808.450710,612.876398
496.303483,-370.102971,-8142.265362,0.000000
496.303810,-740.205942,-8586.388927,383.047749
496.304138,-740.205942,-8586.388927,612.876398
496.304465,-592.164754,-8660.409521,229.828649
496.304793,-296.082377,-8882.471304,459.657299
496.305120,0.000000,-8512.368333,383.047749
496.305447,444.123565,-8290.306550,306.438199
496.305775,0.000000,-8734.430116,229.828649
496.306102,0.000000,-9326.594869,306.438199
496.306430,-148.041188,-9696.697840,766.095498
496.306757,-296.082377,-9474.636058,76.609550
496.307085,0.000000,-9770.718434,689.485948
496.307412,148.041188,-9770.718434,612.876398
496.307740,148.041188,-9400.615463,459.657299
496.308067,444.123565,-8808.450710,383.047749
496.308395,592.164754,-8512.368333,306.438199
496.308722,592.164754,-8364.327145,0.000000
496.309050,296.082377,-8660.409521,306.438199
496.309377,0.000000,-8586.388927,536.266849
496.309705,0.000000,-8956.491898,306.438199
496.310032,0.000000,-9252.574275,612.876398
496.310360,148.041188,-8956.491898,689.485948
496.310687,222.061783,-9104.533087,842.705048
496.311015,444.123565,-9030.512492,459.657299
496.311342,592.164754,-8660.409521,536.266849
496.311669,444.123565,-8808.450710,383.047749
496.311997,444.123565,-8734.430116,536.266849
496.312324,0.000000,-8882.471304,536.266849
496.312652,-222.061783,-9474.636058,612.876398
496.312979,-370.102971,-9770.718434,536.266849
496.313307,-222.061783,-9622.677246,689.485948
496.313634,-370.102971,-9474.636058,383.047749
496.313962,-518.144159,-9252.574275,766.095498
496.314289,0.000000,-9400.615463,459.657299
496.314617,0.000000,-9252.574275,229.828649
496.314944,0.000000,-9030.512492,459.657299
496.315272,0.000000,-9474.636058,612.876398
496.315599,444.123565,-10140.821405,689.485948
496.315927,-222.061783,-9844.739029,1072.533697
496.316254,-296.082377,-9548.656652,842.705048
496.316582,-370.102971,-9400.615463,689.485948
496.316909,-296.082377,-9326.594869,536.266849
496.317236,-370.102971,-9252.574275,919.314598
496.317564,0.000000,-8808.450710,383.047749
496.317891,-296.082377,-9178.553681,536.266849
496.318219,-444.123565,-9400.615463,536.266849
496.318546,-518.144159,-9474.636058,612.876398
496.318874,-666.185348,-9622.677246,919.314598
496.319201,-370.102971,-9400.615463,536.266849
496.319529,-518.144159,-9474.636058,383.047749
496.319856,-444.123565,-9400.615463,383.047749
496.320184,-592.164754,-9104.533087,612.876398
496.320511,-592.164754,-9104.533087,383.047749
496.320839,-222.061783,-9326.594869,612.876398
496.321166,-740.205942,-9252.574275,612.876398
496.321494,-888.247130,-9474.636058,536.266849
496.321821,-888.247130,-9400.615463,766.095498
496.322149,-962.267725,-9252.574275,612.876398
496.322476,-222.061783,-8956.491898,536.266849
496.322804,-370.102971,-8660.409521,612.876398
496.323131,-370.102971,-8586.388927,153.219100
496.323458,-296.082377,-8956.491898,383.047749
496.323786,-518.144159,-8882.471304,383.047749
496.324113,-518.144159,-9104.533087,536.266849
496.324441,-592.164754,-8438.347739,919.314598
496.324768,-592.164754,-9104.533087,612.876398
496.325096,-518.144159,-8956.491898,536.266849
496.325423,-444.123565,-8882.471304,536.266849
496.325751,-296.082377,-8734.430116,383.047749
496.326078,-222.061783,-8364.327145,383.047749
496.326406,-222.061783,-8438.347739,383.047749
496.326733,-148.041188,-8734.430116,689.485948
496.327061,-296.082377,-8734.430116,383.047749
496.327388,-444.123565,-8734.430116,1302.362347
496.327716,-148.041188,-8808.450710,612.876398
496.328043,-518.144159,-8734.430116,536.266849
496.328371,-222.061783,-8882.471304,612.876398
496.328698,-148.041188,-8586.388927,459.657299
496.329026,0.000000,-8660.409521,306.438199
496.329353,0.000000,-8438.347739,612.876398
496.329680,222.061783,-8512.368333,612.876398
496.330008,148.041188,-9030.512492,536.266849
496.330335,296.082377,-9252.574275,536.266849
496.330663,74.020594,-9326.594869,689.485948
496.330990,0.000000,-9252.574275,842.705048
496.331318,518.144159,-9548.656652,612.876398
496.331645,74.020594,-9178.553681,536.266849
496.331973,148.041188,-9326.594869,383.047749
496.332300,74.020594,-9030.512492,459.657299
496.332628,296.082377,-9474.636058,842.705048
496.332955,518.144159,-9326.594869,536.266849
496.333283,0.000000,-9178.553681,612.876398
496.333610,-296.082377,-8882.471304,306.438199
496.333938,0.000000,-9030.512492,689.485948
496.334265,-296.082377,-9104.533087,536.266849
496.334593,0.000000,-9104.533087,766.095498
496.334920,-518.144159,-9104.533087,229.828649
496.335247,-518.144159,-9252.574275,612.876398
496.335575,-370.102971,-9400.615463,689.485948
496.335902,-370.102971,-9326.594869,383.047749
496.336230,-222.061783,-9030.512492,995.924147
496.336557,0.000000,-9474.636058,689.485948
496.336885,0.000000,-9400.615463,459.657299
496.337212,0.000000,-9252.574275,536.266849
496.337540,0.000000,-9400.615463,536.266849
496.337867,74.020594,-9400.615463,1225.752797
496.338195,74.020594,-9400.615463,306.438199
496.338522,-148.041188,-9622.677246,612.876398
496.338850,-148.041188,-9622.677246,689.485948
496.339177,-296.082377,-9548.656652,689.485948
496.339505,-296.082377,-9252.574275,612.876398
496.339832,0.000000,-9474.636058,536.266849
496.340160,-148.041188,-9400.615463,612.876398
496.340487,-296.082377,-9474.636058,612.876398
496.340815,0.000000,-9104.533087,459.657299
496.341142,-222.061783,-9252.574275,459.657299
496.341469,-666.185348,-9474.636058,612.876398
496.341797,-518.144159,-9252.574275,689.485948
496.342124,-592.164754,-8956.491898,459.657299
496.342452,-444.123565,-9030.512492,536.266849
496.342779,-370.102971,-9252.574275,612.876398
496.343107,-592.164754,-8734.430116,612.876398
496.343434,-296.082377,-9252.574275,766.095498
496.343762,-222.061783,-8956.491898,383.047749
496.344089,0.000000,-9178.553681,459.657299
496.344417,0.000000,-9252.574275,459.657299
496.344744,74.020594,-8956.491898,1378.971896
496.345072,148.041188,-8882.471304,306.438199
496.345399,0.000000,-8882.471304,459.657299
496.345727,-148.041188,-9252.574275,689.485948
496.346054,-148.041188,-9104.533087,612.876398
496.346382,-222.061783,-9326.594869,995.924147
496.346709,0.000000,-8808.450710,536.266849
496.347037,-222.061783,-9252.574275,612.876398
496.347364,-222.061783,-8956.491898,612.876398
496.347691,-370.102971,-9030.512492,612.876398
496.348019,-222.061783,-8808.450710,536.266849
496.348346,-370.102971,-8882.471304,1149.143247
496.348674,-518.144159,-8956.491898,612.876398
496.349001,-444.123565,-8882.471304,383.047749
496.349329,-444.123565,-8660.409521,459.657299
496.349656,-666.185348,-8734.430116,459.657299
496.349984,-518.144159,-8734.430116,612.876398
496.350311,-296.082377,-8956.491898,536.266849
496.350639,-148.041188,-8734.430116,383.047749
496.350966,-370.102971,-9178.553681,536.266849
496.351294,-370.102971,-9400.615463,612.876398
496.351621,-370.102971,-8882.471304,1072.533697
496.351949,0.000000,-8882.471304,612.876398
496.352276,-296.082377,-9252.574275,766.095498
496.352604,-444.123565,-9326.594869,536.266849
496.352931,-444.123565,-9326.594869,612.876398
496.353259,-592.164754,-8882.471304,612.876398
496.353586,74.020594,-8808.450710,383.047749
496.353913,-518.144159,-8956.491898,612.876398
496.354241,-592.164754,-8956.491898,306.438199
496.354568,-518.144159,-8808.450710,383.047749
496.354896,-666.185348,-8882.471304,459.657299
496.355223,-666.185348,-8586.388927,766.095498
496.355551,-296.082377,-9030.512492,536.266849
496.355878,-444.123565,-9178.553681,689.485948
496.356206,-518.144159,-9104.533087,612.876398
496.356533,-518.144159,-8956.491898,383.047749
496.356861,-222.061783,-9030.512492,766.095498
496.357188,-296.082377,-8956.491898,459.657299
496.357516,-370.102971,-9104.533087,536.266849
496.357843,-444.123565,-9030.512492,612.876398
496.358171,-444.123565,-9178.553681,612.876398
496.358498,-296.082377,-8882.471304,306.438199
496.358825,-740.205942,-8808.450710,766.095498
496.359153,-444.123565,-9030.512492,689.485948
496.359480,-370.102971,-9104.533087,766.095498
496.359808,-296.082377,-8882.471304,536.266849
496.360135,-296.082377,-9030.512492,612.876398
496.360463,-444.123565,-8142.265362,612.876398
496.360790,-370.102971,-8808.450710,842.705048
496.361117,-444.123565,-8660.409521,459.657299
496.361445,-666.185348,-8734.430116,842.705048
496.361772,-666.185348,-8808.450710,612.876398
496.362100,-518.144159,-8808.450710,766.095498
496.362427,-370.102971,-8734.430116,0.000000
496.362755,-592.164754,-8882.471304,536.266849
496.363082,-518.144159,-9030.512492,612.876398
496.363409,-444.123565,-8808.450710,383.047749
496.363737,-518.144159,-8956.491898,612.876398
496.364064,0.000000,-8660.409521,766.095498
496.364392,-370.102971,-9104.533087,459.657299
496.364719,-148.041188,-9326.594869,536.266849
496.365047,0.000000,-9252.574275,459.657299
496.365374,0.000000,-9178.553681,689.485948
496.365702,148.041188,-9178.553681,612.876398
496.366029,0.000000,-9252.574275,766.095498
496.366356,222.061783,-9400.615463,536.266849
496.366684,148.041188,-9326.594869,689.485948
496.367011,0.000000,-9252.574275,459.657299
496.367339,0.000000,-8808.450710,919.314598
496.367666,0.000000,-9178.553681,689.485948
496.367994,0.000000,-9252.574275,612.876398
496.368321,0.000000,-9104.533087,306.438199
496.368648,0.000000,-9252.574275,459.657299
496.368976,0.000000,-8956.491898,383.047749
496.369303,222.061783,-9104.533087,229.828649
496.369631,-148.041188,-9104.533087,229.828649
496.369958,0.000000,-9104.533087,306.438199
496.370286,-148.041188,-9474.636058,306.438199
496.370613,-148.041188,-9326.594869,919.314598
496.370940,-148.041188,-9326.594869,229.828649
496.371268,-148.041188,-9622.677246,689.485948
496.371595,0.000000,-9474.636058,689.485948
496.371923,0.000000,-9770.718434,689.485948
496.372250,222.061783,-9696.697840,766.095498
496.372578,0.000000,-9030.512492,842.705048
496.372905,0.000000,-9400.615463,689.485948
496.373232,-222.061783,-9474.636058,536.266849
496.373560,-148.041188,-9474.636058,612.876398
496.373887,-222.061783,-9622.677246,612.876398
496.374215,-370.102971,-9252.574275,1225.752797
496.374542,0.000000,-9474.636058,536.266849
496.374870,-370.102971,-9326.594869,689.485948
496.375197,-296.082377,-9400.615463,612.876398
496.375524,-148.041188,-9104.533087,612.876398
496.375852,-296.082377,-8808.450710,536.266849
496.376179,-296.082377,-8734.430116,0.000000
496.376507,-666.185348,-9178.553681,689.485948
496.376834,-666.185348,-9252.574275,536.266849
496.377162,-814.226536,-8882.471304,689.485948
496.377489,-1184.329507,-9178.553681,612.876398
496.377817,-888.247130,-8882.471304,995.924147
496.378144,-740.205942,-9178.553681,612.876398
496.378471,-518.144159,-9178.553681,689.485948
496.378799,-370.102971,-8882.471304,612.876398
496.379126,-296.082377,-9030.512492,689.485948
496.379454,0.000000,-8956.491898,1225.752797
496.379781,-444.123565,-9252.574275,612.876398
496.380109,-444.123565,-9030.512492,766.095498
496.380436,-296.082377,-9178.553681,612.876398
496.380763,-444.123565,-9104.533087,689.485948
496.381091,-370.102971,-8586.388927,766.095498
496.381418,-444.123565,-8660.409521,536.266849
496.381746,-518.144159,-8512.368333,536.266849
496.382073,-518.144159,-8512.368333,536.266849
496.382401,-518.144159,-8512.368333,459.657299
496.382728,-296.082377,-8438.347739,0.000000
496.383055,-888.247130,-8438.347739,919.314598
496.383383,-592.164754,-8364.327145,459.657299
496.383710,-518.144159,-8660.409521,612.876398
496.384038,-370.102971,-8512.368333,383.047749
496.384365,-518.144159,-8586.388927,229.828649
496.384693,-370.102971,-8586.388927,612.876398
496.385020,-370.102971,-8882.471304,612.876398
496.385347,-296.082377,-8956.491898,536.266849
496.385675,-148.041188,-9104.533087,612.876398
496.386002,74.020594,-9104.533087,536.266849
496.386330,0.000000,-8956.491898,612.876398
496.386657,148.041188,-9104.533087,459.657299
496.386985,0.000000,-9104.533087,536.266849
496.387312,0.000000,-9400.615463,536.266849
496.387639,-148.041188,-9252.574275,306.438199
496.387967,0.000000,-9178.553681,-153.219100
496.388294,-296.082377,-8956.491898,536.266849
496.388622,0.000000,-9252.574275,536.266849
496.388949,-296.082377,-8956.491898,459.657299
496.389277,-296.082377,-9178.553681,383.047749
496.389604,-148.041188,-8956.491898,459.657299
496.389932,148.041188,-9326.594869,153.219100
496.390259,-444.123565,-9030.512492,459.657299
496.390586,-222.061783,-9474.636058,229.828649
496.390914,-296.082377,-9474.636058,459.657299
496.391241,-296.082377,-8882.471304,383.047749
496.391569,0.000000,-9400.615463,689.485948
496.391896,0.000000,-9474.636058,306.438199
496.392224,-148.041188,-9474.636058,383.047749
496.392551,0.000000,-9400.615463,306.438199
496.392878,0.000000,-9400.615463,383.047749
496.393206,74.020594,-9548.656652,459.657299
496.393533,0.000000,-9178.553681,766.095498
496.393861,0.000000,-9474.636058,612.876398
496.394188,0.000000,-9622.677246,689.485948
496.394516,0.000000,-9548.656652,612.876398
496.394843,148.041188,-9622.677246,1302.362347
496.395170,0.000000,-9178.553681,1072.533697
496.395498,0.000000,-9252.574275,842.705048
496.395825,0.000000,-9400.615463,689.485948
496.396153,0.000000,-9252.574275,766.095498
496.396480,0.000000,-8734.430116,536.266849
496.396808,0.000000,-8512.368333,919.314598
496.397135,-296.082377,-9178.553681,689.485948
496.397462,-518.144159,-9104.533087,689.485948
496.397790,-444.123565,-9178.553681,689.485948
496.398117,-444.123565,-9252.574275,842.705048
496.398445,-148.041188,-9104.533087,612.876398
496.398772,-518.144159,-9400.615463,689.485948
496.399100,-296.082377,-9252.574275,612.876398
496.399427,-222.061783,-9400.615463,689.485948
496.399754,0.000000,-9326.594869,689.485948
496.400082,0.000000,-9178.553681,995.924147
496.400409,0.000000,-9030.512492,689.485948
496.400737,-296.082377,-8956.491898,766.095498
496.401064,-222.061783,-9252.574275,612.876398
496.401392,-222.061783,-9104.533087,536.266849
496.401719,-296.082377,-8734.430116,766.095498
496.402047,0.000000,-8956.491898,459.657299
496.402374,0.000000,-9030.512492,229.828649
496.402701,0.000000,-9252.574275,536.266849
496.403029,-148.041188,-8882.471304,459.657299
496.403356,0.000000,-8956.491898,306.438199
496.403684,0.000000,-9030.512492,-153.219100
496.404011,-444.123565,-9400.615463,383.047749
496.404339,-592.164754,-9326.594869,536.266849
496.404666,-370.102971,-9326.594869,229.828649
496.404993,-370.102971,-9252.574275,229.828649
496.405321,148.041188,-9030.512492,383.047749
496.405648,-222.061783,-9104.533087,306.438199
496.405976,-296.082377,-9104.533087,536.266849
496.406303,-370.102971,-8956.491898,76.609550
496.406631,-148.041188,-9030.512492,459.657299
496.406958,0.000000,-9326.594869,766.095498
496.407285,0.000000,-9178.553681,689.485948
496.407613,-444.123565,-9252.574275,383.047749
496.407940,-370.102971,-9474.636058,612.876398
496.408268,-592.164754,-9252.574275,689.485948
496.408595,-148.041188,-9252.574275,536.266849
496.408923,0.000000,-8956.491898,153.219100
496.409250,-222.061783,-9030.512492,766.095498
496.409577,-444.123565,-8808.450710,612.876398
496.409905,-518.144159,-8734.430116,536.266849
496.410232,-592.164754,-8808.450710,842.705048
496.410560,-814.226536,-8216.285956,766.095498
496.410887,-740.205942,-8882.471304,612.876398
496.411215,-592.164754,-8882.471304,612.876398
496.411542,-666.185348,-8808.450710,766.095498
496.411869,-518.144159,-8882.471304,689.485948
496.412197,0.000000,-9178.553681,1149.143247
496.412524,-444.123565,-9030.512492,689.485948
496.412852,-592.164754,-8956.491898,459.657299
496.413179,-370.102971,-8882.471304,689.485948
496.413507,-370.102971,-8956.491898,383.047749
496.413834,148.041188,-8956.491898,919.314598
496.414162,0.000000,-9030.512492,536.266849
496.414489,-370.102971,-8956.491898,536.266849
496.414816,0.000000,-8956.491898,459.657299
496.415144,-222.061783,-9030.512492,459.657299
496.415471,0.000000,-9104.533087,459.657299
496.415799,0.000000,-8808.450710,459.657299
496.416126,0.000000,-8956.491898,459.657299
496.416454,0.000000,-9030.512492,689.485948
496.416781,0.000000,-9030.512492,383.047749
496.417108,-296.082377,-8956.491898,842.705048
496.417436,-444.123565,-8438.347739,536.266849
496.417763,-148.041188,-9104.533087,459.657299
496.418091,-222.061783,-9178.553681,459.657299
496.418418,0.000000,-9030.512492,536.266849
496.418746,-222.061783,-9252.574275,612.876398
496.419073,-518.144159,-9030.512492,536.266849
496.419400,-222.061783,-9326.594869,459.657299
496.419728,-296.082377,-9400.615463,536.266849
496.420055,-296.082377,-9178.553681,536.266849
496.420383,-296.082377,-9400.615463,459.657299
496.420710,74.020594,-9474.636058,383.047749
496.421038,0.000000,-9474.636058,995.924147
496.421365,-222.061783,-9252.574275,919.314598
496.421692,0.000000,-9252.574275,689.485948
496.422020,-296.082377,-9400.615463,689.485948
496.422347,-370.102971,-9252.574275,689.485948
496.422675,296.082377,-9178.553681,383.047749
496.423002,0.000000,-9400.615463,689.485948
496.423330,-222.061783,-9400.615463,536.266849
496.423657,-296.082377,-9548.656652,612.876398
496.423984,0.000000,-9178.553681,689.485948
496.424312,0.000000,-9326.594869,995.924147
496.424639,-222.061783,-9104.533087,536.266849
496.424967,-222.061783,-9252.574275,689.485948
496.425294,-222.061783,-9474.636058,459.657299
496.425622,-222.061783,-9326.594869,459.657299
496.425949,0.000000,-9474.636058,766.095498
496.426277,-370.102971,-9326.594869,536.266849
496.426604,-222.061783,-9326.594869,383.047749
496.426931,-296.082377,-9178.553681,383.047749
496.427259,0.000000,-9326.594869,306.438199
496.427586,0.000000,-9252.574275,1149.143247
496.427914,0.000000,-9400.615463,383.047749
496.428241,-296.082377,-9252.574275,536.266849
496.428569,0.000000,-9252.574275,306.438199
496.428896,-370.102971,-9178.553681,229.828649
496.429223,0.000000,-9252.574275,1225.752797
496.429551,0.000000,-9104.533087,153.219100
496.429878,-148.041188,-9030.512492,459.657299
496.430206,0.000000,-9252.574275,459.657299
496.430533,-296.082377,-9178.553681,383.047749
496.430861,0.000000,-8882.471304,612.876398
496.431188,-296.082377,-8660.409521,689.485948
496.431515,-518.144159,-8956.491898,536.266849
496.431843,-370.102971,-9252.574275,842.705048
496.432170,-222.061783,-9104.533087,612.876398
496.432498,-444.123565,-8882.471304,612.876398
496.432825,-592.164754,-8956.491898,689.485948
496.433153,-296.082377,-8882.471304,536.266849
496.433480,-370.102971,-9030.512492,689.485948
496.433807,-222.061783,-9030.512492,459.657299
496.434135,-444.123565,-8734.430116,383.047749
496.434462,-444.123565,-8364.327145,995.924147
496.434790,-148.041188,-9400.615463,1072.533697
496.435117,-222.061783,-9030.512492,536.266849
496.435445,-222.061783,-8808.450710,766.095498
496.435772,-148.041188,-8808.450710,383.047749
496.436099,0.000000,-8586.388927,995.924147
496.436427,74.020594,-8734.430116,689.485948
496.436754,-148.041188,-8956.491898,612.876398
496.437082,-370.102971,-8882.471304,612.876398
496.437409,-370.102971,-8660.409521,689.485948
496.437737,-222.061783,-8956.491898,766.095498
496.438064,-444.123565,-8808.450710,689.485948
496.438392,-592.164754,-8882.471304,919.314598
496.438719,-518.144159,-8808.450710,536.266849
496.439046,-296.082377,-9104.533087,536.266849
496.439374,-518.144159,-9178.553681,842.705048
496.439701,-222.061783,-8808.450710,689.485948
496.440029,-444.123565,-8808.450710,536.266849
496.440356,-444.123565,-8956.491898,459.657299
496.440684,-518.144159,-9030.512492,536.266849
496.441011,-518.144159,-9104.533087,536.266849
496.441338,-444.123565,-9178.553681,689.485948
496.441666,-444.123565,-9030.512492,612.876398
496.441993,-592.164754,-9178.553681,612.876398
496.442321,-444.123565,-9252.574275,612.876398
496.442648,-296.082377,-9104.533087,689.485948
496.442976,-148.041188,-8808.450710,766.095498
496.443303,-222.061783,-8956.491898,459.657299
496.443630,-444.123565,-9030.512492,612.876398
496.443958,-444.123565,-8956.491898,612.876398
496.444285,-444.123565,-9030.512492,612.876398
496.444613,-370.102971,-9178.553681,459.657299
496.444940,0.000000,-9474.636058,842.705048
496.445268,-592.164754,-9104.533087,766.095498
496.445595,-444.123565,-9030.512492,536.266849
496.445922,-370.102971,-9252.574275,612.876398
496.446250,-296.082377,-9400.615463,536.266849
496.446577,0.000000,-9400.615463,229.828649
496.446905,-222.061783,-9030.512492,306.438199
496.447232,-296.082377,-9326.594869,459.657299
496.447560,-296.082377,-9474.636058,459.657299
496.447887,-296.082377,-9474.636058,459.657299
496.448214,-222.061783,-9400.615463,536.266849
496.448542,0.000000,-8956.491898,842.705048
496.448869,0.000000,-9252.574275,612.876398
496.449197,-296.082377,-9178.553681,536.266849
496.449524,-222.061783,-9104.533087,459.657299
496.449852,-296.082377,-8882.471304,689.485948
496.450179,148.041188,-8956.491898,689.485948
496.450507,-296.082377,-8956.491898,536.266849
496.450834,-296.082377,-8956.491898,229.828649
496.451161,0.000000,-9178.553681,459.657299
496.451489,-148.041188,-9030.512492,459.657299
496.451816,0.000000,-8956.491898,536.266849
496.452144,0.000000,-9030.512492,536.266849
496.452471,0.000000,-9030.512492,306.438199
496.452799,0.000000,-9252.574275,766.095498
496.453126,-148.041188,-9400.615463,612.876398
496.453453,-518.144159,-8660.409521,995.924147
496.453781,0.000000,-9474.636058,842.705048
496.454108,-222.061783,-9252.574275,306.438199
496.454436,0.000000,-9252.574275,229.828649
496.454763,0.000000,-9252.574275,536.266849
496.455091,0.000000,-9474.636058,306.438199
496.455418,0.000000,-8882.471304,842.705048
496.455745,0.000000,-8956.491898,536.266849
496.456073,0.000000,-9252.574275,689.485948
496.456400,-296.082377,-9400.615463,536.266849
496.456728,-296.082377,-9326.594869,612.876398
496.457055,-296.082377,-9400.615463,689.485948
496.457383,-370.102971,-9104.533087,306.438199
496.457710,-296.082377,-9326.594869,459.657299
496.458037,-148.041188,-9400.615463,306.438199
496.458365,0.000000,-9474.636058,459.657299
496.458692,0.000000,-8882.471304,229.828649
496.459020,-148.041188,-8956.491898,536.266849
496.459347,-148.041188,-9252.574275,383.047749
496.459675,0.000000,-9400.615463,459.657299
496.460002,-222.061783,-9400.615463,459.657299
496.460330,-518.144159,-8882.471304,612.876398
496.460657,0.000000,-9326.594869,459.657299
496.460985,-370.102971,-9252.574275,536.266849
496.461312,-296.082377,-9252.574275,383.047749
496.461639,-222.061783,-9400.615463,459.657299
496.461967,-296.082377,-9178.553681,459.657299
496.462294,0.000000,-9104.533087,536.266849
496.462622,-370.102971,-9030.512492,459.657299
496.462949,-518.144159,-9252.574275,536.266849
496.463277,-296.082377,-9326.594869,842.705048
496.463604,-296.082377,-8808.450710,919.314598
496.463932,-518.144159,-8956.491898,1072.533697
496.464259,-518.144159,-8882.471304,536.266849
496.464587,-444.123565,-8882.471304,766.095498
496.464914,-518.144159,-8586.388927,766.095498
496.465242,-370.102971,-8882.471304,536.266849
496.465569,-592.164754,-8290.306550,1149.143247
496.465897,-592.164754,-8808.450710,383.047749
496.466224,-962.267725,-8734.430116,766.095498
496.466552,-814.226536,-8882.471304,842.705048
496.466879,-814.226536,-8808.450710,842.705048
496.467206,-296.082377,-9104.533087,689.485948
496.467534,-962.267725,-8290.306550,919.314598
496.467861,-296.082377,-8808.450710,459.657299
496.468189,-296.082377,-8882.471304,306.438199
496.468516,-296.082377,-8734.430116,536.266849
496.468844,-222.061783,-9178.553681,766.095498
496.469171,0.000000,-8364.327145,536.266849
496.469499,-296.082377,-8956.491898,459.657299
496.469826,0.000000,-8882.471304,612.876398
496.470154,-296.082377,-9030.512492,612.876398
496.470481,0.000000,-8956.491898,842.705048
496.470809,-222.061783,-8882.471304,766.095498
496.471136,-148.041188,-9178.553681,383.047749
496.471464,0.000000,-9030.512492,383.047749
496.471791,0.000000,-8956.491898,383.047749
496.472119,74.020594,-9030.512492,459.657299
496.472446,-74.020594,-8808.450710,229.828649
496.472773,-222.061783,-9178.553681,306.438199
496.473101,-296.082377,-9104.533087,459.657299
496.473428,-148.041188,-9252.574275,153.219100
496.473756,-296.082377,-9178.553681,306.438199
496.474083,0.000000,-9178.553681,76.609550
496.474411,0.000000,-9326.594869,383.047749
496.474738,-148.041188,-9178.553681,459.657299
496.475066,-148.041188,-9252.574275,459.657299
496.475393,-148.041188,-9104.533087,459.657299
496.475721,0.000000,-9474.636058,76.609550
496.476048,0.000000,-9474.636058,1532.190996
496.476376,0.000000,-9548.656652,766.095498
496.476703,-222.061783,-9474.636058,612.876398
496.477031,0.000000,-9474.636058,612.876398
496.477358,0.000000,-9326.594869,995.924147
496.477685,-666.185348,-8808.450710,995.924147
496.478013,-222.061783,-9474.636058,612.876398
496.478340,-296.082377,-9400.615463,612.876398
496.478668,-518.144159,-9178.553681,612.876398
496.478995,-444.123565,-9474.636058,612.876398
496.479323,-592.164754,-8734.430116,842.705048
496.479650,-148.041188,-9400.615463,536.266849
496.479978,-518.144159,-9104.533087,612.876398
496.480305,-370.102971,-9030.512492,689.485948
496.480633,-518.144159,-9178.553681,536.266849
496.480960,0.000000,-8734.430116,459.657299
496.481288,-592.164754,-8734.430116,229.828649
496.481615,-222.061783,-9252.574275,612.876398
496.481943,0.000000,-9252.574275,536.266849
496.482270,0.000000,-9474.636058,689.485948
496.482598,0.000000,-9104.533087,689.485948
496.482925,0.000000,-8956.491898,459.657299
496.483252,0.000000,-9252.574275,459.657299
496.483580,0.000000,-9178.553681,383.047749
496.483907,-148.041188,-9104.533087,536.266849
496.484235,0.000000,-9104.533087,612.876398
496.484562,0.000000,-9030.512492,995.924147
496.484890,-296.082377,-9104.533087,689.485948
496.485217,-296.082377,-9104.533087,383.047749
496.485545,0.000000,-9178.553681,459.657299
496.485872,0.000000,-8882.471304,306.438199
496.486200,0.000000,-8512.368333,689.485948
496.486527,0.000000,-8956.491898,306.438199
496.486855,-222.061783,-8808.450710,306.438199
496.487182,-222.061783,-9178.553681,459.657299
496.487510,-444.123565,-9030.512492,383.047749
496.487837,0.000000,-9104.533087,1072.533697
496.488165,0.000000,-9178.553681,612.876398
496.488492,-444.123565,-8956.491898,536.266849
496.488819,-222.061783,-8882.471304,612.876398
496.489147,0.000000,-8882.471304,612.876398
496.489474,0.000000,-8660.409521,612.876398
496.489802,-148.041188,-8956.491898,689.485948
496.490129,0.000000,-9030.512492,612.876398
496.490457,-370.102971,-9104.533087,766.095498
496.490784,-370.102971,-9178.553681,536.266849
496.491112,-444.123565,-9252.574275,536.266849
496.491439,74.020594,-9178.553681,1455.581446
496.491767,-148.041188,-9104.533087,612.876398
496.492094,-296.082377,-8808.450710,766.095498
496.492422,-370.102971,-9030.512492,689.485948
496.492749,-370.102971,-8808.450710,689.485948
496.493077,-814.226536,-8512.368333,689.485948
496.493404,-592.164754,-8660.409521,383.047749
496.493732,-592.164754,-9030.512492,536.266849
496.494059,-740.205942,-9178.553681,919.314598
496.494386,-592.164754,-9178.553681,612.876398
496.494714,-666.185348,-8586.388927,612.876398
496.495041,-370.102971,-9178.553681,842.705048
496.495369,-296.082377,-9178.553681,536.266849
496.495696,-222.061783,-9104.533087,536.266849
496.496024,0.000000,-9252.574275,689.485948
496.496351,0.000000,-8882.471304,612.876398
496.496679,-296.082377,-9178.553681,919.314598
496.497006,-148.041188,-9474.636058,612.876398
496.497334,-518.144159,-9252.574275,536.266849
496.497661,-370.102971,-9252.574275,689.485948
496.497989,-222.061783,-9178.553681,459.657299
496.498316,-222.061783,-8956.491898,383.047749
496.498644,-370.102971,-8882.471304,383.047749
496.498971,-222.061783,-9030.512492,383.047749
496.499299,-296.082377,-9104.533087,383.047749
496.499626,-370.102971,-8882.471304,306.438199
496.499953,-592.164754,-8364.327145,383.047749
496.500281,-518.144159,-8882.471304,766.095498
496.500608,-370.102971,-8956.491898,306.438199
496.500936,-518.144159,-8956.491898,229.828649
496.501263,-444.123565,-9104.533087,383.047749
496.501591,-592.164754,-8882.471304,383.047749
496.501918,-148.041188,-9178.553681,0.000000
496.502246,0.000000,-9252.574275,536.266849
496.502573,0.000000,-9030.512492,612.876398
496.502901,-296.082377,-8956.491898,612.876398
496.503228,-518.144159,-9400.615463,842.705048
496.503556,0.000000,-9400.615463,306.438199
496.503883,-296.082377,-9104.533087,536.266849
496.504211,-222.061783,-9326.594869,612.876398
496.504538,-222.061783,-9400.615463,842.705048
496.504865,-296.082377,-9104.533087,689.485948
496.505193,148.041188,-8808.450710,766.095498
496.505520,-296.082377,-8956.491898,612.876398
496.505848,-296.082377,-8882.471304,612.876398
496.506175,-592.164754,-9030.512492,536.266849
496.506503,-518.144159,-8882.471304,612.876398
496.506830,-222.061783,-8586.388927,689.485948
496.507158,-222.061783,-9030.512492,536.266849
496.507485,-296.082377,-8882.471304,536.266849
496.507813,-222.061783,-9104.533087,306.438199
496.508140,-444.123565,-8956.491898,612.876398
496.508468,0.000000,-9030.512492,766.095498
496.508795,0.000000,-9178.553681,689.485948
496.509123,74.020594,-9474.636058,612.876398
496.509450,222.061783,-9474.636058,919.314598
496.509778,74.020594,-9622.677246,612.876398
496.510105,74.020594,-9548.656652,1149.143247
496.510432,518.144159,-9252.574275,536.266849
496.510760,148.041188,-9548.656652,766.095498
496.511087,74.020594,-9474.636058,689.485948
496.511415,0.000000,-9622.677246,689.485948
496.511742,0.000000,-9474.636058,536.266849
496.512070,0.000000,-9326.594869,766.095498
496.512397,0.000000,-9326.594869,383.047749
496.512725,0.000000,-9178.553681,306.438199
496.513052,0.000000,-9104.533087,229.828649
496.513380,-592.164754,-9104.533087,383.047749
496.513707,-444.123565,-8882.471304,689.485948
496.514035,-518.144159,-8956.491898,459.657299
496.514362,-444.123565,-9252.574275,612.876398
496.514690,-740.205942,-9326.594869,383.047749
496.515017,-518.144159,-9178.553681,689.485948
496.515345,-370.102971,-9252.574275,1072.533697
496.515672,-592.164754,-9104.533087,1225.752797
496.515999,-444.123565,-9178.553681,536.266849
496.516327,-296.082377,-9104.533087,766.095498
496.516654,-296.082377,-9178.553681,612.876398
496.516982,0.000000,-9326.594869,766.095498
496.517309,-148.041188,-8882.471304,459.657299
496.517637,-222.061783,-9252.574275,842.705048
496.517964,-370.102971,-9104.533087,919.314598
496.518292,-518.144159,-9104.533087,842.705048
496.518619,-592.164754,-9030.512492,689.485948
496.518947,-518.144159,-8956.491898,995.924147
496.519274,-518.144159,-8586.388927,383.047749
496.519602,-222.061783,-8808.450710,459.657299
496.519929,-296.082377,-8586.388927,689.485948
496.520257,-296.082377,-8660.409521,536.266849
496.520584,-296.082377,-8364.327145,612.876398
496.520912,-740.205942,-8512.368333,229.828649
496.521239,-740.205942,-8734.430116,383.047749
496.521566,-518.144159,-8734.430116,459.657299
496.521894,-740.205942,-8882.471304,459.657299
496.522221,-296.082377,-8956.491898,766.095498
496.522549,-296.082377,-8586.388927,766.095498
496.522876,0.000000,-8734.430116,229.828649
496.523204,-222.061783,-8882.471304,383.047749
496.523531,0.000000,-9030.512492,306.438199
496.523859,0.000000,-8956.491898,459.657299
496.524186,148.041188,-8586.388927,306.438199
496.524514,0.000000,-9030.512492,459.657299
496.524841,0.000000,-9178.553681,536.266849
496.525169,0.000000,-9104.533087,612.876398
496.525496,0.000000,-8808.450710,306.438199
496.525824,0.000000,-8808.450710,0.000000
496.526151,-148.041188,-8808.450710,459.657299
496.526479,-296.082377,-8808.450710,306.438199
496.526806,-222.061783,-9030.512492,383.047749
496.527133,-518.144159,-8808.450710,459.657299
496.527461,-444.123565,-8956.491898,0.000000
496.527788,-592.164754,-9030.512492,1072.533697
496.528116,-518.144159,-9252.574275,459.657299
496.528443,-592.164754,-9104.533087,612.876398
496.528771,-370.102971,-9326.594869,459.657299
496.529098,-296.082377,-9326.594869,459.657299
496.529426,-296.082377,-9030.512492,536.266849
496.529753,-444.123565,-9326.594869,766.095498
