#time,accel_x,accel_y,accel_z
604.082852,-444.123565,-8586.388927,612.876398
604.083180,0.000000,-9326.594869,459.657299
604.083508,-222.061783,-9030.512492,766.095498
604.083835,-222.061783,-9030.512492,536.266849
604.084163,-222.061783,-8956.491898,612.876398
604.084491,-222.061783,-9326.594869,536.266849
604.084819,-370.102971,-9030.512492,612.876398
604.085146,-296.082377,-8956.491898,536.266849
604.085474,-370.102971,-9178.553681,689.485948
604.085802,-222.061783,-9178.553681,306.438199
604.086129,-148.041188,-9178.553681,919.314598
604.086457,-222.061783,-9030.512492,612.876398
604.086785,-296.082377,-9178.553681,612.876398
604.087112,-370.102971,-9104.533087,536.266849
604.087440,-222.061783,-9178.553681,536.266849
604.087768,-222.061783,-8734.430116,919.314598
604.088096,-296.082377,-9252.574275,842.705048
604.088423,-370.102971,-9178.553681,536.266849
604.088751,-518.144159,-9178.553681,536.266849
604.089079,-296.082377,-8956.491898,536.266849
604.089406,-444.123565,-8734.430116,1149.143247
604.089734,0.000000,-8956.491898,689.485948
604.090062,-370.102971,-9178.553681,459.657299
604.090389,-222.061783,-9030.512492,306.438199
604.090717,-296.082377,-9178.553681,612.876398
604.091045,-222.061783,-9030.512492,919.314598
604.091373,0.000000,-8956.491898,612.876398
604.091700,-222.061783,-9104.533087,459.657299
604.092028,-370.102971,-9252.574275,612.876398
604.092356,-444.123565,-9326.594869,229.828649
604.092683,-888.247130,-9400.615463,229.828649
604.093011,-962.267725,-9252.574275,76.609550
604.093339,-1554.432478,-9178.553681,-229.828649
604.093666,-1036.288319,-9178.553681,-383.047749
604.093994,-370.102971,-9178.553681,-306.438199
604.094322,-666.185348,-9030.512492,-383.047749
604.094650,-962.267725,-8734.430116,-536.266849
604.094977,-1184.329507,-9104.533087,-842.705048
604.095305,-1258.350101,-9104.533087,-1149.143247
604.095633,-1184.329507,-9178.553681,-1302.362347
604.095960,-888.247130,-9104.533087,-1378.971896
604.096288,-296.082377,-9104.533087,-1302.362347
604.096616,0.000000,-8734.430116,-1378.971896
604.096943,0.000000,-8808.450710,-1225.752797
604.097271,-296.082377,-9030.512492,-1225.752797
604.097599,0.000000,-9326.594869,-1685.410096
604.097927,-222.061783,-9326.594869,-1762.019645
604.098254,370.102971,-9252.574275,-1915.238745
604.098582,148.041188,-9252.574275,-1762.019645
604.098910,370.102971,-9400.615463,-1685.410096
604.099237,222.061783,-9474.636058,-1608.800546
604.099565,518.144159,-9400.615463,-1762.019645
604.099893,444.123565,-8734.430116,-1608.800546
604.100220,370.102971,-9104.533087,-1838.629195
604.100548,0.000000,-9400.615463,-1991.848295
604.100876,148.041188,-9252.574275,-2221.676944
604.101204,148.041188,-9030.512492,-1915.238745
604.101531,0.000000,-8956.491898,-1149.143247
604.101859,518.144159,-9326.594869,-1915.238745
604.102187,-370.102971,-9104.533087,-1608.800546
604.102514,-518.144159,-9252.574275,-1915.238745
604.102842,-740.205942,-8956.491898,-2145.067394
604.103170,-666.185348,-9474.636058,-2068.457845
604.103497,-1036.288319,-9400.615463,-2451.505594
604.103825,-1480.411884,-9326.594869,-2604.724693
604.104153,-1554.432478,-9252.574275,-2757.943793
604.104481,-2072.576638,-9178.553681,-2834.553343
604.104808,-2072.576638,-8956.491898,-3370.820191
604.105136,-1924.535449,-8660.409521,-3677.258390
604.105464,-2072.576638,-8882.471304,-3753.867940
604.105791,-1998.556043,-8956.491898,-4060.306139
604.106119,-1850.514855,-8956.491898,-4060.306139
604.106447,-1406.391290,-8882.471304,-4060.306139
604.106774,-592.164754,-8808.450710,-3753.867940
604.107102,-370.102971,-8660.409521,-3753.867940
604.107430,148.041188,-9104.533087,-3447.429741
604.107758,962.267725,-9030.512492,-3140.991542
604.108085,1480.411884,-9104.533087,-2681.334243
604.108413,1850.514855,-9178.553681,-2374.896044
604.108741,2146.597232,-9178.553681,-2298.286494
604.109068,1850.514855,-9548.656652,-2145.067394
604.109396,1184.329507,-10066.800811,-2068.457845
604.109724,148.041188,-10288.862594,-2451.505594
604.110051,-370.102971,-9918.759623,-3447.429741
604.110379,-1628.453072,-9992.780217,-4213.525239
604.110707,-1480.411884,-10214.842000,-4290.134789
604.111035,-1702.473667,-9474.636058,-4519.963438
604.111362,-1258.350101,-8882.471304,-4749.792088
604.111690,148.041188,-8068.244768,-4366.744339
604.112018,1924.535449,-7105.977043,-3524.039291
604.112345,2590.720797,-7179.997637,-2681.334243
604.112673,2886.803174,-7772.162391,-2374.896044
604.113001,1702.473667,-8586.388927,-1915.238745
604.113328,-370.102971,-9474.636058,-1991.848295
604.113656,-2072.576638,-9992.780217,-2374.896044
604.113984,-3404.947333,-10584.944971,-2374.896044
604.114312,-2960.823768,-10807.006753,-2528.115143
604.114639,-2294.638420,-10066.800811,-2221.676944
604.114967,-592.164754,-8882.471304,-1762.019645
604.115295,1924.535449,-8068.244768,-1302.362347
604.115622,5847.626942,-6735.874072,689.485948
604.115950,9400.615463,-5181.441594,2528.115143
604.116278,11029.068536,-5625.565159,4366.744339
604.116605,8586.388927,-8142.265362,5056.230287
604.116933,2442.679609,-11547.212695,4903.011187
604.117261,-4737.318029,-13915.871710,2298.286494
604.117589,-9548.656652,-14952.160028,842.705048
604.117916,-12139.377449,-14508.036463,-1378.971896
604.118244,-11621.233289,-12953.603985,-2221.676944
604.118572,-9252.574275,-11177.109724,-2834.553343
604.118899,-3330.926739,-7105.977043,-1608.800546
604.119227,-2812.782580,-5255.462188,-1685.410096
604.119555,-962.267725,-3849.070898,-3294.210641
604.119882,-4219.173869,-5477.523971,-5515.887586
604.120210,-8882.471304,-6883.915261,-7507.735880
604.120538,-12879.583391,-8216.285956,-8810.098227
604.120866,-15174.221811,-8660.409521,-10955.165621
604.121193,-11843.295072,-8512.368333,-10112.460574
604.121521,-7772.162391,-8290.306550,-8886.707777
604.121849,-814.226536,-6661.853478,-7277.907231
604.122176,3849.070898,-7624.121203,-5286.058936
604.122504,5773.606348,-8438.347739,-5132.839837
604.122832,4293.194464,-8956.491898,-6358.592633
604.123159,4145.153275,-10955.047942,-6665.030833
604.123487,5107.421000,-10362.883188,-7124.688131
604.123815,8364.327145,-10066.800811,-6511.811733
604.124143,13249.686362,-9918.759623,-3447.429741
604.124470,13323.706956,-9992.780217,-2681.334243
604.124798,13693.809927,-10288.862594,-1225.752797
604.125126,13915.871710,-10066.800811,-1225.752797
604.125453,14211.954086,-9474.636058,-1608.800546
604.125781,14952.160028,-9696.697840,-766.095498
604.126109,11769.274478,-11103.089130,-1608.800546
604.126436,5847.626942,-13841.851115,-2604.724693
604.126764,-3849.070898,-14211.954086,-4826.401637
604.127092,-11399.171507,-14878.139434,-7431.126331
604.127420,-10140.821405,-10732.986159,-8350.440928
604.127747,-4293.194464,-4515.256246,-7507.735880
604.128075,1628.453072,-2590.720797,-4136.915689
604.128403,5551.544565,-1554.432478,-1762.019645
604.128730,2516.700203,-1924.535449,-842.705048
604.129058,-814.226536,-3478.967927,-536.266849
604.129386,-4589.276840,-4515.256246,-766.095498
604.129713,-7846.182985,-6439.791695,-1225.752797
604.130041,-7105.977043,-8438.347739,-1302.362347
604.130369,-7254.018232,-10881.027347,1455.581446
604.130697,-6883.915261,-9992.780217,3217.601092
604.131024,-4959.379811,-8882.471304,6052.154434
604.131352,-2146.597232,-7772.162391,5975.544884
604.131680,-1480.411884,-7994.224174,3907.087040
604.132007,-3182.885551,-10807.006753,2145.067394
604.132335,-5847.626942,-11399.171507,-766.095498
604.132663,-7550.100608,-10214.842000,-1532.190996
604.132990,-4589.276840,-9474.636058,0.000000
604.133318,-2146.597232,-8512.368333,536.266849
604.133646,-1258.350101,-8808.450710,919.314598
604.133974,-592.164754,-9474.636058,612.876398
604.134301,-3701.029710,-9326.594869,842.705048
604.134629,-4811.338623,-8882.471304,459.657299
604.134957,-4145.153275,-9548.656652,0.000000
604.135284,-3775.050304,-10807.006753,-919.314598
604.135612,-3034.844362,-12065.356855,-2757.943793
604.135940,-3330.926739,-11399.171507,-1149.143247
604.136267,-666.185348,-7994.224174,-1532.190996
604.136595,-444.123565,-7476.080014,-1608.800546
604.136923,1184.329507,-6365.771101,-2374.896044
604.137251,1332.370696,-7328.038826,-4060.306139
604.137578,3775.050304,-8290.306550,-4443.353888
604.137906,5033.400406,-7476.080014,-4290.134789
604.138234,5921.647536,-8512.368333,-3677.258390
604.138561,5329.482782,-10807.006753,-3370.820191
604.138889,4811.338623,-13693.809927,-2987.772442
604.139217,3478.967927,-13915.871710,-3907.087040
604.139545,4219.173869,-13619.789333,-3753.867940
604.139872,2368.659014,-12731.542202,-4060.306139
604.140200,814.226536,-11621.233289,-4749.792088
604.140528,2294.638420,-11695.253884,-3447.429741
604.140856,2664.741391,-10214.842000,-3294.210641
604.141183,2368.659014,-8734.430116,-3983.696590
604.141511,1702.473667,-8734.430116,-4060.306139
604.141839,-666.185348,-8216.285956,-5056.230287
604.142167,-1776.494261,-8068.244768,-5362.668486
604.142494,-2368.659014,-7402.059420,-6205.373534
604.142822,-2220.617826,-6735.874072,-5975.544884
604.143150,-1184.329507,-5847.626942,-5362.668486
604.143478,814.226536,-4959.379811,-3294.210641
604.143805,1036.288319,-5255.462188,-2374.896044
604.144133,296.082377,-7105.977043,-1608.800546
604.144461,-370.102971,-8438.347739,-1378.971896
604.144789,-1480.411884,-9474.636058,-1915.238745
604.145116,-2886.803174,-10288.862594,-2298.286494
604.145444,-4515.256246,-10066.800811,-2298.286494
604.145772,-3923.091493,-9326.594869,-2298.286494
604.146100,-1628.453072,-7772.162391,-1838.629195
604.146427,518.144159,-7476.080014,-1378.971896
604.146755,-962.267725,-8586.388927,-1685.410096
604.147083,-2368.659014,-8956.491898,-2911.162892
604.147411,-3108.864956,-8660.409521,-3753.867940
604.147738,-3404.947333,-9104.533087,-4519.963438
604.148066,-2812.782580,-9030.512492,-4673.182538
604.148394,296.082377,-7624.121203,-3140.991542
604.148722,3256.906145,-6143.709319,-2298.286494
604.149049,4145.153275,-5921.647536,-766.095498
604.149377,3404.947333,-7476.080014,229.828649
604.149705,1554.432478,-7328.038826,0.000000
604.150033,370.102971,-8956.491898,-995.924147
604.150360,0.000000,-10140.821405,-306.438199
604.150688,-2146.597232,-9992.780217,-919.314598
604.151016,-148.041188,-9252.574275,-459.657299
604.151344,1850.514855,-9104.533087,76.609550
604.151671,2146.597232,-8882.471304,306.438199
604.151999,1258.350101,-8586.388927,-842.705048
604.152327,740.205942,-7846.182985,-2068.457845
604.152655,-222.061783,-8882.471304,-2604.724693
604.152982,0.000000,-9622.677246,-2145.067394
604.153310,370.102971,-8956.491898,-1915.238745
604.153638,814.226536,-10658.965565,-536.266849
604.153966,666.185348,-11399.171507,-306.438199
604.154293,-1036.288319,-12065.356855,0.000000
604.154621,-3997.112087,-11547.212695,-1302.362347
604.154949,-3923.091493,-10732.986159,-1532.190996
604.155277,-4293.194464,-10732.986159,-1378.971896
604.155604,-4071.132681,-9696.697840,-1762.019645
604.155932,-4219.173869,-9252.574275,-1915.238745
604.156260,-3701.029710,-8512.368333,-1991.848295
604.156588,-3330.926739,-8142.265362,-2451.505594
604.156915,-2442.679609,-7105.977043,-2374.896044
604.157243,0.000000,-7105.977043,-1991.848295
604.157571,2072.576638,-7179.997637,-1302.362347
604.157899,3182.885551,-7105.977043,-306.438199
604.158226,2812.782580,-8808.450710,383.047749
604.158554,2368.659014,-9770.718434,995.924147
604.158882,1554.432478,-10436.903782,229.828649
604.159210,296.082377,-11991.336260,383.047749
604.159537,148.041188,-12065.356855,76.609550
604.159865,592.164754,-12509.480420,153.219100
604.160193,962.267725,-12287.418637,459.657299
604.160521,444.123565,-11029.068536,-306.438199
604.160848,1258.350101,-9992.780217,-842.705048
604.161176,1036.288319,-9474.636058,-766.095498
604.161504,1998.556043,-8142.265362,-1378.971896
604.161832,2072.576638,-7846.182985,-229.828649
604.162159,962.267725,-7550.100608,-766.095498
604.162487,222.061783,-8882.471304,-689.485948
604.162815,-1480.411884,-9104.533087,-842.705048
604.163143,-2960.823768,-9104.533087,-1149.143247
604.163470,-2664.741391,-8512.368333,-766.095498
604.163798,-2368.659014,-8364.327145,-766.095498
604.164126,-2294.638420,-8216.285956,-536.266849
604.164453,-2368.659014,-8290.306550,-612.876398
604.164781,-2960.823768,-8882.471304,-459.657299
604.165109,-2960.823768,-7550.100608,-995.924147
604.165437,-1702.473667,-6661.853478,-1455.581446
604.165764,222.061783,-6513.812290,-306.438199
604.166092,2146.597232,-6217.729913,612.876398
604.166420,3775.050304,-6439.791695,1225.752797
604.166748,4145.153275,-7402.059420,2298.286494
604.167075,2442.679609,-8882.471304,2145.067394
604.167403,888.247130,-9474.636058,2604.724693
604.167731,814.226536,-11325.150913,2681.334243
604.168059,0.000000,-11251.130318,2604.724693
604.168386,-888.247130,-11325.150913,2681.334243
604.168714,-518.144159,-10807.006753,3217.601092
604.169042,-1776.494261,-9696.697840,2451.505594
604.169370,-1332.370696,-8586.388927,1762.019645
604.169697,-592.164754,-8142.265362,1532.190996
604.170025,-518.144159,-7846.182985,1225.752797
604.170353,-222.061783,-6587.832884,766.095498
604.170681,-1554.432478,-5551.544565,536.266849
604.171008,-2294.638420,-6809.894666,-383.047749
604.171336,-3552.988522,-7402.059420,-689.485948
604.171664,-3108.864956,-7920.203579,-766.095498
604.171992,-1998.556043,-7920.203579,-612.876398
604.172319,-2220.617826,-8660.409521,-306.438199
604.172647,-1702.473667,-9474.636058,-229.828649
604.172975,-2146.597232,-10510.924376,-612.876398
604.173303,-2442.679609,-11325.150913,-383.047749
604.173630,-1036.288319,-10436.903782,-459.657299
604.173958,2220.617826,-10288.862594,536.266849
604.174286,3923.091493,-9844.739029,995.924147
604.174614,3997.112087,-10214.842000,1225.752797
604.174941,3330.926739,-11473.192101,1532.190996
604.175269,1332.370696,-11695.253884,919.314598
604.175597,888.247130,-11547.212695,76.609550
604.175925,888.247130,-11843.295072,153.219100
604.176252,1258.350101,-12065.356855,0.000000
604.176580,1406.391290,-11843.295072,306.438199
604.176908,1628.453072,-11177.109724,459.657299
604.177236,1332.370696,-10732.986159,919.314598
604.177563,888.247130,-9844.739029,995.924147
604.177891,740.205942,-9548.656652,1072.533697
604.178219,888.247130,-9104.533087,383.047749
604.178547,-370.102971,-8956.491898,383.047749
604.178874,-1480.411884,-9474.636058,536.266849
604.179202,-2664.741391,-10066.800811,689.485948
604.179530,-4515.256246,-9992.780217,0.000000
604.179858,-3627.009116,-9326.594869,0.000000
604.180185,-3108.864956,-8882.471304,-383.047749
604.180513,-1702.473667,-7920.203579,0.000000
604.180841,-962.267725,-7920.203579,306.438199
604.181169,-1036.288319,-8586.388927,153.219100
604.181496,-1258.350101,-8734.430116,229.828649
604.181824,148.041188,-7476.080014,1072.533697
604.182152,1924.535449,-6883.915261,1608.800546
604.182480,1924.535449,-8290.306550,2374.896044
604.182807,592.164754,-9252.574275,2604.724693
604.183135,-1184.329507,-10288.862594,2374.896044
604.183463,-2886.803174,-8956.491898,1455.581446
604.183791,-1924.535449,-8808.450710,1302.362347
604.184118,-1184.329507,-8882.471304,1149.143247
604.184446,-1332.370696,-7994.224174,842.705048
604.184774,-444.123565,-7698.141797,689.485948
604.185102,148.041188,-6587.832884,1072.533697
604.185429,222.061783,-6217.729913,1072.533697
604.185757,666.185348,-7179.997637,1149.143247
604.186085,1480.411884,-7179.997637,1302.362347
604.186413,1110.308913,-6587.832884,1302.362347
604.186740,370.102971,-7254.018232,1608.800546
604.187068,-296.082377,-8142.265362,1302.362347
604.187396,-2220.617826,-9770.718434,995.924147
604.187724,-3108.864956,-10066.800811,306.438199
604.188051,-2146.597232,-8290.306550,0.000000
604.188379,-888.247130,-8734.430116,-383.047749
604.188707,-296.082377,-8586.388927,0.000000
604.189035,518.144159,-8364.327145,76.609550
604.189362,296.082377,-8142.265362,0.000000
604.189690,1554.432478,-7179.997637,383.047749
604.190018,2368.659014,-7105.977043,153.219100
604.190346,3108.864956,-8364.327145,612.876398
604.190673,1850.514855,-9030.512492,766.095498
604.191001,814.226536,-10510.924376,1302.362347
604.191329,-1776.494261,-11769.274478,1378.971896
604.191657,-2442.679609,-12435.459826,612.876398
604.191984,-3330.926739,-12139.377449,0.000000
604.192312,-2368.659014,-11251.130318,-459.657299
604.192640,-1480.411884,-10881.027347,-995.924147
604.192968,-888.247130,-8734.430116,-766.095498
604.193295,1036.288319,-7920.203579,-919.314598
604.193623,2220.617826,-7698.141797,0.000000
604.193951,2516.700203,-7476.080014,0.000000
604.194278,2886.803174,-7920.203579,306.438199
604.194606,2146.597232,-8512.368333,1302.362347
604.194934,1554.432478,-9252.574275,1608.800546
604.195262,-740.205942,-10584.944971,1608.800546
604.195589,-2738.761985,-12583.501014,1685.410096
604.195917,-4071.132681,-13397.727550,1072.533697
604.196245,-3849.070898,-12583.501014,766.095498
604.196573,-3108.864956,-10881.027347,383.047749
604.196900,-1702.473667,-9992.780217,153.219100
604.197228,-1258.350101,-8734.430116,-229.828649
604.197556,-444.123565,-7920.203579,0.000000
604.197884,592.164754,-6883.915261,-536.266849
604.198211,1776.494261,-4737.318029,-153.219100
604.198539,2442.679609,-5403.503377,153.219100
604.198867,1406.391290,-6809.894666,612.876398
604.199195,0.000000,-7994.224174,1072.533697
604.199522,-1924.535449,-9770.718434,1455.581446
604.199850,-3330.926739,-10584.944971,1455.581446
604.200178,-3997.112087,-10807.006753,1072.533697
604.200506,-3404.947333,-11251.130318,612.876398
604.200833,-2812.782580,-11251.130318,612.876398
604.201161,-1554.432478,-9326.594869,306.438199
604.201489,-888.247130,-7846.182985,0.000000
604.201817,740.205942,-7254.018232,0.000000
604.202144,2072.576638,-6217.729913,0.000000
604.202472,3849.070898,-6809.894666,766.095498
604.202800,4145.153275,-6735.874072,1072.533697
604.203128,3997.112087,-7254.018232,1838.629195
604.203455,2960.823768,-8956.491898,2374.896044
604.203783,-296.082377,-10658.965565,1608.800546
604.204111,-1702.473667,-12065.356855,1685.410096
604.204439,-1554.432478,-12435.459826,1608.800546
604.204766,-2220.617826,-12361.439231,1532.190996
604.205094,-1184.329507,-11547.212695,229.828649
604.205422,-1480.411884,-10955.047942,995.924147
604.205750,-444.123565,-9918.759623,459.657299
604.206077,444.123565,-8660.409521,306.438199
604.206405,2738.761985,-6587.832884,229.828649
604.206733,3404.947333,-6069.688724,1149.143247
604.207061,4071.132681,-6587.832884,1302.362347
604.207388,2294.638420,-7476.080014,1149.143247
604.207716,-888.247130,-8808.450710,995.924147
604.208044,-2664.741391,-9992.780217,766.095498
604.208372,-3923.091493,-9918.759623,383.047749
604.208699,-3404.947333,-10510.924376,1072.533697
604.209027,-4515.256246,-11029.068536,0.000000
604.209355,-3997.112087,-10362.883188,0.000000
604.209683,-3701.029710,-9918.759623,-689.485948
604.210010,-2886.803174,-8142.265362,-1072.533697
604.210338,-370.102971,-7105.977043,-1072.533697
604.210666,1924.535449,-6217.729913,-306.438199
604.210994,2368.659014,-6735.874072,-153.219100
604.211321,2294.638420,-7550.100608,766.095498
604.211649,1258.350101,-9104.533087,1149.143247
604.211977,-888.247130,-9918.759623,1149.143247
604.212305,-1998.556043,-10510.924376,0.000000
604.212632,-1850.514855,-11251.130318,0.000000
604.212960,-1998.556043,-11621.233289,0.000000
604.213288,-1998.556043,-11177.109724,0.000000
604.213616,-1036.288319,-10066.800811,536.266849
604.213943,0.000000,-9178.553681,536.266849
604.214271,1332.370696,-7624.121203,153.219100
604.214599,4145.153275,-6365.771101,383.047749
604.214927,5033.400406,-6365.771101,919.314598
604.215254,4663.297435,-6513.812290,1608.800546
604.215582,4145.153275,-7402.059420,2068.457845
604.215910,1998.556043,-8882.471304,1991.848295
604.216238,-296.082377,-10584.944971,1915.238745
604.216565,-1406.391290,-11843.295072,1302.362347
604.216893,-2442.679609,-11695.253884,842.705048
604.217221,-3034.844362,-11029.068536,689.485948
604.217549,-2960.823768,-9770.718434,0.000000
604.217876,-2886.803174,-9622.677246,-306.438199
604.218204,-1924.535449,-8734.430116,-383.047749
604.218532,-666.185348,-6883.915261,-459.657299
604.218860,1998.556043,-6217.729913,0.000000
604.219187,1702.473667,-5921.647536,689.485948
604.219515,740.205942,-6809.894666,1149.143247
604.219843,0.000000,-8734.430116,1455.581446
604.220171,-2294.638420,-9252.574275,919.314598
604.220498,-2368.659014,-9992.780217,766.095498
604.220826,-3404.947333,-10584.944971,612.876398
604.221154,-3627.009116,-11547.212695,383.047749
604.221482,-3627.009116,-11177.109724,383.047749
604.221809,-2738.761985,-10066.800811,153.219100
604.222137,-1480.411884,-9548.656652,0.000000
604.222465,-888.247130,-8290.306550,0.000000
604.222793,2368.659014,-7179.997637,153.219100
604.223120,3552.988522,-6587.832884,383.047749
604.223448,5255.462188,-6883.915261,1608.800546
604.223776,4589.276840,-7624.121203,1608.800546
604.224103,2812.782580,-9178.553681,2145.067394
604.224431,666.185348,-10732.986159,1455.581446
604.224759,-666.185348,-11325.150913,1302.362347
604.225087,-1480.411884,-12361.439231,1302.362347
604.225414,-2072.576638,-12953.603985,919.314598
604.225742,-1998.556043,-11473.192101,995.924147
604.226070,-1480.411884,-10510.924376,229.828649
604.226398,-666.185348,-9548.656652,306.438199
604.226725,222.061783,-7402.059420,-229.828649
604.227053,2368.659014,-6809.894666,153.219100
604.227381,2812.782580,-5921.647536,612.876398
604.227709,1850.514855,-6587.832884,1455.581446
604.228036,0.000000,-7476.080014,1072.533697
604.228364,-2368.659014,-8586.388927,766.095498
604.228692,-3849.070898,-9548.656652,153.219100
604.229020,-4737.318029,-10362.883188,-229.828649
604.229347,-4589.276840,-10584.944971,0.000000
604.229675,-4811.338623,-11473.192101,-383.047749
604.230003,-4145.153275,-10955.047942,-842.705048
604.230331,-3849.070898,-10214.842000,-995.924147
604.230658,-2294.638420,-8808.450710,-1302.362347
604.230986,1554.432478,-7031.956449,-842.705048
604.231314,2738.761985,-6587.832884,-995.924147
604.231642,3552.988522,-6661.853478,76.609550
604.231969,3552.988522,-7772.162391,766.095498
604.232297,2220.617826,-8512.368333,842.705048
604.232625,1406.391290,-8956.491898,995.924147
604.232953,1184.329507,-10214.842000,383.047749
604.233280,666.185348,-11547.212695,536.266849
604.233608,-148.041188,-11621.233289,842.705048
604.233936,444.123565,-11473.192101,995.924147
604.234264,-592.164754,-11251.130318,536.266849
604.234591,74.020594,-9844.739029,0.000000
604.234919,1702.473667,-7994.224174,612.876398
604.235247,3552.988522,-6513.812290,153.219100
604.235575,4219.173869,-6217.729913,766.095498
604.235902,3478.967927,-6587.832884,1302.362347
604.236230,2516.700203,-7402.059420,1455.581446
604.236558,-222.061783,-8956.491898,1455.581446
604.236886,-1110.308913,-9918.759623,1532.190996
604.237213,-2146.597232,-10510.924376,1455.581446
604.237541,-3701.029710,-11695.253884,1455.581446
604.237869,-3997.112087,-11251.130318,1149.143247
604.238197,-4737.318029,-11843.295072,1225.752797
604.238524,-4589.276840,-10436.903782,459.657299
604.238852,-3627.009116,-8068.244768,-229.828649
604.239180,-1332.370696,-6957.935855,-306.438199
604.239508,0.000000,-5107.421000,76.609550
604.239835,1110.308913,-5477.523971,0.000000
604.240163,814.226536,-5995.668130,689.485948
604.240490,-148.041188,-7105.977043,995.924147
604.240818,-1258.350101,-8586.388927,919.314598
604.241146,-1332.370696,-9696.697840,842.705048
604.241473,-1850.514855,-10584.944971,919.314598
604.241801,-2368.659014,-11177.109724,1149.143247
604.242129,-2738.761985,-11103.089130,842.705048
604.242456,-2590.720797,-11695.253884,689.485948
604.242784,-2146.597232,-10436.903782,689.485948
604.243112,740.205942,-7846.182985,536.266849
604.243439,3627.009116,-7031.956449,612.876398
604.243767,4811.338623,-6809.894666,689.485948
604.244095,4737.318029,-7105.977043,1532.190996
604.244422,3849.070898,-8364.327145,1685.410096
604.244750,2220.617826,-8734.430116,1455.581446
604.245077,1480.411884,-10066.800811,1225.752797
604.245405,444.123565,-11103.089130,1072.533697
604.245733,-370.102971,-11843.295072,1072.533697
604.246060,-1702.473667,-12065.356855,842.705048
604.246388,-1924.535449,-11621.233289,919.314598
604.246716,-2664.741391,-10807.006753,229.828649
604.247043,-2590.720797,-9548.656652,-612.876398
604.247371,-518.144159,-8290.306550,-459.657299
604.247699,370.102971,-7550.100608,-766.095498
604.248026,592.164754,-6957.935855,306.438199
604.248354,740.205942,-7179.997637,0.000000
604.248682,-222.061783,-7254.018232,0.000000
604.249009,-1480.411884,-8512.368333,-229.828649
604.249337,-1998.556043,-9696.697840,0.000000
604.249664,-2146.597232,-10140.821405,76.609550
604.249992,-3182.885551,-10362.883188,76.609550
604.250320,-2516.700203,-10881.027347,229.828649
604.250647,-3108.864956,-11399.171507,0.000000
604.250975,-2294.638420,-10584.944971,-536.266849
604.251303,-222.061783,-8586.388927,-842.705048
604.251630,2738.761985,-7698.141797,76.609550
604.251958,2812.782580,-7179.997637,229.828649
604.252286,2738.761985,-7994.224174,612.876398
604.252613,2146.597232,-8956.491898,459.657299
604.252941,592.164754,-8882.471304,153.219100
604.253269,1480.411884,-8882.471304,1149.143247
604.253596,518.144159,-8956.491898,0.000000
604.253924,0.000000,-10066.800811,766.095498
604.254252,-148.041188,-10732.986159,842.705048
604.254579,-518.144159,-10807.006753,1532.190996
604.254907,-666.185348,-9696.697840,1302.362347
604.255234,222.061783,-8808.450710,919.314598
604.255562,1628.453072,-8660.409521,1302.362347
604.255890,962.267725,-8512.368333,1225.752797
604.256217,1702.473667,-7772.162391,1608.800546
604.256545,1258.350101,-7254.018232,1915.238745
604.256873,740.205942,-7698.141797,1532.190996
604.257200,-740.205942,-8438.347739,1302.362347
604.257528,-1036.288319,-8734.430116,766.095498
604.257856,-1332.370696,-9030.512492,995.924147
604.258183,-2072.576638,-8364.327145,689.485948
604.258511,-2294.638420,-8882.471304,536.266849
604.258839,-3330.926739,-10436.903782,995.924147
604.259166,-3330.926739,-9252.574275,459.657299
604.259494,-2664.741391,-8216.285956,0.000000
604.259821,-888.247130,-7846.182985,536.266849
604.260149,-1258.350101,-6957.935855,689.485948
604.260477,-518.144159,-6883.915261,1455.581446
604.260804,-1258.350101,-7772.162391,536.266849
604.261132,-1554.432478,-7698.141797,612.876398
604.261460,-740.205942,-7698.141797,383.047749
604.261787,-370.102971,-8364.327145,536.266849
604.262115,370.102971,-8438.347739,459.657299
604.262443,-222.061783,-9400.615463,689.485948
604.262770,-518.144159,-10214.842000,536.266849
604.263098,-888.247130,-10288.862594,536.266849
604.263426,444.123565,-9918.759623,229.828649
604.263753,1702.473667,-10066.800811,459.657299
604.264081,1554.432478,-10362.883188,536.266849
604.264409,1110.308913,-11251.130318,612.876398
604.264736,370.102971,-10807.006753,153.219100
604.265064,0.000000,-10955.047942,76.609550
604.265391,296.082377,-10584.944971,-536.266849
604.265719,444.123565,-10807.006753,-306.438199
604.266047,518.144159,-11695.253884,-229.828649
604.266374,1036.288319,-10881.027347,-76.609550
604.266702,1110.308913,-9696.697840,0.000000
604.267030,1332.370696,-9474.636058,612.876398
604.267357,592.164754,-9548.656652,-229.828649
604.267685,1332.370696,-9474.636058,0.000000
604.268013,1776.494261,-8438.347739,306.438199
604.268340,1258.350101,-8512.368333,766.095498
604.268668,148.041188,-9400.615463,995.924147
604.268996,-740.205942,-10510.924376,1455.581446
604.269323,-2368.659014,-10288.862594,689.485948
604.269651,-1480.411884,-9696.697840,689.485948
604.269978,-1332.370696,-9992.780217,536.266849
604.270306,-1554.432478,-10584.944971,536.266849
604.270634,-1184.329507,-10214.842000,1225.752797
604.270961,-1628.453072,-9326.594869,766.095498
604.271289,-1480.411884,-9104.533087,0.000000
604.271617,-666.185348,-8364.327145,-229.828649
604.271944,-370.102971,-8216.285956,0.000000
604.272272,0.000000,-8586.388927,536.266849
604.272600,-1110.308913,-7994.224174,919.314598
604.272927,-1184.329507,-9178.553681,1072.533697
604.273255,-1924.535449,-9178.553681,919.314598
604.273583,-2220.617826,-9252.574275,766.095498
604.273910,-1110.308913,-8734.430116,1455.581446
604.274238,-592.164754,-7550.100608,1455.581446
604.274565,0.000000,-7328.038826,1149.143247
604.274893,444.123565,-7550.100608,1685.410096
604.275221,0.000000,-7476.080014,1225.752797
604.275548,0.000000,-7031.956449,919.314598
604.275876,1998.556043,-6217.729913,1302.362347
604.276204,2516.700203,-5995.668130,1838.629195
604.276531,1776.494261,-7031.956449,1838.629195
604.276859,1332.370696,-8364.327145,1991.848295
604.277187,-444.123565,-9030.512492,1302.362347
604.277514,-1184.329507,-7994.224174,919.314598
604.277842,-370.102971,-8586.388927,689.485948
604.278170,-592.164754,-8808.450710,383.047749
604.278497,-888.247130,-8660.409521,306.438199
604.278825,-740.205942,-8142.265362,76.609550
604.279153,-370.102971,-7920.203579,306.438199
604.279480,-444.123565,-7772.162391,0.000000
604.279808,0.000000,-7105.977043,153.219100
604.280135,740.205942,-7772.162391,383.047749
604.280463,222.061783,-8290.306550,459.657299
604.280791,-740.205942,-8586.388927,995.924147
604.281118,-1776.494261,-9918.759623,919.314598
604.281446,-2738.761985,-9992.780217,153.219100
604.281774,-2812.782580,-9992.780217,-153.219100
604.282101,-2886.803174,-10066.800811,-1072.533697
604.282429,-2146.597232,-10066.800811,-1302.362347
604.282757,-1258.350101,-8660.409521,-1072.533697
604.283084,-148.041188,-8956.491898,-1072.533697
604.283412,0.000000,-8808.450710,-1149.143247
604.283740,814.226536,-8734.430116,-1302.362347
604.284067,1998.556043,-9104.533087,-995.924147
604.284395,3404.947333,-9474.636058,0.000000
604.284722,2368.659014,-10066.800811,536.266849
604.285050,1998.556043,-11843.295072,1225.752797
604.285378,0.000000,-12805.562797,1149.143247
604.285705,-814.226536,-13397.727550,689.485948
604.286033,-962.267725,-12435.459826,229.828649
604.286361,222.061783,-11621.233289,612.876398
604.286688,1110.308913,-11177.109724,689.485948
604.287016,2072.576638,-10436.903782,919.314598
604.287344,2664.741391,-9548.656652,1072.533697
604.287671,2146.597232,-9030.512492,1302.362347
604.287999,3256.906145,-8290.306550,1838.629195
604.288327,2590.720797,-9104.533087,1685.410096
604.288654,1924.535449,-9474.636058,2451.505594
604.288982,444.123565,-9844.739029,2221.676944
604.289310,-2220.617826,-11399.171507,2221.676944
604.289637,-4219.173869,-11621.233289,1455.581446
604.289965,-5255.462188,-11473.192101,1302.362347
604.290292,-4737.318029,-11251.130318,612.876398
604.290620,-4737.318029,-9844.739029,229.828649
604.290948,-3552.988522,-9548.656652,459.657299
604.291275,-2812.782580,-8882.471304,-459.657299
604.291603,-2590.720797,-6883.915261,76.609550
604.291931,-1480.411884,-5921.647536,0.000000
604.292258,148.041188,-5181.441594,153.219100
604.292586,-222.061783,-6587.832884,766.095498
604.292914,-740.205942,-7476.080014,1455.581446
604.293241,-962.267725,-7624.121203,1991.848295
604.293569,-2368.659014,-8586.388927,1608.800546
604.293897,-3108.864956,-9474.636058,842.705048
604.294224,-2368.659014,-9252.574275,536.266849
604.294552,-962.267725,-8660.409521,0.000000
604.294879,74.020594,-7698.141797,229.828649
604.295207,1480.411884,-6883.915261,306.438199
604.295535,2516.700203,-6883.915261,229.828649
604.295862,2812.782580,-6735.874072,459.657299
604.296190,4589.276840,-6439.791695,1072.533697
604.296518,5551.544565,-7254.018232,1072.533697
604.296845,4737.318029,-7624.121203,2068.457845
604.297173,2812.782580,-8734.430116,1838.629195
604.297501,296.082377,-10510.924376,1915.238745
604.297828,-1850.514855,-10807.006753,459.657299
604.298156,-1998.556043,-10955.047942,459.657299
604.298484,-1924.535449,-11251.130318,153.219100
604.298811,-2220.617826,-9844.739029,-612.876398
604.299139,-1480.411884,-9474.636058,0.000000
604.299466,-888.247130,-8142.265362,-766.095498
604.299794,-370.102971,-7476.080014,-229.828649
604.300122,0.000000,-6513.812290,-919.314598
604.300449,1406.391290,-6439.791695,-689.485948
604.300777,962.267725,-6957.935855,-383.047749
604.301105,296.082377,-7105.977043,229.828649
604.301432,-962.267725,-8660.409521,0.000000
604.301760,-2442.679609,-9844.739029,76.609550
604.302088,-3997.112087,-10584.944971,-689.485948
604.302415,-3627.009116,-10955.047942,-536.266849
604.302743,-2368.659014,-10881.027347,-536.266849
604.303071,-1110.308913,-10658.965565,-306.438199
604.303398,296.082377,-10584.944971,0.000000
604.303726,1406.391290,-9622.677246,0.000000
604.304054,2368.659014,-8216.285956,-153.219100
604.304381,3997.112087,-7624.121203,153.219100
604.304709,4441.235652,-8808.450710,1072.533697
604.305036,3330.926739,-9992.780217,995.924147
604.305364,2368.659014,-10436.903782,2451.505594
604.305692,74.020594,-11843.295072,2068.457845
604.306019,-1702.473667,-12805.562797,2145.067394
604.306347,-2738.761985,-12731.542202,1149.143247
604.306675,-2812.782580,-12435.459826,1225.752797
604.307002,-2664.741391,-11325.150913,842.705048
604.307330,-2368.659014,-10436.903782,842.705048
604.307658,-2220.617826,-8734.430116,383.047749
604.307985,-444.123565,-7254.018232,229.828649
604.308313,370.102971,-6291.750507,0.000000
604.308641,2072.576638,-5699.585753,306.438199
604.308968,1998.556043,-6735.874072,1608.800546
604.309296,888.247130,-7402.059420,2374.896044
604.309623,-1184.329507,-9178.553681,2451.505594
604.309951,-2886.803174,-10881.027347,2528.115143
604.310279,-4811.338623,-11547.212695,1378.971896
604.310606,-3849.070898,-11695.253884,1685.410096
604.310934,-3997.112087,-11325.150913,1072.533697
604.311262,-3552.988522,-10584.944971,459.657299
604.311589,-2368.659014,-9474.636058,306.438199
604.311917,-1406.391290,-7920.203579,-306.438199
604.312245,962.267725,-6661.853478,-229.828649
604.312572,3108.864956,-5699.585753,-306.438199
604.312900,4515.256246,-6439.791695,536.266849
604.313228,3775.050304,-7031.956449,995.924147
604.313555,3034.844362,-7994.224174,1685.410096
604.313883,962.267725,-9548.656652,2145.067394
604.314211,-1110.308913,-11621.233289,1378.971896
604.314538,-1924.535449,-11843.295072,842.705048
604.314866,-2590.720797,-11769.274478,229.828649
604.315193,-2664.741391,-11547.212695,536.266849
604.315521,-1110.308913,-9918.759623,306.438199
604.315849,-518.144159,-9844.739029,0.000000
604.316176,-370.102971,-6957.935855,-689.485948
604.316504,2220.617826,-5625.565159,-459.657299
604.316832,3701.029710,-4737.318029,0.000000
604.317159,3627.009116,-4515.256246,306.438199
604.317487,3701.029710,-5995.668130,612.876398
604.317815,2072.576638,-7846.182985,995.924147
604.318142,-592.164754,-9178.553681,459.657299
604.318470,-2368.659014,-10732.986159,459.657299
604.318798,-3775.050304,-11769.274478,-383.047749
604.319125,-4515.256246,-12509.480420,-229.828649
604.319453,-4293.194464,-11177.109724,-459.657299
604.319780,-2738.761985,-10066.800811,-459.657299
604.320108,-1332.370696,-8956.491898,-766.095498
604.320436,518.144159,-7031.956449,-995.924147
604.320763,2738.761985,-6291.750507,0.000000
604.321091,3849.070898,-6143.709319,306.438199
604.321419,3108.864956,-5255.462188,459.657299
604.321746,3034.844362,-6883.915261,1455.581446
604.322074,444.123565,-8512.368333,919.314598
604.322402,-1628.453072,-10140.821405,1455.581446
604.322729,-2886.803174,-11843.295072,612.876398
604.323057,-2960.823768,-12435.459826,689.485948
604.323385,-3478.967927,-11917.315666,536.266849
604.323712,-2664.741391,-11029.068536,612.876398
604.324040,-2146.597232,-10066.800811,0.000000
604.324368,-888.247130,-9474.636058,-306.438199
604.324695,1184.329507,-6735.874072,-919.314598
604.325023,2886.803174,-6661.853478,76.609550
604.325350,3627.009116,-6513.812290,459.657299
604.325678,2960.823768,-7254.018232,612.876398
604.326006,1480.411884,-9030.512492,1455.581446
604.326333,-740.205942,-10140.821405,1149.143247
604.326661,-2516.700203,-10807.006753,919.314598
604.326989,-2738.761985,-11547.212695,766.095498
604.327316,-3034.844362,-11991.336260,689.485948
604.327644,-2960.823768,-11473.192101,842.705048
604.327972,-1776.494261,-10881.027347,459.657299
604.328299,-814.226536,-9622.677246,383.047749
604.328627,592.164754,-7550.100608,229.828649
604.328955,2664.741391,-6735.874072,229.828649
604.329282,3701.029710,-7179.997637,1149.143247
604.329610,3849.070898,-7105.977043,1532.190996
604.329937,3330.926739,-7846.182985,2068.457845
604.330265,888.247130,-9474.636058,1838.629195
604.330593,-1406.391290,-11103.089130,1455.581446
604.330920,-2442.679609,-11917.315666,1532.190996
604.331248,-2220.617826,-13175.665768,1762.019645
604.331576,-3182.885551,-13101.645173,1455.581446
604.331903,-2442.679609,-12657.521608,995.924147
604.332231,-3182.885551,-12287.418637,536.266849
604.332559,-2516.700203,-10066.800811,0.000000
604.332886,-222.061783,-7105.977043,-229.828649
604.333214,1776.494261,-6513.812290,0.000000
604.333542,3182.885551,-5773.606348,536.266849
604.333869,2442.679609,-6809.894666,1225.752797
604.334197,962.267725,-7772.162391,1378.971896
604.334524,-592.164754,-7846.182985,919.314598
604.334852,-1702.473667,-9918.759623,1072.533697
604.335180,-2738.761985,-11103.089130,842.705048
604.335507,-3034.844362,-12065.356855,842.705048
604.335835,-3627.009116,-11029.068536,383.047749
604.336163,-2146.597232,-9770.718434,919.314598
604.336490,-1850.514855,-8808.450710,0.000000
604.336818,-592.164754,-7772.162391,-919.314598
604.337146,1702.473667,-6587.832884,-766.095498
604.337473,3034.844362,-5551.544565,-229.828649
604.337801,3552.988522,-4441.235652,306.438199
604.338129,3923.091493,-6883.915261,612.876398
604.338456,1924.535449,-8068.244768,995.924147
604.338784,-370.102971,-9474.636058,689.485948
604.339112,-814.226536,-10288.862594,1072.533697
604.339439,-1702.473667,-10584.944971,1149.143247
604.339767,-1924.535449,-10881.027347,1149.143247
604.340094,-2072.576638,-10510.924376,689.485948
604.340422,-2590.720797,-9770.718434,153.219100
604.340750,-1628.453072,-8068.244768,-383.047749
604.341077,-222.061783,-6291.750507,-536.266849
604.341405,1332.370696,-5921.647536,-153.219100
604.341732,1258.350101,-5403.503377,0.000000
604.342060,1850.514855,-5033.400406,536.266849
604.342387,888.247130,-6661.853478,766.095498
604.342715,0.000000,-7402.059420,766.095498
604.343042,-1480.411884,-7624.121203,689.485948
604.343370,-1628.453072,-9548.656652,383.047749
604.343697,-2220.617826,-10140.821405,153.219100
604.344025,-2960.823768,-10658.965565,0.000000
604.344352,-2368.659014,-11325.150913,76.609550
604.344680,-2812.782580,-10288.862594,-306.438199
604.345007,-1702.473667,-9104.533087,-306.438199
604.345335,666.185348,-8290.306550,-612.876398
604.345662,1850.514855,-7254.018232,0.000000
604.345990,3182.885551,-6957.935855,689.485948
604.346317,2812.782580,-8364.327145,1302.362347
604.346645,1628.453072,-8438.347739,1455.581446
604.346972,592.164754,-10362.883188,1225.752797
604.347300,-518.144159,-11103.089130,1455.581446
604.347627,-814.226536,-12139.377449,1685.410096
604.347955,-1110.308913,-12287.418637,1991.848295
604.348282,-1480.411884,-11399.171507,1302.362347
604.348610,-2220.617826,-11843.295072,919.314598
604.348937,-1924.535449,-10214.842000,0.000000
604.349265,148.041188,-8364.327145,0.000000
604.349592,2220.617826,-7920.203579,0.000000
604.349920,3108.864956,-6883.915261,0.000000
604.350247,3182.885551,-6957.935855,1072.533697
604.350575,2368.659014,-8364.327145,1302.362347
604.350903,74.020594,-8882.471304,689.485948
604.351230,-814.226536,-10288.862594,842.705048
604.351558,-1776.494261,-12287.418637,1225.752797
604.351885,-3034.844362,-11843.295072,1532.190996
604.352213,-3627.009116,-11917.315666,1149.143247
604.352540,-3701.029710,-12657.521608,842.705048
604.352868,-3997.112087,-11917.315666,153.219100
604.353195,-2664.741391,-10140.821405,-536.266849
604.353523,-444.123565,-8068.244768,-612.876398
604.353850,1554.432478,-7254.018232,0.000000
604.354178,1776.494261,-7031.956449,76.609550
604.354505,1776.494261,-7402.059420,0.000000
604.354833,592.164754,-7698.141797,-229.828649
604.355160,0.000000,-8142.265362,0.000000
604.355488,296.082377,-9178.553681,0.000000
604.355815,-666.185348,-10362.883188,536.266849
604.356143,-1998.556043,-11621.233289,919.314598
604.356470,-1628.453072,-11325.150913,1225.752797
604.356798,-1184.329507,-10584.944971,919.314598
604.357125,-592.164754,-9770.718434,842.705048
604.357453,444.123565,-8438.347739,383.047749
604.357780,2072.576638,-7994.224174,689.485948
604.358108,2146.597232,-6661.853478,612.876398
604.358435,3108.864956,-6291.750507,995.924147
604.358763,2516.700203,-6661.853478,995.924147
604.359090,1406.391290,-7550.100608,689.485948
604.359418,814.226536,-8882.471304,995.924147
604.359745,370.102971,-9474.636058,995.924147
604.360073,-444.123565,-9474.636058,1455.581446
604.360400,-888.247130,-10066.800811,1915.238745
604.360728,-1998.556043,-10436.903782,995.924147
604.361055,-2590.720797,-10510.924376,919.314598
604.361383,-2368.659014,-8216.285956,153.219100
604.361710,-518.144159,-7105.977043,306.438199
604.362038,-370.102971,-6661.853478,0.000000
604.362365,0.000000,-6217.729913,0.000000
604.362693,-740.205942,-6735.874072,153.219100
604.363020,-1554.432478,-7105.977043,-153.219100
604.363348,-1998.556043,-7179.997637,-383.047749
604.363675,-1110.308913,-7402.059420,0.000000
604.364003,-1332.370696,-8216.285956,689.485948
604.364330,-1702.473667,-9030.512492,612.876398
604.364658,-1406.391290,-9844.739029,995.924147
604.364985,-1776.494261,-9770.718434,383.047749
604.365313,-1776.494261,-9474.636058,612.876398
604.365640,74.020594,-9104.533087,766.095498
604.365968,962.267725,-8586.388927,689.485948
604.366295,1110.308913,-8364.327145,689.485948
604.366623,1184.329507,-8512.368333,842.705048
604.366950,444.123565,-8956.491898,612.876398
604.367278,0.000000,-8438.347739,536.266849
604.367605,888.247130,-9030.512492,536.266849
604.367933,1480.411884,-9326.594869,536.266849
604.368260,1036.288319,-9622.677246,612.876398
604.368588,888.247130,-9992.780217,1072.533697
604.368916,518.144159,-9622.677246,842.705048
604.369243,-222.061783,-9178.553681,536.266849
604.369571,-222.061783,-9474.636058,536.266849
604.369898,370.102971,-9696.697840,766.095498
604.370226,0.000000,-9474.636058,995.924147
604.370553,-74.020594,-9030.512492,995.924147
604.370881,-518.144159,-9622.677246,1455.581446
604.371208,-1998.556043,-9326.594869,612.876398
604.371536,-2072.576638,-9622.677246,0.000000
604.371863,-814.226536,-9178.553681,0.000000
604.372191,-1554.432478,-9474.636058,-306.438199
604.372518,-1406.391290,-9178.553681,0.000000
604.372846,-740.205942,-9400.615463,153.219100
604.373173,-1184.329507,-10214.842000,459.657299
604.373501,-1036.288319,-9696.697840,0.000000
604.373828,0.000000,-10140.821405,459.657299
604.374156,518.144159,-9992.780217,1378.971896
604.374483,-370.102971,-9696.697840,766.095498
604.374811,-296.082377,-10140.821405,1072.533697
604.375138,-592.164754,-10658.965565,919.314598
604.375466,-1258.350101,-10140.821405,536.266849
604.375793,-222.061783,-9918.759623,842.705048
604.376121,0.000000,-9992.780217,383.047749
604.376448,0.000000,-9474.636058,842.705048
604.376776,592.164754,-9474.636058,1072.533697
604.377103,740.205942,-9326.594869,842.705048
604.377431,0.000000,-9104.533087,842.705048
604.377758,1184.329507,-8956.491898,766.095498
604.378086,1110.308913,-8660.409521,919.314598
604.378413,1184.329507,-8512.368333,1149.143247
604.378741,1036.288319,-8660.409521,1378.971896
604.379068,370.102971,-9400.615463,1378.971896
604.379396,-518.144159,-9326.594869,1838.629195
604.379723,-1702.473667,-8660.409521,842.705048
604.380051,-1258.350101,-8808.450710,306.438199
604.380378,-1110.308913,-8956.491898,612.876398
604.380706,-1036.288319,-8290.306550,536.266849
604.381033,-1110.308913,-8364.327145,229.828649
604.381361,-1480.411884,-8882.471304,612.876398
604.381688,-1332.370696,-7994.224174,383.047749
604.382016,0.000000,-7402.059420,689.485948
604.382343,0.000000,-7550.100608,459.657299
604.382671,444.123565,-7698.141797,766.095498
604.382998,74.020594,-8216.285956,536.266849
604.383326,-1036.288319,-9252.574275,842.705048
604.383653,-2368.659014,-9252.574275,229.828649
604.383981,-1702.473667,-9326.594869,76.609550
604.384308,-1480.411884,-9474.636058,612.876398
604.384636,-1628.453072,-8956.491898,536.266849
604.384963,-370.102971,-9030.512492,153.219100
604.385291,0.000000,-8882.471304,229.828649
604.385618,0.000000,-8142.265362,0.000000
604.385946,1628.453072,-8068.244768,153.219100
604.386273,1702.473667,-7772.162391,612.876398
604.386601,2072.576638,-8290.306550,766.095498
604.386929,1554.432478,-8586.388927,306.438199
604.387256,444.123565,-9474.636058,612.876398
604.387584,-1258.350101,-10584.944971,76.609550
604.387911,-2146.597232,-9844.739029,-459.657299
604.388239,-592.164754,-9844.739029,-612.876398
604.388566,-518.144159,-9622.677246,-536.266849
604.388894,148.041188,-9252.574275,153.219100
604.389221,0.000000,-9696.697840,153.219100
604.389549,666.185348,-9030.512492,612.876398
604.389876,518.144159,-7698.141797,0.000000
604.390204,2072.576638,-7179.997637,383.047749
604.390531,2442.679609,-7624.121203,689.485948
604.390859,1554.432478,-8364.327145,1225.752797
604.391186,222.061783,-9326.594869,1225.752797
604.391514,-1998.556043,-10140.821405,919.314598
604.391841,-3034.844362,-10955.047942,306.438199
604.392169,-2812.782580,-10510.924376,0.000000
604.392496,-1924.535449,-10881.027347,76.609550
604.392824,-1850.514855,-10214.842000,-229.828649
604.393151,-592.164754,-9770.718434,1455.581446
604.393479,-148.041188,-9548.656652,383.047749
604.393806,222.061783,-7994.224174,536.266849
604.394134,888.247130,-7624.121203,612.876398
604.394461,2146.597232,-8068.244768,1225.752797
604.394789,1258.350101,-7920.203579,1915.238745
604.395116,296.082377,-8734.430116,2145.067394
604.395444,-1036.288319,-9548.656652,1762.019645
604.395771,-2442.679609,-10510.924376,1532.190996
604.396099,-2812.782580,-10214.842000,842.705048
604.396426,-962.267725,-9918.759623,1302.362347
604.396754,148.041188,-9474.636058,1149.143247
604.397081,2072.576638,-8142.265362,2298.286494
604.397409,2812.782580,-8290.306550,2987.772442
604.397736,3034.844362,-8216.285956,3294.210641
604.398064,2886.803174,-7328.038826,3140.991542
604.398391,3997.112087,-7772.162391,4060.306139
604.398719,3404.947333,-8216.285956,4826.401637
604.399046,1332.370696,-9252.574275,4903.011187
604.399374,-296.082377,-10732.986159,4903.011187
604.399701,-2886.803174,-11621.233289,4136.915689
604.400029,-4737.318029,-11473.192101,2451.505594
604.400356,-5329.482782,-11103.089130,2451.505594
604.400684,-4367.215058,-9844.739029,1991.848295
604.401011,-3034.844362,-8438.347739,1991.848295
604.401339,-1332.370696,-7476.080014,2604.724693
604.401666,-1110.308913,-7031.956449,2681.334243
604.401994,-1110.308913,-6809.894666,2681.334243
604.402321,-2220.617826,-6365.771101,1225.752797
604.402649,-2368.659014,-7179.997637,1302.362347
604.402976,-2146.597232,-7476.080014,1915.238745
604.403304,-2072.576638,-7550.100608,2604.724693
604.403631,-962.267725,-8512.368333,3524.039291
604.403959,-666.185348,-9474.636058,3677.258390
604.404286,-1480.411884,-10140.821405,3447.429741
604.404614,-1924.535449,-11473.192101,2681.334243
604.404941,-1702.473667,-11621.233289,2681.334243
604.405269,0.000000,-10288.862594,2451.505594
604.405597,1258.350101,-9326.594869,2221.676944
604.405924,2442.679609,-9474.636058,2528.115143
604.406252,3997.112087,-8882.471304,2757.943793
604.406579,3552.988522,-8068.244768,2374.896044
604.406907,4589.276840,-8216.285956,3753.867940
604.407234,5255.462188,-8216.285956,3983.696590
604.407562,4589.276840,-9548.656652,4749.792088
604.407889,3182.885551,-11695.253884,5056.230287
604.408217,1036.288319,-12509.480420,5209.449386
604.408544,-518.144159,-12583.501014,5362.668486
604.408872,-3552.988522,-11991.336260,4443.353888
604.409199,-4441.235652,-12731.542202,3753.867940
604.409527,-4367.215058,-11177.109724,3294.210641
604.409854,-2516.700203,-8512.368333,3217.601092
604.410182,-2146.597232,-7550.100608,2221.676944
604.410509,-2812.782580,-6587.832884,1608.800546
604.410837,-2590.720797,-6069.688724,766.095498
604.411164,-3034.844362,-5329.482782,153.219100
604.411492,-2368.659014,-5847.626942,229.828649
604.411819,-1184.329507,-6143.709319,1532.190996
604.412147,74.020594,-6661.853478,2987.772442
604.412474,1184.329507,-8216.285956,4519.963438
604.412802,962.267725,-10066.800811,5515.887586
604.413129,-370.102971,-11547.212695,5745.716235
604.413457,-888.247130,-11769.274478,5669.106685
604.413784,-1332.370696,-11325.150913,5362.668486
604.414112,0.000000,-11695.253884,5056.230287
604.414439,444.123565,-10214.842000,4749.792088
604.414767,2960.823768,-8438.347739,5209.449386
604.415094,4589.276840,-7920.203579,5056.230287
604.415422,4367.215058,-7476.080014,4903.011187
604.415749,3034.844362,-7031.956449,3524.039291
604.416077,814.226536,-6957.935855,2911.162892
604.416404,1702.473667,-7476.080014,2834.553343
604.416732,222.061783,-8364.327145,2987.772442
604.417059,74.020594,-8364.327145,3907.087040
604.417387,740.205942,-8586.388927,4903.011187
604.417714,1036.288319,-9326.594869,6281.983084
604.418042,-1628.453072,-10214.842000,5898.935335
604.418369,-4071.132681,-10584.944971,4979.620737
604.418697,-5699.585753,-10732.986159,3524.039291
604.419024,-5699.585753,-9252.574275,3140.991542
604.419352,-5329.482782,-8290.306550,1685.410096
604.419679,-4219.173869,-7624.121203,1455.581446
604.420007,-1850.514855,-6883.915261,1838.629195
604.420334,-518.144159,-6217.729913,1762.019645
604.420662,222.061783,-5921.647536,1532.190996
604.420989,-222.061783,-7328.038826,995.924147
604.421317,-1924.535449,-9326.594869,306.438199
604.421644,-2664.741391,-10510.924376,0.000000
604.421972,-1924.535449,-10807.006753,459.657299
604.422299,518.144159,-10584.944971,2298.286494
604.422627,3404.947333,-10732.986159,3370.820191
604.422954,4367.215058,-11251.130318,4903.011187
604.423282,4737.318029,-11473.192101,5592.497135
604.423610,5033.400406,-10955.047942,5975.544884
604.423937,4071.132681,-10955.047942,5439.278036
604.424265,3701.029710,-11399.171507,5132.839837
604.424592,2442.679609,-11325.150913,4290.134789
604.424920,2812.782580,-9918.759623,4060.306139
604.425247,2442.679609,-9104.533087,4596.572988
604.425575,3701.029710,-8660.409521,4903.011187
604.425902,3034.844362,-9622.677246,4136.915689
604.426230,518.144159,-9696.697840,4290.134789
604.426557,-888.247130,-10510.924376,3140.991542
604.426885,-2294.638420,-9844.739029,2834.553343
604.427212,-2960.823768,-10214.842000,2451.505594
604.427540,-3701.029710,-10288.862594,2757.943793
604.427867,-5921.647536,-10955.047942,2681.334243
604.428195,-7254.018232,-10584.944971,1762.019645
604.428522,-7105.977043,-9252.574275,1455.581446
604.428850,-5625.565159,-7254.018232,1149.143247
604.429177,-3552.988522,-6513.812290,1378.971896
604.429505,-2072.576638,-6291.750507,1915.238745
604.429832,-1480.411884,-6439.791695,1608.800546
604.430160,-666.185348,-6291.750507,2298.286494
604.430487,888.247130,-6513.812290,2987.772442
604.430815,2886.803174,-7179.997637,4136.915689
604.431142,3478.967927,-8586.388927,5132.839837
604.431470,3256.906145,-10436.903782,5286.058936
604.431797,1702.473667,-11547.212695,5056.230287
604.432125,1628.453072,-11843.295072,5439.278036
604.432452,2516.700203,-11177.109724,5286.058936
604.432780,4589.276840,-10214.842000,6128.763984
604.433107,4737.318029,-10436.903782,5439.278036
604.433435,4071.132681,-10288.862594,5209.449386
604.433762,2516.700203,-9474.636058,3983.696590
604.434090,-222.061783,-8956.491898,3983.696590
604.434417,1406.391290,-8364.327145,3217.601092
604.434745,814.226536,-7846.182985,3677.258390
604.435072,-962.267725,-7772.162391,3677.258390
604.435400,-2368.659014,-8808.450710,3294.210641
604.435727,-4589.276840,-8438.347739,2528.115143
604.436055,-6735.874072,-8512.368333,2145.067394
604.436382,-5847.626942,-7920.203579,1225.752797
604.436710,-5181.441594,-8142.265362,1455.581446
604.437037,-2664.741391,-7476.080014,1685.410096
604.437365,-1554.432478,-6365.771101,2451.505594
604.437692,-1480.411884,-6069.688724,2681.334243
604.438020,-1480.411884,-5921.647536,2451.505594
604.438347,-1184.329507,-7179.997637,2145.067394
604.438675,-666.185348,-7698.141797,1608.800546
604.439002,296.082377,-8290.306550,1915.238745
604.439330,2072.576638,-8734.430116,3447.429741
604.439657,3849.070898,-8808.450710,4673.182538
604.439985,3997.112087,-10510.924376,5362.668486
604.440312,3849.070898,-11843.295072,5669.106685
604.440640,2886.803174,-12435.459826,4903.011187
604.440967,1554.432478,-12583.501014,4213.525239
604.441295,740.205942,-12657.521608,3294.210641
604.441622,814.226536,-11843.295072,4060.306139
604.441950,2220.617826,-10955.047942,4903.011187
604.442278,3330.926739,-9770.718434,4903.011187
604.442605,1702.473667,-9548.656652,4519.963438
604.442933,962.267725,-9400.615463,4136.915689
604.443260,-1850.514855,-8438.347739,3140.991542
604.443588,-4293.194464,-9030.512492,1991.848295
604.443915,-3849.070898,-8808.450710,1991.848295
604.444243,-3034.844362,-7846.182985,2068.457845
604.444570,-2146.597232,-7846.182985,2911.162892
604.444898,-740.205942,-6957.935855,3753.867940
604.445225,-1258.350101,-7624.121203,4749.792088
604.445553,-2146.597232,-8142.265362,3830.477490
604.445880,-3182.885551,-8956.491898,2834.553343
604.446208,-3849.070898,-9474.636058,2068.457845
604.446535,-3034.844362,-9992.780217,1838.629195
604.446863,-2294.638420,-9844.739029,1915.238745
604.447191,-962.267725,-9104.533087,2604.724693
604.447518,814.226536,-8956.491898,3370.820191
604.447846,1998.556043,-8956.491898,3830.477490
604.448173,2294.638420,-9178.553681,3524.039291
604.448501,1776.494261,-9918.759623,3370.820191
604.448828,666.185348,-10584.944971,2911.162892
604.449156,592.164754,-10955.047942,2757.943793
604.449483,1258.350101,-10732.986159,3447.429741
604.449811,1258.350101,-10436.903782,4060.306139
604.450138,1332.370696,-9918.759623,4060.306139
604.450466,444.123565,-9400.615463,4213.525239
604.450793,74.020594,-8882.471304,3524.039291
604.451121,74.020594,-8364.327145,2987.772442
604.451448,-518.144159,-7624.121203,2221.676944
604.451776,962.267725,-7476.080014,2604.724693
604.452104,1702.473667,-6661.853478,3140.991542
604.452431,1628.453072,-6883.915261,3600.648841
604.452759,1554.432478,-7105.977043,3753.867940
604.453086,1184.329507,-7772.162391,3600.648841
604.453414,-370.102971,-8364.327145,4136.915689
604.453741,-296.082377,-8808.450710,3064.381992
604.454069,-1258.350101,-9474.636058,3753.867940
604.454396,-1480.411884,-9696.697840,3753.867940
604.454724,-1036.288319,-9770.718434,3907.087040
604.455051,-1480.411884,-9474.636058,3753.867940
604.455379,-1110.308913,-9252.574275,3370.820191
604.455706,-1480.411884,-8882.471304,2604.724693
604.456034,-1554.432478,-8438.347739,2298.286494
604.456361,-1702.473667,-8068.244768,2068.457845
604.456689,-1258.350101,-7994.224174,2145.067394
604.457017,-740.205942,-7550.100608,2528.115143
604.457344,-74.020594,-7698.141797,3064.381992
604.457672,-296.082377,-8290.306550,3140.991542
604.457999,0.000000,-8734.430116,3447.429741
604.458327,-444.123565,-9326.594869,3677.258390
604.458654,-222.061783,-9992.780217,3830.477490
604.458982,-888.247130,-10288.862594,3677.258390
604.459309,-518.144159,-10214.842000,3677.258390
604.459637,-296.082377,-9992.780217,3677.258390
604.459964,0.000000,-9474.636058,3600.648841
604.460292,814.226536,-9104.533087,3370.820191
604.460619,1480.411884,-9400.615463,3447.429741
604.460947,1554.432478,-9252.574275,2451.505594
604.461274,296.082377,-9622.677246,2528.115143
604.461602,962.267725,-9696.697840,2221.676944
604.461930,-296.082377,-10140.821405,2451.505594
604.462257,-296.082377,-10362.883188,2451.505594
604.462585,0.000000,-10362.883188,2145.067394
604.462912,-592.164754,-10436.903782,2451.505594
604.463240,-888.247130,-10140.821405,2068.457845
604.463567,-1406.391290,-10066.800811,1915.238745
604.463895,-1628.453072,-9844.739029,2145.067394
604.464222,-1850.514855,-9474.636058,1455.581446
604.464550,-1628.453072,-8956.491898,1378.971896
604.464877,-1036.288319,-8142.265362,1149.143247
604.465205,0.000000,-7476.080014,919.314598
604.465532,666.185348,-7402.059420,919.314598
604.465860,296.082377,-7550.100608,1532.190996
604.466187,0.000000,-8290.306550,1302.362347
604.466515,-296.082377,-9030.512492,1378.971896
604.466843,-666.185348,-9474.636058,1378.971896
604.467170,-444.123565,-9992.780217,689.485948
604.467498,370.102971,-10584.944971,2145.067394
604.467825,1036.288319,-10807.006753,1991.848295
604.468153,1480.411884,-10584.944971,2451.505594
604.468480,1924.535449,-10288.862594,2451.505594
604.468808,1258.350101,-9696.697840,1991.848295
604.469135,444.123565,-9548.656652,1838.629195
604.469463,0.000000,-9474.636058,1608.800546
604.469790,74.020594,-8586.388927,842.705048
604.470118,-666.185348,-8586.388927,842.705048
604.470445,0.000000,-8142.265362,919.314598
604.470773,-222.061783,-8142.265362,1302.362347
604.471100,-296.082377,-7772.162391,1378.971896
604.471428,-814.226536,-7994.224174,766.095498
604.471756,-1036.288319,-7772.162391,689.485948
604.472083,-1406.391290,-7994.224174,306.438199
604.472411,-814.226536,-8068.244768,-306.438199
604.472738,-1110.308913,-7772.162391,459.657299
604.473066,-518.144159,-8068.244768,306.438199
604.473393,-222.061783,-8512.368333,995.924147
604.473721,-518.144159,-8586.388927,919.314598
604.474048,-518.144159,-8512.368333,1149.143247
604.474376,-444.123565,-8882.471304,842.705048
604.474703,-666.185348,-9252.574275,383.047749
604.475031,0.000000,-9474.636058,459.657299
604.475358,0.000000,-9474.636058,536.266849
604.475686,222.061783,-9252.574275,995.924147
604.476013,148.041188,-9400.615463,1378.971896
604.476341,222.061783,-9696.697840,1072.533697
604.476669,0.000000,-9918.759623,1072.533697
604.476996,0.000000,-9474.636058,766.095498
604.477324,-222.061783,-9252.574275,919.314598
604.477651,0.000000,-9104.533087,689.485948
604.477979,-370.102971,-8956.491898,766.095498
604.478306,0.000000,-8512.368333,842.705048
604.478634,-222.061783,-8512.368333,842.705048
604.478961,0.000000,-8512.368333,919.314598
604.479289,-814.226536,-8512.368333,689.485948
604.479616,-888.247130,-8364.327145,995.924147
604.479944,-962.267725,-8882.471304,383.047749
604.480271,-962.267725,-8956.491898,459.657299
604.480599,-962.267725,-9548.656652,612.876398
604.480926,-740.205942,-9400.615463,995.924147
604.481254,-740.205942,-9400.615463,0.000000
604.481582,-296.082377,-9844.739029,229.828649
604.481909,-148.041188,-9844.739029,383.047749
604.482237,-296.082377,-9992.780217,459.657299
604.482564,-666.185348,-9770.718434,536.266849
604.482892,0.000000,-10066.800811,306.438199
604.483219,-592.164754,-9918.759623,612.876398
604.483547,-370.102971,-10066.800811,612.876398
604.483874,0.000000,-9918.759623,919.314598
604.484202,148.041188,-9696.697840,689.485948
604.484529,222.061783,-9178.553681,919.314598
604.484857,296.082377,-9326.594869,766.095498
604.485184,296.082377,-9178.553681,612.876398
604.485512,148.041188,-8882.471304,536.266849
604.485839,74.020594,-9104.533087,766.095498
604.486167,148.041188,-8660.409521,842.705048
604.486495,74.020594,-8882.471304,995.924147
604.486822,148.041188,-8956.491898,689.485948
604.487150,148.041188,-8734.430116,842.705048
604.487477,148.041188,-9030.512492,383.047749
604.487805,222.061783,-8660.409521,536.266849
604.488132,0.000000,-8660.409521,306.438199
604.488460,0.000000,-8512.368333,383.047749
604.488787,-296.082377,-8586.388927,459.657299
604.489115,-592.164754,-8956.491898,229.828649
604.489442,-740.205942,-8808.450710,459.657299
604.489770,-962.267725,-9252.574275,842.705048
604.490097,-1036.288319,-9252.574275,229.828649
604.490425,-1036.288319,-8956.491898,229.828649
604.490752,-666.185348,-8808.450710,383.047749
604.491080,-518.144159,-8512.368333,306.438199
604.491408,-444.123565,-8290.306550,0.000000
604.491735,-518.144159,-8142.265362,459.657299
604.492063,-592.164754,-8438.347739,536.266849
604.492390,-592.164754,-8808.450710,612.876398
604.492718,-888.247130,-8586.388927,842.705048
604.493045,-370.102971,-9104.533087,536.266849
604.493373,-518.144159,-9178.553681,689.485948
604.493700,-592.164754,-9104.533087,536.266849
604.494028,-444.123565,-8734.430116,459.657299
604.494355,0.000000,-8956.491898,536.266849
604.494683,0.000000,-8956.491898,306.438199
604.495010,-222.061783,-9030.512492,842.705048
604.495338,-296.082377,-9178.553681,919.314598
604.495666,-666.185348,-9400.615463,612.876398
604.495993,-444.123565,-9548.656652,766.095498
604.496321,-296.082377,-9696.697840,919.314598
604.496648,-740.205942,-9400.615463,536.266849
604.496976,74.020594,-9326.594869,459.657299
604.497303,-296.082377,-9178.553681,536.266849
604.497631,-296.082377,-9400.615463,459.657299
604.497958,-296.082377,-9474.636058,842.705048
604.498286,-888.247130,-8882.471304,689.485948
604.498613,-296.082377,-9400.615463,306.438199
604.498941,-444.123565,-9474.636058,612.876398
604.499268,-296.082377,-9474.636058,536.266849
604.499596,-222.061783,-8956.491898,536.266849
604.499923,-444.123565,-8660.409521,536.266849
604.500251,222.061783,-8734.430116,229.828649
604.500579,0.000000,-9252.574275,306.438199
604.500906,-370.102971,-9326.594869,306.438199
604.501234,0.000000,-9474.636058,459.657299
604.501561,0.000000,-9770.718434,1072.533697
604.501889,-148.041188,-9400.615463,842.705048
604.502216,-148.041188,-9622.677246,842.705048
604.502544,0.000000,-9400.615463,612.876398
604.502871,-148.041188,-9030.512492,306.438199
604.503199,-518.144159,-8660.409521,229.828649
604.503526,-1184.329507,-8142.265362,76.609550
604.503854,-1036.288319,-8808.450710,153.219100
604.504181,-1184.329507,-8882.471304,689.485948
604.504509,-888.247130,-8956.491898,689.485948
604.504836,-518.144159,-8734.430116,612.876398
604.505164,148.041188,-9030.512492,689.485948
604.505492,222.061783,-8364.327145,612.876398
604.505819,370.102971,-8068.244768,459.657299
604.506147,444.123565,-8364.327145,612.876398
604.506474,74.020594,-9252.574275,612.876398
604.506802,-370.102971,-9474.636058,1302.362347
604.507129,-444.123565,-10066.800811,766.095498
604.507457,-296.082377,-10436.903782,1225.752797
604.507784,0.000000,-9918.759623,995.924147
604.508112,222.061783,-9400.615463,689.485948
604.508439,222.061783,-8734.430116,536.266849
604.508767,1110.308913,-8290.306550,229.828649
604.509094,592.164754,-7846.182985,229.828649
604.509422,222.061783,-7846.182985,0.000000
604.509749,-296.082377,-8438.347739,459.657299
604.510077,-592.164754,-9030.512492,689.485948
604.510405,-740.205942,-9178.553681,995.924147
604.510732,-666.185348,-9474.636058,766.095498
604.511060,-592.164754,-9252.574275,612.876398
604.511387,0.000000,-9030.512492,612.876398
604.511715,296.082377,-8512.368333,229.828649
604.512042,592.164754,-8808.450710,76.609550
604.512370,222.061783,-8216.285956,76.609550
604.512697,0.000000,-8364.327145,229.828649
604.513025,-666.185348,-9474.636058,536.266849
604.513352,-740.205942,-9548.656652,612.876398
604.513680,-962.267725,-9548.656652,383.047749
604.514007,-740.205942,-9252.574275,766.095498
604.514335,-592.164754,-9326.594869,459.657299
604.514662,0.000000,-9252.574275,229.828649
604.514990,148.041188,-8882.471304,76.609550
604.515318,518.144159,-8660.409521,0.000000
604.515645,444.123565,-9030.512492,459.657299
604.515973,0.000000,-9696.697840,689.485948
604.516300,-370.102971,-10140.821405,995.924147
604.516628,-518.144159,-10362.883188,1072.533697
604.516955,-296.082377,-10140.821405,995.924147
604.517283,-370.102971,-9696.697840,1302.362347
604.517610,-296.082377,-9400.615463,459.657299
604.517938,0.000000,-8956.491898,306.438199
604.518265,0.000000,-8808.450710,383.047749
604.518593,-370.102971,-8882.471304,306.438199
604.518920,-296.082377,-8956.491898,1149.143247
604.519248,-814.226536,-9474.636058,766.095498
604.519575,-962.267725,-9548.656652,536.266849
604.519903,-814.226536,-9548.656652,919.314598
604.520231,-518.144159,-9474.636058,612.876398
604.520558,0.000000,-9326.594869,689.485948
604.520886,0.000000,-8956.491898,306.438199
604.521213,-296.082377,-9252.574275,536.266849
604.521541,-148.041188,-9400.615463,689.485948
604.521868,-370.102971,-9548.656652,995.924147
604.522196,-444.123565,-9474.636058,689.485948
604.522523,-518.144159,-9474.636058,1838.629195
604.522851,-740.205942,-9696.697840,919.314598
604.523178,-814.226536,-9474.636058,766.095498
604.523506,-962.267725,-8808.450710,383.047749
604.523833,-666.185348,-8586.388927,229.828649
604.524161,-666.185348,-7994.224174,536.266849
604.524488,-444.123565,-8438.347739,536.266849
604.524816,-592.164754,-8586.388927,536.266849
604.525144,-888.247130,-8660.409521,919.314598
604.525471,-740.205942,-8660.409521,536.266849
604.525799,-444.123565,-8882.471304,383.047749
604.526126,-888.247130,-8808.450710,536.266849
604.526454,-592.164754,-9104.533087,459.657299
604.526781,-444.123565,-8734.430116,536.266849
604.527109,-296.082377,-8660.409521,536.266849
604.527436,-370.102971,-8808.450710,459.657299
604.527764,0.000000,-8660.409521,919.314598
604.528091,-444.123565,-8660.409521,459.657299
604.528419,-666.185348,-8808.450710,536.266849
604.528746,-370.102971,-9030.512492,536.266849
604.529074,-592.164754,-8882.471304,76.609550
604.529401,0.000000,-8808.450710,153.219100
604.529729,148.041188,-8882.471304,153.219100
604.530057,74.020594,-8808.450710,76.609550
604.530384,0.000000,-8882.471304,306.438199
604.530712,148.041188,-9178.553681,536.266849
604.531039,0.000000,-9104.533087,842.705048
604.531367,74.020594,-9178.553681,612.876398
604.531694,222.061783,-9252.574275,689.485948
604.532022,0.000000,-9030.512492,229.828649
604.532349,-222.061783,-9030.512492,383.047749
604.532677,0.000000,-8660.409521,689.485948
604.533004,-296.082377,-8734.430116,153.219100
604.533332,-296.082377,-8734.430116,612.876398
604.533659,-370.102971,-8808.450710,536.266849
604.533987,-518.144159,-8956.491898,383.047749
604.534314,0.000000,-9252.574275,689.485948
604.534642,-296.082377,-8956.491898,689.485948
604.534970,-222.061783,-9178.553681,459.657299
604.535297,-296.082377,-9326.594869,459.657299
604.535625,-148.041188,-9326.594869,459.657299
604.535952,-296.082377,-9326.594869,766.095498
604.536280,0.000000,-9326.594869,612.876398
604.536607,-592.164754,-9326.594869,459.657299
604.536935,-296.082377,-9400.615463,842.705048
604.537262,-444.123565,-9178.553681,459.657299
604.537590,-296.082377,-9178.553681,842.705048
604.537917,-222.061783,-9104.533087,306.438199
604.538245,-444.123565,-9030.512492,689.485948
604.538572,0.000000,-9326.594869,383.047749
604.538900,-222.061783,-9252.574275,459.657299
604.539227,0.000000,-9400.615463,842.705048
604.539555,-296.082377,-9474.636058,995.924147
604.539883,74.020594,-9696.697840,766.095498
604.540210,148.041188,-9696.697840,536.266849
604.540538,0.000000,-9474.636058,612.876398
604.540865,74.020594,-9474.636058,459.657299
604.541192,222.061783,-9252.574275,689.485948
604.541520,222.061783,-9178.553681,306.438199
604.541847,0.000000,-9400.615463,229.828649
604.542175,0.000000,-8956.491898,306.438199
604.542502,0.000000,-8882.471304,153.219100
604.542830,0.000000,-9030.512492,689.485948
604.543157,0.000000,-8660.409521,612.876398
604.543485,0.000000,-9030.512492,229.828649
604.543812,-222.061783,-9104.533087,229.828649
604.544139,0.000000,-9400.615463,459.657299
604.544467,-148.041188,-9252.574275,536.266849
604.544794,370.102971,-9030.512492,689.485948
604.545122,222.061783,-9178.553681,612.876398
604.545449,0.000000,-9104.533087,612.876398
604.545777,-148.041188,-9104.533087,766.095498
604.546104,-222.061783,-8956.491898,612.876398
604.546431,0.000000,-8586.388927,689.485948
604.546759,0.000000,-9252.574275,536.266849
604.547086,-518.144159,-9030.512492,536.266849
604.547414,-444.123565,-9030.512492,689.485948
604.547741,-370.102971,-9252.574275,612.876398
604.548069,-296.082377,-9178.553681,306.438199
604.548396,-444.123565,-9030.512492,1072.533697
604.548724,-666.185348,-8882.471304,689.485948
604.549051,-370.102971,-8956.491898,536.266849
604.549378,-222.061783,-9252.574275,459.657299
604.549706,-444.123565,-9178.553681,536.266849
604.550033,-444.123565,-9104.533087,612.876398
604.550361,0.000000,-9252.574275,612.876398
604.550688,-296.082377,-9252.574275,459.657299
604.551016,-444.123565,-9326.594869,383.047749
604.551343,-444.123565,-9326.594869,383.047749
604.551670,-296.082377,-9548.656652,689.485948
604.551998,-370.102971,-9326.594869,306.438199
604.552325,-518.144159,-9252.574275,612.876398
604.552653,-296.082377,-9252.574275,459.657299
604.552980,-518.144159,-9030.512492,383.047749
604.553308,-518.144159,-9030.512492,689.485948
604.553635,-370.102971,-9178.553681,995.924147
604.553963,-518.144159,-9178.553681,536.266849
604.554290,-370.102971,-9104.533087,536.266849
604.554617,-370.102971,-8734.430116,459.657299
604.554945,-666.185348,-9030.512492,153.219100
604.555272,-592.164754,-9030.512492,536.266849
604.555600,-740.205942,-9178.553681,689.485948
604.555927,-888.247130,-8882.471304,612.876398
604.556255,-740.205942,-9326.594869,689.485948
604.556582,-666.185348,-9178.553681,766.095498
604.556909,-666.185348,-8512.368333,612.876398
604.557237,-444.123565,-9030.512492,842.705048
604.557564,-518.144159,-8586.388927,459.657299
604.557892,-666.185348,-8586.388927,536.266849
604.558219,-740.205942,-8512.368333,459.657299
604.558547,-296.082377,-8364.327145,536.266849
604.558874,-296.082377,-8586.388927,536.266849
604.559201,-592.164754,-8586.388927,459.657299
604.559529,-592.164754,-8808.450710,612.876398
604.559856,-444.123565,-8956.491898,459.657299
604.560184,-296.082377,-8808.450710,766.095498
604.560511,0.000000,-9030.512492,919.314598
604.560839,-444.123565,-9030.512492,612.876398
604.561166,-148.041188,-8956.491898,536.266849
604.561494,-444.123565,-8660.409521,459.657299
604.561821,-296.082377,-8660.409521,229.828649
604.562148,0.000000,-8660.409521,306.438199
604.562476,0.000000,-8660.409521,383.047749
604.562803,74.020594,-8956.491898,459.657299
604.563131,0.000000,-9030.512492,459.657299
604.563458,0.000000,-9104.533087,459.657299
604.563786,0.000000,-8882.471304,383.047749
604.564113,-148.041188,-9252.574275,383.047749
604.564440,-222.061783,-9326.594869,459.657299
604.564768,0.000000,-9474.636058,383.047749
604.565095,148.041188,-9474.636058,689.485948
604.565423,0.000000,-9178.553681,919.314598
604.565750,0.000000,-9252.574275,383.047749
604.566078,74.020594,-9252.574275,612.876398
604.566405,-148.041188,-9030.512492,459.657299
604.566733,0.000000,-8808.450710,76.609550
604.567060,0.000000,-8734.430116,383.047749
604.567387,148.041188,-8882.471304,0.000000
604.567715,74.020594,-9178.553681,459.657299
604.568042,0.000000,-9178.553681,536.266849
604.568370,-370.102971,-9326.594869,612.876398
604.568697,-296.082377,-9400.615463,536.266849
604.569025,0.000000,-9474.636058,536.266849
604.569352,0.000000,-9474.636058,459.657299
604.569679,0.000000,-9474.636058,459.657299
604.570007,0.000000,-9178.553681,459.657299
604.570334,0.000000,-9326.594869,536.266849
604.570662,148.041188,-9104.533087,919.314598
604.570989,-222.061783,-9252.574275,536.266849
604.571317,-370.102971,-9400.615463,612.876398
604.571644,-296.082377,-9548.656652,383.047749
604.571971,0.000000,-9770.718434,842.705048
604.572299,-222.061783,-9178.553681,459.657299
604.572626,0.000000,-9474.636058,536.266849
604.572954,0.000000,-9622.677246,689.485948
604.573281,-222.061783,-9548.656652,536.266849
604.573609,0.000000,-9696.697840,383.047749
604.573936,0.000000,-9326.594869,306.438199
604.574264,0.000000,-8956.491898,689.485948
604.574591,0.000000,-9326.594869,612.876398
604.574918,0.000000,-9326.594869,536.266849
604.575246,-222.061783,-9252.574275,689.485948
604.575573,-148.041188,-9252.574275,536.266849
604.575901,-370.102971,-9178.553681,842.705048
604.576228,-444.123565,-9400.615463,459.657299
604.576556,-592.164754,-9178.553681,383.047749
604.576883,-222.061783,-9400.615463,919.314598
604.577210,-518.144159,-9104.533087,919.314598
604.577538,-296.082377,-9400.615463,153.219100
604.577865,-666.185348,-9104.533087,459.657299
604.578193,-518.144159,-8956.491898,459.657299
604.578520,-370.102971,-9030.512492,536.266849
604.578848,-296.082377,-8882.471304,612.876398
604.579175,-296.082377,-8512.368333,689.485948
604.579503,-296.082377,-8512.368333,766.095498
604.579830,-518.144159,-8660.409521,612.876398
604.580157,-444.123565,-8882.471304,689.485948
604.580485,-666.185348,-9178.553681,689.485948
604.580812,-592.164754,-8882.471304,383.047749
604.581140,-740.205942,-8882.471304,766.095498
604.581467,-666.185348,-9030.512492,612.876398
604.581795,-592.164754,-9030.512492,766.095498
604.582122,-444.123565,-8956.491898,536.266849
604.582449,-592.164754,-8882.471304,612.876398
604.582777,-222.061783,-8512.368333,842.705048
604.583104,-148.041188,-8586.388927,459.657299
604.583432,-222.061783,-8586.388927,153.219100
604.583759,-296.082377,-8660.409521,383.047749
604.584087,-222.061783,-8660.409521,76.609550
604.584414,-592.164754,-8438.347739,689.485948
604.584741,-222.061783,-8808.450710,306.438199
604.585069,-444.123565,-9178.553681,306.438199
604.585396,-370.102971,-9178.553681,383.047749
604.585724,-518.144159,-9178.553681,612.876398
604.586051,-518.144159,-8808.450710,536.266849
604.586379,0.000000,-9030.512492,612.876398
604.586706,-222.061783,-8882.471304,459.657299
604.587034,0.000000,-8882.471304,153.219100
604.587361,0.000000,-8808.450710,0.000000
604.587688,74.020594,-8734.430116,0.000000
604.588016,74.020594,-8956.491898,306.438199
604.588343,-296.082377,-8956.491898,459.657299
604.588671,-518.144159,-9178.553681,229.828649
604.588998,-222.061783,-9474.636058,459.657299
604.589326,-296.082377,-9474.636058,383.047749
604.589653,-222.061783,-9104.533087,766.095498
604.589980,-370.102971,-9104.533087,459.657299
604.590308,-592.164754,-9030.512492,536.266849
604.590635,-592.164754,-9030.512492,229.828649
604.590963,-296.082377,-8882.471304,229.828649
604.591290,0.000000,-8660.409521,612.876398
604.591618,-296.082377,-8808.450710,383.047749
604.591945,-518.144159,-8956.491898,689.485948
604.592273,-370.102971,-9178.553681,536.266849
604.592600,-518.144159,-9178.553681,766.095498
604.592927,-592.164754,-8734.430116,612.876398
604.593255,-592.164754,-8956.491898,1072.533697
604.593582,-592.164754,-9400.615463,919.314598
604.593910,-666.185348,-9178.553681,919.314598
604.594237,-222.061783,-9326.594869,1225.752797
604.594565,-222.061783,-9030.512492,612.876398
604.594892,0.000000,-9104.533087,766.095498
604.595219,-296.082377,-9178.553681,612.876398
604.595547,0.000000,-9178.553681,766.095498
604.595874,0.000000,-9104.533087,459.657299
604.596202,0.000000,-9104.533087,689.485948
604.596529,-222.061783,-9178.553681,995.924147
604.596857,-222.061783,-9400.615463,689.485948
604.597184,-148.041188,-9474.636058,536.266849
604.597511,-296.082377,-9474.636058,612.876398
604.597839,-296.082377,-9400.615463,689.485948
604.598166,0.000000,-9326.594869,766.095498
604.598494,0.000000,-9474.636058,612.876398
604.598821,74.020594,-9030.512492,536.266849
604.599149,74.020594,-9030.512492,459.657299
604.599476,0.000000,-9030.512492,383.047749
604.599804,222.061783,-9104.533087,689.485948
604.600131,0.000000,-8882.471304,842.705048
604.600458,-148.041188,-9326.594869,383.047749
604.600786,-222.061783,-9474.636058,306.438199
604.601113,0.000000,-9696.697840,459.657299
604.601441,0.000000,-9474.636058,229.828649
604.601768,148.041188,-9252.574275,1225.752797
604.602096,0.000000,-9548.656652,612.876398
604.602423,148.041188,-9474.636058,536.266849
604.602750,0.000000,-9474.636058,689.485948
604.603078,0.000000,-9252.574275,459.657299
604.603405,0.000000,-8808.450710,766.095498
604.603733,0.000000,-9326.594869,459.657299
604.604060,0.000000,-9326.594869,229.828649
604.604388,-148.041188,-9030.512492,383.047749
604.604715,-518.144159,-9252.574275,229.828649
604.605043,-592.164754,-9104.533087,1225.752797
604.605370,-222.061783,-9326.594869,612.876398
604.605697,-222.061783,-9400.615463,536.266849
604.606025,-296.082377,-9326.594869,612.876398
604.606352,-222.061783,-9178.553681,689.485948
604.606680,-296.082377,-9104.533087,383.047749
604.607007,-222.061783,-9104.533087,383.047749
604.607335,-518.144159,-8882.471304,459.657299
604.607662,-222.061783,-9104.533087,383.047749
604.607989,-296.082377,-9030.512492,76.609550
604.608317,-370.102971,-9104.533087,689.485948
604.608644,-370.102971,-9104.533087,229.828649
604.608972,-444.123565,-8808.450710,383.047749
604.609299,-296.082377,-8956.491898,459.657299
604.609627,-370.102971,-9104.533087,459.657299
604.609954,-444.123565,-9030.512492,536.266849
604.610282,0.000000,-8512.368333,689.485948
604.610609,-222.061783,-8660.409521,536.266849
604.610936,-444.123565,-8438.347739,459.657299
604.611264,-518.144159,-8660.409521,459.657299
604.611591,-222.061783,-8660.409521,459.657299
604.611919,-148.041188,-8216.285956,306.438199
604.612246,-518.144159,-8808.450710,536.266849
604.612574,-444.123565,-8808.450710,536.266849
604.612901,-592.164754,-9030.512492,536.266849
604.613228,-740.205942,-9178.553681,459.657299
604.613556,-518.144159,-8956.491898,1225.752797
604.613883,-444.123565,-8956.491898,459.657299
604.614211,-518.144159,-9178.553681,459.657299
604.614538,-592.164754,-9030.512492,766.095498
604.614866,-518.144159,-8882.471304,612.876398
604.615193,-518.144159,-8956.491898,383.047749
604.615520,-148.041188,-8882.471304,306.438199
604.615848,-296.082377,-8660.409521,536.266849
604.616175,0.000000,-8734.430116,306.438199
604.616503,-222.061783,-8808.450710,612.876398
604.616830,-444.123565,-8882.471304,612.876398
604.617158,0.000000,-9104.533087,459.657299
604.617485,-518.144159,-9030.512492,1225.752797
604.617813,-296.082377,-9474.636058,919.314598
604.618140,-592.164754,-9030.512492,842.705048
604.618467,-296.082377,-9178.553681,842.705048
604.618795,-222.061783,-9326.594869,229.828649
604.619122,-148.041188,-9104.533087,919.314598
604.619450,0.000000,-9030.512492,842.705048
604.619777,0.000000,-9178.553681,536.266849
604.620105,74.020594,-9252.574275,306.438199
604.620432,0.000000,-8808.450710,536.266849
604.620759,-296.082377,-9104.533087,689.485948
604.621087,-370.102971,-9474.636058,689.485948
604.621414,-444.123565,-9474.636058,459.657299
604.621742,-296.082377,-9548.656652,766.095498
604.622069,-518.144159,-9548.656652,536.266849
604.622397,-592.164754,-9252.574275,919.314598
604.622724,-518.144159,-9326.594869,459.657299
604.623052,-444.123565,-9030.512492,536.266849
604.623379,-296.082377,-9104.533087,919.314598
604.623706,-222.061783,-8882.471304,383.047749
604.624034,0.000000,-8660.409521,459.657299
604.624361,0.000000,-8882.471304,306.438199
604.624689,0.000000,-9030.512492,536.266849
604.625016,-148.041188,-9104.533087,689.485948
604.625344,-222.061783,-9474.636058,459.657299
604.625671,222.061783,-9252.574275,536.266849
604.625998,0.000000,-9548.656652,612.876398
604.626326,-296.082377,-9474.636058,612.876398
604.626653,-222.061783,-9548.656652,612.876398
604.626981,0.000000,-9622.677246,536.266849
604.627308,0.000000,-9400.615463,536.266849
604.627636,148.041188,-8882.471304,612.876398
604.627963,74.020594,-9178.553681,306.438199
604.628290,0.000000,-9104.533087,459.657299
604.628618,0.000000,-8956.491898,153.219100
604.628945,0.000000,-9252.574275,229.828649
604.629273,0.000000,-9178.553681,383.047749
604.629600,0.000000,-9326.594869,383.047749
604.629928,-296.082377,-9474.636058,459.657299
604.630255,-296.082377,-9400.615463,459.657299
604.630583,-370.102971,-9326.594869,536.266849
604.630910,148.041188,-9326.594869,919.314598
604.631237,-148.041188,-9252.574275,383.047749
604.631565,0.000000,-9104.533087,459.657299
604.631892,0.000000,-8882.471304,306.438199
604.632220,0.000000,-8808.450710,153.219100
604.632547,0.000000,-9178.553681,0.000000
604.632875,0.000000,-8586.388927,459.657299
604.633202,0.000000,-9104.533087,459.657299
604.633529,0.000000,-9104.533087,536.266849
604.633857,-296.082377,-9474.636058,689.485948
604.634184,-518.144159,-9104.533087,536.266849
604.634512,0.000000,-9104.533087,919.314598
604.634839,-148.041188,-9178.553681,536.266849
604.635167,-444.123565,-9252.574275,612.876398
604.635494,-296.082377,-9030.512492,766.095498
604.635822,-370.102971,-8734.430116,383.047749
604.636149,-370.102971,-8586.388927,766.095498
604.636476,-592.164754,-9030.512492,612.876398
604.636804,-666.185348,-8808.450710,612.876398
604.637131,-518.144159,-8956.491898,306.438199
604.637459,-370.102971,-9030.512492,536.266849
604.637786,-370.102971,-9030.512492,459.657299
604.638114,-370.102971,-9104.533087,1072.533697
604.638441,-592.164754,-9178.553681,689.485948
604.638768,-740.205942,-9104.533087,459.657299
604.639096,-740.205942,-9104.533087,536.266849
604.639423,-592.164754,-9326.594869,76.609550
604.639751,-444.123565,-8512.368333,919.314598
604.640078,-444.123565,-8808.450710,536.266849
604.640406,-444.123565,-8956.491898,612.876398
604.640733,-296.082377,-9104.533087,383.047749
604.641060,-222.061783,-8808.450710,766.095498
604.641388,-518.144159,-9104.533087,612.876398
604.641715,-518.144159,-9104.533087,612.876398
604.642043,-592.164754,-9030.512492,612.876398
604.642370,0.000000,-9252.574275,689.485948
604.642698,-370.102971,-9178.553681,842.705048
604.643025,0.000000,-8660.409521,919.314598
604.643353,-222.061783,-9030.512492,612.876398
604.643680,-444.123565,-8734.430116,383.047749
604.644008,-444.123565,-8586.388927,536.266849
604.644335,-444.123565,-8660.409521,766.095498
604.644663,-370.102971,-8882.471304,459.657299
604.644990,-444.123565,-8956.491898,459.657299
604.645318,-592.164754,-8956.491898,689.485948
604.645645,-592.164754,-9178.553681,689.485948
604.645973,-592.164754,-9326.594869,766.095498
604.646300,-666.185348,-9474.636058,536.266849
604.646628,-592.164754,-9178.553681,689.485948
604.646955,-592.164754,-9474.636058,536.266849
604.647283,-370.102971,-9252.574275,766.095498
604.647610,-370.102971,-9178.553681,766.095498
604.647938,-296.082377,-8882.471304,459.657299
604.648265,0.000000,-8956.491898,766.095498
604.648592,0.000000,-8956.491898,76.609550
604.648920,0.000000,-9030.512492,153.219100
604.649247,74.020594,-9030.512492,0.000000
604.649575,-148.041188,-9178.553681,306.438199
604.649902,0.000000,-9178.553681,919.314598
604.650230,0.000000,-9104.533087,536.266849
604.650557,0.000000,-9400.615463,459.657299
604.650885,0.000000,-9326.594869,536.266849
604.651212,0.000000,-9252.574275,306.438199
604.651540,0.000000,-9030.512492,383.047749
604.651867,0.000000,-9252.574275,76.609550
604.652195,0.000000,-9104.533087,76.609550
604.652522,0.000000,-9030.512492,229.828649
604.652850,0.000000,-9178.553681,306.438199
604.653177,296.082377,-8956.491898,383.047749
604.653505,222.061783,-9326.594869,229.828649
604.653832,-148.041188,-9622.677246,229.828649
604.654160,-296.082377,-9622.677246,536.266849
604.654487,-148.041188,-9548.656652,536.266849
604.654815,-222.061783,-9400.615463,459.657299
604.655142,0.000000,-9326.594869,1072.533697
604.655470,-370.102971,-9252.574275,612.876398
604.655797,-222.061783,-8956.491898,536.266849
604.656125,-518.144159,-9030.512492,459.657299
604.656452,-370.102971,-8882.471304,459.657299
604.656780,-518.144159,-8734.430116,842.705048
604.657107,-222.061783,-9104.533087,842.705048
604.657435,-518.144159,-9252.574275,689.485948
604.657762,-518.144159,-9326.594869,842.705048
604.658090,-370.102971,-9252.574275,842.705048
604.658417,-444.123565,-8808.450710,995.924147
604.658745,-370.102971,-9474.636058,459.657299
604.659072,-296.082377,-9326.594869,995.924147
604.659400,-370.102971,-9252.574275,766.095498
604.659727,0.000000,-9178.553681,766.095498
604.660055,-296.082377,-9104.533087,689.485948
604.660382,0.000000,-9252.574275,306.438199
604.660710,0.000000,-9326.594869,383.047749
604.661037,-222.061783,-9326.594869,536.266849
604.661365,-296.082377,-9178.553681,689.485948
604.661692,0.000000,-9548.656652,766.095498
604.662020,-148.041188,-9770.718434,536.266849
604.662347,-444.123565,-9548.656652,536.266849
604.662675,-296.082377,-9622.677246,842.705048
604.663002,-148.041188,-9474.636058,842.705048
604.663330,0.000000,-9326.594869,612.876398
604.663657,0.000000,-8882.471304,0.000000
604.663985,-296.082377,-8660.409521,612.876398
604.664312,-148.041188,-8734.430116,306.438199
604.664640,0.000000,-8660.409521,153.219100
604.664967,-444.123565,-8438.347739,383.047749
604.665295,-296.082377,-8956.491898,995.924147
604.665622,0.000000,-8734.430116,459.657299
604.665949,-370.102971,-8882.471304,612.876398
604.666277,-296.082377,-8956.491898,459.657299
604.666604,-444.123565,-9104.533087,766.095498
604.666932,-296.082377,-9030.512492,766.095498
604.667259,-370.102971,-8808.450710,1072.533697
604.667587,-444.123565,-9104.533087,766.095498
604.667914,-148.041188,-8956.491898,919.314598
604.668242,-148.041188,-8882.471304,689.485948
604.668569,-222.061783,-8808.450710,612.876398
604.668897,-222.061783,-8660.409521,612.876398
604.669224,-666.185348,-8882.471304,306.438199
604.669552,-370.102971,-8956.491898,612.876398
604.669879,-444.123565,-8882.471304,306.438199
604.670207,-370.102971,-9252.574275,612.876398
604.670534,-370.102971,-9178.553681,0.000000
604.670862,-518.144159,-9104.533087,612.876398
604.671189,-518.144159,-9104.533087,612.876398
604.671517,-444.123565,-8956.491898,536.266849
604.671844,-518.144159,-9030.512492,536.266849
604.672172,-296.082377,-9030.512492,919.314598
604.672499,0.000000,-8364.327145,0.000000
604.672827,0.000000,-8438.347739,153.219100
604.673154,-370.102971,-8660.409521,383.047749
604.673482,-370.102971,-8734.430116,459.657299
604.673809,-296.082377,-9104.533087,536.266849
604.674137,-222.061783,-9326.594869,689.485948
604.674464,0.000000,-9326.594869,383.047749
604.674792,-444.123565,-9252.574275,459.657299
604.675119,0.000000,-9326.594869,536.266849
604.675447,-296.082377,-9178.553681,689.485948
604.675774,222.061783,-9326.594869,995.924147
604.676102,0.000000,-8956.491898,612.876398
604.676429,-222.061783,-9104.533087,459.657299
604.676757,-222.061783,-9104.533087,689.485948
604.677084,-148.041188,-9104.533087,689.485948
604.677412,0.000000,-9178.553681,536.266849
604.677739,0.000000,-8956.491898,536.266849
604.678067,-296.082377,-9252.574275,689.485948
604.678394,-592.164754,-9400.615463,689.485948
604.678722,-592.164754,-9400.615463,612.876398
604.679049,-814.226536,-8956.491898,842.705048
604.679377,-740.205942,-9474.636058,919.314598
604.679704,-444.123565,-9474.636058,612.876398
604.680032,-518.144159,-9252.574275,766.095498
604.680359,-370.102971,-9252.574275,536.266849
604.680687,-370.102971,-9622.677246,689.485948
604.681014,0.000000,-8808.450710,766.095498
604.681342,-148.041188,-8882.471304,306.438199
604.681669,0.000000,-9030.512492,536.266849
604.681997,0.000000,-9104.533087,536.266849
604.682324,-148.041188,-9474.636058,536.266849
604.682652,74.020594,-9030.512492,919.314598
604.682979,0.000000,-9696.697840,689.485948
604.683307,0.000000,-9696.697840,612.876398
604.683634,-222.061783,-9696.697840,383.047749
604.683961,-296.082377,-9696.697840,842.705048
604.684289,0.000000,-9474.636058,536.266849
604.684616,0.000000,-8808.450710,229.828649
604.684944,0.000000,-8956.491898,306.438199
604.685271,74.020594,-9030.512492,459.657299
604.685599,0.000000,-9178.553681,536.266849
604.685926,74.020594,-8956.491898,536.266849
604.686254,74.020594,-8956.491898,1225.752797
604.686581,-444.123565,-9326.594869,919.314598
604.686909,-296.082377,-9474.636058,689.485948
604.687236,-444.123565,-9474.636058,612.876398
604.687564,-222.061783,-9178.553681,689.485948
604.687891,0.000000,-9104.533087,1149.143247
604.688219,-296.082377,-9030.512492,536.266849
604.688546,-296.082377,-8956.491898,612.876398
604.688874,-148.041188,-8808.450710,459.657299
604.689201,0.000000,-8438.347739,612.876398
604.689529,0.000000,-8512.368333,1302.362347
604.689856,0.000000,-8956.491898,383.047749
604.690184,-222.061783,-8882.471304,459.657299
604.690511,-296.082377,-9030.512492,612.876398
604.690839,-296.082377,-9030.512492,689.485948
604.691166,-444.123565,-9178.553681,842.705048
604.691494,0.000000,-9326.594869,919.314598
604.691821,0.000000,-9400.615463,689.485948
604.692149,-370.102971,-9030.512492,612.876398
604.692476,-370.102971,-9178.553681,766.095498
604.692804,-222.061783,-9104.533087,153.219100
604.693131,74.020594,-9104.533087,383.047749
604.693459,0.000000,-8586.388927,536.266849
604.693786,-222.061783,-8734.430116,383.047749
604.694114,0.000000,-9030.512492,383.047749
604.694441,-592.164754,-9326.594869,459.657299
604.694769,-518.144159,-8808.450710,842.705048
604.695096,-592.164754,-9178.553681,536.266849
604.695424,-814.226536,-9104.533087,536.266849
604.695751,-740.205942,-9178.553681,536.266849
604.696079,-666.185348,-9104.533087,536.266849
604.696406,-518.144159,-8660.409521,995.924147
604.696734,-296.082377,-8660.409521,689.485948
604.697061,-518.144159,-8512.368333,459.657299
604.697389,-370.102971,-8734.430116,459.657299
604.697716,-370.102971,-8660.409521,612.876398
604.698044,-296.082377,-8364.327145,766.095498
604.698371,0.000000,-9030.512492,689.485948
604.698699,-370.102971,-9104.533087,612.876398
604.699026,-296.082377,-9178.553681,842.705048
604.699354,-296.082377,-9474.636058,919.314598
604.699681,-148.041188,-9030.512492,536.266849
604.700009,-296.082377,-9104.533087,919.314598
604.700336,-592.164754,-9252.574275,536.266849
604.700664,-222.061783,-9400.615463,536.266849
604.700991,-148.041188,-9104.533087,612.876398
604.701318,-148.041188,-8734.430116,306.438199
604.701646,-296.082377,-8512.368333,689.485948
604.701973,-370.102971,-8734.430116,229.828649
604.702301,-370.102971,-8808.450710,383.047749
604.702628,-296.082377,-8956.491898,153.219100
604.702956,-222.061783,-9400.615463,536.266849
604.703283,-444.123565,-9178.553681,229.828649
604.703611,-370.102971,-9400.615463,612.876398
604.703938,-296.082377,-9252.574275,306.438199
604.704266,0.000000,-9030.512492,383.047749
604.704593,-296.082377,-9252.574275,76.609550
604.704921,148.041188,-9252.574275,383.047749
604.705248,222.061783,-8882.471304,0.000000
604.705576,74.020594,-8808.450710,153.219100
604.705903,0.000000,-9030.512492,229.828649
604.706231,0.000000,-9104.533087,689.485948
604.706558,0.000000,-9178.553681,612.876398
604.706886,0.000000,-9400.615463,612.876398
604.707213,-148.041188,-9474.636058,766.095498
604.707541,-222.061783,-9696.697840,919.314598
604.707868,-370.102971,-9696.697840,919.314598
604.708196,-370.102971,-9474.636058,842.705048
604.708523,0.000000,-8882.471304,612.876398
604.708851,-444.123565,-9326.594869,842.705048
604.709178,-370.102971,-9326.594869,612.876398
604.709506,-296.082377,-9178.553681,842.705048
604.709833,-222.061783,-9178.553681,689.485948
604.710161,-296.082377,-9252.574275,689.485948
604.710488,-444.123565,-9104.533087,383.047749
604.710816,-444.123565,-9400.615463,383.047749
604.711143,-518.144159,-9252.574275,536.266849
604.711471,-444.123565,-9252.574275,383.047749
604.711798,-592.164754,-8956.491898,766.095498
604.712126,-518.144159,-9104.533087,689.485948
604.712453,-444.123565,-9252.574275,689.485948
604.712781,-518.144159,-9104.533087,383.047749
604.713108,-296.082377,-8956.491898,153.219100
604.713436,-148.041188,-8882.471304,306.438199
604.713763,0.000000,-8512.368333,0.000000
604.714091,0.000000,-8956.491898,153.219100
604.714418,0.000000,-8956.491898,153.219100
604.714746,0.000000,-9104.533087,306.438199
604.715073,148.041188,-9252.574275,383.047749
604.715401,370.102971,-9474.636058,842.705048
604.715728,0.000000,-9474.636058,536.266849
604.716056,-148.041188,-9474.636058,536.266849
604.716383,-148.041188,-9400.615463,459.657299
604.716711,-296.082377,-9474.636058,383.047749
604.717038,0.000000,-9400.615463,612.876398
604.717366,148.041188,-8808.450710,306.438199
604.717693,0.000000,-8808.450710,229.828649
604.718021,-222.061783,-8808.450710,459.657299
604.718348,-370.102971,-8808.450710,306.438199
604.718676,-444.123565,-8364.327145,536.266849
604.719003,-666.185348,-8586.388927,842.705048
604.719330,-592.164754,-8882.471304,766.095498
604.719658,-444.123565,-9104.533087,919.314598
604.719985,-740.205942,-9252.574275,689.485948
604.720313,-666.185348,-9178.553681,919.314598
604.720640,-592.164754,-8808.450710,919.314598
604.720968,-518.144159,-8734.430116,919.314598
604.721295,-740.205942,-8512.368333,536.266849
604.721623,-296.082377,-8586.388927,842.705048
604.721950,0.000000,-8808.450710,766.095498
604.722278,74.020594,-8734.430116,842.705048
604.722605,-370.102971,-8586.388927,842.705048
604.722933,-444.123565,-9030.512492,689.485948
604.723260,-222.061783,-9104.533087,766.095498
604.723588,-370.102971,-9474.636058,919.314598
604.723915,-148.041188,-9696.697840,689.485948
604.724243,-518.144159,-9400.615463,1378.971896
604.724570,-518.144159,-9400.615463,995.924147
604.724898,-296.082377,-9400.615463,612.876398
604.725225,0.000000,-9178.553681,459.657299
604.725553,-148.041188,-8660.409521,383.047749
604.725880,-296.082377,-8438.347739,76.609550
604.726208,-296.082377,-8882.471304,153.219100
604.726535,-222.061783,-8882.471304,383.047749
604.726863,-296.082377,-8882.471304,0.000000
604.727190,-296.082377,-9326.594869,229.828649
604.727518,0.000000,-9178.553681,229.828649
604.727845,-148.041188,-9474.636058,306.438199
604.728173,0.000000,-9252.574275,153.219100
604.728500,-296.082377,-9326.594869,459.657299
604.728828,-222.061783,-9326.594869,459.657299
604.729155,-222.061783,-8808.450710,1072.533697
604.729483,370.102971,-9326.594869,536.266849
604.729810,222.061783,-8956.491898,536.266849
604.730138,222.061783,-9104.533087,689.485948
604.730465,0.000000,-9326.594869,536.266849
604.730793,148.041188,-9178.553681,766.095498
604.731120,74.020594,-8882.471304,919.314598
604.731448,-222.061783,-9104.533087,766.095498
604.731775,-518.144159,-9400.615463,689.485948
604.732103,-666.185348,-9326.594869,459.657299
604.732430,-1036.288319,-9030.512492,842.705048
604.732758,-592.164754,-9104.533087,995.924147
604.733085,-814.226536,-8882.471304,766.095498
604.733413,-592.164754,-8882.471304,459.657299
604.733740,-444.123565,-8660.409521,459.657299
604.734068,-592.164754,-8660.409521,383.047749
604.734395,-370.102971,-8512.368333,766.095498
604.734723,-592.164754,-8882.471304,459.657299
604.735050,-740.205942,-9030.512492,306.438199
604.735378,-518.144159,-9474.636058,383.047749
604.735705,-518.144159,-9326.594869,536.266849
604.736033,-444.123565,-9030.512492,1149.143247
604.736360,222.061783,-9400.615463,612.876398
604.736688,74.020594,-9400.615463,459.657299
604.737015,74.020594,-9178.553681,536.266849
604.737342,222.061783,-9252.574275,383.047749
604.737670,370.102971,-9252.574275,383.047749
604.737997,666.185348,-8660.409521,536.266849
604.738325,222.061783,-9178.553681,459.657299
604.738652,74.020594,-9326.594869,229.828649
604.738980,74.020594,-9400.615463,383.047749
604.739307,0.000000,-9104.533087,306.438199
604.739635,0.000000,-9400.615463,536.266849
604.739962,74.020594,-9474.636058,536.266849
604.740290,-148.041188,-9326.594869,536.266849
604.740617,-370.102971,-9178.553681,689.485948
604.740945,-296.082377,-9104.533087,459.657299
604.741272,0.000000,-9400.615463,383.047749
604.741600,-296.082377,-9252.574275,612.876398
604.741927,-444.123565,-8882.471304,536.266849
604.742255,-296.082377,-8956.491898,612.876398
604.742582,-296.082377,-9104.533087,689.485948
604.742910,0.000000,-9400.615463,76.609550
604.743237,-222.061783,-9030.512492,612.876398
604.743565,-296.082377,-9326.594869,842.705048
604.743892,-444.123565,-9400.615463,919.314598
604.744220,-518.144159,-9474.636058,1225.752797
604.744547,-370.102971,-9696.697840,1608.800546
604.744875,-444.123565,-9400.615463,766.095498
604.745202,-444.123565,-9030.512492,689.485948
604.745530,-296.082377,-9030.512492,766.095498
604.745857,-370.102971,-8956.491898,766.095498
604.746184,-296.082377,-8882.471304,383.047749
604.746512,0.000000,-8956.491898,229.828649
604.746839,-518.144159,-8808.450710,689.485948
604.747167,-444.123565,-8882.471304,306.438199
604.747494,-370.102971,-9326.594869,612.876398
604.747822,-444.123565,-9326.594869,536.266849
604.748149,-296.082377,-9104.533087,919.314598
604.748477,-444.123565,-8882.471304,536.266849
604.748804,-518.144159,-9326.594869,536.266849
604.749132,-222.061783,-9104.533087,306.438199
604.749459,-296.082377,-8882.471304,229.828649
604.749787,0.000000,-8734.430116,612.876398
604.750114,-148.041188,-8660.409521,153.219100
604.750442,-148.041188,-8808.450710,306.438199
604.750769,0.000000,-9104.533087,229.828649
604.751097,0.000000,-8734.430116,229.828649
604.751424,148.041188,-8956.491898,459.657299
604.751752,0.000000,-8956.491898,459.657299
604.752079,-518.144159,-9178.553681,306.438199
604.752407,-296.082377,-9104.533087,459.657299
604.752734,-370.102971,-9104.533087,612.876398
604.753061,-518.144159,-9178.553681,842.705048
604.753389,-222.061783,-9030.512492,766.095498
604.753716,-370.102971,-8808.450710,766.095498
604.754044,-444.123565,-8438.347739,306.438199
604.754371,-296.082377,-8364.327145,153.219100
604.754699,-296.082377,-8364.327145,306.438199
604.755026,-222.061783,-8512.368333,689.485948
604.755354,-296.082377,-8438.347739,536.266849
604.755681,-518.144159,-8808.450710,459.657299
604.756009,-666.185348,-8956.491898,383.047749
604.756336,-592.164754,-9178.553681,536.266849
604.756664,-666.185348,-9104.533087,229.828649
604.756991,-444.123565,-8956.491898,536.266849
604.757319,-444.123565,-9104.533087,612.876398
604.757646,-444.123565,-9030.512492,383.047749
604.757974,0.000000,-9104.533087,306.438199
604.758301,74.020594,-8808.450710,536.266849
604.758629,148.041188,-8438.347739,459.657299
604.758956,0.000000,-9178.553681,459.657299
604.759283,148.041188,-9178.553681,612.876398
604.759611,0.000000,-9252.574275,229.828649
604.759938,0.000000,-9252.574275,612.876398
604.760266,0.000000,-9178.553681,995.924147
604.760593,0.000000,-9548.656652,612.876398
604.760921,-296.082377,-9400.615463,612.876398
604.761248,-222.061783,-9474.636058,919.314598
604.761576,-148.041188,-9252.574275,689.485948
604.761903,0.000000,-9326.594869,1149.143247
604.762231,-222.061783,-9030.512492,229.828649
604.762558,-296.082377,-8956.491898,689.485948
604.762886,-444.123565,-8956.491898,612.876398
604.763213,-592.164754,-9400.615463,536.266849
604.763541,-962.267725,-9104.533087,383.047749
604.763868,-740.205942,-8882.471304,1149.143247
604.764196,-814.226536,-9548.656652,459.657299
604.764523,-592.164754,-9844.739029,919.314598
604.764851,-888.247130,-9918.759623,842.705048
604.765178,-666.185348,-9252.574275,689.485948
604.765506,0.000000,-9474.636058,1072.533697
604.765833,-592.164754,-9400.615463,612.876398
604.766160,-518.144159,-9104.533087,536.266849
604.766488,-222.061783,-9104.533087,536.266849
604.766815,0.000000,-9178.553681,383.047749
604.767143,222.061783,-9178.553681,0.000000
604.767470,0.000000,-9178.553681,459.657299
604.767798,0.000000,-8956.491898,612.876398
604.768125,0.000000,-9178.553681,459.657299
604.768453,-222.061783,-9326.594869,612.876398
604.768780,-518.144159,-9030.512492,842.705048
604.769108,0.000000,-9326.594869,459.657299
604.769435,0.000000,-9474.636058,459.657299
604.769763,-296.082377,-9252.574275,459.657299
604.770090,-148.041188,-8956.491898,612.876398
604.770418,74.020594,-8882.471304,153.219100
604.770745,0.000000,-7846.182985,306.438199
604.771073,0.000000,-8290.306550,229.828649
604.771400,-148.041188,-8660.409521,306.438199
604.771728,-222.061783,-9030.512492,229.828649
604.772055,-222.061783,-9104.533087,459.657299
604.772383,-370.102971,-9030.512492,1149.143247
604.772710,-296.082377,-9474.636058,689.485948
604.773037,-222.061783,-9400.615463,689.485948
604.773365,-222.061783,-9030.512492,766.095498
604.773692,0.000000,-8660.409521,612.876398
604.774020,-296.082377,-9030.512492,383.047749
604.774347,-740.205942,-8734.430116,76.609550
604.774675,-666.185348,-8438.347739,459.657299
604.775002,-888.247130,-8364.327145,306.438199
604.775330,-666.185348,-8364.327145,459.657299
604.775657,-518.144159,-8586.388927,76.609550
604.775985,-296.082377,-8216.285956,459.657299
604.776312,0.000000,-8660.409521,153.219100
604.776640,-222.061783,-8808.450710,536.266849
604.776967,-148.041188,-9030.512492,536.266849
604.777295,-296.082377,-8956.491898,229.828649
604.777622,0.000000,-9252.574275,1072.533697
604.777950,-296.082377,-9326.594869,919.314598
604.778277,-222.061783,-9622.677246,536.266849
604.778605,-296.082377,-9178.553681,536.266849
604.778932,0.000000,-8956.491898,383.047749
604.779260,-148.041188,-8438.347739,536.266849
604.779587,-148.041188,-8734.430116,306.438199
604.779914,-148.041188,-8808.450710,229.828649
604.780242,-222.061783,-9178.553681,306.438199
604.780569,-370.102971,-9252.574275,536.266849
604.780897,0.000000,-9326.594869,1149.143247
604.781224,0.000000,-9696.697840,689.485948
604.781552,-296.082377,-9622.677246,689.485948
604.781879,-222.061783,-9548.656652,536.266849
604.782207,-148.041188,-9400.615463,612.876398
604.782534,0.000000,-8660.409521,919.314598
604.782862,222.061783,-9030.512492,766.095498
604.783189,0.000000,-9030.512492,306.438199
604.783517,-148.041188,-8808.450710,459.657299
604.783844,-592.164754,-9104.533087,536.266849
604.784172,-814.226536,-8882.471304,229.828649
604.784499,-592.164754,-9104.533087,306.438199
604.784827,-666.185348,-9104.533087,689.485948
604.785154,-518.144159,-9326.594869,536.266849
604.785482,-444.123565,-9252.574275,612.876398
604.785809,-296.082377,-9252.574275,612.876398
604.786137,-222.061783,-8956.491898,766.095498
604.786464,0.000000,-9474.636058,612.876398
604.786791,0.000000,-9326.594869,766.095498
604.787119,-222.061783,-9400.615463,842.705048
604.787446,-148.041188,-9400.615463,842.705048
604.787774,-370.102971,-9030.512492,1455.581446
604.788101,-296.082377,-9252.574275,536.266849
604.788429,-296.082377,-9400.615463,536.266849
604.788756,-370.102971,-9400.615463,766.095498
604.789084,-518.144159,-9030.512492,612.876398
604.789411,-296.082377,-9178.553681,766.095498
604.789739,-518.144159,-9030.512492,229.828649
604.790066,-370.102971,-9326.594869,612.876398
604.790394,-148.041188,-9326.594869,689.485948
604.790721,0.000000,-9400.615463,766.095498
604.791049,-222.061783,-9474.636058,229.828649
604.791376,74.020594,-9104.533087,0.000000
604.791704,222.061783,-8956.491898,383.047749
604.792031,296.082377,-9178.553681,459.657299
604.792359,370.102971,-8956.491898,383.047749
604.792686,74.020594,-9104.533087,536.266849
604.793014,222.061783,-9474.636058,1072.533697
604.793341,-444.123565,-9252.574275,766.095498
604.793668,-592.164754,-9326.594869,383.047749
604.793996,-518.144159,-9252.574275,306.438199
604.794323,-444.123565,-9030.512492,306.438199
604.794651,0.000000,-9104.533087,689.485948
604.794978,74.020594,-8438.347739,383.047749
604.795306,-222.061783,-8660.409521,229.828649
604.795633,0.000000,-8808.450710,306.438199
604.795961,0.000000,-8956.491898,383.047749
604.796288,-296.082377,-8956.491898,612.876398
604.796616,0.000000,-9178.553681,383.047749
604.796943,-222.061783,-9622.677246,612.876398
604.797271,0.000000,-9622.677246,536.266849
604.797598,-296.082377,-9474.636058,612.876398
604.797926,-148.041188,-9252.574275,919.314598
604.798253,-296.082377,-8882.471304,842.705048
604.798581,-222.061783,-9030.512492,383.047749
604.798908,-370.102971,-8808.450710,306.438199
604.799236,-296.082377,-8882.471304,536.266849
604.799563,-222.061783,-9030.512492,459.657299
604.799890,0.000000,-9252.574275,229.828649
604.800218,-296.082377,-9030.512492,536.266849
604.800545,0.000000,-9104.533087,536.266849
604.800873,-296.082377,-9104.533087,153.219100
604.801200,0.000000,-8808.450710,383.047749
604.801528,-148.041188,-9252.574275,536.266849
604.801855,0.000000,-8956.491898,612.876398
604.802183,-296.082377,-9178.553681,536.266849
604.802510,-592.164754,-9178.553681,689.485948
604.802838,-444.123565,-9474.636058,459.657299
604.803165,-296.082377,-8882.471304,919.314598
604.803493,0.000000,-8882.471304,766.095498
604.803820,0.000000,-9104.533087,536.266849
604.804148,-148.041188,-8808.450710,459.657299
604.804475,-222.061783,-9030.512492,842.705048
604.804803,-296.082377,-8956.491898,459.657299
604.805130,0.000000,-9104.533087,1072.533697
604.805458,-148.041188,-9326.594869,1072.533697
604.805785,-370.102971,-9400.615463,919.314598
604.806113,-518.144159,-9474.636058,842.705048
604.806440,-592.164754,-9326.594869,689.485948
604.806767,-888.247130,-8956.491898,995.924147
604.807095,-592.164754,-8808.450710,459.657299
604.807422,-370.102971,-8882.471304,383.047749
604.807750,-592.164754,-8734.430116,612.876398
604.808077,-592.164754,-8660.409521,689.485948
604.808405,-740.205942,-8512.368333,842.705048
604.808732,-296.082377,-8882.471304,536.266849
604.809060,-518.144159,-8808.450710,536.266849
604.809387,-592.164754,-9030.512492,766.095498
604.809715,-666.185348,-9252.574275,306.438199
604.810042,-814.226536,-9178.553681,766.095498
604.810370,-518.144159,-9326.594869,766.095498
604.810697,-444.123565,-9252.574275,153.219100
604.811025,0.000000,-9400.615463,689.485948
604.811352,0.000000,-9252.574275,766.095498
604.811680,0.000000,-9400.615463,459.657299
604.812007,0.000000,-9178.553681,229.828649
604.812335,-222.061783,-8956.491898,536.266849
604.812662,-148.041188,-8882.471304,229.828649
604.812990,0.000000,-9030.512492,383.047749
604.813317,0.000000,-9252.574275,153.219100
604.813644,-148.041188,-8660.409521,153.219100
604.813972,0.000000,-9178.553681,766.095498
604.814299,0.000000,-9326.594869,306.438199
604.814627,0.000000,-9400.615463,536.266849
604.814954,0.000000,-9104.533087,459.657299
604.815282,148.041188,-9400.615463,536.266849
604.815609,74.020594,-8882.471304,306.438199
604.815937,-370.102971,-9252.574275,536.266849
604.816264,-518.144159,-9178.553681,306.438199
604.816592,-444.123565,-9030.512492,153.219100
604.816919,-518.144159,-8660.409521,459.657299
604.817247,148.041188,-8882.471304,612.876398
604.817574,0.000000,-9030.512492,383.047749
604.817902,0.000000,-9104.533087,536.266849
604.818229,-296.082377,-9030.512492,383.047749
604.818557,-666.185348,-9030.512492,689.485948
604.818884,-296.082377,-9252.574275,766.095498
604.819212,-370.102971,-9400.615463,919.314598
604.819539,-148.041188,-9400.615463,689.485948
604.819867,0.000000,-9178.553681,919.314598
604.820194,0.000000,-9030.512492,842.705048
604.820521,0.000000,-9030.512492,766.095498
604.820849,0.000000,-8882.471304,766.095498
604.821176,-370.102971,-8808.450710,612.876398
604.821504,-370.102971,-8956.491898,459.657299
604.821831,-296.082377,-9104.533087,689.485948
604.822159,-370.102971,-9326.594869,766.095498
604.822486,-296.082377,-9178.553681,76.609550
604.822814,-444.123565,-9326.594869,612.876398
604.823141,-296.082377,-9252.574275,612.876398
604.823469,-222.061783,-9104.533087,536.266849
604.823796,-296.082377,-8660.409521,689.485948
604.824124,0.000000,-8734.430116,689.485948
604.824451,0.000000,-9326.594869,689.485948
604.824779,0.000000,-9178.553681,536.266849
604.825106,-444.123565,-9474.636058,612.876398
604.825434,-444.123565,-9474.636058,842.705048
604.825761,-444.123565,-9400.615463,919.314598
604.826089,0.000000,-9326.594869,766.095498
604.826416,0.000000,-9400.615463,536.266849
604.826744,-222.061783,-8956.491898,766.095498
604.827071,-296.082377,-8808.450710,459.657299
604.827398,-148.041188,-9104.533087,536.266849
604.827726,-518.144159,-9104.533087,536.266849
604.828053,-370.102971,-9400.615463,383.047749
604.828381,-592.164754,-9474.636058,612.876398
604.828708,-296.082377,-9178.553681,842.705048
604.829036,148.041188,-9178.553681,76.609550
604.829363,740.205942,-8956.491898,1915.238745
604.829691,1258.350101,-8734.430116,1378.971896
604.830018,1036.288319,-8882.471304,1608.800546
604.830346,444.123565,-9326.594869,1991.848295
604.830673,370.102971,-9474.636058,1991.848295
604.831001,0.000000,-9474.636058,2374.896044
604.831328,0.000000,-9178.553681,1991.848295
604.831656,0.000000,-9474.636058,2068.457845
604.831983,0.000000,-9178.553681,2145.067394
604.832311,0.000000,-8808.450710,2145.067394
604.832638,0.000000,-8586.388927,1762.019645
604.832966,0.000000,-8290.306550,2145.067394
604.833293,0.000000,-8734.430116,2298.286494
604.833621,-222.061783,-8734.430116,2451.505594
604.833948,-296.082377,-8734.430116,2528.115143
604.834275,-148.041188,-8660.409521,2528.115143
604.834603,-740.205942,-9030.512492,2834.553343
604.834930,-666.185348,-9030.512492,2834.553343
604.835258,-592.164754,-9104.533087,2604.724693
604.835585,-888.247130,-8956.491898,2528.115143
604.835913,-814.226536,-9104.533087,2451.505594
604.836240,-592.164754,-8734.430116,3677.258390
604.836568,-518.144159,-9104.533087,2911.162892
604.836895,-592.164754,-8956.491898,2987.772442
604.837223,-518.144159,-8956.491898,2757.943793
604.837550,-444.123565,-8956.491898,2911.162892
604.837878,-296.082377,-8586.388927,2681.334243
604.838205,-222.061783,-8808.450710,2834.553343
604.838533,-148.041188,-8882.471304,2757.943793
604.838860,0.000000,-9178.553681,3064.381992
604.839188,0.000000,-9178.553681,3140.991542
604.839515,74.020594,-9400.615463,2834.553343
604.839843,0.000000,-9326.594869,3370.820191
604.840170,0.000000,-9400.615463,3370.820191
604.840497,74.020594,-9252.574275,3524.039291
604.840825,592.164754,-9252.574275,3907.087040
604.841152,1036.288319,-9178.553681,3907.087040
604.841480,1480.411884,-8956.491898,4673.182538
604.841807,1332.370696,-9030.512492,4596.572988
604.842135,1258.350101,-9400.615463,4749.792088
604.842462,1036.288319,-9474.636058,4903.011187
604.842790,444.123565,-9622.677246,4903.011187
604.843117,0.000000,-9844.739029,4903.011187
604.843445,-370.102971,-9696.697840,4596.572988
604.843772,-592.164754,-9622.677246,4596.572988
604.844100,-740.205942,-9400.615463,4519.963438
604.844427,-1036.288319,-9252.574275,4136.915689
604.844755,-1628.453072,-9030.512492,3524.039291
604.845082,-2072.576638,-9104.533087,3217.601092
604.845410,-2368.659014,-9178.553681,3064.381992
604.845737,-2368.659014,-8882.471304,3217.601092
604.846065,-1702.473667,-8438.347739,3294.210641
604.846392,-444.123565,-8216.285956,4290.134789
604.846720,740.205942,-7920.203579,4596.572988
604.847047,1480.411884,-7846.182985,5515.887586
604.847374,2442.679609,-7994.224174,6128.763984
604.847702,2072.576638,-8586.388927,6665.030833
604.848029,1628.453072,-9770.718434,7201.297681
604.848357,0.000000,-10214.842000,6741.640382
604.848684,-1850.514855,-11251.130318,5898.935335
604.849012,-2738.761985,-11473.192101,5056.230287
604.849339,-2812.782580,-11029.068536,4443.353888
604.849667,-2516.700203,-9326.594869,4213.525239
604.849994,-370.102971,-8068.244768,4213.525239
604.850322,1332.370696,-7550.100608,4060.306139
604.850649,2812.782580,-7031.956449,4673.182538
604.850977,2220.617826,-7402.059420,4136.915689
604.851304,-1406.391290,-9474.636058,2604.724693
604.851632,-6735.874072,-11325.150913,612.876398
604.851959,-11029.068536,-12509.480420,-1915.238745
604.852287,-11843.295072,-11695.253884,-3294.210641
604.852614,-9178.553681,-9474.636058,-3294.210641
604.852942,-4959.379811,-7698.141797,-2298.286494
604.853269,3404.947333,-5625.565159,-689.485948
604.853597,5551.544565,-3923.091493,1762.019645
604.853924,10510.924376,-3330.926739,3217.601092
604.854252,10288.862594,-4589.276840,4290.134789
604.854579,9178.553681,-6587.832884,4903.011187
604.854906,7328.038826,-9992.780217,5209.449386
604.855234,2960.823768,-13101.645173,5669.106685
604.855561,1036.288319,-13915.871710,5286.058936
604.855889,296.082377,-14063.912898,5822.325785
604.856216,3256.906145,-12065.356855,6588.421283
604.856544,7179.997637,-10066.800811,7048.078582
604.856871,8882.471304,-8734.430116,7814.174080
604.857199,9622.677246,-8142.265362,7967.393179
604.857526,6217.729913,-9030.512492,6358.592633
604.857854,-148.041188,-9918.759623,4673.182538
604.858181,-5551.544565,-11029.068536,2528.115143
604.858509,-8586.388927,-9696.697840,1685.410096
604.858836,-8068.244768,-9474.636058,2528.115143
604.859164,-5921.647536,-7031.956449,4290.134789
604.859491,-4515.256246,-6513.812290,6741.640382
604.859819,-2072.576638,-5847.626942,7890.783629
604.860146,-5625.565159,-6513.812290,6971.469032
604.860474,-6513.812290,-7994.224174,5822.325785
604.860801,-8512.368333,-8068.244768,4290.134789
604.861129,-8956.491898,-8142.265362,3753.867940
604.861456,-7846.182985,-7994.224174,4290.134789
604.861783,-4885.359217,-7254.018232,5745.716235
604.862111,-1258.350101,-6291.750507,6741.640382
604.862438,4293.194464,-5107.421000,9116.536426
604.862766,6957.935855,-4515.256246,10265.679673
604.863093,6809.894666,-6513.812290,9959.241474
604.863421,2812.782580,-11177.109724,8656.879127
604.863748,-4219.173869,-16358.551318,4979.620737
604.864076,-10881.027347,-18135.045579,1685.410096
604.864403,-11843.295072,-16802.674883,-995.924147
604.864731,-8290.306550,-14582.057057,-1225.752797
604.865058,-1480.411884,-11325.150913,-612.876398
604.865386,1924.535449,-9474.636058,536.266849
604.865713,2442.679609,-7698.141797,766.095498
604.866041,2146.597232,-6217.729913,-1991.848295
604.866368,-2072.576638,-7920.203579,-3983.696590
604.866696,0.000000,-6809.894666,-4903.011187
604.867023,1406.391290,-6809.894666,-3830.477490
604.867351,4071.132681,-8290.306550,-1378.971896
604.867678,5773.606348,-8364.327145,1072.533697
604.868006,7179.997637,-8438.347739,4060.306139
604.868333,8808.450710,-8364.327145,5669.106685
604.868660,8882.471304,-9474.636058,5209.449386
604.868988,5847.626942,-10288.862594,4136.915689
604.869315,3849.070898,-14137.933492,2604.724693
604.869643,1480.411884,-15100.201217,1838.629195
604.869970,666.185348,-12065.356855,1532.190996
604.870298,4811.338623,-8956.491898,3370.820191
604.870625,8586.388927,-7550.100608,3753.867940
604.870953,9474.636058,-7994.224174,4136.915689
604.871280,4737.318029,-8290.306550,3294.210641
604.871608,-2368.659014,-8586.388927,1762.019645
604.871935,-6809.894666,-8586.388927,459.657299
604.872263,-7179.997637,-9770.718434,919.314598
604.872590,-7105.977043,-10881.027347,766.095498
604.872918,-6809.894666,-11103.089130,1991.848295
604.873245,-4589.276840,-9326.594869,3753.867940
604.873573,-3182.885551,-7179.997637,5975.544884
604.873900,-1776.494261,-4811.338623,6894.859482
604.874228,-1702.473667,-5329.482782,7124.688131
604.874555,-2442.679609,-5773.606348,6205.373534
604.874883,-3182.885551,-6291.750507,5592.497135
604.875210,-4367.215058,-6143.709319,5975.544884
604.875537,-4441.235652,-6439.791695,6971.469032
604.875865,-2812.782580,-7846.182985,7048.078582
604.876192,370.102971,-7920.203579,7124.688131
604.876520,2590.720797,-8290.306550,7354.516781
604.876847,3108.864956,-9252.574275,6818.249932
604.877175,1110.308913,-9770.718434,5745.716235
604.877502,-888.247130,-11251.130318,4979.620737
604.877830,-3182.885551,-11769.274478,4213.525239
604.878157,-3404.947333,-12731.542202,2911.162892
604.878485,-3701.029710,-12805.562797,2528.115143
604.878812,-2368.659014,-11473.192101,2145.067394
604.879140,-888.247130,-10436.903782,3064.381992
604.879467,518.144159,-8290.306550,3677.258390
604.879795,1332.370696,-7772.162391,3294.210641
604.880122,1850.514855,-7402.059420,2987.772442
604.880450,1776.494261,-7105.977043,2834.553343
604.880777,444.123565,-7846.182985,2451.505594
604.881105,-1332.370696,-8364.327145,3830.477490
604.881432,-1628.453072,-9400.615463,3677.258390
604.881760,1036.288319,-9326.594869,4979.620737
604.882087,2146.597232,-9696.697840,5515.887586
604.882414,2220.617826,-10214.842000,5439.278036
604.882742,1850.514855,-9992.780217,5132.839837
604.883069,0.000000,-10214.842000,3600.648841
604.883397,-1998.556043,-11103.089130,2451.505594
604.883724,-3108.864956,-11917.315666,919.314598
604.884052,-1332.370696,-10732.986159,995.924147
604.884379,814.226536,-8956.491898,2221.676944
604.884707,2442.679609,-8882.471304,2911.162892
604.885034,3256.906145,-10066.800811,4596.572988
604.885362,2146.597232,-9844.739029,4519.963438
604.885689,666.185348,-10436.903782,3830.477490
604.886017,-2516.700203,-11621.233289,2528.115143
604.886344,-4219.173869,-12583.501014,2068.457845
604.886672,-3404.947333,-11399.171507,2604.724693
604.886999,-1850.514855,-10214.842000,3753.867940
604.887327,-592.164754,-9622.677246,4749.792088
604.887654,-444.123565,-8734.430116,5056.230287
604.887982,-1702.473667,-8142.265362,3600.648841
604.888309,-2960.823768,-7550.100608,1685.410096
604.888637,-2738.761985,-6439.791695,76.609550
604.888964,-444.123565,-4959.379811,-153.219100
604.889291,2886.803174,-4145.153275,919.314598
604.889619,5033.400406,-5773.606348,3064.381992
604.889946,5773.606348,-6439.791695,4903.011187
604.890274,4589.276840,-7031.956449,5209.449386
604.890601,2146.597232,-8660.409521,4519.963438
604.890929,148.041188,-11029.068536,4060.306139
604.891256,-2146.597232,-12435.459826,3753.867940
604.891584,-3182.885551,-12213.398043,2298.286494
604.891911,-2738.761985,-12435.459826,2298.286494
604.892239,-2368.659014,-11621.233289,2221.676944
604.892566,-3330.926739,-9844.739029,689.485948
604.892894,-3182.885551,-8882.471304,76.609550
604.893221,-1406.391290,-7031.956449,-1225.752797
604.893549,0.000000,-5477.523971,-1072.533697
604.893876,518.144159,-4737.318029,-1225.752797
604.894204,2590.720797,-5255.462188,229.828649
604.894531,2590.720797,-5921.647536,306.438199
604.894859,296.082377,-6069.688724,995.924147
604.895186,-296.082377,-7402.059420,1378.971896
604.895514,296.082377,-8364.327145,2298.286494
604.895841,0.000000,-9104.533087,2987.772442
604.896168,-666.185348,-9474.636058,3140.991542
604.896496,-1036.288319,-11843.295072,2987.772442
604.896823,-2368.659014,-10732.986159,1608.800546
604.897151,-2960.823768,-9474.636058,383.047749
604.897478,74.020594,-7476.080014,153.219100
604.897806,4071.132681,-6217.729913,536.266849
604.898133,6883.915261,-5921.647536,1838.629195
604.898461,8290.306550,-7031.956449,3140.991542
604.898788,5921.647536,-8882.471304,2987.772442
604.899116,2812.782580,-10881.027347,3370.820191
604.899443,-444.123565,-11991.336260,2451.505594
604.899771,-2812.782580,-13471.748144,2221.676944
604.900098,-5403.503377,-14211.954086,1685.410096
604.900426,-5403.503377,-14582.057057,1915.238745
604.900753,-6513.812290,-12805.562797,1455.581446
604.901081,-6365.771101,-10807.006753,689.485948
604.901408,-5255.462188,-9474.636058,0.000000
604.901736,-4145.153275,-7179.997637,-612.876398
604.902063,-2442.679609,-5699.585753,-1455.581446
604.902391,-666.185348,-4959.379811,-1225.752797
604.902718,592.164754,-4737.318029,-459.657299
604.903045,962.267725,-5625.565159,-153.219100
604.903373,1036.288319,-7031.956449,459.657299
604.903700,1776.494261,-9326.594869,842.705048
604.904028,740.205942,-10214.842000,1378.971896
604.904355,370.102971,-11621.233289,1685.410096
604.904683,-444.123565,-13619.789333,1991.848295
604.905010,-1776.494261,-14285.974681,1455.581446
604.905338,-1184.329507,-14211.954086,612.876398
604.905665,1036.288319,-12139.377449,76.609550
604.905993,2886.803174,-9992.780217,306.438199
604.906320,4737.318029,-8364.327145,995.924147
604.906648,5551.544565,-6439.791695,1532.190996
604.906975,4663.297435,-7698.141797,1378.971896
604.907303,2590.720797,-7402.059420,842.705048
604.907630,2368.659014,-7994.224174,995.924147
604.907958,296.082377,-8956.491898,459.657299
604.908285,-296.082377,-8512.368333,842.705048
604.908613,-2072.576638,-10436.903782,995.924147
604.908940,-3701.029710,-11325.150913,1225.752797
604.909268,-5921.647536,-11029.068536,536.266849
604.909595,-5255.462188,-9770.718434,-153.219100
604.909922,-3478.967927,-7846.182985,-229.828649
604.910250,-1998.556043,-5625.565159,-919.314598
604.910577,-222.061783,-4737.318029,-459.657299
604.910905,0.000000,-5403.503377,-383.047749
604.911232,-1554.432478,-5329.482782,-842.705048
604.911560,-1036.288319,-5329.482782,-842.705048
604.911887,-1480.411884,-6217.729913,-383.047749
604.912215,-962.267725,-7994.224174,-229.828649
604.912542,-740.205942,-9104.533087,0.000000
604.912870,-1258.350101,-10732.986159,383.047749
604.913197,-2294.638420,-11251.130318,536.266849
604.913525,-1554.432478,-11103.089130,459.657299
604.913852,0.000000,-10584.944971,459.657299
604.914180,1924.535449,-10436.903782,842.705048
604.914507,3256.906145,-9030.512492,919.314598
