#time,accel_x,accel_y,accel_z
451.404517,-148.041188,-9104.533087,306.438199
451.404845,-296.082377,-9030.512492,536.266849
451.405173,-370.102971,-9178.553681,459.657299
451.405501,-296.082377,-9030.512492,383.047749
451.405829,-296.082377,-8808.450710,459.657299
451.406156,0.000000,-8956.491898,919.314598
451.406484,-296.082377,-9178.553681,383.047749
451.406812,-222.061783,-9178.553681,612.876398
451.407140,-296.082377,-9178.553681,536.266849
451.407468,0.000000,-9178.553681,612.876398
451.407795,74.020594,-9696.697840,689.485948
451.408123,-222.061783,-9252.574275,536.266849
451.408451,-222.061783,-8956.491898,383.047749
451.408779,-148.041188,-9326.594869,612.876398
451.409106,-518.144159,-8956.491898,459.657299
451.409434,0.000000,-9326.594869,459.657299
451.409762,0.000000,-9400.615463,842.705048
451.410090,0.000000,-9104.533087,459.657299
451.410418,-370.102971,-8956.491898,383.047749
451.410745,-222.061783,-8956.491898,689.485948
451.411073,74.020594,-9474.636058,842.705048
451.411401,-370.102971,-9030.512492,612.876398
451.411729,-444.123565,-9104.533087,536.266849
451.412057,-370.102971,-9104.533087,612.876398
451.412384,-222.061783,-9252.574275,459.657299
451.412712,-370.102971,-9178.553681,689.485948
451.413040,-222.061783,-8808.450710,766.095498
451.413368,-296.082377,-8956.491898,766.095498
451.413696,-370.102971,-9178.553681,459.657299
451.414023,-518.144159,-9178.553681,612.876398
451.414351,-148.041188,-9178.553681,612.876398
451.414679,-222.061783,-8660.409521,459.657299
451.415007,0.000000,-9104.533087,459.657299
451.415335,-740.205942,-9252.574275,153.219100
451.415662,-1258.350101,-9548.656652,0.000000
451.415990,-1406.391290,-9622.677246,-306.438199
451.416318,-1628.453072,-8882.471304,-383.047749
451.416646,-592.164754,-9030.512492,-306.438199
451.416973,-296.082377,-8956.491898,-383.047749
451.417301,-592.164754,-9104.533087,-842.705048
451.417629,-962.267725,-9474.636058,-689.485948
451.417957,-1184.329507,-9104.533087,-1225.752797
451.418285,-1110.308913,-9104.533087,-919.314598
451.418612,-1110.308913,-9030.512492,-1378.971896
451.418940,-888.247130,-9104.533087,-1378.971896
451.419268,-444.123565,-9474.636058,-842.705048
451.419596,0.000000,-9178.553681,-1302.362347
451.419924,222.061783,-8660.409521,-995.924147
451.420251,0.000000,-9252.574275,-1149.143247
451.420579,0.000000,-9474.636058,-1532.190996
451.420907,0.000000,-9252.574275,-1838.629195
451.421235,74.020594,-9252.574275,-1762.019645
451.421563,296.082377,-8882.471304,-1685.410096
451.421890,592.164754,-9400.615463,-1762.019645
451.422218,444.123565,-9326.594869,-1608.800546
451.422546,592.164754,-8956.491898,-1685.410096
451.422874,740.205942,-9400.615463,-1532.190996
451.423202,592.164754,-8808.450710,-1838.629195
451.423529,296.082377,-9474.636058,-1915.238745
451.423857,-222.061783,-9252.574275,-1915.238745
451.424185,0.000000,-9178.553681,-1991.848295
451.424513,-222.061783,-9252.574275,-1838.629195
451.424840,0.000000,-9326.594869,-1685.410096
451.425168,-148.041188,-9104.533087,-2298.286494
451.425496,-740.205942,-8882.471304,-1915.238745
451.425824,-1036.288319,-8660.409521,-1991.848295
451.426152,-1036.288319,-9178.553681,-2451.505594
451.426479,-1554.432478,-9252.574275,-2604.724693
451.426807,-1776.494261,-8808.450710,-2604.724693
451.427135,-2072.576638,-9326.594869,-3064.381992
451.427463,-1850.514855,-9030.512492,-2987.772442
451.427791,-1850.514855,-8882.471304,-3370.820191
451.428118,-1776.494261,-9178.553681,-3524.039291
451.428446,-1924.535449,-9030.512492,-3294.210641
451.428774,-2072.576638,-9104.533087,-4519.963438
451.429102,-1702.473667,-9030.512492,-3983.696590
451.429430,-1480.411884,-9104.533087,-4290.134789
451.429757,-740.205942,-9030.512492,-4060.306139
451.430085,0.000000,-9326.594869,-3447.429741
451.430413,888.247130,-8512.368333,-3830.477490
451.430741,1628.453072,-9030.512492,-3064.381992
451.431069,2146.597232,-9178.553681,-2528.115143
451.431396,2368.659014,-8956.491898,-2221.676944
451.431724,2072.576638,-9400.615463,-2298.286494
451.432052,2072.576638,-9400.615463,-2068.457845
451.432380,814.226536,-10066.800811,-2451.505594
451.432707,0.000000,-10214.842000,-2911.162892
451.433035,-1110.308913,-10436.903782,-3140.991542
451.433363,-1998.556043,-10288.862594,-4060.306139
451.433691,-2220.617826,-9992.780217,-4060.306139
451.434019,-1702.473667,-8956.491898,-4903.011187
451.434346,-592.164754,-8142.265362,-4826.401637
451.434674,1184.329507,-7328.038826,-4136.915689
451.435002,2368.659014,-6883.915261,-3447.429741
451.435330,3108.864956,-7254.018232,-2451.505594
451.435658,2886.803174,-7624.121203,-1685.410096
451.435985,1258.350101,-8882.471304,-1532.190996
451.436313,-1110.308913,-9844.739029,-1915.238745
451.436641,-3182.885551,-10658.965565,-2374.896044
451.436969,-3701.029710,-11399.171507,-2221.676944
451.437297,-1776.494261,-9474.636058,-1378.971896
451.437624,2442.679609,-7846.182985,383.047749
451.437952,6957.935855,-6439.791695,2221.676944
451.438280,8586.388927,-6661.853478,3524.039291
451.438608,7105.977043,-7994.224174,3830.477490
451.438936,3404.947333,-9104.533087,2757.943793
451.439263,-1036.288319,-10584.944971,1149.143247
451.439591,-5181.441594,-11769.274478,-612.876398
451.439919,-8438.347739,-12879.583391,-2145.067394
451.440247,-10658.965565,-13323.706956,-3140.991542
451.440575,-10362.883188,-12065.356855,-4060.306139
451.440902,-9918.759623,-9918.759623,-4596.572988
451.441230,-4293.194464,-6957.935855,-4136.915689
451.441558,-3404.947333,-5477.523971,-4366.744339
451.441886,-148.041188,-4885.359217,-4596.572988
451.442213,-666.185348,-5329.482782,-3830.477490
451.442541,-2960.823768,-6735.874072,-4979.620737
451.442869,-6809.894666,-8438.347739,-5898.935335
451.443197,-9030.512492,-9770.718434,-6588.421283
451.443525,-8660.409521,-10732.986159,-6818.249932
451.443852,-6365.771101,-9178.553681,-6511.811733
451.444180,444.123565,-8068.244768,-4673.182538
451.444508,6069.688724,-6883.915261,-3140.991542
451.444836,9844.739029,-6735.874072,-1302.362347
451.445164,11103.089130,-7920.203579,-1608.800546
451.445491,9030.512492,-10066.800811,-2451.505594
451.445819,5181.441594,-11177.109724,-3830.477490
451.446147,5329.482782,-11695.253884,-4136.915689
451.446475,6291.750507,-10807.006753,-3064.381992
451.446803,11177.109724,-9474.636058,0.000000
451.447130,12805.562797,-9326.594869,2068.457845
451.447458,12583.501014,-10510.924376,3140.991542
451.447786,8586.388927,-10807.006753,2298.286494
451.448114,1554.432478,-11621.233289,766.095498
451.448442,370.102971,-11547.212695,-689.485948
451.448769,-962.267725,-11621.233289,-383.047749
451.449097,-740.205942,-9992.780217,-536.266849
451.449425,-962.267725,-8438.347739,612.876398
451.449753,-2368.659014,-8068.244768,1302.362347
451.450080,-8216.285956,-7920.203579,-842.705048
451.450408,-13693.809927,-8290.306550,-3370.820191
451.450736,-14582.057057,-5773.606348,-5515.887586
451.451064,-11843.295072,-3923.091493,-5975.544884
451.451392,-4589.276840,-2738.761985,-3830.477490
451.451719,-148.041188,-2368.659014,-153.219100
451.452047,1332.370696,-3627.009116,1302.362347
451.452375,-148.041188,-6365.771101,2451.505594
451.452703,-3182.885551,-7179.997637,2145.067394
451.453031,-4219.173869,-9252.574275,2145.067394
451.453358,-4219.173869,-10362.883188,2528.115143
451.453686,-1406.391290,-11621.233289,4136.915689
451.454014,666.185348,-12509.480420,6205.373534
451.454342,2220.617826,-12879.583391,7354.516781
451.454670,3404.947333,-11621.233289,7354.516781
451.454997,4959.379811,-10955.047942,6358.592633
451.455325,5403.503377,-10584.944971,5515.887586
451.455653,5181.441594,-9770.718434,4673.182538
451.455981,4367.215058,-10362.883188,4213.525239
451.456309,3775.050304,-9178.553681,3524.039291
451.456636,1184.329507,-9622.677246,3830.477490
451.456964,-3108.864956,-10362.883188,2451.505594
451.457292,-2960.823768,-10658.965565,3064.381992
451.457620,-3849.070898,-8734.430116,2298.286494
451.457947,-4589.276840,-9844.739029,2911.162892
451.458275,-5551.544565,-9622.677246,612.876398
451.458603,-5847.626942,-9474.636058,-153.219100
451.458931,-8142.265362,-9696.697840,-1378.971896
451.459259,-7179.997637,-8068.244768,-2221.676944
451.459586,-6587.832884,-7105.977043,-2451.505594
451.459914,-3552.988522,-6069.688724,-1072.533697
451.460242,1110.308913,-5181.441594,-919.314598
451.460570,1776.494261,-7105.977043,0.000000
451.460898,1332.370696,-9104.533087,-842.705048
451.461225,-666.185348,-11399.171507,-2221.676944
451.461553,-3256.906145,-11917.315666,-3294.210641
451.461881,-2368.659014,-11843.295072,-3524.039291
451.462209,740.205942,-11325.150913,-2221.676944
451.462537,5181.441594,-10658.965565,0.000000
451.462864,8068.244768,-10658.965565,842.705048
451.463192,6587.832884,-10510.924376,1378.971896
451.463520,3849.070898,-11473.192101,-306.438199
451.463848,1850.514855,-11029.068536,-1225.752797
451.464175,1924.535449,-9770.718434,-2145.067394
451.464503,4589.276840,-8734.430116,-536.266849
451.464831,6883.915261,-7920.203579,1302.362347
451.465159,7402.059420,-7846.182985,2068.457845
451.465487,4737.318029,-8290.306550,842.705048
451.465814,1480.411884,-9326.594869,1455.581446
451.466142,-592.164754,-8290.306550,-383.047749
451.466470,-2368.659014,-9252.574275,-459.657299
451.466798,-1184.329507,-7698.141797,0.000000
451.467125,-814.226536,-7994.224174,306.438199
451.467453,-370.102971,-8142.265362,1225.752797
451.467781,-1850.514855,-8142.265362,536.266849
451.468109,-2664.741391,-7994.224174,383.047749
451.468437,-5033.400406,-7846.182985,-536.266849
451.468764,-4293.194464,-7328.038826,-1378.971896
451.469092,-3997.112087,-6809.894666,-536.266849
451.469420,-2442.679609,-6883.915261,0.000000
451.469748,-2368.659014,-7624.121203,689.485948
451.470076,-3552.988522,-7994.224174,229.828649
451.470403,-4441.235652,-8882.471304,153.219100
451.470731,-4515.256246,-8956.491898,-383.047749
451.471059,-3330.926739,-8216.285956,0.000000
451.471387,-1110.308913,-8364.327145,1149.143247
451.471714,-370.102971,-7994.224174,1762.019645
451.472042,-370.102971,-8438.347739,1762.019645
451.472370,-962.267725,-8956.491898,1149.143247
451.472698,-1184.329507,-8586.388927,459.657299
451.473026,666.185348,-7476.080014,995.924147
451.473353,3627.009116,-7328.038826,1991.848295
451.473681,4959.379811,-7476.080014,3140.991542
451.474009,5403.503377,-8586.388927,3600.648841
451.474337,3478.967927,-9918.759623,3140.991542
451.474664,1110.308913,-10955.047942,1991.848295
451.474992,-1258.350101,-11177.109724,995.924147
451.475320,296.082377,-11399.171507,2528.115143
451.475648,2220.617826,-10362.883188,2145.067394
451.475976,296.082377,-10584.944971,3294.210641
451.476303,2072.576638,-11473.192101,2604.724693
451.476631,-1036.288319,-11621.233289,1838.629195
451.476959,-3404.947333,-11251.130318,536.266849
451.477287,-2516.700203,-9770.718434,-919.314598
451.477614,-2146.597232,-9548.656652,-229.828649
451.477942,-740.205942,-8438.347739,76.609550
451.478270,888.247130,-8438.347739,1149.143247
451.478598,-222.061783,-9104.533087,1378.971896
451.478926,-2368.659014,-9326.594869,153.219100
451.479253,-4885.359217,-9992.780217,-612.876398
451.479581,-6291.750507,-9622.677246,-2298.286494
451.479909,-4737.318029,-8808.450710,-2145.067394
451.480237,-2368.659014,-7920.203579,-995.924147
451.480564,-222.061783,-7846.182985,0.000000
451.480892,444.123565,-9030.512492,153.219100
451.481220,-296.082377,-9770.718434,-383.047749
451.481548,-1554.432478,-9474.636058,-919.314598
451.481876,-1480.411884,-9104.533087,-1378.971896
451.482203,1258.350101,-9104.533087,-306.438199
451.482531,3552.988522,-9252.574275,153.219100
451.482859,4737.318029,-10066.800811,1608.800546
451.483187,3923.091493,-11251.130318,1915.238745
451.483514,1776.494261,-11769.274478,1225.752797
451.483842,222.061783,-11103.089130,76.609550
451.484170,0.000000,-10288.862594,0.000000
451.484498,1258.350101,-9252.574275,-995.924147
451.484826,2368.659014,-9030.512492,842.705048
451.485153,4737.318029,-8216.285956,1608.800546
451.485481,2960.823768,-8808.450710,1225.752797
451.485809,148.041188,-7846.182985,1225.752797
451.486137,-444.123565,-8364.327145,0.000000
451.486464,-592.164754,-7402.059420,76.609550
451.486792,0.000000,-7328.038826,153.219100
451.487120,1850.514855,-7476.080014,1608.800546
451.487448,-444.123565,-7994.224174,1455.581446
451.487776,-2516.700203,-8956.491898,1072.533697
451.488103,-4589.276840,-9030.512492,229.828649
451.488431,-5773.606348,-8808.450710,-689.485948
451.488759,-4071.132681,-7772.162391,-995.924147
451.489087,-1924.535449,-6735.874072,153.219100
451.489415,-518.144159,-6735.874072,612.876398
451.489742,-296.082377,-7328.038826,766.095498
451.490070,-2072.576638,-7846.182985,229.828649
451.490398,-3034.844362,-8216.285956,-229.828649
451.490726,-2812.782580,-8290.306550,0.000000
451.491053,-1184.329507,-8364.327145,153.219100
451.491381,814.226536,-8438.347739,1532.190996
451.491709,2220.617826,-9030.512492,2604.724693
451.492037,1628.453072,-10510.924376,2911.162892
451.492365,0.000000,-10881.027347,2451.505594
451.492692,-1924.535449,-10732.986159,1455.581446
451.493020,-1480.411884,-10214.842000,612.876398
451.493348,666.185348,-9178.553681,995.924147
451.493676,2442.679609,-8586.388927,1838.629195
451.494003,3849.070898,-8734.430116,2528.115143
451.494331,3182.885551,-8808.450710,2528.115143
451.494659,1406.391290,-8586.388927,766.095498
451.494987,-1332.370696,-8660.409521,689.485948
451.495315,-222.061783,-8216.285956,-153.219100
451.495642,222.061783,-9178.553681,536.266849
451.495970,1332.370696,-9178.553681,995.924147
451.496298,1110.308913,-10436.903782,1532.190996
451.496626,-1184.329507,-11251.130318,1455.581446
451.496953,-2960.823768,-11621.233289,229.828649
451.497281,-4737.318029,-11473.192101,-995.924147
451.497609,-3997.112087,-9548.656652,-1225.752797
451.497937,-1554.432478,-9104.533087,-919.314598
451.498265,74.020594,-8660.409521,0.000000
451.498592,296.082377,-8512.368333,0.000000
451.498920,-370.102971,-9178.553681,-383.047749
451.499248,-1702.473667,-8956.491898,-1225.752797
451.499576,-2516.700203,-8808.450710,-1685.410096
451.499903,-1184.329507,-8586.388927,-1225.752797
451.500231,962.267725,-8660.409521,0.000000
451.500559,2590.720797,-9252.574275,1378.971896
451.500887,2368.659014,-10214.842000,1762.019645
451.501215,296.082377,-11325.150913,1149.143247
451.501542,-1924.535449,-11695.253884,306.438199
451.501870,-2294.638420,-11251.130318,-153.219100
451.502198,-666.185348,-9992.780217,-229.828649
451.502526,1998.556043,-9400.615463,1072.533697
451.502853,3775.050304,-8660.409521,2068.457845
451.503181,3701.029710,-8512.368333,1838.629195
451.503509,1924.535449,-8290.306550,1225.752797
451.503837,296.082377,-8290.306550,612.876398
451.504165,0.000000,-7550.100608,-229.828649
451.504492,0.000000,-7698.141797,766.095498
451.504820,1998.556043,-7772.162391,995.924147
451.505148,1184.329507,-9104.533087,2451.505594
451.505476,-370.102971,-9622.677246,2374.896044
451.505803,-2368.659014,-9770.718434,1532.190996
451.506131,-3997.112087,-10066.800811,459.657299
451.506459,-4219.173869,-8956.491898,0.000000
451.506787,-2368.659014,-8142.265362,76.609550
451.507115,-666.185348,-7624.121203,306.438199
451.507442,-518.144159,-7550.100608,536.266849
451.507770,-1554.432478,-7772.162391,383.047749
451.508098,-2442.679609,-7846.182985,-842.705048
451.508426,-2960.823768,-7402.059420,-1378.971896
451.508754,-1702.473667,-6883.915261,-995.924147
451.509081,222.061783,-7179.997637,0.000000
451.509409,1554.432478,-8216.285956,1072.533697
451.509737,1628.453072,-9030.512492,2221.676944
451.510065,-222.061783,-10362.883188,1378.971896
451.510392,-2294.638420,-10955.047942,612.876398
451.510720,-2738.761985,-10807.006753,-459.657299
451.511048,-1184.329507,-9918.759623,0.000000
451.511376,1998.556043,-8734.430116,1915.238745
451.511704,3923.091493,-8734.430116,1685.410096
451.512031,3997.112087,-8808.450710,2068.457845
451.512359,2664.741391,-9252.574275,1225.752797
451.512687,962.267725,-8882.471304,306.438199
451.513015,-444.123565,-8364.327145,0.000000
451.513342,1628.453072,-8512.368333,689.485948
451.513670,2664.741391,-8438.347739,1072.533697
451.513998,2146.597232,-9622.677246,2221.676944
451.514326,1332.370696,-10584.944971,2145.067394
451.514654,-1924.535449,-10288.862594,1532.190996
451.514981,-4071.132681,-11177.109724,459.657299
451.515309,-4293.194464,-10362.883188,-229.828649
451.515637,-2812.782580,-10066.800811,229.828649
451.515965,-1332.370696,-9252.574275,689.485948
451.516292,-148.041188,-9178.553681,1072.533697
451.516620,-1332.370696,-8586.388927,459.657299
451.516948,-3108.864956,-8882.471304,-536.266849
451.517276,-3404.947333,-8734.430116,-995.924147
451.517604,-2960.823768,-7772.162391,-1149.143247
451.517931,-444.123565,-7402.059420,0.000000
451.518259,1110.308913,-7254.018232,842.705048
451.518587,1554.432478,-8734.430116,1532.190996
451.518915,-370.102971,-10288.862594,1455.581446
451.519242,-2368.659014,-10807.006753,766.095498
451.519570,-3478.967927,-10807.006753,0.000000
451.519898,-2442.679609,-9622.677246,76.609550
451.520226,296.082377,-9548.656652,1072.533697
451.520554,2516.700203,-9104.533087,1455.581446
451.520881,2960.823768,-9178.553681,1991.848295
451.521209,1924.535449,-9400.615463,1455.581446
451.521537,296.082377,-9104.533087,689.485948
451.521865,-370.102971,-8438.347739,-306.438199
451.522192,888.247130,-8512.368333,76.609550
451.522520,2590.720797,-8216.285956,459.657299
451.522848,2960.823768,-8734.430116,1608.800546
451.523176,2590.720797,-9548.656652,2145.067394
451.523504,-222.061783,-10362.883188,1302.362347
451.523831,-2516.700203,-9844.739029,306.438199
451.524159,-2960.823768,-9400.615463,-459.657299
451.524487,-1702.473667,-8734.430116,-306.438199
451.524815,0.000000,-8364.327145,612.876398
451.525142,1258.350101,-7846.182985,1685.410096
451.525470,222.061783,-8808.450710,766.095498
451.525798,-1258.350101,-8586.388927,229.828649
451.526126,-2516.700203,-8364.327145,-689.485948
451.526454,-2368.659014,-7846.182985,-766.095498
451.526781,0.000000,-7105.977043,306.438199
451.527109,1332.370696,-7402.059420,1072.533697
451.527437,1850.514855,-8364.327145,1915.238745
451.527765,0.000000,-9622.677246,1378.971896
451.528092,-2738.761985,-10214.842000,306.438199
451.528420,-4071.132681,-10066.800811,-612.876398
451.528748,-3478.967927,-9252.574275,-842.705048
451.529076,-740.205942,-8512.368333,0.000000
451.529404,1554.432478,-8290.306550,919.314598
451.529731,2442.679609,-8512.368333,1302.362347
451.530059,1184.329507,-9178.553681,919.314598
451.530387,-814.226536,-9252.574275,0.000000
451.530715,-1850.514855,-9104.533087,-612.876398
451.531043,-888.247130,-8956.491898,-536.266849
451.531370,1110.308913,-8808.450710,459.657299
451.531698,2738.761985,-9326.594869,1608.800546
451.532026,2590.720797,-9918.759623,2068.457845
451.532354,888.247130,-10362.883188,1532.190996
451.532681,-1776.494261,-10732.986159,459.657299
451.533009,-2960.823768,-10362.883188,-383.047749
451.533337,-1554.432478,-9622.677246,-536.266849
451.533665,592.164754,-8586.388927,306.438199
451.533993,1850.514855,-8808.450710,995.924147
451.534320,1776.494261,-9548.656652,766.095498
451.534648,-296.082377,-9992.780217,229.828649
451.534976,-1628.453072,-9696.697840,-536.266849
451.535304,-1998.556043,-9252.574275,-1072.533697
451.535631,74.020594,-8068.244768,-689.485948
451.535959,1554.432478,-9030.512492,536.266849
451.536287,1628.453072,-9400.615463,919.314598
451.536615,296.082377,-10288.862594,1455.581446
451.536943,-2072.576638,-10362.883188,383.047749
451.537270,-3701.029710,-10214.842000,-306.438199
451.537598,-3404.947333,-9622.677246,-995.924147
451.537926,-1110.308913,-8438.347739,0.000000
451.538254,962.267725,-8364.327145,689.485948
451.538581,1924.535449,-8068.244768,1685.410096
451.538909,962.267725,-8216.285956,1915.238745
451.539237,-962.267725,-8586.388927,766.095498
451.539565,-1628.453072,-8734.430116,153.219100
451.539893,-888.247130,-8512.368333,0.000000
451.540220,740.205942,-8364.327145,536.266849
451.540548,1998.556043,-8438.347739,2221.676944
451.540876,2146.597232,-9252.574275,2987.772442
451.541204,148.041188,-9918.759623,1991.848295
451.541531,-1998.556043,-10140.821405,995.924147
451.541859,-3404.947333,-9770.718434,306.438199
451.542187,-1702.473667,-8882.471304,229.828649
451.542515,148.041188,-8438.347739,459.657299
451.542843,1110.308913,-7846.182985,1685.410096
451.543170,1110.308913,-8512.368333,1762.019645
451.543498,-222.061783,-8734.430116,1302.362347
451.543826,-2072.576638,-8364.327145,383.047749
451.544154,-1776.494261,-7550.100608,0.000000
451.544481,-666.185348,-7698.141797,842.705048
451.544809,592.164754,-7550.100608,1302.362347
451.545137,1406.391290,-8660.409521,2145.067394
451.545465,0.000000,-9770.718434,1762.019645
451.545793,-2294.638420,-10140.821405,919.314598
451.546120,-3997.112087,-9918.759623,-612.876398
451.546448,-3997.112087,-9474.636058,-995.924147
451.546776,-1628.453072,-8586.388927,-459.657299
451.547104,740.205942,-8512.368333,0.000000
451.547431,1776.494261,-8068.244768,383.047749
451.547759,1036.288319,-8438.347739,383.047749
451.548087,-592.164754,-9326.594869,-459.657299
451.548415,-1628.453072,-9474.636058,-995.924147
451.548743,-962.267725,-9252.574275,-919.314598
451.549070,1110.308913,-8734.430116,0.000000
451.549398,2886.803174,-9326.594869,689.485948
451.549726,3256.906145,-10362.883188,1762.019645
451.550054,1554.432478,-10658.965565,1532.190996
451.550382,-666.185348,-10881.027347,766.095498
451.550709,-1628.453072,-10584.944971,-536.266849
451.551037,-1036.288319,-9918.759623,-1302.362347
451.551365,1110.308913,-9252.574275,76.609550
451.551693,2960.823768,-8660.409521,919.314598
451.552020,2368.659014,-8956.491898,1378.971896
451.552348,1702.473667,-9326.594869,995.924147
451.552676,0.000000,-9178.553681,76.609550
451.553004,-962.267725,-7920.203579,-153.219100
451.553332,148.041188,-8216.285956,0.000000
451.553659,1110.308913,-8364.327145,842.705048
451.553987,1776.494261,-9252.574275,1838.629195
451.554315,740.205942,-9770.718434,2451.505594
451.554643,-1998.556043,-10214.842000,1072.533697
451.554970,-3997.112087,-10584.944971,76.609550
451.555298,-4441.235652,-9918.759623,-689.485948
451.555626,-3330.926739,-8660.409521,-459.657299
451.555954,-962.267725,-8142.265362,383.047749
451.556282,-296.082377,-7624.121203,306.438199
451.556609,-740.205942,-7846.182985,459.657299
451.556937,-2072.576638,-7994.224174,0.000000
451.557265,-3330.926739,-7772.162391,-842.705048
451.557593,-2812.782580,-7402.059420,-766.095498
451.557920,-740.205942,-7105.977043,-229.828649
451.558248,1258.350101,-7698.141797,1302.362347
451.558576,2146.597232,-8068.244768,1915.238745
451.558904,814.226536,-9400.615463,2145.067394
451.559232,-1184.329507,-9918.759623,1455.581446
451.559559,-2368.659014,-10066.800811,459.657299
451.559887,-2146.597232,-9030.512492,-153.219100
451.560215,296.082377,-8882.471304,612.876398
451.560543,2146.597232,-8808.450710,1378.971896
451.560870,2960.823768,-8956.491898,2298.286494
451.561198,1628.453072,-9178.553681,1378.971896
451.561527,370.102971,-8660.409521,536.266849
451.561854,74.020594,-8512.368333,0.000000
451.562182,888.247130,-8586.388927,383.047749
451.562509,2590.720797,-8438.347739,1455.581446
451.562836,2812.782580,-8882.471304,2298.286494
451.563164,1110.308913,-9696.697840,1991.848295
451.563491,-1258.350101,-10807.006753,1532.190996
451.563819,-3552.988522,-11029.068536,229.828649
451.564146,-4663.297435,-10288.862594,-689.485948
451.564474,-2812.782580,-9400.615463,-459.657299
451.564801,-592.164754,-8068.244768,612.876398
451.565129,888.247130,-8142.265362,919.314598
451.565456,0.000000,-8660.409521,459.657299
451.565784,-1776.494261,-9104.533087,-229.828649
451.566111,-3182.885551,-9178.553681,-1149.143247
451.566439,-2516.700203,-8512.368333,-1455.581446
451.566766,-666.185348,-8586.388927,-612.876398
451.567094,1258.350101,-8808.450710,383.047749
451.567421,1924.535449,-9474.636058,1608.800546
451.567749,888.247130,-10732.986159,1838.629195
451.568076,-1480.411884,-11325.150913,842.705048
451.568404,-3034.844362,-11399.171507,0.000000
451.568731,-2220.617826,-11251.130318,-229.828649
451.569059,-148.041188,-10140.821405,76.609550
451.569386,2220.617826,-9548.656652,995.924147
451.569714,3552.988522,-9474.636058,1762.019645
451.570041,2664.741391,-9474.636058,1838.629195
451.570369,888.247130,-9622.677246,1302.362347
451.570696,148.041188,-8808.450710,459.657299
451.571024,814.226536,-8512.368333,383.047749
451.571351,1480.411884,-8364.327145,1455.581446
451.571679,2368.659014,-8438.347739,2374.896044
451.572006,1702.473667,-10140.821405,2681.334243
451.572333,-518.144159,-10658.965565,2374.896044
451.572661,-2812.782580,-10732.986159,995.924147
451.572988,-4071.132681,-10140.821405,383.047749
451.573316,-3404.947333,-9178.553681,0.000000
451.573643,-1850.514855,-8216.285956,459.657299
451.573971,-740.205942,-7772.162391,612.876398
451.574298,-962.267725,-7624.121203,306.438199
451.574626,-2442.679609,-8142.265362,-919.314598
451.574953,-3997.112087,-8216.285956,-1838.629195
451.575281,-3997.112087,-7031.956449,-2834.553343
451.575608,-1776.494261,-6661.853478,-1915.238745
451.575936,888.247130,-6513.812290,-383.047749
451.576263,2146.597232,-7179.997637,919.314598
451.576591,1258.350101,-8586.388927,1302.362347
451.576918,-592.164754,-9474.636058,1532.190996
451.577246,-2294.638420,-9844.739029,-229.828649
451.577573,-2516.700203,-9252.574275,-459.657299
451.577901,-222.061783,-8660.409521,0.000000
451.578228,2442.679609,-8438.347739,1072.533697
451.578556,4293.194464,-8586.388927,2298.286494
451.578883,3701.029710,-8290.306550,1225.752797
451.579211,2812.782580,-8586.388927,1532.190996
451.579538,1776.494261,-8216.285956,459.657299
451.579866,2072.576638,-7624.121203,0.000000
451.580193,3404.947333,-7846.182985,1455.581446
451.580521,4737.318029,-7772.162391,2374.896044
451.580848,3701.029710,-9992.780217,2681.334243
451.581175,1258.350101,-10584.944971,2757.943793
451.581503,-2072.576638,-10807.006753,1685.410096
451.581830,-3775.050304,-10732.986159,766.095498
451.582158,-3478.967927,-9844.739029,306.438199
451.582485,-2442.679609,-9104.533087,612.876398
451.582813,-1998.556043,-8660.409521,919.314598
451.583140,-2146.597232,-8956.491898,919.314598
451.583468,-3849.070898,-8808.450710,-229.828649
451.583795,-5033.400406,-8216.285956,-1225.752797
451.584123,-5329.482782,-7920.203579,-1915.238745
451.584450,-3997.112087,-7031.956449,-1991.848295
451.584778,-1258.350101,-6661.853478,-689.485948
451.585105,0.000000,-7254.018232,459.657299
451.585433,-444.123565,-8364.327145,536.266849
451.585760,-1702.473667,-9992.780217,229.828649
451.586088,-3552.988522,-10584.944971,0.000000
451.586415,-3997.112087,-10658.965565,-689.485948
451.586743,-2072.576638,-10436.903782,-306.438199
451.587070,1036.288319,-10066.800811,612.876398
451.587398,3330.926739,-9770.718434,1685.410096
451.587725,3330.926739,-10066.800811,1991.848295
451.588053,2516.700203,-10510.924376,1072.533697
451.588380,1036.288319,-10066.800811,0.000000
451.588708,1776.494261,-9696.697840,0.000000
451.589035,3552.988522,-9104.533087,766.095498
451.589363,5181.441594,-8956.491898,1762.019645
451.589690,4959.379811,-10510.924376,2757.943793
451.590017,2812.782580,-10955.047942,2145.067394
451.590345,-962.267725,-10807.006753,1378.971896
451.590672,-1406.391290,-11399.171507,919.314598
451.591000,-2516.700203,-9622.677246,-536.266849
451.591327,-1110.308913,-9992.780217,0.000000
451.591655,0.000000,-9252.574275,76.609550
451.591982,0.000000,-9326.594869,919.314598
451.592310,-1924.535449,-8808.450710,306.438199
451.592637,-3256.906145,-9326.594869,-842.705048
451.592965,-4219.173869,-8586.388927,-2068.457845
451.593292,-2590.720797,-6809.894666,-1915.238745
451.593620,-814.226536,-7105.977043,-995.924147
451.593947,666.185348,-7624.121203,153.219100
451.594275,-148.041188,-8068.244768,459.657299
451.594602,-1924.535449,-9696.697840,536.266849
451.594930,-3404.947333,-10288.862594,-459.657299
451.595257,-3701.029710,-9844.739029,-766.095498
451.595585,-1850.514855,-9696.697840,-383.047749
451.595912,962.267725,-9326.594869,689.485948
451.596240,2368.659014,-9178.553681,1915.238745
451.596567,2368.659014,-9548.656652,2068.457845
451.596895,1702.473667,-9622.677246,1455.581446
451.597222,1036.288319,-9252.574275,1072.533697
451.597550,1332.370696,-8734.430116,995.924147
451.597877,2738.761985,-8216.285956,1302.362347
451.598205,4071.132681,-8512.368333,2374.896044
451.598532,3849.070898,-9326.594869,3524.039291
451.598860,1258.350101,-9992.780217,2451.505594
451.599187,-592.164754,-10140.821405,2221.676944
451.599514,-1036.288319,-9474.636058,1532.190996
451.599842,-2368.659014,-9326.594869,689.485948
451.600169,-518.144159,-8364.327145,919.314598
451.600497,0.000000,-8364.327145,1762.019645
451.600824,-888.247130,-8882.471304,1838.629195
451.601152,-2294.638420,-8364.327145,1149.143247
451.601479,-3478.967927,-9030.512492,153.219100
451.601807,-4737.318029,-8142.265362,-766.095498
451.602134,-4145.153275,-7994.224174,-1072.533697
451.602462,-2072.576638,-7476.080014,0.000000
451.602789,-888.247130,-7772.162391,-383.047749
451.603117,-1184.329507,-8216.285956,919.314598
451.603444,-2664.741391,-9474.636058,0.000000
451.603772,-4441.235652,-9696.697840,-1072.533697
451.604099,-4219.173869,-9474.636058,-1838.629195
451.604427,-2368.659014,-8512.368333,-1532.190996
451.604754,1110.308913,-7920.203579,0.000000
451.605082,3034.844362,-8142.265362,842.705048
451.605409,3627.009116,-9178.553681,1532.190996
451.605737,2590.720797,-9622.677246,1149.143247
451.606064,1332.370696,-9252.574275,919.314598
451.606392,1776.494261,-9622.677246,459.657299
451.606719,2886.803174,-9474.636058,1072.533697
451.607047,4811.338623,-9548.656652,2145.067394
451.607374,5033.400406,-10214.842000,2834.553343
451.607702,4145.153275,-10658.965565,3064.381992
451.608029,1850.514855,-10510.924376,689.485948
451.608356,-592.164754,-10510.924376,1149.143247
451.608684,0.000000,-9622.677246,0.000000
451.609011,0.000000,-9770.718434,229.828649
451.609339,222.061783,-8586.388927,459.657299
451.609666,148.041188,-9178.553681,1302.362347
451.609994,-1628.453072,-9252.574275,306.438199
451.610321,-3701.029710,-9326.594869,-689.485948
451.610649,-4367.215058,-8438.347739,-1225.752797
451.610976,-4737.318029,-7624.121203,-1685.410096
451.611304,-2368.659014,-7105.977043,-1378.971896
451.611631,-1258.350101,-7254.018232,306.438199
451.611959,-1258.350101,-7994.224174,76.609550
451.612286,-2368.659014,-9326.594869,153.219100
451.612614,-4737.318029,-9474.636058,-1149.143247
451.612941,-5181.441594,-9030.512492,-2068.457845
451.613269,-3478.967927,-8660.409521,-1455.581446
451.613596,-1036.288319,-7994.224174,-612.876398
451.613924,1554.432478,-7920.203579,536.266849
451.614251,2590.720797,-8660.409521,1072.533697
451.614579,2220.617826,-9252.574275,766.095498
451.614906,814.226536,-8882.471304,612.876398
451.615234,740.205942,-9400.615463,0.000000
451.615561,2368.659014,-9104.533087,153.219100
451.615889,4885.359217,-9326.594869,1685.410096
451.616216,5699.585753,-9992.780217,2987.772442
451.616544,5033.400406,-10955.047942,4060.306139
451.616871,2886.803174,-10881.027347,3064.381992
451.617199,0.000000,-10881.027347,689.485948
451.617526,-962.267725,-10214.842000,1455.581446
451.617853,1258.350101,-9252.574275,919.314598
451.618181,1184.329507,-9770.718434,1915.238745
451.618508,1036.288319,-8660.409521,2145.067394
451.618836,-444.123565,-8882.471304,1532.190996
451.619163,-2738.761985,-8882.471304,306.438199
451.619491,-4441.235652,-8142.265362,-995.924147
451.619818,-3775.050304,-7698.141797,-459.657299
451.620146,-3034.844362,-6957.935855,-689.485948
451.620473,-2146.597232,-7105.977043,0.000000
451.620801,-1998.556043,-8068.244768,842.705048
451.621128,-3256.906145,-8808.450710,0.000000
451.621456,-4737.318029,-9770.718434,-536.266849
451.621783,-6513.812290,-9622.677246,-1455.581446
451.622111,-5329.482782,-9474.636058,-1608.800546
451.622438,-2590.720797,-8882.471304,-766.095498
451.622766,-296.082377,-8882.471304,383.047749
451.623093,1406.391290,-9252.574275,1225.752797
451.623421,1554.432478,-9844.739029,1149.143247
451.623748,666.185348,-10066.800811,229.828649
451.624076,222.061783,-9844.739029,0.000000
451.624403,1924.535449,-9474.636058,536.266849
451.624731,4293.194464,-9178.553681,1608.800546
451.625058,5921.647536,-9474.636058,3370.820191
451.625386,5625.565159,-10658.965565,3447.429741
451.625713,3997.112087,-11103.089130,2911.162892
451.626041,1850.514855,-10955.047942,2221.676944
451.626368,-518.144159,-10362.883188,153.219100
451.626695,592.164754,-9844.739029,1915.238745
451.627023,3108.864956,-9474.636058,1455.581446
451.627350,1036.288319,-10066.800811,1915.238745
451.627678,444.123565,-9844.739029,1608.800546
451.628005,-1554.432478,-9178.553681,536.266849
451.628333,-3849.070898,-8882.471304,0.000000
451.628660,-3701.029710,-7846.182985,-842.705048
451.628988,-2590.720797,-7254.018232,-153.219100
451.629315,-1998.556043,-7179.997637,0.000000
451.629643,-1554.432478,-7698.141797,459.657299
451.629970,-2886.803174,-8586.388927,306.438199
451.630298,-5181.441594,-8956.491898,-229.828649
451.630625,-5477.523971,-9030.512492,-1838.629195
451.630953,-5625.565159,-8512.368333,-2451.505594
451.631280,-3182.885551,-7698.141797,-1225.752797
451.631608,-296.082377,-7179.997637,0.000000
451.631935,888.247130,-7105.977043,766.095498
451.632263,888.247130,-8216.285956,1072.533697
451.632590,148.041188,-8882.471304,229.828649
451.632918,-518.144159,-8660.409521,-229.828649
451.633245,370.102971,-8512.368333,-306.438199
451.633573,2960.823768,-9030.512492,1072.533697
451.633900,5255.462188,-9548.656652,2298.286494
451.634228,4885.359217,-10214.842000,2987.772442
451.634555,3997.112087,-10658.965565,2681.334243
451.634883,1776.494261,-10436.903782,1532.190996
451.635210,444.123565,-10066.800811,536.266849
451.635538,592.164754,-9178.553681,0.000000
451.635865,2220.617826,-9178.553681,1455.581446
451.636192,3849.070898,-8512.368333,689.485948
451.636520,518.144159,-9030.512492,1762.019645
451.636847,592.164754,-8882.471304,689.485948
451.637175,-1998.556043,-8216.285956,0.000000
451.637502,-3256.906145,-8660.409521,-306.438199
451.637830,-1850.514855,-7772.162391,-689.485948
451.638157,-1258.350101,-8290.306550,459.657299
451.638485,-1258.350101,-8586.388927,229.828649
451.638812,-2516.700203,-9030.512492,995.924147
451.639140,-4367.215058,-9844.739029,-842.705048
451.639467,-6143.709319,-9918.759623,-2221.676944
451.639795,-4885.359217,-8882.471304,-2221.676944
451.640122,-2960.823768,-7772.162391,-2145.067394
451.640450,0.000000,-7254.018232,-842.705048
451.640777,1184.329507,-7772.162391,0.000000
451.641105,740.205942,-8956.491898,0.000000
451.641432,-296.082377,-9622.677246,-306.438199
451.641760,-1332.370696,-9918.759623,-612.876398
451.642087,-592.164754,-9918.759623,-229.828649
451.642415,2220.617826,-9770.718434,842.705048
451.642742,4219.173869,-10732.986159,2681.334243
451.643070,4515.256246,-11399.171507,3753.867940
451.643397,3923.091493,-11843.295072,3370.820191
451.643725,1776.494261,-11621.233289,2451.505594
451.644052,296.082377,-10732.986159,1991.848295
451.644380,444.123565,-9992.780217,1455.581446
451.644707,1332.370696,-9252.574275,995.924147
451.645034,2442.679609,-9030.512492,2528.115143
451.645362,3034.844362,-8734.430116,2221.676944
451.645689,-296.082377,-9104.533087,1685.410096
451.646017,-1554.432478,-8734.430116,1072.533697
451.646344,-2738.761985,-8364.327145,0.000000
451.646672,-2812.782580,-8364.327145,306.438199
451.646999,-1998.556043,-8216.285956,612.876398
451.647327,-1628.453072,-9104.533087,1685.410096
451.647654,-3404.947333,-9252.574275,383.047749
451.647982,-4663.297435,-10066.800811,306.438199
451.648309,-5921.647536,-9992.780217,-766.095498
451.648637,-6291.750507,-8808.450710,-1685.410096
451.648964,-3330.926739,-7846.182985,-1149.143247
451.649292,-1184.329507,-6513.812290,153.219100
451.649619,518.144159,-7105.977043,536.266849
451.649947,222.061783,-7846.182985,383.047749
451.650274,-814.226536,-8438.347739,-229.828649
451.650602,-1480.411884,-8808.450710,-842.705048
451.650929,0.000000,-8734.430116,-306.438199
451.651257,2072.576638,-7994.224174,919.314598
451.651584,4367.215058,-9104.533087,2298.286494
451.651912,4811.338623,-10066.800811,3140.991542
451.652239,3552.988522,-10881.027347,3140.991542
451.652567,1850.514855,-10955.047942,1915.238745
451.652894,222.061783,-10140.821405,1302.362347
451.653222,370.102971,-9844.739029,536.266849
451.653549,1924.535449,-8660.409521,842.705048
451.653877,2664.741391,-7994.224174,306.438199
451.654204,2516.700203,-8660.409521,2068.457845
451.654531,2220.617826,-8216.285956,1378.971896
451.654859,-740.205942,-9104.533087,0.000000
451.655186,-2368.659014,-7846.182985,-919.314598
451.655514,-1998.556043,-7772.162391,-842.705048
451.655841,-1702.473667,-7920.203579,-306.438199
451.656169,-1184.329507,-8808.450710,689.485948
451.656496,-2146.597232,-9326.594869,383.047749
451.656824,-4589.276840,-9622.677246,0.000000
451.657151,-5773.606348,-9844.739029,-1455.581446
451.657479,-5921.647536,-8956.491898,-2068.457845
451.657806,-4219.173869,-7920.203579,-2834.553343
451.658134,-962.267725,-6883.915261,-1302.362347
451.658461,592.164754,-7031.956449,-842.705048
451.658789,814.226536,-7550.100608,0.000000
451.659116,0.000000,-8364.327145,-689.485948
451.659444,-1184.329507,-8956.491898,-1149.143247
451.659771,-148.041188,-8956.491898,-1225.752797
451.660099,1554.432478,-9178.553681,76.609550
451.660426,3849.070898,-9622.677246,1991.848295
451.660754,5033.400406,-10807.006753,2757.943793
451.661081,4441.235652,-11473.192101,3294.210641
451.661409,2516.700203,-12213.398043,2528.115143
451.661736,1110.308913,-11991.336260,1532.190996
451.662064,666.185348,-11325.150913,1149.143247
451.662391,1850.514855,-10510.924376,1455.581446
451.662719,2072.576638,-10066.800811,1455.581446
451.663046,2146.597232,-9770.718434,2834.553343
451.663374,2368.659014,-9696.697840,1532.190996
451.663701,-1628.453072,-9474.636058,842.705048
451.664029,-1554.432478,-8586.388927,0.000000
451.664356,-1850.514855,-7846.182985,0.000000
451.664684,-1776.494261,-8216.285956,612.876398
451.665011,-814.226536,-8808.450710,1685.410096
451.665339,-2220.617826,-9918.759623,1608.800546
451.665667,-4515.256246,-10288.862594,459.657299
451.665994,-5847.626942,-10066.800811,-536.266849
451.666322,-6365.771101,-9696.697840,-1378.971896
451.666649,-5181.441594,-8734.430116,-1378.971896
451.666977,-1850.514855,-7994.224174,-612.876398
451.667304,-148.041188,-7476.080014,0.000000
451.667632,148.041188,-8142.265362,76.609550
451.667960,-666.185348,-8956.491898,-229.828649
451.668287,-1850.514855,-9474.636058,-1991.848295
451.668615,-1480.411884,-9030.512492,-995.924147
451.668942,1332.370696,-8956.491898,-306.438199
451.669270,3404.947333,-8882.471304,1608.800546
451.669597,4885.359217,-9548.656652,2757.943793
451.669925,4367.215058,-10510.924376,3370.820191
451.670252,2072.576638,-10807.006753,2681.334243
451.670580,592.164754,-10955.047942,1838.629195
451.670908,0.000000,-10066.800811,689.485948
451.671235,1258.350101,-9474.636058,1378.971896
451.671563,2812.782580,-8438.347739,2374.896044
451.671890,3552.988522,-7920.203579,2451.505594
451.672218,1776.494261,-8290.306550,2451.505594
451.672545,1480.411884,-7550.100608,1455.581446
451.672873,-888.247130,-7920.203579,536.266849
451.673201,-1776.494261,-6957.935855,612.876398
451.673528,-1184.329507,-7179.997637,383.047749
451.673856,-666.185348,-7624.121203,1685.410096
451.674183,-2220.617826,-9030.512492,1378.971896
451.674511,-3701.029710,-9326.594869,919.314598
451.674838,-6291.750507,-9474.636058,0.000000
451.675166,-7105.977043,-8660.409521,-1378.971896
451.675493,-5551.544565,-7994.224174,-1225.752797
451.675821,-3627.009116,-6883.915261,-1225.752797
451.676149,-1036.288319,-6439.791695,-306.438199
451.676476,-740.205942,-6809.894666,-153.219100
451.676804,-1628.453072,-7105.977043,0.000000
451.677131,-2368.659014,-7846.182985,-2221.676944
451.677459,-2590.720797,-7920.203579,-2068.457845
451.677786,-444.123565,-7920.203579,-1072.533697
451.678114,2368.659014,-8142.265362,383.047749
451.678442,4219.173869,-9178.553681,2298.286494
451.678769,4219.173869,-10214.842000,2221.676944
451.679097,2664.741391,-10881.027347,1762.019645
451.679424,740.205942,-11251.130318,536.266849
451.679752,148.041188,-11029.068536,153.219100
451.680079,1924.535449,-10658.965565,153.219100
451.680407,3923.091493,-9548.656652,919.314598
451.680734,4885.359217,-9992.780217,1225.752797
451.681062,3627.009116,-9770.718434,536.266849
451.681390,1702.473667,-10214.842000,1149.143247
451.681717,1702.473667,-9252.574275,0.000000
451.682045,888.247130,-9770.718434,-536.266849
451.682372,592.164754,-9178.553681,76.609550
451.682700,1036.288319,-10140.821405,612.876398
451.683027,0.000000,-10658.965565,995.924147
451.683355,-2368.659014,-11103.089130,612.876398
451.683683,-3775.050304,-11103.089130,153.219100
451.684010,-5995.668130,-10288.862594,-1072.533697
451.684338,-5477.523971,-9400.615463,-1532.190996
451.684665,-2886.803174,-8216.285956,-995.924147
451.684993,-1776.494261,-7698.141797,-689.485948
451.685320,-518.144159,-7254.018232,0.000000
451.685648,-1776.494261,-8660.409521,-229.828649
451.685975,-2960.823768,-8660.409521,-1455.581446
451.686303,-2812.782580,-8364.327145,-1532.190996
451.686631,-1036.288319,-7920.203579,-612.876398
451.686958,1998.556043,-8290.306550,1149.143247
451.687286,3478.967927,-9104.533087,2451.505594
451.687613,2886.803174,-10214.842000,3524.039291
451.687941,1258.350101,-11621.233289,2987.772442
451.688268,-592.164754,-11843.295072,1838.629195
451.688596,-1110.308913,-11251.130318,1225.752797
451.688924,814.226536,-9992.780217,1838.629195
451.689251,2442.679609,-9474.636058,2221.676944
451.689579,3701.029710,-9548.656652,3370.820191
451.689906,3404.947333,-9104.533087,3524.039291
451.690234,1406.391290,-8142.265362,1608.800546
451.690561,-296.082377,-8068.244768,1915.238745
451.690889,592.164754,-7328.038826,689.485948
451.691216,0.000000,-8586.388927,995.924147
451.691544,0.000000,-7772.162391,1608.800546
451.691872,-296.082377,-8882.471304,2145.067394
451.692199,-2368.659014,-9474.636058,2068.457845
451.692527,-4959.379811,-9400.615463,229.828649
451.692854,-5773.606348,-9326.594869,-459.657299
451.693182,-6291.750507,-8068.244768,-1225.752797
451.693509,-3627.009116,-7254.018232,-1149.143247
451.693837,-2294.638420,-6957.935855,-229.828649
451.694165,-1110.308913,-7105.977043,-689.485948
451.694492,-1332.370696,-7624.121203,-459.657299
451.694820,-2590.720797,-7772.162391,-1532.190996
451.695147,-2664.741391,-7994.224174,-1762.019645
451.695475,-1258.350101,-7846.182985,-1378.971896
451.695802,1036.288319,-7846.182985,76.609550
451.696130,2960.823768,-8956.491898,1455.581446
451.696458,3256.906145,-9918.759623,2068.457845
451.696785,1998.556043,-11473.192101,1608.800546
451.697113,0.000000,-11843.295072,536.266849
451.697440,-888.247130,-11325.150913,459.657299
451.697768,148.041188,-10658.965565,612.876398
451.698095,2886.803174,-10066.800811,1149.143247
451.698423,4737.318029,-9548.656652,1762.019645
451.698750,4515.256246,-9030.512492,2145.067394
451.699078,3256.906145,-9104.533087,1685.410096
451.699406,1776.494261,-9252.574275,1378.971896
451.699733,0.000000,-8882.471304,-459.657299
451.700061,-74.020594,-8808.450710,612.876398
451.700388,1554.432478,-7920.203579,842.705048
451.700716,592.164754,-9770.718434,1762.019645
451.701043,-888.247130,-9548.656652,1991.848295
451.701371,-2590.720797,-10436.903782,689.485948
451.701699,-5329.482782,-10066.800811,-459.657299
451.702026,-5033.400406,-9178.553681,-1532.190996
451.702354,-3775.050304,-8290.306550,-1225.752797
451.702681,-1998.556043,-7550.100608,-306.438199
451.703009,-1258.350101,-7846.182985,-536.266849
451.703336,-1628.453072,-8438.347739,-459.657299
451.703664,-2886.803174,-8586.388927,-1455.581446
451.703991,-3034.844362,-8068.244768,-1762.019645
451.704319,-1850.514855,-7698.141797,-995.924147
451.704647,962.267725,-7476.080014,76.609550
451.704974,2516.700203,-8068.244768,689.485948
451.705302,2738.761985,-9474.636058,1838.629195
451.705629,1184.329507,-10584.944971,1532.190996
451.705957,-518.144159,-11251.130318,842.705048
451.706284,-1184.329507,-11103.089130,76.609550
451.706612,0.000000,-10436.903782,229.828649
451.706940,2294.638420,-9548.656652,1225.752797
451.707267,4145.153275,-9400.615463,2145.067394
451.707595,4663.297435,-9178.553681,2681.334243
451.707922,3552.988522,-9030.512492,2681.334243
451.708250,1850.514855,-8882.471304,1685.410096
451.708577,888.247130,-8882.471304,1378.971896
451.708905,740.205942,-8364.327145,0.000000
451.709232,666.185348,-8586.388927,1608.800546
451.709560,1776.494261,-8142.265362,2374.896044
451.709888,-592.164754,-9770.718434,2451.505594
451.710215,-2590.720797,-10066.800811,1455.581446
451.710543,-3997.112087,-9844.739029,153.219100
451.710870,-4885.359217,-9252.574275,-306.438199
451.711198,-3330.926739,-8512.368333,0.000000
451.711525,-1332.370696,-7846.182985,612.876398
451.711853,-962.267725,-7846.182985,842.705048
451.712181,-1480.411884,-8068.244768,459.657299
451.712508,-2146.597232,-8290.306550,0.000000
451.712836,-3108.864956,-8142.265362,-766.095498
451.713163,-2220.617826,-7179.997637,-459.657299
451.713491,-148.041188,-7476.080014,459.657299
451.713818,1258.350101,-7846.182985,1455.581446
451.714146,1924.535449,-9178.553681,2221.676944
451.714473,444.123565,-10066.800811,2145.067394
451.714801,-962.267725,-10955.047942,919.314598
451.715129,-2812.782580,-10732.986159,76.609550
451.715456,-2072.576638,-10288.862594,0.000000
451.715784,296.082377,-9622.677246,689.485948
451.716111,2368.659014,-9178.553681,1455.581446
451.716439,3034.844362,-9178.553681,1915.238745
451.716766,2738.761985,-9252.574275,1149.143247
451.717094,740.205942,-8734.430116,536.266849
451.717422,0.000000,-8438.347739,76.609550
451.717749,444.123565,-8586.388927,459.657299
451.718077,1110.308913,-8364.327145,153.219100
451.718404,1702.473667,-9178.553681,1915.238745
451.718732,1258.350101,-8808.450710,2068.457845
451.719059,-1332.370696,-10214.842000,1685.410096
451.719387,-3182.885551,-9474.636058,153.219100
451.719714,-3256.906145,-9326.594869,-536.266849
451.720042,-2886.803174,-8512.368333,0.000000
451.720370,-148.041188,-8290.306550,306.438199
451.720697,296.082377,-8438.347739,842.705048
451.721025,-370.102971,-8734.430116,536.266849
451.721352,-1480.411884,-9326.594869,0.000000
451.721680,-2960.823768,-9030.512492,-995.924147
451.722007,-1998.556043,-8216.285956,-1225.752797
451.722335,0.000000,-7846.182985,-383.047749
451.722663,1776.494261,-7772.162391,766.095498
451.722990,2146.597232,-9030.512492,1532.190996
451.723318,740.205942,-9844.739029,1532.190996
451.723645,-1628.453072,-10362.883188,536.266849
451.723973,-3330.926739,-10658.965565,-612.876398
451.724300,-2738.761985,-9992.780217,-766.095498
451.724628,-518.144159,-9252.574275,0.000000
451.724955,1850.514855,-8586.388927,1072.533697
451.725283,3256.906145,-8290.306550,1378.971896
451.725611,2664.741391,-8586.388927,1762.019645
451.725938,814.226536,-8438.347739,919.314598
451.726266,-518.144159,-8808.450710,0.000000
451.726593,-370.102971,-8586.388927,0.000000
451.726921,888.247130,-8068.244768,0.000000
451.727248,1406.391290,-8808.450710,1302.362347
451.727576,1702.473667,-9474.636058,1915.238745
451.727904,-370.102971,-9844.739029,1455.581446
451.728231,-2294.638420,-9548.656652,689.485948
451.728559,-2738.761985,-9474.636058,-536.266849
451.728886,-2294.638420,-8216.285956,-1225.752797
451.729214,-518.144159,-8586.388927,-383.047749
451.729541,740.205942,-8734.430116,229.828649
451.729869,0.000000,-9400.615463,459.657299
451.730196,-1110.308913,-9474.636058,76.609550
451.730524,-2368.659014,-9252.574275,-766.095498
451.730852,-2368.659014,-9104.533087,-1149.143247
451.731179,-592.164754,-8364.327145,-536.266849
451.731507,1036.288319,-8216.285956,459.657299
451.731834,1924.535449,-8882.471304,1378.971896
451.732162,666.185348,-9474.636058,1378.971896
451.732489,-1110.308913,-10584.944971,612.876398
451.732817,-2664.741391,-10510.924376,-306.438199
451.733145,-2738.761985,-10140.821405,-766.095498
451.733472,-740.205942,-9400.615463,0.000000
451.733800,1702.473667,-8586.388927,536.266849
451.734127,2812.782580,-9178.553681,1838.629195
451.734455,2368.659014,-9400.615463,1455.581446
451.734782,962.267725,-9918.759623,995.924147
451.735110,-592.164754,-9844.739029,153.219100
451.735437,0.000000,-9548.656652,0.000000
451.735765,740.205942,-9474.636058,766.095498
451.736093,2146.597232,-9992.780217,1915.238745
451.736420,1776.494261,-10214.842000,2451.505594
451.736748,0.000000,-11251.130318,2221.676944
451.737075,-1554.432478,-10436.903782,1762.019645
451.737403,-2590.720797,-10288.862594,536.266849
451.737730,-1998.556043,-9326.594869,459.657299
451.738058,-592.164754,-8882.471304,1072.533697
451.738386,592.164754,-8734.430116,1685.410096
451.738713,-222.061783,-9030.512492,1225.752797
451.739041,-1110.308913,-9030.512492,1455.581446
451.739368,-2442.679609,-8586.388927,76.609550
451.739696,-2368.659014,-7772.162391,-306.438199
451.740023,-444.123565,-7254.018232,306.438199
451.740351,740.205942,-7402.059420,1455.581446
451.740679,1406.391290,-8438.347739,2068.457845
451.741006,-518.144159,-9770.718434,1991.848295
451.741334,-2738.761985,-10732.986159,1072.533697
451.741661,-4663.297435,-10584.944971,-536.266849
451.741989,-4367.215058,-9918.759623,-612.876398
451.742316,-2072.576638,-8734.430116,-383.047749
451.742644,1258.350101,-8142.265362,842.705048
451.742971,2368.659014,-7772.162391,1838.629195
451.743299,2072.576638,-7994.224174,1762.019645
451.743627,518.144159,-8438.347739,383.047749
451.743954,-666.185348,-8216.285956,-536.266849
451.744282,-1184.329507,-8438.347739,-1225.752797
451.744609,740.205942,-8142.265362,0.000000
451.744937,2220.617826,-8512.368333,1149.143247
451.745264,2516.700203,-9474.636058,2068.457845
451.745592,1110.308913,-9770.718434,1685.410096
451.745920,-296.082377,-9548.656652,842.705048
451.746247,-1258.350101,-8808.450710,-459.657299
451.746575,-1554.432478,-8438.347739,-842.705048
451.746902,222.061783,-7772.162391,-459.657299
451.747230,1332.370696,-7846.182985,459.657299
451.747557,1776.494261,-8586.388927,0.000000
451.747885,518.144159,-8216.285956,306.438199
451.748212,-888.247130,-8586.388927,0.000000
451.748540,-1406.391290,-8068.244768,-766.095498
451.748868,-296.082377,-7920.203579,-459.657299
451.749195,888.247130,-8216.285956,383.047749
451.749523,1184.329507,-8216.285956,1608.800546
451.749850,74.020594,-9844.739029,1149.143247
451.750178,-1850.514855,-10658.965565,842.705048
451.750505,-3404.947333,-10807.006753,-383.047749
451.750833,-3701.029710,-10140.821405,-612.876398
451.751161,-1554.432478,-8956.491898,-689.485948
451.751488,518.144159,-8660.409521,0.000000
451.751816,1332.370696,-8364.327145,919.314598
451.752143,888.247130,-9030.512492,995.924147
451.752471,0.000000,-9326.594869,229.828649
451.752798,-1702.473667,-9030.512492,-1149.143247
451.753126,-1406.391290,-9104.533087,-919.314598
451.753453,0.000000,-8956.491898,153.219100
451.753781,1480.411884,-9252.574275,1378.971896
451.754109,2294.638420,-9622.677246,2528.115143
451.754436,1258.350101,-10140.821405,2145.067394
451.754764,-444.123565,-10436.903782,1455.581446
451.755091,-2294.638420,-10066.800811,229.828649
451.755419,-2072.576638,-9696.697840,0.000000
451.755746,0.000000,-9030.512492,383.047749
451.756074,1110.308913,-9030.512492,1225.752797
451.756402,1036.288319,-9178.553681,1608.800546
451.756729,74.020594,-9696.697840,1455.581446
451.757057,-1258.350101,-8882.471304,459.657299
451.757384,-1924.535449,-8882.471304,-229.828649
451.757712,-518.144159,-7920.203579,229.828649
451.758039,296.082377,-7698.141797,1225.752797
451.758367,1628.453072,-8734.430116,1838.629195
451.758694,74.020594,-9474.636058,1915.238745
451.759022,-1480.411884,-10436.903782,1532.190996
451.759350,-3552.988522,-10140.821405,459.657299
451.759677,-4145.153275,-9622.677246,0.000000
451.760005,-2442.679609,-8808.450710,0.000000
451.760332,-74.020594,-8142.265362,689.485948
451.760660,1184.329507,-7846.182985,1378.971896
451.760987,1258.350101,-8068.244768,1532.190996
451.761315,0.000000,-8512.368333,842.705048
451.761643,-1332.370696,-8660.409521,0.000000
451.761970,-1480.411884,-8512.368333,-612.876398
451.762298,0.000000,-8364.327145,0.000000
451.762625,1332.370696,-8808.450710,1072.533697
451.762953,1924.535449,-9252.574275,2145.067394
451.763280,1702.473667,-9622.677246,2451.505594
451.763608,-296.082377,-9918.759623,842.705048
451.763935,-1776.494261,-9844.739029,0.000000
451.764263,-1702.473667,-8956.491898,-459.657299
451.764591,0.000000,-8512.368333,-229.828649
451.764918,1998.556043,-8068.244768,536.266849
451.765246,1998.556043,-8660.409521,1455.581446
451.765573,1258.350101,-9178.553681,1072.533697
451.765901,0.000000,-8734.430116,459.657299
451.766228,-592.164754,-8586.388927,-153.219100
451.766556,-592.164754,-7698.141797,0.000000
451.766883,1480.411884,-8512.368333,766.095498
451.767211,1702.473667,-9030.512492,1608.800546
451.767538,962.267725,-9844.739029,1838.629195
451.767866,-1110.308913,-10658.965565,1532.190996
451.768193,-2960.823768,-10584.944971,383.047749
451.768521,-3849.070898,-10288.862594,76.609550
451.768849,-3108.864956,-9474.636058,-459.657299
451.769176,-1110.308913,-8586.388927,0.000000
451.769504,444.123565,-8290.306550,383.047749
451.769831,148.041188,-8142.265362,612.876398
451.770159,-518.144159,-8216.285956,-229.828649
451.770486,-2516.700203,-8882.471304,-1149.143247
451.770814,-2960.823768,-8808.450710,-1838.629195
451.771141,-1776.494261,-8956.491898,-1302.362347
451.771469,296.082377,-8734.430116,-229.828649
451.771796,1628.453072,-8956.491898,1072.533697
451.772124,1184.329507,-9696.697840,1072.533697
451.772451,-148.041188,-10214.842000,612.876398
451.772779,-1702.473667,-9992.780217,-459.657299
451.773106,-2072.576638,-9548.656652,-919.314598
451.773434,-148.041188,-9178.553681,0.000000
451.773762,1628.453072,-8882.471304,0.000000
451.774089,2960.823768,-9326.594869,842.705048
451.774417,2294.638420,-9474.636058,1149.143247
451.774744,1036.288319,-9400.615463,229.828649
451.775072,370.102971,-9104.533087,0.000000
451.775399,1332.370696,-8216.285956,-459.657299
451.775727,2072.576638,-8660.409521,689.485948
451.776054,2960.823768,-9178.553681,1838.629195
451.776382,2072.576638,-10362.883188,2374.896044
451.776709,-296.082377,-10807.006753,2298.286494
451.777037,-2146.597232,-11103.089130,1225.752797
451.777364,-3849.070898,-10584.944971,76.609550
451.777692,-2442.679609,-9770.718434,229.828649
451.778019,-518.144159,-8882.471304,842.705048
451.778347,592.164754,-8142.265362,1608.800546
451.778675,148.041188,-8216.285956,2374.896044
451.779002,-666.185348,-8364.327145,1149.143247
451.779330,-2664.741391,-8364.327145,0.000000
451.779657,-3256.906145,-8216.285956,-536.266849
451.779985,-1850.514855,-8290.306550,76.609550
451.780312,-666.185348,-7772.162391,1532.190996
451.780640,740.205942,-8586.388927,2221.676944
451.780967,74.020594,-9622.677246,2451.505594
451.781295,-1258.350101,-9992.780217,1991.848295
451.781622,-2664.741391,-10066.800811,689.485948
451.781950,-2664.741391,-9474.636058,229.828649
451.782277,-814.226536,-8808.450710,76.609550
451.782605,888.247130,-9030.512492,1072.533697
451.782932,1924.535449,-8956.491898,1685.410096
451.783260,1998.556043,-9178.553681,1608.800546
451.783588,1110.308913,-9400.615463,1225.752797
451.783915,222.061783,-9030.512492,459.657299
451.784243,0.000000,-8808.450710,229.828649
451.784570,1332.370696,-8808.450710,919.314598
451.784898,2664.741391,-8882.471304,1991.848295
451.785225,1998.556043,-9992.780217,2145.067394
451.785553,592.164754,-10214.842000,2451.505594
451.785880,-1480.411884,-10584.944971,842.705048
451.786208,-3330.926739,-10140.821405,0.000000
451.786535,-2590.720797,-9252.574275,-995.924147
451.786863,-1184.329507,-8290.306550,0.000000
451.787190,74.020594,-7772.162391,536.266849
451.787518,518.144159,-8216.285956,536.266849
451.787845,-888.247130,-8438.347739,-229.828649
451.788173,-2960.823768,-8142.265362,-1302.362347
451.788501,-3627.009116,-8290.306550,-2145.067394
451.788828,-2664.741391,-7698.141797,-1532.190996
451.789156,-148.041188,-7772.162391,-1378.971896
451.789483,1480.411884,-8068.244768,229.828649
451.789811,1406.391290,-8586.388927,1225.752797
451.790138,148.041188,-9622.677246,842.705048
451.790466,-1480.411884,-10214.842000,0.000000
451.790793,-2368.659014,-10140.821405,-842.705048
451.791121,-1184.329507,-9474.636058,-689.485948
451.791448,814.226536,-9030.512492,0.000000
451.791776,2442.679609,-8808.450710,995.924147
451.792103,2664.741391,-9030.512492,1378.971896
451.792431,1998.556043,-8734.430116,153.219100
451.792758,666.185348,-8438.347739,0.000000
451.793086,740.205942,-7772.162391,-153.219100
451.793414,2368.659014,-7476.080014,1072.533697
451.793741,3775.050304,-8216.285956,1762.019645
451.794069,2738.761985,-9622.677246,3064.381992
451.794396,1258.350101,-10288.862594,1991.848295
451.794724,-1776.494261,-11103.089130,1685.410096
451.795051,-3627.009116,-10732.986159,766.095498
451.795379,-3108.864956,-9992.780217,383.047749
451.795706,-1776.494261,-8956.491898,766.095498
451.796034,-444.123565,-8586.388927,1685.410096
451.796361,-148.041188,-8364.327145,1455.581446
451.796689,-1480.411884,-8512.368333,689.485948
451.797016,-2886.803174,-8438.347739,-689.485948
451.797344,-4367.215058,-7920.203579,-1762.019645
451.797671,-2812.782580,-7698.141797,-1608.800546
451.797999,-1036.288319,-7254.018232,-689.485948
451.798326,518.144159,-7846.182985,766.095498
451.798654,1036.288319,-8808.450710,1762.019645
451.798982,-666.185348,-9622.677246,1225.752797
451.799309,-2220.617826,-10436.903782,459.657299
451.799637,-3330.926739,-10584.944971,-459.657299
451.799964,-2442.679609,-10436.903782,-153.219100
451.800292,0.000000,-9918.759623,306.438199
451.800619,1850.514855,-10066.800811,1532.190996
451.800947,2886.803174,-10066.800811,1991.848295
451.801274,2146.597232,-9844.739029,995.924147
451.801602,1554.432478,-9474.636058,459.657299
451.801929,1184.329507,-8882.471304,306.438199
451.802257,2590.720797,-8586.388927,919.314598
451.802584,4145.153275,-8808.450710,2221.676944
451.802912,3627.009116,-9844.739029,2911.162892
451.803239,2368.659014,-10881.027347,2528.115143
451.803567,-148.041188,-11251.130318,2068.457845
451.803895,-2516.700203,-10732.986159,1302.362347
451.804222,-2738.761985,-10214.842000,689.485948
451.804550,-1184.329507,-9326.594869,1072.533697
451.804877,-1036.288319,-8956.491898,1302.362347
451.805205,-370.102971,-8808.450710,1455.581446
451.805532,-1998.556043,-8734.430116,919.314598
451.805860,-3775.050304,-8512.368333,-306.438199
451.806187,-4367.215058,-7550.100608,-1455.581446
451.806515,-4145.153275,-7402.059420,-1762.019645
451.806842,-2146.597232,-6883.915261,-919.314598
451.807170,-296.082377,-6809.894666,153.219100
451.807497,222.061783,-7328.038826,995.924147
451.807825,-888.247130,-8142.265362,0.000000
451.808152,-2886.803174,-8882.471304,-766.095498
451.808480,-3552.988522,-9548.656652,-1225.752797
451.808808,-2590.720797,-9326.594869,-1072.533697
451.809135,0.000000,-8734.430116,0.000000
451.809463,2664.741391,-8586.388927,1378.971896
451.809790,3627.009116,-9104.533087,1838.629195
451.810118,3182.885551,-9474.636058,1378.971896
451.810445,2220.617826,-9326.594869,612.876398
451.810773,1776.494261,-9104.533087,76.609550
451.811100,2664.741391,-8956.491898,612.876398
451.811428,3997.112087,-8956.491898,1378.971896
451.811755,4293.194464,-9548.656652,2451.505594
451.812083,2812.782580,-10066.800811,2298.286494
451.812410,-296.082377,-10732.986159,1378.971896
451.812738,-1628.453072,-10436.903782,459.657299
451.813065,-2368.659014,-9178.553681,-842.705048
451.813393,-1924.535449,-8512.368333,0.000000
451.813721,-148.041188,-8290.306550,153.219100
451.814048,0.000000,-7994.224174,459.657299
451.814376,-1036.288319,-8586.388927,612.876398
451.814703,-2368.659014,-8068.244768,-229.828649
451.815031,-4219.173869,-8142.265362,-1149.143247
451.815358,-3849.070898,-7994.224174,-1838.629195
451.815686,-2072.576638,-7624.121203,-766.095498
451.816013,-592.164754,-7402.059420,76.609550
451.816341,74.020594,-8734.430116,1378.971896
451.816668,-444.123565,-9474.636058,536.266849
451.816996,-2442.679609,-10066.800811,76.609550
451.817323,-3330.926739,-10362.883188,-766.095498
451.817651,-2442.679609,-9622.677246,-995.924147
451.817978,370.102971,-9474.636058,76.609550
451.818306,2516.700203,-8956.491898,1149.143247
451.818634,3108.864956,-9326.594869,1915.238745
451.818961,2590.720797,-9622.677246,1608.800546
451.819289,1480.411884,-9622.677246,995.924147
451.819616,1036.288319,-9548.656652,459.657299
451.819944,2146.597232,-9548.656652,1608.800546
451.820271,3478.967927,-9548.656652,2374.896044
451.820599,3552.988522,-10214.842000,3140.991542
451.820926,2072.576638,-10881.027347,3064.381992
451.821254,222.061783,-11473.192101,3064.381992
451.821581,-1480.411884,-10732.986159,1532.190996
451.821909,-3108.864956,-10584.944971,1072.533697
451.822236,-1924.535449,-9400.615463,842.705048
451.822564,-1184.329507,-8586.388927,1225.752797
451.822891,-1110.308913,-8364.327145,1378.971896
451.823219,-1406.391290,-8142.265362,842.705048
451.823547,-2516.700203,-7994.224174,306.438199
451.823874,-4145.153275,-7846.182985,-842.705048
451.824202,-4219.173869,-7476.080014,-1608.800546
451.824529,-2590.720797,-7105.977043,-1149.143247
451.824857,-1480.411884,-7328.038826,-229.828649
451.825184,0.000000,-7698.141797,1685.410096
451.825512,-1406.391290,-8734.430116,612.876398
451.825839,-2812.782580,-9400.615463,153.219100
451.826167,-4293.194464,-9696.697840,-842.705048
451.826494,-3627.009116,-9474.636058,-1378.971896
451.826822,-1184.329507,-8956.491898,-459.657299
451.827149,1850.514855,-8660.409521,383.047749
451.827477,3108.864956,-8586.388927,1149.143247
451.827804,3330.926739,-9030.512492,1149.143247
451.828132,2516.700203,-9252.574275,306.438199
451.828460,1702.473667,-9400.615463,-612.876398
451.828787,2664.741391,-8882.471304,229.828649
451.829115,4145.153275,-8808.450710,1225.752797
451.829442,4811.338623,-9474.636058,2221.676944
451.829770,4145.153275,-10510.924376,2681.334243
451.830097,1554.432478,-10881.027347,1378.971896
451.830425,-740.205942,-10955.047942,842.705048
451.830752,-814.226536,-9918.759623,0.000000
451.831080,-814.226536,-9918.759623,76.609550
451.831407,370.102971,-8660.409521,919.314598
451.831735,814.226536,-8734.430116,1072.533697
451.832062,148.041188,-8660.409521,1915.238745
451.832390,-2442.679609,-8660.409521,0.000000
451.832717,-3404.947333,-8438.347739,-766.095498
451.833045,-4589.276840,-7846.182985,-1225.752797
451.833373,-2960.823768,-7698.141797,-1225.752797
451.833700,-1628.453072,-7179.997637,0.000000
451.834028,-1110.308913,-7698.141797,459.657299
451.834355,-1406.391290,-8734.430116,919.314598
451.834683,-3404.947333,-9400.615463,-229.828649
451.835010,-5033.400406,-9548.656652,-1225.752797
451.835338,-4293.194464,-9474.636058,-1685.410096
451.835665,-2368.659014,-8956.491898,-842.705048
451.835993,444.123565,-8956.491898,153.219100
451.836320,2368.659014,-9178.553681,1149.143247
451.836648,2516.700203,-9622.677246,1225.752797
451.836975,1998.556043,-9844.739029,689.485948
451.837303,1332.370696,-9918.759623,229.828649
451.837630,1702.473667,-9770.718434,383.047749
451.837958,3404.947333,-10140.821405,1302.362347
451.838286,4367.215058,-10510.924376,2451.505594
451.838613,4293.194464,-11103.089130,2911.162892
451.838941,2664.741391,-11325.150913,3447.429741
451.839268,74.020594,-10955.047942,766.095498
451.839596,-814.226536,-10658.965565,1455.581446
451.839923,666.185348,-9400.615463,689.485948
451.840251,370.102971,-9770.718434,1225.752797
451.840578,814.226536,-9104.533087,1532.190996
451.840906,0.000000,-8808.450710,1532.190996
451.841233,-2368.659014,-9104.533087,842.705048
451.841561,-3997.112087,-8808.450710,-229.828649
451.841888,-3997.112087,-8364.327145,-383.047749
451.842216,-3923.091493,-7254.018232,-153.219100
451.842543,-1924.535449,-7105.977043,689.485948
451.842871,-1184.329507,-7624.121203,1225.752797
451.843199,-2146.597232,-8068.244768,612.876398
451.843526,-3256.906145,-8808.450710,536.266849
451.843854,-5329.482782,-9252.574275,-995.924147
451.844181,-5551.544565,-8882.471304,-842.705048
451.844509,-3034.844362,-8216.285956,-1225.752797
451.844836,-666.185348,-7920.203579,0.000000
451.845164,1554.432478,-7994.224174,766.095498
451.845491,2146.597232,-8364.327145,1149.143247
451.845819,1480.411884,-8068.244768,995.924147
451.846146,962.267725,-8512.368333,76.609550
451.846474,1406.391290,-8586.388927,0.000000
451.846801,3034.844362,-8734.430116,995.924147
451.847129,4663.297435,-9178.553681,2145.067394
451.847456,4885.359217,-10214.842000,3064.381992
451.847784,3997.112087,-10510.924376,2604.724693
451.848112,1332.370696,-10732.986159,1838.629195
451.848439,-1110.308913,-10362.883188,0.000000
451.848767,-370.102971,-9622.677246,995.924147
451.849094,2220.617826,-8438.347739,383.047749
451.849422,1480.411884,-8882.471304,1532.190996
451.849749,1406.391290,-8586.388927,995.924147
451.850077,-296.082377,-8512.368333,612.876398
451.850404,-2664.741391,-8660.409521,-459.657299
451.850732,-3552.988522,-7920.203579,-1302.362347
451.851059,-2812.782580,-8142.265362,-689.485948
451.851387,-2220.617826,-7920.203579,-306.438199
451.851714,-1258.350101,-8290.306550,229.828649
451.852042,-2072.576638,-9030.512492,689.485948
451.852369,-3552.988522,-9696.697840,-459.657299
451.852697,-4663.297435,-9918.759623,-1378.971896
451.853025,-5773.606348,-9474.636058,-2451.505594
451.853352,-3404.947333,-9030.512492,-1915.238745
451.853680,-740.205942,-8438.347739,-842.705048
451.854007,1258.350101,-8216.285956,153.219100
451.854335,2368.659014,-8882.471304,766.095498
451.854662,1628.453072,-9030.512492,536.266849
451.854990,814.226536,-9622.677246,0.000000
451.855317,1110.308913,-9918.759623,76.609550
451.855645,2812.782580,-9992.780217,1149.143247
451.855972,4515.256246,-10584.944971,2757.943793
451.856300,5329.482782,-11399.171507,3370.820191
451.856627,4071.132681,-11621.233289,3830.477490
451.856955,2368.659014,-11473.192101,2911.162892
451.857282,592.164754,-10436.903782,2145.067394
451.857610,740.205942,-9548.656652,1608.800546
451.857938,-222.061783,-9178.553681,1149.143247
451.858265,1258.350101,-8882.471304,1762.019645
451.858593,518.144159,-8068.244768,2298.286494
451.858920,-1998.556043,-8290.306550,1532.190996
451.859248,-3034.844362,-8364.327145,229.828649
451.859575,-4293.194464,-7624.121203,0.000000
451.859903,-4145.153275,-7624.121203,-612.876398
451.860230,-2590.720797,-7105.977043,0.000000
451.860558,-2368.659014,-7550.100608,842.705048
451.860885,-2664.741391,-8364.327145,919.314598
451.861213,-4441.235652,-8216.285956,383.047749
451.861540,-5847.626942,-9252.574275,-842.705048
451.861868,-5921.647536,-8734.430116,-2145.067394
451.862195,-4145.153275,-7550.100608,-1378.971896
451.862523,-888.247130,-7179.997637,-766.095498
451.862851,1406.391290,-7254.018232,229.828649
451.863178,2072.576638,-8068.244768,766.095498
451.863506,1628.453072,-8586.388927,229.828649
451.863833,740.205942,-9104.533087,0.000000
451.864161,962.267725,-9400.615463,-536.266849
451.864488,2664.741391,-9326.594869,306.438199
451.864816,4959.379811,-9474.636058,1685.410096
451.865143,5625.565159,-10214.842000,2528.115143
451.865471,4885.359217,-11251.130318,2681.334243
451.865798,2368.659014,-11399.171507,1991.848295
451.866126,666.185348,-10955.047942,919.314598
451.866453,-666.185348,-10214.842000,-536.266849
451.866781,888.247130,-9844.739029,842.705048
451.867108,3034.844362,-8438.347739,766.095498
451.867435,1110.308913,-9326.594869,1225.752797
451.867763,1036.288319,-9104.533087,919.314598
451.868090,-1628.453072,-8660.409521,612.876398
451.868418,-3404.947333,-8808.450710,-536.266849
451.868745,-3478.967927,-8142.265362,-1378.971896
451.869073,-2442.679609,-8364.327145,-306.438199
451.869400,-2072.576638,-8438.347739,306.438199
451.869727,-1850.514855,-8882.471304,612.876398
451.870055,-2960.823768,-9326.594869,689.485948
451.870382,-4515.256246,-9548.656652,-1072.533697
451.870710,-5329.482782,-9770.718434,-1608.800546
451.871037,-4293.194464,-8956.491898,-1915.238745
451.871365,-1554.432478,-8290.306550,-1149.143247
451.871692,444.123565,-8068.244768,0.000000
451.872019,1406.391290,-8660.409521,383.047749
451.872347,1184.329507,-9474.636058,766.095498
451.872674,148.041188,-9844.739029,0.000000
451.873002,148.041188,-9992.780217,229.828649
451.873329,1850.514855,-10066.800811,766.095498
451.873657,3849.070898,-10140.821405,1915.238745
451.873984,4441.235652,-10807.006753,3217.601092
451.874311,3775.050304,-11769.274478,3064.381992
451.874639,2072.576638,-11769.274478,2681.334243
451.874966,592.164754,-11473.192101,1608.800546
451.875294,222.061783,-10288.862594,1225.752797
451.875621,1258.350101,-9252.574275,1149.143247
451.875949,592.164754,-9030.512492,1608.800546
451.876276,2146.597232,-9400.615463,1991.848295
451.876603,444.123565,-9104.533087,1915.238745
451.876931,-2368.659014,-8216.285956,1455.581446
451.877258,-3404.947333,-8586.388927,0.000000
451.877586,-3256.906145,-7920.203579,-459.657299
451.877913,-2664.741391,-8216.285956,76.609550
451.878241,-962.267725,-7920.203579,1149.143247
451.878568,-1776.494261,-8438.347739,995.924147
451.878895,-2664.741391,-9474.636058,995.924147
451.879223,-4737.318029,-9474.636058,-229.828649
451.879550,-5477.523971,-9474.636058,-1378.971896
451.879878,-4367.215058,-8364.327145,-1838.629195
451.880205,-1702.473667,-7254.018232,-383.047749
451.880532,592.164754,-7105.977043,153.219100
451.880860,1776.494261,-7328.038826,383.047749
451.881187,1184.329507,-7994.224174,0.000000
451.881515,296.082377,-8364.327145,-536.266849
451.881842,0.000000,-8512.368333,-459.657299
451.882170,1554.432478,-8586.388927,-306.438199
451.882497,3701.029710,-8734.430116,1149.143247
451.882824,4885.359217,-9400.615463,2451.505594
451.883152,4219.173869,-10584.944971,2834.553343
451.883479,2664.741391,-11325.150913,2374.896044
451.883807,814.226536,-10881.027347,766.095498
451.884134,148.041188,-10288.862594,612.876398
451.884462,296.082377,-9474.636058,76.609550
451.884789,2220.617826,-9178.553681,1685.410096
451.885116,3404.947333,-8586.388927,1072.533697
451.885444,518.144159,-7698.141797,1762.019645
451.885771,296.082377,-8068.244768,612.876398
451.886099,-1998.556043,-7772.162391,-229.828649
451.886426,-3034.844362,-7476.080014,-842.705048
451.886754,-1480.411884,-7402.059420,-229.828649
451.887081,-1036.288319,-7772.162391,1302.362347
451.887408,-1628.453072,-8290.306550,1149.143247
451.887736,-2886.803174,-9844.739029,919.314598
451.888063,-5033.400406,-9992.780217,0.000000
451.888391,-6217.729913,-9474.636058,-1532.190996
451.888718,-4959.379811,-8586.388927,-1608.800546
451.889046,-2664.741391,-7550.100608,-1762.019645
451.889373,-518.144159,-7254.018232,0.000000
451.889700,666.185348,-7624.121203,229.828649
451.890028,370.102971,-8216.285956,0.000000
451.890355,-592.164754,-8808.450710,-306.438199
451.890683,-592.164754,-9178.553681,-383.047749
451.891010,222.061783,-9252.574275,-536.266849
451.891338,2368.659014,-9474.636058,1072.533697
451.891665,3997.112087,-10288.862594,2298.286494
451.891992,3627.009116,-10955.047942,2911.162892
451.892320,2812.782580,-11843.295072,2298.286494
451.892647,666.185348,-11251.130318,1762.019645
451.892975,0.000000,-11177.109724,842.705048
451.893302,444.123565,-10288.862594,995.924147
451.893629,1332.370696,-9400.615463,459.657299
451.893957,2368.659014,-9178.553681,2145.067394
451.894284,2738.761985,-8734.430116,2068.457845
451.894612,222.061783,-9474.636058,919.314598
451.894939,-1258.350101,-8364.327145,383.047749
451.895267,-1850.514855,-8512.368333,-229.828649
451.895594,-1406.391290,-8068.244768,229.828649
451.895921,-666.185348,-8512.368333,612.876398
451.896249,-518.144159,-9030.512492,1762.019645
451.896576,-2516.700203,-9770.718434,995.924147
451.896904,-4219.173869,-9992.780217,229.828649
451.897231,-5551.544565,-9696.697840,-612.876398
451.897559,-5847.626942,-8734.430116,-1072.533697
451.897886,-2442.679609,-8142.265362,-766.095498
451.898213,-1110.308913,-7476.080014,-153.219100
451.898541,222.061783,-7624.121203,153.219100
451.898868,222.061783,-8216.285956,0.000000
451.899196,-1406.391290,-7920.203579,-306.438199
451.899523,-1406.391290,-8956.491898,-1072.533697
451.899851,-962.267725,-8882.471304,-536.266849
451.900178,1258.350101,-8882.471304,306.438199
451.900505,2812.782580,-9104.533087,1838.629195
451.900833,3108.864956,-9918.759623,2681.334243
451.901160,2146.597232,-10807.006753,2834.553343
451.901488,296.082377,-11103.089130,1455.581446
451.901815,-592.164754,-10732.986159,383.047749
451.902143,518.144159,-9400.615463,459.657299
451.902470,2220.617826,-8808.450710,1225.752797
451.902797,2812.782580,-8216.285956,1532.190996
451.903125,2960.823768,-8438.347739,2145.067394
451.903452,2368.659014,-7994.224174,1378.971896
451.903780,-592.164754,-8364.327145,536.266849
451.904107,-518.144159,-7772.162391,0.000000
451.904435,-888.247130,-7328.038826,612.876398
451.904762,-222.061783,-8364.327145,995.924147
451.905089,-814.226536,-8882.471304,1378.971896
451.905417,-1924.535449,-9622.677246,1608.800546
451.905744,-4071.132681,-9844.739029,383.047749
451.906072,-5181.441594,-9770.718434,-383.047749
451.906399,-5551.544565,-8438.347739,-1378.971896
451.906727,-3775.050304,-8142.265362,-1225.752797
451.907054,-1184.329507,-7105.977043,-995.924147
451.907381,74.020594,-7328.038826,0.000000
451.907709,74.020594,-7994.224174,-153.219100
451.908036,-740.205942,-7994.224174,-306.438199
451.908364,-1924.535449,-8660.409521,-1455.581446
451.908691,-962.267725,-8808.450710,-995.924147
451.909018,962.267725,-8956.491898,459.657299
451.909346,2442.679609,-9474.636058,1915.238745
451.909673,3182.885551,-10362.883188,2145.067394
451.910001,2368.659014,-11325.150913,2298.286494
451.910328,1036.288319,-11621.233289,1838.629195
451.910656,0.000000,-11399.171507,766.095498
451.910983,518.144159,-10436.903782,612.876398
451.911310,2146.597232,-9622.677246,1149.143247
451.911638,3256.906145,-9474.636058,1915.238745
451.911965,2886.803174,-9178.553681,1378.971896
451.912293,1554.432478,-9400.615463,1685.410096
451.912620,814.226536,-8956.491898,689.485948
451.912948,-1036.288319,-9474.636058,0.000000
451.913275,-1258.350101,-8290.306550,612.876398
451.913602,-148.041188,-9030.512492,842.705048
451.913930,-444.123565,-9326.594869,1991.848295
451.914257,-1776.494261,-10214.842000,1838.629195
451.914585,-3478.967927,-10510.924376,1072.533697
451.914912,-5551.544565,-10066.800811,153.219100
451.915240,-5773.606348,-9400.615463,-995.924147
451.915567,-3923.091493,-8364.327145,-1149.143247
451.915894,-2146.597232,-7550.100608,-536.266849
451.916222,-222.061783,-7402.059420,0.000000
451.916549,-740.205942,-7402.059420,76.609550
451.916877,-1184.329507,-7772.162391,-689.485948
451.917204,-1998.556043,-7920.203579,-1455.581446
451.917532,-1332.370696,-8216.285956,-1225.752797
451.917859,740.205942,-8216.285956,0.000000
451.918186,3108.864956,-8882.471304,1378.971896
451.918514,2886.803174,-9696.697840,2374.896044
451.918841,2368.659014,-11251.130318,2374.896044
451.919169,814.226536,-11695.253884,1378.971896
451.919496,-444.123565,-11251.130318,306.438199
451.919824,222.061783,-10807.006753,229.828649
451.920151,2442.679609,-9844.739029,1302.362347
451.920478,3775.050304,-9104.533087,1455.581446
451.920806,4441.235652,-8734.430116,2374.896044
451.921133,3552.988522,-8660.409521,2298.286494
451.921461,518.144159,-8512.368333,459.657299
451.921788,-296.082377,-8142.265362,459.657299
451.922115,-370.102971,-7476.080014,229.828649
451.922443,-296.082377,-8290.306550,919.314598
451.922770,0.000000,-8734.430116,1378.971896
451.923098,-666.185348,-9474.636058,1838.629195
451.923425,-3330.926739,-9918.759623,1378.971896
451.923753,-5033.400406,-9696.697840,0.000000
451.924080,-5995.668130,-9474.636058,-919.314598
451.924407,-4811.338623,-8142.265362,-1608.800546
451.924735,-2664.741391,-7402.059420,-919.314598
451.925062,-888.247130,-6957.935855,-229.828649
451.925390,-666.185348,-7550.100608,-306.438199
451.925717,-1258.350101,-7624.121203,-383.047749
451.926045,-2368.659014,-7846.182985,-1225.752797
451.926372,-1850.514855,-7920.203579,-1225.752797
451.926699,0.000000,-8142.265362,-689.485948
451.927027,1628.453072,-8808.450710,919.314598
451.927354,2368.659014,-9844.739029,2068.457845
451.927682,2072.576638,-10955.047942,2451.505594
451.928009,740.205942,-11621.233289,1762.019645
451.928337,-148.041188,-11399.171507,919.314598
451.928664,296.082377,-10436.903782,1149.143247
451.928991,2146.597232,-9622.677246,1149.143247
451.929319,3627.009116,-9400.615463,1455.581446
451.929646,3701.029710,-8956.491898,1608.800546
451.929974,2738.761985,-8808.450710,1762.019645
451.930301,2146.597232,-8586.388927,1455.581446
451.930629,0.000000,-8364.327145,0.000000
451.930956,-1110.308913,-8660.409521,842.705048
451.931283,666.185348,-8216.285956,689.485948
451.931611,222.061783,-9622.677246,1838.629195
451.931938,-518.144159,-9844.739029,2145.067394
451.932266,-1924.535449,-10214.842000,1072.533697
451.932593,-4737.318029,-10510.924376,153.219100
451.932921,-5181.441594,-9918.759623,-689.485948
451.933248,-4145.153275,-9030.512492,-689.485948
451.933575,-2368.659014,-7476.080014,-689.485948
451.933903,-888.247130,-7179.997637,76.609550
451.934230,-518.144159,-7920.203579,-229.828649
451.934558,-1406.391290,-8216.285956,-459.657299
451.934885,-2442.679609,-7994.224174,-1072.533697
451.935212,-2368.659014,-8068.244768,-1225.752797
451.935540,-444.123565,-7994.224174,-229.828649
451.935867,1406.391290,-8734.430116,919.314598
451.936195,2294.638420,-9474.636058,2298.286494
451.936522,1628.453072,-10362.883188,2451.505594
451.936850,444.123565,-11177.109724,2145.067394
451.937177,-1110.308913,-11029.068536,1149.143247
451.937504,-1184.329507,-10658.965565,459.657299
451.937832,592.164754,-9770.718434,536.266849
451.938159,2294.638420,-9252.574275,1302.362347
451.938487,3108.864956,-9104.533087,1991.848295
451.938814,2664.741391,-9104.533087,1532.190996
451.939142,888.247130,-8808.450710,536.266849
451.939469,0.000000,-8660.409521,0.000000
451.939796,222.061783,-8068.244768,-229.828649
451.940124,-518.144159,-8734.430116,306.438199
451.940451,1628.453072,-9178.553681,1378.971896
451.940779,370.102971,-9326.594869,2145.067394
451.941106,-1258.350101,-10214.842000,1685.410096
451.941434,-2590.720797,-9844.739029,612.876398
451.941761,-3923.091493,-9622.677246,0.000000
451.942088,-3552.988522,-8586.388927,-689.485948
451.942416,-1998.556043,-7624.121203,-919.314598
451.942743,-518.144159,-7550.100608,153.219100
451.943071,-444.123565,-7624.121203,306.438199
451.943398,-962.267725,-8068.244768,-459.657299
451.943726,-2442.679609,-7920.203579,-1149.143247
451.944053,-2368.659014,-7402.059420,-612.876398
451.944380,-740.205942,-7624.121203,-995.924147
451.944708,888.247130,-7846.182985,153.219100
451.945035,2072.576638,-8956.491898,1149.143247
451.945363,1702.473667,-9992.780217,1455.581446
451.945690,0.000000,-10955.047942,1149.143247
451.946018,-1924.535449,-10955.047942,153.219100
451.946345,-2294.638420,-10732.986159,-153.219100
451.946672,-444.123565,-10140.821405,-153.219100
451.947000,1924.535449,-9474.636058,842.705048
451.947327,3182.885551,-9178.553681,1532.190996
451.947655,2812.782580,-8438.347739,1685.410096
451.947982,1628.453072,-8808.450710,1149.143247
451.948310,0.000000,-8734.430116,-612.876398
451.948637,74.020594,-8142.265362,0.000000
451.948964,1998.556043,-8068.244768,306.438199
451.949292,1924.535449,-8808.450710,1455.581446
451.949619,2146.597232,-9400.615463,2451.505594
451.949947,370.102971,-9474.636058,2145.067394
451.950274,-1554.432478,-10140.821405,1302.362347
451.950601,-3330.926739,-9844.739029,229.828649
451.950929,-3108.864956,-9400.615463,689.485948
451.951256,-2368.659014,-8660.409521,229.828649
451.951584,-1036.288319,-8660.409521,766.095498
451.951911,-1110.308913,-8586.388927,995.924147
451.952239,-2072.576638,-8956.491898,459.657299
451.952566,-2738.761985,-8586.388927,-306.438199
451.952893,-3108.864956,-7920.203579,-842.705048
451.953221,-2072.576638,-7328.038826,-842.705048
451.953548,0.000000,-7254.018232,0.000000
451.953876,1110.308913,-8216.285956,842.705048
451.954203,814.226536,-9474.636058,1608.800546
451.954531,-518.144159,-10362.883188,1225.752797
451.954858,-2590.720797,-10881.027347,229.828649
451.955185,-2812.782580,-10658.965565,0.000000
451.955513,-1406.391290,-10066.800811,-229.828649
451.955840,814.226536,-9548.656652,995.924147
451.956168,2590.720797,-9400.615463,1302.362347
451.956495,2664.741391,-9474.636058,1762.019645
451.956823,2072.576638,-9400.615463,1302.362347
451.957150,296.082377,-8808.450710,0.000000
451.957477,370.102971,-8586.388927,-306.438199
451.957805,1406.391290,-8142.265362,0.000000
451.958132,2442.679609,-8956.491898,919.314598
451.958460,2886.803174,-9474.636058,1608.800546
451.958787,2072.576638,-10214.842000,1915.238745
451.959115,-444.123565,-10362.883188,1455.581446
451.959442,-1480.411884,-10584.944971,383.047749
451.959769,-2294.638420,-9918.759623,153.219100
451.960097,-1628.453072,-9326.594869,0.000000
451.960424,-74.020594,-8734.430116,689.485948
451.960752,-370.102971,-8956.491898,995.924147
451.961079,-740.205942,-8660.409521,766.095498
451.961407,-1924.535449,-8216.285956,-306.438199
451.961734,-2960.823768,-8142.265362,-1225.752797
451.962061,-1702.473667,-7179.997637,-1072.533697
451.962389,74.020594,-7402.059420,76.609550
451.962716,888.247130,-7624.121203,766.095498
451.963044,592.164754,-9252.574275,1685.410096
451.963371,-1332.370696,-10066.800811,919.314598
451.963698,-2738.761985,-11029.068536,459.657299
451.964026,-3478.967927,-10584.944971,-383.047749
451.964353,-2072.576638,-9992.780217,0.000000
451.964681,740.205942,-9104.533087,766.095498
451.965008,2368.659014,-8808.450710,1991.848295
451.965336,2442.679609,-9178.553681,1762.019645
451.965663,1628.453072,-9104.533087,1072.533697
451.965990,74.020594,-9030.512492,0.000000
451.966318,0.000000,-8808.450710,-459.657299
451.966645,814.226536,-8290.306550,229.828649
451.966973,2072.576638,-8660.409521,995.924147
451.967300,2294.638420,-8956.491898,1532.190996
451.967628,1554.432478,-9918.759623,2221.676944
451.967955,-148.041188,-9992.780217,1532.190996
451.968283,-1924.535449,-10140.821405,612.876398
451.968610,-2442.679609,-9696.697840,-229.828649
451.968937,-1554.432478,-9178.553681,76.609550
451.969265,-148.041188,-8808.450710,536.266849
451.969592,370.102971,-8882.471304,919.314598
451.969920,222.061783,-8882.471304,995.924147
451.970247,-1480.411884,-8882.471304,76.609550
451.970575,-2294.638420,-8364.327145,-842.705048
451.970902,-1702.473667,-7846.182985,-766.095498
451.971230,-222.061783,-7476.080014,-229.828649
451.971557,962.267725,-7698.141797,842.705048
451.971885,444.123565,-8882.471304,1302.362347
451.972212,-888.247130,-10066.800811,919.314598
451.972540,-2516.700203,-10288.862594,-229.828649
451.972867,-3404.947333,-10214.842000,-306.438199
451.973195,-2220.617826,-9474.636058,-153.219100
451.973522,0.000000,-8808.450710,459.657299
451.973849,1776.494261,-9030.512492,1455.581446
451.974177,1776.494261,-8882.471304,1685.410096
451.974504,962.267725,-9474.636058,1225.752797
451.974832,-296.082377,-9030.512492,153.219100
451.975159,-814.226536,-8734.430116,0.000000
451.975487,74.020594,-8956.491898,76.609550
451.975814,1924.535449,-8956.491898,842.705048
451.976142,2516.700203,-9474.636058,1915.238745
451.976469,1850.514855,-10140.821405,2221.676944
451.976797,444.123565,-10584.944971,1838.629195
451.977124,-1924.535449,-10214.842000,536.266849
451.977452,-2738.761985,-9622.677246,0.000000
451.977779,-1332.370696,-8956.491898,0.000000
451.978106,222.061783,-8882.471304,766.095498
451.978434,1184.329507,-9104.533087,842.705048
451.978761,962.267725,-9030.512492,1608.800546
451.979089,-444.123565,-9178.553681,919.314598
451.979416,-1702.473667,-8734.430116,0.000000
451.979744,-1480.411884,-8512.368333,-76.609550
451.980071,-444.123565,-8068.244768,306.438199
451.980399,888.247130,-7920.203579,1149.143247
451.980726,518.144159,-9252.574275,1685.410096
451.981054,-222.061783,-9622.677246,1838.629195
451.981381,-2072.576638,-9918.759623,1072.533697
451.981709,-3034.844362,-9622.677246,229.828649
451.982036,-2664.741391,-9178.553681,-536.266849
451.982363,-1036.288319,-8660.409521,76.609550
451.982691,74.020594,-8734.430116,689.485948
451.983018,592.164754,-8734.430116,919.314598
451.983346,-222.061783,-9030.512492,536.266849
451.983673,-1406.391290,-8956.491898,0.000000
451.984001,-1776.494261,-8808.450710,-689.485948
451.984328,-814.226536,-8438.347739,-459.657299
451.984656,1258.350101,-8364.327145,306.438199
451.984983,2368.659014,-8734.430116,1378.971896
451.985311,2146.597232,-9252.574275,1915.238745
451.985638,888.247130,-9770.718434,1608.800546
451.985966,-1184.329507,-9992.780217,306.438199
451.986293,-1776.494261,-9696.697840,0.000000
451.986621,-962.267725,-9178.553681,0.000000
451.986948,296.082377,-8734.430116,689.485948
451.987275,1554.432478,-8586.388927,1608.800546
451.987603,1110.308913,-9252.574275,1302.362347
451.987930,0.000000,-9252.574275,612.876398
451.988258,-1184.329507,-8956.491898,-459.657299
451.988585,-1184.329507,-8660.409521,-383.047749
451.988913,888.247130,-8142.265362,306.438199
451.989240,1702.473667,-8364.327145,842.705048
451.989568,1776.494261,-9178.553681,1378.971896
451.989895,444.123565,-9844.739029,1608.800546
451.990223,-1702.473667,-9992.780217,766.095498
451.990550,-3552.988522,-9548.656652,76.609550
451.990878,-2738.761985,-9696.697840,-842.705048
451.991205,-1480.411884,-8660.409521,0.000000
451.991532,296.082377,-8438.347739,612.876398
451.991860,814.226536,-8512.368333,1072.533697
451.992187,296.082377,-8512.368333,612.876398
451.992515,-1036.288319,-8512.368333,-229.828649
451.992842,-1924.535449,-8586.388927,-689.485948
451.993170,-1480.411884,-8364.327145,-766.095498
451.993497,444.123565,-8216.285956,76.609550
451.993825,1776.494261,-8808.450710,1072.533697
451.994152,1924.535449,-9104.533087,1532.190996
451.994480,518.144159,-9622.677246,1608.800546
451.994807,-1258.350101,-10436.903782,842.705048
451.995135,-2368.659014,-10510.924376,0.000000
451.995462,-1998.556043,-9770.718434,0.000000
451.995789,-518.144159,-9104.533087,536.266849
451.996117,1406.391290,-8882.471304,1149.143247
451.996444,592.164754,-9252.574275,995.924147
451.996772,0.000000,-9178.553681,536.266849
451.997099,-1110.308913,-8956.491898,-383.047749
451.997427,-888.247130,-8216.285956,-229.828649
451.997754,518.144159,-7772.162391,0.000000
451.998082,1924.535449,-8068.244768,919.314598
451.998409,1850.514855,-9030.512492,1762.019645
451.998737,666.185348,-10288.862594,1838.629195
451.999064,-1332.370696,-10732.986159,1608.800546
451.999392,-3182.885551,-10066.800811,612.876398
451.999719,-3182.885551,-9992.780217,0.000000
452.000046,-1406.391290,-9400.615463,383.047749
452.000374,222.061783,-8586.388927,919.314598
452.000701,888.247130,-8512.368333,1302.362347
452.001029,592.164754,-8438.347739,995.924147
452.001356,-888.247130,-8882.471304,306.438199
452.001684,-2220.617826,-8660.409521,-766.095498
452.002011,-1776.494261,-8438.347739,-919.314598
452.002339,148.041188,-8438.347739,0.000000
452.002666,1554.432478,-8216.285956,1072.533697
452.002994,1850.514855,-9252.574275,1838.629195
452.003321,814.226536,-9992.780217,1762.019645
452.003649,-962.267725,-10510.924376,1149.143247
452.003976,-2294.638420,-10732.986159,76.609550
452.004304,-1998.556043,-9696.697840,0.000000
452.004631,-518.144159,-9030.512492,842.705048
452.004958,1184.329507,-9178.553681,1378.971896
452.005286,1702.473667,-9252.574275,1532.190996
452.005613,444.123565,-8882.471304,1072.533697
452.005941,-370.102971,-8364.327145,689.485948
452.006268,-592.164754,-7698.141797,153.219100
452.006596,296.082377,-7105.977043,153.219100
452.006923,1924.535449,-7179.997637,1225.752797
452.007251,1924.535449,-8142.265362,1838.629195
452.007578,814.226536,-9474.636058,2068.457845
452.007906,-962.267725,-9992.780217,2221.676944
452.008233,-2886.803174,-10214.842000,842.705048
452.008561,-3849.070898,-10140.821405,0.000000
452.008888,-2442.679609,-9400.615463,0.000000
452.009215,-1036.288319,-9104.533087,536.266849
452.009543,0.000000,-8660.409521,1225.752797
452.009870,-666.185348,-8956.491898,766.095498
452.010198,-1850.514855,-8808.450710,0.000000
452.010525,-3108.864956,-8512.368333,-1455.581446
452.010853,-2368.659014,-7846.182985,-1685.410096
452.011180,-444.123565,-7254.018232,-536.266849
452.011508,1924.535449,-7624.121203,0.000000
452.011835,2072.576638,-8660.409521,1378.971896
452.012163,888.247130,-9400.615463,1072.533697
452.012490,-740.205942,-10362.883188,459.657299
452.012818,-2368.659014,-10510.924376,-306.438199
452.013145,-1850.514855,-10066.800811,-766.095498
452.013472,74.020594,-9622.677246,76.609550
452.013800,1850.514855,-9474.636058,842.705048
452.014127,2516.700203,-9474.636058,1532.190996
452.014455,1998.556043,-9474.636058,995.924147
452.014782,296.082377,-8956.491898,383.047749
452.015110,0.000000,-8438.347739,-229.828649
452.015437,1184.329507,-8216.285956,-153.219100
452.015765,2368.659014,-8512.368333,689.485948
452.016092,2442.679609,-9030.512492,1762.019645
452.016420,1850.514855,-9770.718434,2451.505594
452.016747,-296.082377,-10436.903782,1378.971896
452.017075,-2368.659014,-10658.965565,306.438199
452.017402,-3330.926739,-10214.842000,76.609550
452.017730,-2664.741391,-9326.594869,0.000000
452.018057,-962.267725,-8438.347739,766.095498
452.018384,222.061783,-8438.347739,1225.752797
452.018712,-962.267725,-8882.471304,842.705048
452.019039,-2146.597232,-8956.491898,0.000000
452.019367,-3256.906145,-8808.450710,-766.095498
452.019694,-3034.844362,-7994.224174,-1225.752797
452.020022,-1036.288319,-7550.100608,-919.314598
452.020349,888.247130,-7254.018232,612.876398
452.020677,1406.391290,-8068.244768,1378.971896
452.021004,518.144159,-9030.512492,1302.362347
452.021332,-1184.329507,-9918.759623,842.705048
452.021659,-2368.659014,-10066.800811,-229.828649
452.021987,-2294.638420,-9918.759623,0.000000
452.022314,-222.061783,-9474.636058,0.000000
452.022641,1702.473667,-9178.553681,995.924147
452.022969,2886.803174,-9326.594869,2221.676944
452.023296,2664.741391,-8956.491898,1991.848295
452.023624,1628.453072,-8808.450710,1072.533697
452.023951,296.082377,-8660.409521,459.657299
452.024279,1184.329507,-8660.409521,919.314598
452.024606,2072.576638,-8290.306550,919.314598
452.024934,2294.638420,-9104.533087,2374.896044
452.025261,1776.494261,-9770.718434,2757.943793
452.025589,-444.123565,-10955.047942,1991.848295
452.025916,-2590.720797,-10584.944971,1149.143247
452.026244,-3256.906145,-10066.800811,0.000000
452.026571,-2442.679609,-8956.491898,76.609550
452.026898,-1184.329507,-7920.203579,0.000000
452.027226,-222.061783,-8068.244768,766.095498
452.027553,-740.205942,-8290.306550,306.438199
452.027881,-1850.514855,-8512.368333,76.609550
452.028208,-3182.885551,-8068.244768,-919.314598
452.028536,-3182.885551,-7698.141797,-1532.190996
452.028863,-1480.411884,-7550.100608,-689.485948
452.029191,0.000000,-7994.224174,229.828649
452.029518,592.164754,-8660.409521,1149.143247
452.029846,0.000000,-9474.636058,1072.533697
452.030173,-1480.411884,-10362.883188,612.876398
452.030501,-3034.844362,-10510.924376,-459.657299
452.030828,-2516.700203,-10140.821405,-919.314598
452.031155,-370.102971,-9474.636058,-459.657299
452.031483,2072.576638,-9178.553681,536.266849
452.031810,3552.988522,-9252.574275,1608.800546
452.032138,3404.947333,-9548.656652,1378.971896
452.032465,1998.556043,-9474.636058,1072.533697
452.032793,888.247130,-9474.636058,229.828649
452.033120,1036.288319,-9326.594869,459.657299
452.033448,2368.659014,-9474.636058,1378.971896
452.033775,3404.947333,-9622.677246,2451.505594
452.034103,2516.700203,-10510.924376,2834.553343
452.034430,1184.329507,-10584.944971,2374.896044
452.034758,-1258.350101,-10881.027347,1532.190996
452.035085,-2516.700203,-10140.821405,612.876398
452.035413,-2220.617826,-9474.636058,766.095498
452.035740,-1702.473667,-9104.533087,536.266849
452.036067,-814.226536,-8660.409521,383.047749
452.036395,-1258.350101,-8882.471304,612.876398
452.036722,-2220.617826,-8882.471304,0.000000
452.037050,-3923.091493,-8438.347739,-1149.143247
452.037377,-3552.988522,-8364.327145,-1225.752797
452.037705,-2664.741391,-7476.080014,-1302.362347
452.038032,-814.226536,-7550.100608,-383.047749
452.038360,0.000000,-7846.182985,383.047749
452.038687,-222.061783,-8586.388927,766.095498
452.039015,-1554.432478,-9992.780217,229.828649
452.039342,-3108.864956,-10066.800811,-536.266849
452.039670,-2886.803174,-9696.697840,-612.876398
452.039997,-1110.308913,-9030.512492,-459.657299
452.040324,1554.432478,-8660.409521,536.266849
452.040652,2960.823768,-8586.388927,1608.800546
452.040979,2664.741391,-9178.553681,1762.019645
452.041307,2072.576638,-9326.594869,1149.143247
452.041634,1554.432478,-9178.553681,536.266849
452.041962,1776.494261,-8512.368333,306.438199
452.042289,3108.864956,-8586.388927,1532.190996
452.042617,4145.153275,-9178.553681,1685.410096
452.042944,3552.988522,-9918.759623,3064.381992
452.043272,2294.638420,-10362.883188,2757.943793
452.043599,-888.247130,-10955.047942,1838.629195
452.043927,-2146.597232,-10140.821405,995.924147
452.044254,-2442.679609,-9104.533087,383.047749
452.044581,-1332.370696,-9030.512492,842.705048
452.044909,-296.082377,-8438.347739,1149.143247
452.045236,-666.185348,-8660.409521,1378.971896
452.045564,-2146.597232,-8364.327145,459.657299
452.045891,-3330.926739,-7994.224174,-612.876398
452.046219,-4441.235652,-7550.100608,-1378.971896
452.046546,-3108.864956,-7105.977043,-1378.971896
452.046874,-1406.391290,-6957.935855,-689.485948
452.047201,-518.144159,-7550.100608,459.657299
452.047529,-666.185348,-8586.388927,1225.752797
452.047856,-1998.556043,-9548.656652,536.266849
452.048184,-3330.926739,-9992.780217,-383.047749
452.048511,-3775.050304,-9696.697840,-919.314598
452.048839,-2294.638420,-9326.594869,-536.266849
452.049166,666.185348,-8586.388927,536.266849
452.049493,2294.638420,-8660.409521,1378.971896
452.049821,2664.741391,-9104.533087,1455.581446
452.050148,2072.576638,-9400.615463,1149.143247
452.050476,1036.288319,-9252.574275,0.000000
452.050803,1110.308913,-8734.430116,306.438199
452.051131,3256.906145,-8438.347739,1149.143247
452.051458,4219.173869,-9400.615463,2068.457845
452.051786,4219.173869,-10140.821405,2681.334243
452.052113,2442.679609,-10658.965565,2451.505594
452.052441,-222.061783,-10881.027347,2374.896044
452.052768,-740.205942,-9844.739029,1302.362347
452.053096,-1258.350101,-9992.780217,306.438199
452.053423,-888.247130,-8882.471304,919.314598
452.053750,148.041188,-9104.533087,1455.581446
452.054078,-148.041188,-8660.409521,1608.800546
452.054405,-1554.432478,-8882.471304,689.485948
452.054733,-2664.741391,-8364.327145,-306.438199
452.055060,-4145.153275,-8290.306550,-1072.533697
452.055388,-3330.926739,-7550.100608,-1149.143247
452.055715,-1184.329507,-7328.038826,-383.047749
452.056043,-814.226536,-7328.038826,919.314598
452.056370,-370.102971,-8438.347739,1225.752797
452.056698,-1924.535449,-9548.656652,842.705048
452.057025,-3701.029710,-9770.718434,0.000000
452.057353,-4219.173869,-9918.759623,-842.705048
452.057680,-2442.679609,-9474.636058,-842.705048
452.058007,-296.082377,-8882.471304,0.000000
452.058335,1776.494261,-8660.409521,1149.143247
452.058662,2294.638420,-9030.512492,1685.410096
452.058990,1850.514855,-9252.574275,842.705048
452.059317,814.226536,-9178.553681,76.609550
452.059645,222.061783,-8660.409521,0.000000
452.059972,1702.473667,-8882.471304,459.657299
452.060300,3182.885551,-8956.491898,1225.752797
452.060627,3627.009116,-9696.697840,2298.286494
452.060955,3034.844362,-10510.924376,2451.505594
452.061282,666.185348,-10881.027347,1608.800546
452.061610,-962.267725,-10436.903782,1915.238745
452.061937,-1036.288319,-9918.759623,306.438199
452.062265,-1554.432478,-9622.677246,383.047749
452.062592,148.041188,-9178.553681,536.266849
452.062919,222.061783,-8290.306550,1455.581446
452.063247,-962.267725,-8660.409521,842.705048
452.063574,-2516.700203,-8512.368333,-612.876398
452.063902,-3849.070898,-8438.347739,-995.924147
452.064229,-3701.029710,-7550.100608,-1378.971896
452.064557,-1924.535449,-7105.977043,-842.705048
452.064884,0.000000,-7550.100608,0.000000
452.065212,-592.164754,-8290.306550,153.219100
452.065539,-1258.350101,-9400.615463,383.047749
452.065867,-3182.885551,-9622.677246,-842.705048
452.066194,-4219.173869,-9696.697840,-1455.581446
452.066522,-3034.844362,-9252.574275,-995.924147
452.066849,-666.185348,-9326.594869,-383.047749
452.067177,1480.411884,-8956.491898,536.266849
452.067504,2516.700203,-9252.574275,1302.362347
452.067832,2368.659014,-9622.677246,1225.752797
452.068159,1332.370696,-9622.677246,1455.581446
452.068487,1554.432478,-9622.677246,0.000000
452.068814,2368.659014,-9252.574275,229.828649
452.069142,4145.153275,-9178.553681,1532.190996
452.069469,5033.400406,-9474.636058,2604.724693
452.069797,4293.194464,-10658.965565,3294.210641
452.070124,2590.720797,-10658.965565,2987.772442
452.070452,666.185348,-10881.027347,2374.896044
452.070779,-1184.329507,-10362.883188,995.924147
452.071107,-1258.350101,-9844.739029,1455.581446
452.071434,74.020594,-8512.368333,1378.971896
452.071762,-296.082377,-9030.512492,1762.019645
452.072089,-1554.432478,-8882.471304,1532.190996
452.072416,-2368.659014,-9178.553681,383.047749
452.072744,-4441.235652,-8660.409521,-536.266849
452.073071,-3923.091493,-7550.100608,-1302.362347
452.073399,-2738.761985,-7476.080014,-459.657299
452.073726,-1406.391290,-7698.141797,153.219100
452.074054,-1702.473667,-8290.306550,689.485948
452.074381,-2220.617826,-9252.574275,459.657299
452.074709,-3997.112087,-9918.759623,-229.828649
452.075036,-5107.421000,-9474.636058,-689.485948
452.075364,-4145.153275,-9178.553681,-1532.190996
452.075691,-1850.514855,-8512.368333,-459.657299
452.076019,666.185348,-8068.244768,383.047749
452.076346,2516.700203,-8660.409521,1225.752797
452.076674,2664.741391,-8512.368333,1072.533697
452.077001,1998.556043,-9178.553681,153.219100
452.077329,962.267725,-9252.574275,0.000000
452.077656,2072.576638,-9252.574275,383.047749
452.077984,3923.091493,-9474.636058,1378.971896
452.078311,5329.482782,-9918.759623,2911.162892
452.078639,5551.544565,-10510.924376,3600.648841
452.078966,3627.009116,-11177.109724,3524.039291
452.079294,1480.411884,-10955.047942,2604.724693
452.079621,518.144159,-10807.006753,2451.505594
452.079949,740.205942,-9548.656652,1225.752797
452.080276,0.000000,-8808.450710,2834.553343
452.080604,1850.514855,-8364.327145,2604.724693
452.080931,888.247130,-8808.450710,3140.991542
452.081259,-888.247130,-8586.388927,2374.896044
452.081586,-1998.556043,-7846.182985,1302.362347
452.081914,-3775.050304,-8068.244768,919.314598
452.082241,-3034.844362,-7624.121203,766.095498
452.082569,-2146.597232,-7772.162391,1762.019645
452.082896,-1480.411884,-7550.100608,2221.676944
452.083224,-2146.597232,-8660.409521,2528.115143
452.083551,-3256.906145,-9400.615463,1915.238745
452.083879,-6365.771101,-9992.780217,689.485948
452.084206,-6809.894666,-9030.512492,-153.219100
452.084534,-5403.503377,-8364.327145,-459.657299
452.084861,-2590.720797,-7550.100608,459.657299
452.085189,296.082377,-7698.141797,1838.629195
452.085516,1924.535449,-7402.059420,2604.724693
452.085844,1776.494261,-8438.347739,2681.334243
452.086171,444.123565,-9474.636058,2145.067394
452.086499,-814.226536,-9770.718434,1149.143247
452.086826,0.000000,-10362.883188,1762.019645
452.087154,2442.679609,-9770.718434,2834.553343
452.087481,5625.565159,-9696.697840,4903.011187
452.087809,7105.977043,-9696.697840,5975.544884
452.088136,6587.832884,-10214.842000,6358.592633
452.088464,3997.112087,-10584.944971,5822.325785
452.088791,814.226536,-10362.883188,3294.210641
452.089119,-2294.638420,-10807.006753,2987.772442
452.089446,-296.082377,-10436.903782,2298.286494
452.089774,666.185348,-9622.677246,3753.867940
452.090101,2072.576638,-7624.121203,4903.011187
452.090429,3775.050304,-7550.100608,5975.544884
452.090756,1628.453072,-7402.059420,5132.839837
452.091084,-2294.638420,-8734.430116,3983.696590
452.091411,-4885.359217,-9474.636058,2145.067394
452.091739,-7994.224174,-10214.842000,1072.533697
452.092066,-7846.182985,-10214.842000,689.485948
452.092394,-5699.585753,-8512.368333,1685.410096
452.092721,-2368.659014,-7846.182985,3140.991542
452.093049,370.102971,-6661.853478,4749.792088
452.093376,592.164754,-6365.771101,5056.230287
452.093704,-666.185348,-7550.100608,4596.572988
452.094031,-2442.679609,-8808.450710,3294.210641
452.094359,-5033.400406,-9992.780217,1838.629195
452.094686,-4589.276840,-10510.924376,1302.362347
452.095014,-2812.782580,-10214.842000,1838.629195
452.095341,-222.061783,-9400.615463,3140.991542
452.095669,2738.761985,-8882.471304,4749.792088
452.095996,3849.070898,-8290.306550,5132.839837
452.096323,3997.112087,-9178.553681,4826.401637
452.096651,3701.029710,-9918.759623,3830.477490
452.096978,2442.679609,-10584.944971,2987.772442
452.097306,1554.432478,-10732.986159,2834.553343
452.097633,1628.453072,-10584.944971,2604.724693
452.097961,1036.288319,-10658.965565,3447.429741
452.098288,1258.350101,-10658.965565,4596.572988
452.098616,1332.370696,-9918.759623,3753.867940
452.098943,-444.123565,-8956.491898,3677.258390
452.099271,888.247130,-8364.327145,2911.162892
452.099598,-148.041188,-8512.368333,2604.724693
452.099926,-740.205942,-7994.224174,1685.410096
452.100253,74.020594,-7846.182985,1838.629195
452.100581,74.020594,-8364.327145,3140.991542
452.100908,740.205942,-7550.100608,3370.820191
452.101236,740.205942,-7698.141797,3524.039291
452.101563,0.000000,-8734.430116,3677.258390
452.101891,-518.144159,-9252.574275,3370.820191
452.102218,-2072.576638,-9030.512492,2834.553343
452.102546,-2368.659014,-9178.553681,3370.820191
452.102873,-2442.679609,-8956.491898,2604.724693
452.103201,-1850.514855,-9326.594869,3294.210641
452.103528,-1036.288319,-9104.533087,3064.381992
452.103856,-222.061783,-8808.450710,3294.210641
452.104183,0.000000,-8808.450710,3217.601092
452.104511,-296.082377,-8808.450710,3140.991542
452.104838,-1628.453072,-8734.430116,2757.943793
452.105166,-1406.391290,-9252.574275,2757.943793
452.105493,-666.185348,-9178.553681,3217.601092
452.105821,0.000000,-8734.430116,3370.820191
452.106148,666.185348,-8956.491898,3983.696590
452.106476,1406.391290,-8956.491898,4519.963438
452.106803,962.267725,-9548.656652,4443.353888
452.107131,296.082377,-10066.800811,4290.134789
452.107458,-888.247130,-9474.636058,3907.087040
452.107786,-740.205942,-9400.615463,3907.087040
452.108113,-222.061783,-8660.409521,3370.820191
452.108441,-888.247130,-8216.285956,3064.381992
452.108768,666.185348,-7846.182985,2987.772442
452.109096,444.123565,-8660.409521,3064.381992
452.109423,-296.082377,-9030.512492,2528.115143
452.109751,-740.205942,-9252.574275,2451.505594
452.110078,-1184.329507,-9696.697840,2451.505594
452.110406,-1184.329507,-9474.636058,1991.848295
452.110733,-962.267725,-9622.677246,1915.238745
452.111061,-666.185348,-9696.697840,1915.238745
452.111388,-592.164754,-9326.594869,2221.676944
452.111716,-814.226536,-9474.636058,1762.019645
452.112043,-1184.329507,-9474.636058,1838.629195
452.112371,-1406.391290,-9474.636058,1685.410096
452.112698,-1332.370696,-9400.615463,1532.190996
452.113026,-740.205942,-8808.450710,1072.533697
452.113353,296.082377,-8734.430116,1378.971896
452.113681,592.164754,-8586.388927,1608.800546
452.114008,888.247130,-8290.306550,1532.190996
452.114336,666.185348,-8808.450710,1455.581446
452.114663,74.020594,-9030.512492,1532.190996
452.114991,296.082377,-9696.697840,1378.971896
452.115318,296.082377,-10066.800811,1378.971896
452.115646,962.267725,-10214.842000,1455.581446
452.115973,1332.370696,-10066.800811,1762.019645
452.116301,2072.576638,-9918.759623,1838.629195
452.116628,1554.432478,-9622.677246,1072.533697
452.116956,518.144159,-9548.656652,1838.629195
452.117283,222.061783,-9326.594869,995.924147
452.117611,-1110.308913,-9548.656652,919.314598
452.117938,-1036.288319,-9326.594869,612.876398
452.118266,-962.267725,-8734.430116,689.485948
452.118593,-1110.308913,-9178.553681,612.876398
452.118921,-814.226536,-8882.471304,766.095498
452.119248,-1110.308913,-8586.388927,1072.533697
452.119576,-1036.288319,-8512.368333,612.876398
452.119903,-962.267725,-8068.244768,536.266849
452.120231,-962.267725,-8216.285956,76.609550
452.120558,-888.247130,-8142.265362,153.219100
452.120885,-592.164754,-8364.327145,536.266849
452.121213,-518.144159,-8512.368333,842.705048
452.121540,-148.041188,-8586.388927,1072.533697
452.121868,-222.061783,-8660.409521,1608.800546
452.122195,-148.041188,-9104.533087,1378.971896
452.122523,0.000000,-9178.553681,919.314598
452.122850,222.061783,-8956.491898,919.314598
452.123178,222.061783,-8956.491898,0.000000
452.123505,740.205942,-9104.533087,459.657299
452.123833,592.164754,-9252.574275,1225.752797
452.124160,370.102971,-9400.615463,1225.752797
452.124488,296.082377,-9474.636058,1378.971896
452.124815,0.000000,-9474.636058,1149.143247
452.125143,370.102971,-9548.656652,1455.581446
452.125470,-444.123565,-9104.533087,536.266849
452.125798,0.000000,-8956.491898,919.314598
452.126125,74.020594,-8512.368333,612.876398
452.126453,-740.205942,-8808.450710,766.095498
452.126780,-962.267725,-8438.347739,1225.752797
452.127108,-1184.329507,-8882.471304,689.485948
452.127435,-1480.411884,-8808.450710,612.876398
452.127763,-1258.350101,-8882.471304,612.876398
452.128090,-1480.411884,-8882.471304,536.266849
452.128418,-1332.370696,-8586.388927,229.828649
452.128745,-666.185348,-8808.450710,842.705048
452.129073,-592.164754,-8734.430116,612.876398
452.129400,-444.123565,-9030.512492,612.876398
452.129728,0.000000,-8956.491898,612.876398
452.130055,-74.020594,-9252.574275,1072.533697
452.130383,0.000000,-9400.615463,842.705048
452.130710,0.000000,-10066.800811,919.314598
452.131038,-370.102971,-10214.842000,842.705048
452.131365,-222.061783,-10362.883188,919.314598
452.131693,74.020594,-10214.842000,766.095498
452.132020,740.205942,-9992.780217,919.314598
452.132348,888.247130,-9696.697840,766.095498
452.132675,666.185348,-9474.636058,612.876398
452.133003,296.082377,-9326.594869,536.266849
452.133330,0.000000,-9400.615463,459.657299
452.133658,0.000000,-9104.533087,536.266849
452.133985,-222.061783,-9104.533087,766.095498
452.134313,-148.041188,-9178.553681,383.047749
452.134640,0.000000,-9104.533087,536.266849
452.134968,0.000000,-8808.450710,76.609550
452.135295,0.000000,-8882.471304,153.219100
452.135623,-296.082377,-8586.388927,0.000000
452.135950,-74.020594,-8808.450710,0.000000
452.136278,-740.205942,-8956.491898,306.438199
452.136605,-518.144159,-9030.512492,76.609550
452.136933,-888.247130,-9622.677246,612.876398
452.137260,-592.164754,-9030.512492,0.000000
452.137588,-814.226536,-9400.615463,306.438199
452.137915,-1110.308913,-9326.594869,153.219100
452.138243,-592.164754,-9252.574275,383.047749
452.138570,-592.164754,-8586.388927,229.828649
452.138898,-370.102971,-8068.244768,612.876398
452.139225,0.000000,-8586.388927,459.657299
452.139553,-518.144159,-8734.430116,689.485948
452.139880,-592.164754,-8882.471304,459.657299
452.140208,-740.205942,-9252.574275,842.705048
452.140535,-962.267725,-9104.533087,1225.752797
452.140863,-1036.288319,-9030.512492,766.095498
452.141190,-740.205942,-9030.512492,1225.752797
452.141518,-814.226536,-8586.388927,766.095498
452.141845,-444.123565,-8438.347739,766.095498
452.142173,0.000000,-7994.224174,766.095498
452.142500,-296.082377,-8142.265362,995.924147
452.142828,-740.205942,-8438.347739,919.314598
452.143155,-666.185348,-8956.491898,919.314598
452.143483,-1036.288319,-9178.553681,919.314598
452.143810,-1036.288319,-9326.594869,995.924147
452.144138,-444.123565,-8734.430116,995.924147
452.144465,-666.185348,-9030.512492,689.485948
452.144792,-518.144159,-8808.450710,536.266849
452.145120,0.000000,-8956.491898,842.705048
452.145447,-222.061783,-9030.512492,536.266849
452.145775,0.000000,-8808.450710,1685.410096
452.146102,-370.102971,-9178.553681,536.266849
452.146430,-296.082377,-9474.636058,612.876398
452.146757,-592.164754,-9400.615463,536.266849
452.147085,-296.082377,-9252.574275,612.876398
452.147412,-444.123565,-8956.491898,766.095498
452.147740,0.000000,-9030.512492,0.000000
452.148067,0.000000,-8808.450710,306.438199
452.148395,0.000000,-8808.450710,459.657299
452.148722,-148.041188,-8734.430116,306.438199
452.149050,-370.102971,-8882.471304,229.828649
452.149377,-518.144159,-8956.491898,153.219100
452.149705,-962.267725,-9178.553681,306.438199
452.150032,-962.267725,-9474.636058,459.657299
452.150360,-962.267725,-9474.636058,383.047749
452.150687,-740.205942,-9474.636058,612.876398
452.151015,74.020594,-9252.574275,766.095498
452.151342,148.041188,-9252.574275,536.266849
452.151670,518.144159,-9178.553681,383.047749
452.151997,518.144159,-9326.594869,612.876398
452.152325,592.164754,-9104.533087,842.705048
452.152652,222.061783,-9474.636058,383.047749
452.152980,296.082377,-9918.759623,919.314598
452.153307,0.000000,-9696.697840,995.924147
452.153635,0.000000,-9474.636058,459.657299
452.153962,592.164754,-9104.533087,689.485948
452.154290,592.164754,-8512.368333,766.095498
452.154617,962.267725,-8734.430116,383.047749
452.154945,370.102971,-8216.285956,689.485948
452.155272,222.061783,-8438.347739,459.657299
452.155600,0.000000,-8808.450710,459.657299
452.155927,0.000000,-8438.347739,153.219100
452.156255,0.000000,-9104.533087,153.219100
452.156582,0.000000,-9104.533087,459.657299
452.156910,74.020594,-9252.574275,383.047749
452.157237,0.000000,-9252.574275,383.047749
452.157565,148.041188,-8956.491898,306.438199
452.157892,296.082377,-8808.450710,0.000000
452.158220,296.082377,-8808.450710,153.219100
452.158547,-74.020594,-9178.553681,306.438199
452.158875,0.000000,-9844.739029,536.266849
452.159202,0.000000,-9622.677246,383.047749
452.159530,-296.082377,-9178.553681,842.705048
452.159857,0.000000,-9326.594869,306.438199
452.160185,0.000000,-9178.553681,536.266849
452.160512,0.000000,-8956.491898,229.828649
452.160840,222.061783,-8586.388927,229.828649
452.161167,222.061783,-8586.388927,536.266849
452.161495,74.020594,-9104.533087,306.438199
452.161822,-296.082377,-9326.594869,612.876398
452.162150,-370.102971,-9622.677246,766.095498
452.162477,-370.102971,-9474.636058,766.095498
452.162805,0.000000,-9844.739029,1072.533697
452.163132,-222.061783,-9030.512492,766.095498
452.163460,-296.082377,-9252.574275,459.657299
452.163787,-370.102971,-9178.553681,459.657299
452.164115,-370.102971,-9400.615463,306.438199
452.164442,-666.185348,-9400.615463,689.485948
452.164770,-444.123565,-9474.636058,919.314598
452.165097,-666.185348,-9548.656652,919.314598
452.165425,-740.205942,-9696.697840,689.485948
452.165752,-888.247130,-9474.636058,919.314598
452.166080,-1036.288319,-9474.636058,919.314598
452.166407,-962.267725,-8956.491898,919.314598
452.166735,-666.185348,-9104.533087,536.266849
452.167062,-814.226536,-9252.574275,689.485948
452.167390,-740.205942,-9326.594869,766.095498
452.167717,-592.164754,-9474.636058,689.485948
452.168045,-296.082377,-9104.533087,1149.143247
452.168372,-1184.329507,-8956.491898,1225.752797
452.168700,-814.226536,-9178.553681,459.657299
452.169027,-814.226536,-8956.491898,459.657299
452.169355,-888.247130,-8660.409521,153.219100
452.169682,-518.144159,-8882.471304,612.876398
452.170010,-666.185348,-8660.409521,383.047749
452.170337,-518.144159,-9104.533087,459.657299
452.170665,-444.123565,-9104.533087,306.438199
452.170992,-518.144159,-9326.594869,536.266849
452.171320,-296.082377,-9104.533087,612.876398
452.171647,0.000000,-9030.512492,1072.533697
452.171975,0.000000,-8956.491898,229.828649
452.172302,-444.123565,-9030.512492,229.828649
452.172630,-370.102971,-9104.533087,383.047749
452.172957,0.000000,-9030.512492,536.266849
452.173285,-444.123565,-8808.450710,766.095498
452.173613,-296.082377,-9030.512492,306.438199
452.173940,-148.041188,-8808.450710,536.266849
452.174268,-148.041188,-8808.450710,766.095498
452.174595,-74.020594,-8586.388927,383.047749
452.174923,-148.041188,-8586.388927,153.219100
452.175250,0.000000,-8438.347739,0.000000
452.175578,0.000000,-8808.450710,383.047749
452.175905,0.000000,-8734.430116,689.485948
452.176233,-222.061783,-8882.471304,842.705048
452.176560,0.000000,-9252.574275,612.876398
452.176888,222.061783,-9400.615463,766.095498
452.177215,0.000000,-9104.533087,383.047749
452.177543,0.000000,-8956.491898,229.828649
452.177870,74.020594,-9104.533087,536.266849
452.178198,0.000000,-9474.636058,153.219100
452.178525,222.061783,-8734.430116,766.095498
452.178853,296.082377,-8808.450710,689.485948
452.179180,0.000000,-9104.533087,229.828649
452.179508,0.000000,-9178.553681,383.047749
452.179835,0.000000,-9030.512492,306.438199
452.180163,222.061783,-8660.409521,459.657299
452.180491,148.041188,-8956.491898,612.876398
452.180818,0.000000,-9252.574275,383.047749
452.181146,0.000000,-9252.574275,459.657299
452.181473,0.000000,-9178.553681,459.657299
452.181801,0.000000,-9030.512492,612.876398
452.182128,0.000000,-9252.574275,306.438199
452.182456,0.000000,-9104.533087,459.657299
452.182783,-222.061783,-8956.491898,612.876398
452.183111,0.000000,-9178.553681,536.266849
452.183438,-296.082377,-9400.615463,383.047749
452.183766,-370.102971,-9474.636058,306.438199
452.184093,-592.164754,-9252.574275,536.266849
452.184421,-296.082377,-9474.636058,612.876398
452.184748,-444.123565,-9474.636058,689.485948
452.185076,-148.041188,-9622.677246,689.485948
452.185403,-444.123565,-9178.553681,306.438199
452.185731,74.020594,-9178.553681,919.314598
452.186058,-444.123565,-9326.594869,383.047749
452.186386,-296.082377,-9400.615463,689.485948
452.186713,-444.123565,-9252.574275,536.266849
452.187041,74.020594,-9104.533087,689.485948
452.187369,-222.061783,-9030.512492,1072.533697
452.187696,0.000000,-9326.594869,536.266849
452.188024,-296.082377,-9178.553681,842.705048
452.188351,-148.041188,-9178.553681,612.876398
452.188679,0.000000,-9104.533087,919.314598
452.189006,-148.041188,-8660.409521,919.314598
452.189334,0.000000,-9252.574275,536.266849
452.189661,-148.041188,-9326.594869,383.047749
452.189989,-222.061783,-9326.594869,689.485948
452.190316,0.000000,-9252.574275,612.876398
452.190644,0.000000,-8660.409521,766.095498
452.190971,0.000000,-9400.615463,536.266849
452.191299,0.000000,-9252.574275,306.438199
452.191626,0.000000,-9326.594869,536.266849
452.191954,-296.082377,-9030.512492,459.657299
452.192281,0.000000,-9474.636058,306.438199
452.192609,-296.082377,-9178.553681,1149.143247
452.192936,-444.123565,-9326.594869,689.485948
452.193264,-370.102971,-9400.615463,689.485948
452.193591,-444.123565,-9030.512492,459.657299
452.193919,0.000000,-8956.491898,1302.362347
452.194247,-370.102971,-9104.533087,689.485948
452.194574,-444.123565,-9030.512492,612.876398
452.194902,-518.144159,-8808.450710,689.485948
452.195229,-666.185348,-8956.491898,766.095498
452.195557,-592.164754,-9030.512492,766.095498
452.195884,-148.041188,-8660.409521,612.876398
452.196212,-370.102971,-8808.450710,689.485948
452.196539,-296.082377,-9104.533087,612.876398
452.196867,-296.082377,-8956.491898,689.485948
452.197194,-222.061783,-9178.553681,689.485948
452.197522,-518.144159,-8586.388927,766.095498
452.197849,0.000000,-9030.512492,766.095498
452.198177,-370.102971,-9104.533087,536.266849
452.198504,-444.123565,-8956.491898,689.485948
452.198832,-296.082377,-9178.553681,689.485948
452.199159,-592.164754,-8808.450710,766.095498
452.199487,-518.144159,-9178.553681,459.657299
452.199814,-444.123565,-8956.491898,459.657299
452.200142,-444.123565,-9030.512492,536.266849
452.200469,-592.164754,-8882.471304,612.876398
452.200797,-814.226536,-8882.471304,689.485948
452.201125,-370.102971,-9030.512492,766.095498
452.201452,-592.164754,-9030.512492,612.876398
452.201780,-814.226536,-9104.533087,689.485948
452.202107,-592.164754,-9030.512492,306.438199
452.202435,-592.164754,-8882.471304,612.876398
452.202762,-444.123565,-8660.409521,612.876398
452.203090,-518.144159,-8808.450710,536.266849
452.203417,-740.205942,-8956.491898,612.876398
452.203745,-888.247130,-8808.450710,612.876398
452.204072,-592.164754,-8956.491898,306.438199
452.204400,-518.144159,-8956.491898,842.705048
452.204727,-666.185348,-8882.471304,766.095498
452.205055,-740.205942,-9030.512492,536.266849
452.205382,-666.185348,-8882.471304,459.657299
452.205710,-592.164754,-8956.491898,612.876398
452.206037,-296.082377,-9030.512492,536.266849
452.206365,0.000000,-8512.368333,459.657299
452.206692,-518.144159,-8956.491898,689.485948
452.207020,-444.123565,-8808.450710,766.095498
452.207347,-444.123565,-8956.491898,766.095498
452.207675,-444.123565,-8660.409521,919.314598
452.208003,0.000000,-8734.430116,766.095498
452.208330,-370.102971,-8882.471304,612.876398
452.208658,-296.082377,-9030.512492,536.266849
452.208985,-222.061783,-8956.491898,459.657299
452.209313,-222.061783,-9030.512492,459.657299
452.209640,148.041188,-8808.450710,689.485948
452.209968,0.000000,-9030.512492,536.266849
452.210295,0.000000,-9400.615463,459.657299
452.210623,-148.041188,-9030.512492,459.657299
452.210950,-148.041188,-9252.574275,306.438199
452.211278,74.020594,-8808.450710,612.876398
452.211605,0.000000,-9326.594869,536.266849
452.211933,0.000000,-9326.594869,229.828649
452.212260,0.000000,-9104.533087,536.266849
452.212588,0.000000,-9178.553681,229.828649
452.212915,148.041188,-9252.574275,1378.971896
452.213243,222.061783,-9252.574275,306.438199
452.213570,0.000000,-9400.615463,536.266849
452.213898,0.000000,-9400.615463,383.047749
452.214225,148.041188,-9474.636058,689.485948
452.214553,148.041188,-9178.553681,842.705048
452.214881,666.185348,-9622.677246,536.266849
452.215208,74.020594,-9400.615463,536.266849
452.215536,0.000000,-9326.594869,536.266849
452.215863,0.000000,-9474.636058,612.876398
452.216191,74.020594,-9326.594869,689.485948
452.216518,296.082377,-9622.677246,536.266849
452.216846,148.041188,-9400.615463,612.876398
452.217173,0.000000,-9474.636058,766.095498
452.217501,0.000000,-9400.615463,689.485948
452.217828,74.020594,-9474.636058,612.876398
452.218156,-444.123565,-9252.574275,689.485948
452.218483,0.000000,-9548.656652,612.876398
452.218811,-222.061783,-9252.574275,766.095498
452.219138,-222.061783,-9400.615463,536.266849
452.219466,-296.082377,-9474.636058,919.314598
452.219793,-370.102971,-9474.636058,1302.362347
452.220121,0.000000,-9104.533087,689.485948
452.220448,-296.082377,-9178.553681,612.876398
452.220776,-296.082377,-9400.615463,689.485948
452.221103,-444.123565,-9474.636058,536.266849
452.221431,-296.082377,-9326.594869,689.485948
452.221759,-518.144159,-8734.430116,766.095498
452.222086,-518.144159,-9400.615463,612.876398
452.222414,-444.123565,-9474.636058,612.876398
452.222741,-444.123565,-9252.574275,536.266849
452.223069,-370.102971,-9178.553681,383.047749
452.223396,0.000000,-8956.491898,536.266849
452.223724,-592.164754,-8956.491898,689.485948
452.224051,-444.123565,-8882.471304,383.047749
452.224379,-444.123565,-8882.471304,229.828649
452.224706,-296.082377,-9104.533087,306.438199
452.225034,-666.185348,-8956.491898,689.485948
452.225361,-370.102971,-9252.574275,766.095498
452.225689,-370.102971,-9104.533087,536.266849
452.226016,-518.144159,-8882.471304,612.876398
452.226344,-592.164754,-8660.409521,459.657299
452.226671,-222.061783,-8660.409521,919.314598
452.226999,0.000000,-8364.327145,612.876398
452.227326,-370.102971,-8660.409521,459.657299
452.227654,-444.123565,-8808.450710,459.657299
452.227982,-666.185348,-8956.491898,612.876398
452.228309,-666.185348,-8660.409521,766.095498
452.228637,-518.144159,-8438.347739,995.924147
452.228964,-444.123565,-8586.388927,536.266849
