#time,accel_x,accel_y,accel_z
439.905827,-296.082377,-8956.491898,995.924147
439.906154,-444.123565,-9178.553681,459.657299
439.906482,-370.102971,-9252.574275,383.047749
439.906810,-222.061783,-9104.533087,536.266849
439.907138,-148.041188,-9252.574275,536.266849
439.907466,0.000000,-9030.512492,383.047749
439.907794,-444.123565,-9104.533087,612.876398
439.908122,-222.061783,-9178.553681,689.485948
439.908449,-148.041188,-9030.512492,459.657299
439.908777,-222.061783,-9252.574275,459.657299
439.909105,0.000000,-9030.512492,689.485948
439.909433,0.000000,-9252.574275,612.876398
439.909761,-148.041188,-9178.553681,229.828649
439.910089,0.000000,-9252.574275,536.266849
439.910416,-296.082377,-9326.594869,459.657299
439.910744,0.000000,-8882.471304,459.657299
439.911072,0.000000,-9030.512492,766.095498
439.911400,-296.082377,-9104.533087,612.876398
439.911728,-296.082377,-9326.594869,842.705048
439.912056,-148.041188,-9400.615463,612.876398
439.912384,0.000000,-8956.491898,612.876398
439.912711,-148.041188,-8956.491898,306.438199
439.913039,-370.102971,-9104.533087,383.047749
439.913367,-370.102971,-9178.553681,612.876398
439.913695,-444.123565,-9104.533087,536.266849
439.914023,-222.061783,-9030.512492,689.485948
439.914351,0.000000,-9030.512492,842.705048
439.914678,-518.144159,-9030.512492,766.095498
439.915006,-444.123565,-9104.533087,689.485948
439.915334,-296.082377,-9178.553681,612.876398
439.915662,-296.082377,-9030.512492,536.266849
439.915990,0.000000,-9400.615463,459.657299
439.916318,-814.226536,-9104.533087,383.047749
439.916645,-962.267725,-9326.594869,0.000000
439.916973,-1554.432478,-9474.636058,0.000000
439.917301,-1258.350101,-9104.533087,-383.047749
439.917629,-666.185348,-9104.533087,-766.095498
439.917957,-518.144159,-8734.430116,-306.438199
439.918285,-740.205942,-9030.512492,-536.266849
439.918613,-740.205942,-9252.574275,-842.705048
439.918940,-1258.350101,-9178.553681,-842.705048
439.919268,-1184.329507,-9030.512492,-842.705048
439.919596,-666.185348,-8956.491898,-1302.362347
439.919924,-666.185348,-9252.574275,-1378.971896
439.920252,-370.102971,-9326.594869,-1225.752797
439.920580,0.000000,-8956.491898,-1608.800546
439.920907,0.000000,-8882.471304,-1302.362347
439.921235,518.144159,-9030.512492,-1378.971896
439.921563,0.000000,-9252.574275,-1608.800546
439.921891,74.020594,-9400.615463,-1685.410096
439.922219,222.061783,-9178.553681,-1608.800546
439.922547,370.102971,-9400.615463,-1532.190996
439.922875,74.020594,-9474.636058,-1762.019645
439.923202,148.041188,-9400.615463,-1608.800546
439.923530,148.041188,-9326.594869,-1762.019645
439.923858,370.102971,-9178.553681,-1915.238745
439.924186,148.041188,-9400.615463,-1838.629195
439.924514,74.020594,-9252.574275,-2068.457845
439.924842,148.041188,-9030.512492,-1991.848295
439.925169,222.061783,-9178.553681,-1762.019645
439.925497,0.000000,-9252.574275,-1685.410096
439.925825,-222.061783,-9252.574275,-1991.848295
439.926153,-518.144159,-8808.450710,-1838.629195
439.926481,-370.102971,-9252.574275,-1838.629195
439.926809,-1110.308913,-9030.512492,-2221.676944
439.927136,-1036.288319,-9030.512492,-2374.896044
439.927464,-1332.370696,-9178.553681,-2528.115143
439.927792,-1702.473667,-9326.594869,-2604.724693
439.928120,-1776.494261,-9030.512492,-2604.724693
439.928448,-1850.514855,-8808.450710,-2987.772442
439.928776,-1924.535449,-9030.512492,-3217.601092
439.929104,-1998.556043,-9030.512492,-3447.429741
439.929431,-2146.597232,-9030.512492,-3524.039291
439.929759,-2072.576638,-8512.368333,-3753.867940
439.930087,-1480.411884,-8512.368333,-3677.258390
439.930415,-1258.350101,-8808.450710,-3907.087040
439.930743,-888.247130,-8956.491898,-3830.477490
439.931071,0.000000,-8808.450710,-3677.258390
439.931398,444.123565,-8438.347739,-3140.991542
439.931726,1850.514855,-8512.368333,-2681.334243
439.932054,1702.473667,-8734.430116,-2604.724693
439.932382,2146.597232,-8882.471304,-2221.676944
439.932710,2072.576638,-9474.636058,-1991.848295
439.933038,1702.473667,-9770.718434,-1762.019645
439.933365,370.102971,-9844.739029,-2451.505594
439.933693,0.000000,-10362.883188,-2681.334243
439.934021,-888.247130,-10436.903782,-3217.601092
439.934349,-1850.514855,-10362.883188,-4060.306139
439.934677,-1998.556043,-9770.718434,-4519.963438
439.935005,-1110.308913,-9178.553681,-4673.182538
439.935333,-444.123565,-8216.285956,-4749.792088
439.935660,1184.329507,-7550.100608,-3983.696590
439.935988,2368.659014,-7179.997637,-3294.210641
439.936316,2812.782580,-7328.038826,-2451.505594
439.936644,2590.720797,-7846.182985,-1915.238745
439.936972,1036.288319,-8512.368333,-1915.238745
439.937300,-1110.308913,-9992.780217,-2068.457845
439.937627,-2960.823768,-10955.047942,-2451.505594
439.937955,-4219.173869,-11177.109724,-2757.943793
439.938283,-3256.906145,-10510.924376,-2757.943793
439.938611,0.000000,-8364.327145,-1532.190996
439.938939,4737.318029,-6735.874072,306.438199
439.939267,8956.491898,-5403.503377,2374.896044
439.939595,10214.842000,-5921.647536,3600.648841
439.939922,7920.203579,-7772.162391,3907.087040
439.940250,2368.659014,-9696.697840,2757.943793
439.940578,-3330.926739,-11991.336260,842.705048
439.940906,-8216.285956,-13249.686362,-1302.362347
439.941234,-10881.027347,-13915.871710,-2604.724693
439.941562,-10807.006753,-13175.665768,-3370.820191
439.941889,-9474.636058,-11029.068536,-3294.210641
439.942217,-3701.029710,-8438.347739,-2987.772442
439.942545,-2146.597232,-5625.565159,-1991.848295
439.942873,1628.453072,-3775.050304,-3524.039291
439.943201,1998.556043,-5477.523971,-2911.162892
439.943529,-3034.844362,-6217.729913,-4213.525239
439.943856,-5551.544565,-8290.306550,-5286.058936
439.944184,-10214.842000,-9992.780217,-6281.983084
439.944512,-10510.924376,-10214.842000,-6818.249932
439.944840,-7846.182985,-9696.697840,-5439.278036
439.945168,-2220.617826,-8068.244768,-3753.867940
439.945496,4663.297435,-6587.832884,-2221.676944
439.945824,8734.430116,-6143.709319,0.000000
439.946151,10140.821405,-7402.059420,-306.438199
439.946479,6957.935855,-10066.800811,-1762.019645
439.946807,2886.803174,-11399.171507,-3600.648841
439.947135,1628.453072,-11917.315666,-5515.887586
439.947463,1776.494261,-11251.130318,-4519.963438
439.947791,7698.141797,-9030.512492,-995.924147
439.948118,12361.439231,-8364.327145,1532.190996
439.948446,12805.562797,-7994.224174,3064.381992
439.948774,11991.336260,-9474.636058,3753.867940
439.949102,6291.750507,-10584.944971,1225.752797
439.949430,296.082377,-11917.315666,-612.876398
439.949758,-962.267725,-11991.336260,-1455.581446
439.950085,-2590.720797,-11843.295072,-1378.971896
439.950413,-3404.947333,-11177.109724,-383.047749
439.950741,-2664.741391,-9844.739029,229.828649
439.951069,-3997.112087,-8512.368333,689.485948
439.951397,-7031.956449,-5921.647536,-766.095498
439.951725,-6587.832884,-4663.297435,-1532.190996
439.952053,-4071.132681,-3330.926739,-2374.896044
439.952380,-1776.494261,-2812.782580,-689.485948
439.952708,1776.494261,-3997.112087,1608.800546
439.953036,1480.411884,-5107.421000,3370.820191
439.953364,-1184.329507,-7105.977043,3907.087040
439.953692,-3923.091493,-10436.903782,4366.744339
439.954020,-7254.018232,-10955.047942,3064.381992
439.954347,-8068.244768,-11251.130318,2987.772442
439.954675,-5699.585753,-11399.171507,3830.477490
439.955003,-2738.761985,-10362.883188,4596.572988
439.955331,296.082377,-10066.800811,5439.278036
439.955659,1554.432478,-10066.800811,5056.230287
439.955987,148.041188,-10288.862594,3600.648841
439.956315,-1628.453072,-10510.924376,1838.629195
439.956642,-2590.720797,-10288.862594,536.266849
439.956970,-2072.576638,-9030.512492,383.047749
439.957298,1110.308913,-7698.141797,1455.581446
439.957626,3034.844362,-7476.080014,2834.553343
439.957954,2220.617826,-8512.368333,3983.696590
439.958282,-518.144159,-10436.903782,4060.306139
439.958609,-4441.235652,-10955.047942,1149.143247
439.958937,-6661.853478,-12361.439231,995.924147
439.959265,-4589.276840,-10881.027347,-689.485948
439.959593,-2368.659014,-10066.800811,153.219100
439.959921,1554.432478,-8586.388927,842.705048
439.960249,4219.173869,-7105.977043,1762.019645
439.960576,1776.494261,-7179.997637,1072.533697
439.960904,1184.329507,-7402.059420,153.219100
439.961232,-740.205942,-9252.574275,-1838.629195
439.961560,-888.247130,-10066.800811,-3140.991542
439.961888,2072.576638,-10066.800811,-2145.067394
439.962216,4367.215058,-11251.130318,-459.657299
439.962544,5773.606348,-10510.924376,919.314598
439.962871,4293.194464,-11399.171507,1762.019645
439.963199,1702.473667,-12805.562797,1225.752797
439.963527,-2738.761985,-11917.315666,-1532.190996
439.963855,-3997.112087,-11917.315666,-2604.724693
439.964183,-2516.700203,-10732.986159,-3370.820191
439.964510,-592.164754,-8290.306550,-2221.676944
439.964838,2812.782580,-7772.162391,0.000000
439.965165,4293.194464,-7402.059420,689.485948
439.965493,1554.432478,-7254.018232,0.000000
439.965821,-1036.288319,-7476.080014,-1225.752797
439.966148,-2072.576638,-7698.141797,-2374.896044
439.966476,-1998.556043,-6735.874072,-3217.601092
439.966803,592.164754,-6587.832884,-1991.848295
439.967131,3627.009116,-6735.874072,766.095498
439.967458,3552.988522,-7179.997637,2221.676944
439.967786,1554.432478,-8808.450710,2834.553343
439.968113,-1406.391290,-9918.759623,1685.410096
439.968441,-3849.070898,-10510.924376,-459.657299
439.968769,-3404.947333,-10658.965565,-995.924147
439.969096,-1184.329507,-9178.553681,-1072.533697
439.969424,1998.556043,-7994.224174,76.609550
439.969751,3701.029710,-7179.997637,2451.505594
439.970079,2516.700203,-7994.224174,3217.601092
439.970406,-370.102971,-8586.388927,2451.505594
439.970734,-2664.741391,-9104.533087,612.876398
439.971061,-2960.823768,-9104.533087,383.047749
439.971389,-1480.411884,-8216.285956,-153.219100
439.971717,1036.288319,-7698.141797,995.924147
439.972044,2442.679609,-7624.121203,2911.162892
439.972372,1110.308913,-8068.244768,3753.867940
439.972699,-2368.659014,-8586.388927,3140.991542
439.973027,-5921.647536,-8438.347739,1532.190996
439.973354,-6439.791695,-8512.368333,-383.047749
439.973682,-5033.400406,-8216.285956,-766.095498
439.974009,-2220.617826,-7254.018232,-229.828649
439.974337,296.082377,-7031.956449,842.705048
439.974665,1406.391290,-7402.059420,1991.848295
439.974992,-666.185348,-8290.306550,1838.629195
439.975320,-2516.700203,-8956.491898,153.219100
439.975647,-3256.906145,-9474.636058,-766.095498
439.975975,-1702.473667,-9622.677246,-689.485948
439.976302,1332.370696,-9622.677246,306.438199
439.976630,3775.050304,-9326.594869,1915.238745
439.976957,3923.091493,-10584.944971,3370.820191
439.977285,1702.473667,-11843.295072,3753.867940
439.977613,-1258.350101,-12213.398043,2221.676944
439.977940,-3108.864956,-12213.398043,995.924147
439.978268,-962.267725,-11251.130318,0.000000
439.978595,666.185348,-9918.759623,306.438199
439.978923,3404.947333,-8882.471304,1302.362347
439.979250,4515.256246,-8660.409521,2451.505594
439.979578,3182.885551,-8808.450710,2834.553343
439.979905,0.000000,-9030.512492,1225.752797
439.980233,-2294.638420,-9548.656652,0.000000
439.980561,-2886.803174,-9844.739029,-1302.362347
439.980888,-740.205942,-9696.697840,-919.314598
439.981216,1184.329507,-9178.553681,0.000000
439.981543,2590.720797,-8808.450710,2068.457845
439.981871,962.267725,-9770.718434,2834.553343
439.982198,-2442.679609,-10732.986159,1608.800546
439.982526,-5847.626942,-11251.130318,-612.876398
439.982853,-7105.977043,-10807.006753,-2451.505594
439.983181,-5403.503377,-9696.697840,-3140.991542
439.983509,-1554.432478,-8512.368333,-2451.505594
439.983836,1702.473667,-7772.162391,-766.095498
439.984164,2590.720797,-7698.141797,766.095498
439.984491,814.226536,-8290.306550,995.924147
439.984819,-1924.535449,-8808.450710,0.000000
439.985146,-2886.803174,-9400.615463,-1991.848295
439.985474,-1554.432478,-9326.594869,-2374.896044
439.985801,1332.370696,-8808.450710,-1072.533697
439.986129,4589.276840,-7920.203579,842.705048
439.986457,5773.606348,-8438.347739,3140.991542
439.986784,4441.235652,-9104.533087,3830.477490
439.987112,1554.432478,-9474.636058,2374.896044
439.987439,-1184.329507,-9696.697840,689.485948
439.987767,-1184.329507,-9474.636058,-995.924147
439.988094,370.102971,-8364.327145,-689.485948
439.988422,3478.967927,-6883.915261,383.047749
439.988749,4589.276840,-7328.038826,1762.019645
439.989077,3330.926739,-7476.080014,3064.381992
439.989405,592.164754,-8586.388927,2068.457845
439.989732,-2516.700203,-8956.491898,612.876398
439.990060,-3775.050304,-8586.388927,-689.485948
439.990387,-1850.514855,-8882.471304,-1302.362347
439.990715,-444.123565,-8216.285956,0.000000
439.991042,1406.391290,-8216.285956,1838.629195
439.991370,518.144159,-8438.347739,3064.381992
439.991697,-2590.720797,-8956.491898,2911.162892
439.992025,-5403.503377,-9178.553681,1838.629195
439.992353,-7031.956449,-9030.512492,-612.876398
439.992680,-5625.565159,-8512.368333,-1455.581446
439.993008,-2960.823768,-7476.080014,-1149.143247
439.993335,-148.041188,-6809.894666,306.438199
439.993663,888.247130,-7179.997637,1838.629195
439.993990,-370.102971,-7624.121203,2221.676944
439.994318,-2738.761985,-8734.430116,536.266849
439.994645,-3701.029710,-9474.636058,-995.924147
439.994973,-2368.659014,-9400.615463,-1532.190996
439.995301,518.144159,-8586.388927,-689.485948
439.995628,4293.194464,-8956.491898,1225.752797
439.995956,5255.462188,-9696.697840,3064.381992
439.996283,3108.864956,-11103.089130,3830.477490
439.996611,148.041188,-11843.295072,2681.334243
439.996938,-2146.597232,-12139.377449,1149.143247
439.997266,-2294.638420,-11399.171507,-766.095498
439.997593,74.020594,-10288.862594,-919.314598
439.997921,2738.761985,-9474.636058,229.828649
439.998249,5329.482782,-8882.471304,1915.238745
439.998576,3923.091493,-9104.533087,2757.943793
439.998904,814.226536,-8956.491898,2068.457845
439.999231,-1332.370696,-9548.656652,153.219100
439.999559,-2590.720797,-9474.636058,-1302.362347
439.999886,-1554.432478,-9474.636058,-1762.019645
440.000214,814.226536,-8734.430116,-766.095498
440.000541,2442.679609,-9178.553681,689.485948
440.000869,1850.514855,-9252.574275,2757.943793
440.001197,-1036.288319,-10066.800811,2451.505594
440.001524,-4219.173869,-10732.986159,1149.143247
440.001852,-5847.626942,-10732.986159,-919.314598
440.002179,-4959.379811,-9844.739029,-2145.067394
440.002507,-2368.659014,-9400.615463,-1378.971896
440.002834,666.185348,-8068.244768,-306.438199
440.003162,1924.535449,-8216.285956,1149.143247
440.003489,222.061783,-8660.409521,1608.800546
440.003817,-2146.597232,-9474.636058,995.924147
440.004145,-3923.091493,-9548.656652,-995.924147
440.004472,-2738.761985,-8882.471304,-2068.457845
440.004800,370.102971,-8290.306550,-1532.190996
440.005127,3627.009116,-8068.244768,306.438199
440.005455,4959.379811,-8290.306550,2451.505594
440.005782,3701.029710,-8882.471304,3140.991542
440.006110,370.102971,-9696.697840,2757.943793
440.006437,-2590.720797,-10288.862594,1455.581446
440.006765,-2960.823768,-10140.821405,-229.828649
440.007093,-666.185348,-9104.533087,-766.095498
440.007420,2072.576638,-7624.121203,0.000000
440.007748,4515.256246,-6957.935855,1915.238745
440.008075,4367.215058,-7476.080014,2911.162892
440.008403,1332.370696,-7994.224174,2451.505594
440.008730,-1184.329507,-8586.388927,1149.143247
440.009058,-2368.659014,-8808.450710,-1225.752797
440.009385,-1554.432478,-8142.265362,-689.485948
440.009713,666.185348,-7994.224174,-536.266849
440.010041,2442.679609,-8142.265362,1302.362347
440.010368,2072.576638,-9030.512492,2834.553343
440.010696,-518.144159,-9696.697840,3294.210641
440.011023,-3849.070898,-9844.739029,1608.800546
440.011351,-6069.688724,-10362.883188,-459.657299
440.011678,-5181.441594,-9252.574275,-1685.410096
440.012006,-2960.823768,-8438.347739,-1838.629195
440.012333,148.041188,-7105.977043,-689.485948
440.012661,1406.391290,-6291.750507,1149.143247
440.012989,0.000000,-7254.018232,1225.752797
440.013316,-2886.803174,-8142.265362,76.609550
440.013644,-4367.215058,-8438.347739,-1378.971896
440.013971,-3701.029710,-8660.409521,-2528.115143
440.014299,-518.144159,-8364.327145,-2298.286494
440.014626,2664.741391,-8586.388927,-459.657299
440.014954,4441.235652,-9030.512492,1685.410096
440.015281,3108.864956,-10436.903782,2757.943793
440.015609,-148.041188,-11621.233289,2221.676944
440.015937,-2812.782580,-12213.398043,536.266849
440.016264,-3256.906145,-11843.295072,-995.924147
440.016592,-296.082377,-10732.986159,-1378.971896
440.016919,3256.906145,-9474.636058,0.000000
440.017247,5477.523971,-8660.409521,1225.752797
440.017574,5847.626942,-9104.533087,3140.991542
440.017902,3034.844362,-9104.533087,2681.334243
440.018229,-444.123565,-9918.759623,1608.800546
440.018557,-1702.473667,-10214.842000,-306.438199
440.018885,-740.205942,-9844.739029,-766.095498
440.019212,1554.432478,-9770.718434,76.609550
440.019540,3404.947333,-8882.471304,2451.505594
440.019867,2738.761985,-9696.697840,3294.210641
440.020195,-296.082377,-10066.800811,3524.039291
440.020522,-3627.009116,-10436.903782,2221.676944
440.020850,-5847.626942,-10362.883188,229.828649
440.021177,-5181.441594,-9400.615463,-1225.752797
440.021505,-2812.782580,-8586.388927,-1685.410096
440.021833,-148.041188,-7698.141797,0.000000
440.022160,814.226536,-7179.997637,1225.752797
440.022488,-296.082377,-8216.285956,1915.238745
440.022815,-3182.885551,-8142.265362,1072.533697
440.023143,-5403.503377,-8882.471304,-689.485948
440.023470,-4959.379811,-9104.533087,-1378.971896
440.023798,-2220.617826,-8660.409521,-1378.971896
440.024125,1406.391290,-7846.182985,306.438199
440.024453,3552.988522,-7846.182985,2528.115143
440.024781,2368.659014,-9178.553681,3983.696590
440.025108,-592.164754,-10288.862594,2757.943793
440.025436,-3627.009116,-10510.924376,1149.143247
440.025763,-3997.112087,-10214.842000,-229.828649
440.026091,-962.267725,-8808.450710,-919.314598
440.026418,2442.679609,-7772.162391,-306.438199
440.026746,5403.503377,-7105.977043,1685.410096
440.027073,5181.441594,-7550.100608,2911.162892
440.027401,2738.761985,-7920.203579,2757.943793
440.027729,-444.123565,-8586.388927,919.314598
440.028056,-2590.720797,-8956.491898,0.000000
440.028384,-740.205942,-8882.471304,-1225.752797
440.028711,1480.411884,-8882.471304,-383.047749
440.029039,3478.967927,-8512.368333,1225.752797
440.029366,3701.029710,-9030.512492,2757.943793
440.029694,888.247130,-9844.739029,2987.772442
440.030021,-2220.617826,-10066.800811,1762.019645
440.030349,-4959.379811,-10288.862594,-229.828649
440.030677,-4959.379811,-9400.615463,-1991.848295
440.031004,-2220.617826,-8512.368333,-1685.410096
440.031332,666.185348,-7476.080014,-995.924147
440.031659,2516.700203,-6661.853478,919.314598
440.031987,888.247130,-7550.100608,1532.190996
440.032314,-2146.597232,-8586.388927,612.876398
440.032642,-4663.297435,-9104.533087,-766.095498
440.032969,-4219.173869,-9252.574275,-1455.581446
440.033297,-2072.576638,-9030.512492,-1532.190996
440.033625,1110.308913,-8808.450710,-383.047749
440.033952,2886.803174,-9030.512492,1378.971896
440.034280,2294.638420,-9696.697840,2911.162892
440.034607,-666.185348,-10510.924376,2451.505594
440.034935,-3849.070898,-11177.109724,919.314598
440.035262,-4367.215058,-10140.821405,-919.314598
440.035590,-2294.638420,-9992.780217,-1991.848295
440.035917,1480.411884,-8882.471304,-1302.362347
440.036245,4663.297435,-7994.224174,306.438199
440.036573,4885.359217,-7994.224174,1762.019645
440.036900,2146.597232,-9252.574275,1378.971896
440.037228,-1184.329507,-9844.739029,689.485948
440.037555,-2442.679609,-10658.965565,-995.924147
440.037883,-1554.432478,-10584.944971,-1225.752797
440.038210,888.247130,-9548.656652,-766.095498
440.038538,3775.050304,-9326.594869,689.485948
440.038865,4145.153275,-9474.636058,2451.505594
440.039193,2294.638420,-10066.800811,3217.601092
440.039521,-962.267725,-10584.944971,2145.067394
440.039848,-3923.091493,-10807.006753,229.828649
440.040176,-3404.947333,-10436.903782,-689.485948
440.040503,-1554.432478,-9474.636058,-1455.581446
440.040831,1776.494261,-8216.285956,-306.438199
440.041158,3627.009116,-7550.100608,1149.143247
440.041486,2294.638420,-8438.347739,2068.457845
440.041813,-518.144159,-9622.677246,1608.800546
440.042141,-3404.947333,-9400.615463,-229.828649
440.042469,-3997.112087,-9474.636058,-1225.752797
440.042796,-1554.432478,-9548.656652,-1072.533697
440.043124,1184.329507,-9104.533087,0.000000
440.043451,3182.885551,-8438.347739,1762.019645
440.043779,2516.700203,-9622.677246,3677.258390
440.044106,-444.123565,-9918.759623,3294.210641
440.044434,-3997.112087,-10066.800811,1838.629195
440.044761,-5033.400406,-10140.821405,0.000000
440.045089,-3404.947333,-9400.615463,-766.095498
440.045417,-518.144159,-8290.306550,612.876398
440.045744,2368.659014,-7179.997637,919.314598
440.046072,2960.823768,-7328.038826,2451.505594
440.046399,888.247130,-7846.182985,2451.505594
440.046727,-1924.535449,-8586.388927,1455.581446
440.047054,-3552.988522,-8660.409521,-612.876398
440.047382,-2664.741391,-8438.347739,-842.705048
440.047709,0.000000,-8216.285956,-536.266849
440.048037,2294.638420,-8068.244768,1072.533697
440.048365,3108.864956,-8364.327145,2451.505594
440.048692,1406.391290,-9474.636058,3217.601092
440.049020,-1554.432478,-9474.636058,3064.381992
440.049347,-4293.194464,-9992.780217,612.876398
440.049675,-4589.276840,-9844.739029,-766.095498
440.050002,-1850.514855,-9104.533087,-995.924147
440.050330,1406.391290,-7994.224174,153.219100
440.050657,3034.844362,-7031.956449,1149.143247
440.050985,2072.576638,-7624.121203,1532.190996
440.051313,-666.185348,-8438.347739,1072.533697
440.051640,-3330.926739,-9030.512492,-459.657299
440.051968,-3849.070898,-8956.491898,-1838.629195
440.052295,-1850.514855,-8068.244768,-1532.190996
440.052623,1850.514855,-8364.327145,-1072.533697
440.052950,3997.112087,-8216.285956,536.266849
440.053278,3478.967927,-9030.512492,2068.457845
440.053605,222.061783,-9992.780217,2068.457845
440.053933,-3182.885551,-11103.089130,459.657299
440.054261,-4441.235652,-11103.089130,-1149.143247
440.054588,-2738.761985,-10362.883188,-2221.676944
440.054916,370.102971,-9400.615463,-1685.410096
440.055243,3330.926739,-8364.327145,-153.219100
440.055571,4071.132681,-8512.368333,1685.410096
440.055898,2516.700203,-9400.615463,1685.410096
440.056226,-888.247130,-9844.739029,689.485948
440.056553,-2664.741391,-9992.780217,-1072.533697
440.056881,-2146.597232,-9696.697840,-1915.238745
440.057209,592.164754,-9030.512492,-1225.752797
440.057536,3552.988522,-8512.368333,383.047749
440.057864,4737.318029,-8956.491898,2451.505594
440.058191,2442.679609,-9844.739029,3600.648841
440.058519,-666.185348,-10658.965565,2911.162892
440.058846,-3552.988522,-11325.150913,1225.752797
440.059174,-4071.132681,-10732.986159,383.047749
440.059501,-1702.473667,-9696.697840,-459.657299
440.059829,1258.350101,-8660.409521,536.266849
440.060157,3108.864956,-7994.224174,1991.848295
440.060484,1998.556043,-8142.265362,2911.162892
440.060812,-666.185348,-8660.409521,2528.115143
440.061139,-3034.844362,-9030.512492,766.095498
440.061467,-3627.009116,-8882.471304,76.609550
440.061794,-1776.494261,-8512.368333,-306.438199
440.062122,814.226536,-8216.285956,536.266849
440.062449,2960.823768,-8142.265362,2451.505594
440.062777,1924.535449,-9326.594869,4136.915689
440.063105,-1776.494261,-9992.780217,3677.258390
440.063433,-5107.421000,-10510.924376,1608.800546
440.063760,-6661.853478,-10436.903782,0.000000
440.064088,-4885.359217,-9992.780217,-766.095498
440.064416,-1406.391290,-8142.265362,-919.314598
440.064744,1332.370696,-7105.977043,229.828649
440.065071,2442.679609,-7105.977043,1762.019645
440.065399,370.102971,-7328.038826,1685.410096
440.065727,-2220.617826,-7846.182985,689.485948
440.066055,-4219.173869,-7550.100608,-536.266849
440.066383,-2886.803174,-8216.285956,-1838.629195
440.066710,-148.041188,-7994.224174,-1302.362347
440.067038,3034.844362,-7624.121203,0.000000
440.067366,4219.173869,-7772.162391,1991.848295
440.067694,2812.782580,-8882.471304,3217.601092
440.068021,518.144159,-10140.821405,2221.676944
440.068349,-2960.823768,-10584.944971,459.657299
440.068677,-3330.926739,-10584.944971,-919.314598
440.069005,-1406.391290,-9548.656652,-1838.629195
440.069332,2072.576638,-8734.430116,-689.485948
440.069660,4515.256246,-7772.162391,995.924147
440.069988,4071.132681,-8216.285956,1762.019645
440.070316,1406.391290,-8660.409521,1302.362347
440.070643,-1036.288319,-9400.615463,153.219100
440.070971,-2442.679609,-9326.594869,-1455.581446
440.071299,-814.226536,-9326.594869,-2528.115143
440.071627,1332.370696,-8808.450710,-1149.143247
440.071954,3478.967927,-8586.388927,689.485948
440.072282,3034.844362,-9326.594869,2298.286494
440.072610,-296.082377,-9992.780217,2528.115143
440.072938,-3330.926739,-9918.759623,1838.629195
440.073265,-5551.544565,-10510.924376,-536.266849
440.073593,-4737.318029,-9918.759623,-1991.848295
440.073921,-1924.535449,-8956.491898,-1915.238745
440.074249,1258.350101,-7994.224174,-766.095498
440.074576,2590.720797,-7550.100608,1302.362347
440.074904,1332.370696,-8290.306550,2068.457845
440.075232,-1258.350101,-9326.594869,766.095498
440.075560,-3627.009116,-9696.697840,-842.705048
440.075887,-3108.864956,-9992.780217,-1838.629195
440.076215,-296.082377,-9696.697840,-1608.800546
440.076543,2146.597232,-8808.450710,229.828649
440.076871,3997.112087,-9252.574275,2374.896044
440.077198,2812.782580,-10214.842000,3677.258390
440.077526,-296.082377,-10881.027347,3064.381992
440.077854,-3034.844362,-11473.192101,1762.019645
440.078182,-3849.070898,-11177.109724,-153.219100
440.078509,-1554.432478,-10436.903782,-306.438199
440.078837,1776.494261,-8956.491898,0.000000
440.079165,3849.070898,-7920.203579,1608.800546
440.079493,3997.112087,-7920.203579,2681.334243
440.079820,1406.391290,-8512.368333,2451.505594
440.080148,-1480.411884,-9400.615463,1532.190996
440.080476,-2812.782580,-9252.574275,229.828649
440.080804,-1332.370696,-8882.471304,-383.047749
440.081131,1332.370696,-8512.368333,842.705048
440.081459,3404.947333,-8956.491898,2145.067394
440.081787,2294.638420,-9474.636058,3677.258390
440.082115,-1036.288319,-10214.842000,3677.258390
440.082442,-4441.235652,-10362.883188,2451.505594
440.082770,-6143.709319,-10658.965565,306.438199
440.083098,-5255.462188,-9622.677246,-842.705048
440.083426,-3108.864956,-8660.409521,-459.657299
440.083753,370.102971,-7105.977043,229.828649
440.084081,1332.370696,-6957.935855,1149.143247
440.084409,0.000000,-7476.080014,1685.410096
440.084737,-3108.864956,-8068.244768,306.438199
440.085064,-5033.400406,-8216.285956,-1378.971896
440.085392,-4589.276840,-8364.327145,-2834.553343
440.085720,-1480.411884,-8068.244768,-2221.676944
440.086048,1924.535449,-7550.100608,-536.266849
440.086375,4145.153275,-7624.121203,1302.362347
440.086703,3997.112087,-9030.512492,2757.943793
440.087031,222.061783,-9474.636058,2451.505594
440.087359,-2516.700203,-10140.821405,689.485948
440.087687,-3182.885551,-10436.903782,-1072.533697
440.088014,-888.247130,-9696.697840,-1532.190996
440.088342,2220.617826,-8660.409521,-919.314598
440.088670,5847.626942,-7624.121203,612.876398
440.088998,5699.585753,-7772.162391,1685.410096
440.089325,3478.967927,-8586.388927,2068.457845
440.089653,740.205942,-9252.574275,919.314598
440.089981,-1258.350101,-9252.574275,-306.438199
440.090309,370.102971,-9178.553681,-1072.533697
440.090636,2664.741391,-9104.533087,-1072.533697
440.090964,4663.297435,-8882.471304,995.924147
440.091292,3997.112087,-9474.636058,2451.505594
440.091620,1406.391290,-10362.883188,3370.820191
440.091947,-2664.741391,-10140.821405,2528.115143
440.092275,-5329.482782,-10584.944971,459.657299
440.092603,-5329.482782,-10066.800811,-1378.971896
440.092931,-3404.947333,-8808.450710,-1685.410096
440.093258,-370.102971,-7772.162391,-766.095498
440.093586,1184.329507,-7328.038826,383.047749
440.093914,0.000000,-7772.162391,1455.581446
440.094242,-2812.782580,-8364.327145,766.095498
440.094569,-5255.462188,-8586.388927,-995.924147
440.094897,-5699.585753,-8808.450710,-2145.067394
440.095225,-3108.864956,-8808.450710,-2298.286494
440.095553,74.020594,-8216.285956,-383.047749
440.095880,2442.679609,-8438.347739,1378.971896
440.096208,2146.597232,-9400.615463,2834.553343
440.096536,-666.185348,-10214.842000,2528.115143
440.096864,-3256.906145,-11103.089130,1608.800546
440.097191,-4515.256246,-10955.047942,0.000000
440.097519,-2516.700203,-10214.842000,-766.095498
440.097847,740.205942,-9252.574275,-536.266849
440.098175,4219.173869,-8068.244768,919.314598
440.098502,4959.379811,-8068.244768,2834.553343
440.098830,2960.823768,-7920.203579,3064.381992
440.099158,1184.329507,-9622.677246,2374.896044
440.099486,-1480.411884,-8956.491898,536.266849
440.099813,0.000000,-9918.759623,-229.828649
440.100141,2072.576638,-9030.512492,459.657299
440.100469,4737.318029,-9400.615463,2298.286494
440.100797,3997.112087,-8586.388927,3064.381992
440.101124,2590.720797,-10066.800811,4826.401637
440.101452,-2146.597232,-10658.965565,2681.334243
440.101780,-5551.544565,-10436.903782,919.314598
440.102108,-5255.462188,-10510.924376,-995.924147
440.102435,-3701.029710,-9474.636058,-1685.410096
440.102763,962.267725,-8142.265362,153.219100
440.103091,1184.329507,-7920.203579,76.609550
440.103419,0.000000,-8882.471304,1532.190996
440.103746,-3552.988522,-9178.553681,0.000000
440.104074,-4589.276840,-9030.512492,-995.924147
440.104402,-4441.235652,-8882.471304,-2451.505594
440.104730,-3108.864956,-8216.285956,-2528.115143
440.105057,1036.288319,-9104.533087,-536.266849
440.105385,1850.514855,-8438.347739,612.876398
440.105713,2294.638420,-8660.409521,2604.724693
440.106041,-740.205942,-9992.780217,2221.676944
440.106368,-2812.782580,-11769.274478,842.705048
440.106696,-3923.091493,-11251.130318,-459.657299
440.107024,-1850.514855,-10066.800811,-1378.971896
440.107352,1554.432478,-9252.574275,0.000000
440.107679,4589.276840,-8290.306550,689.485948
440.108007,5033.400406,-8512.368333,2298.286494
440.108335,3775.050304,-9252.574275,2374.896044
440.108663,962.267725,-9474.636058,1378.971896
440.108991,-518.144159,-9474.636058,-229.828649
440.109318,-518.144159,-9548.656652,-612.876398
440.109646,3034.844362,-9474.636058,0.000000
440.109974,4737.318029,-8808.450710,1378.971896
440.110302,4663.297435,-9474.636058,3294.210641
440.110629,1924.535449,-10362.883188,3064.381992
440.110957,-1776.494261,-9992.780217,2911.162892
440.111285,-4441.235652,-10436.903782,1072.533697
440.111613,-4515.256246,-9474.636058,-383.047749
440.111940,-2516.700203,-9030.512492,-306.438199
440.112268,0.000000,-7920.203579,153.219100
440.112596,1628.453072,-7105.977043,1991.848295
440.112924,0.000000,-7328.038826,1838.629195
440.113251,-2812.782580,-7624.121203,1072.533697
440.113579,-5329.482782,-8216.285956,-536.266849
440.113907,-5921.647536,-8290.306550,-1991.848295
440.114235,-3256.906145,-8216.285956,-1532.190996
440.114562,-814.226536,-7328.038826,-995.924147
440.114890,1406.391290,-7772.162391,689.485948
440.115218,1110.308913,-8586.388927,1838.629195
440.115546,-1332.370696,-9474.636058,1838.629195
440.115873,-3775.050304,-10214.842000,612.876398
440.116201,-4885.359217,-10140.821405,-995.924147
440.116529,-2960.823768,-9696.697840,-1991.848295
440.116857,518.144159,-8808.450710,-1072.533697
440.117184,4293.194464,-7550.100608,536.266849
440.117512,5699.585753,-7846.182985,1991.848295
440.117840,4071.132681,-8142.265362,2681.334243
440.118168,1480.411884,-9178.553681,1378.971896
440.118495,-370.102971,-9474.636058,383.047749
440.118823,296.082377,-9622.677246,-919.314598
440.119151,2886.803174,-9326.594869,153.219100
440.119479,6217.729913,-8586.388927,919.314598
440.119806,5847.626942,-9400.615463,2911.162892
440.120134,3627.009116,-10066.800811,3907.087040
440.120462,-296.082377,-10658.965565,2681.334243
440.120790,-3627.009116,-10732.986159,689.485948
440.121117,-4071.132681,-10140.821405,-612.876398
440.121445,-1924.535449,-9474.636058,-459.657299
440.121773,-296.082377,-7920.203579,-383.047749
440.122101,1850.514855,-7772.162391,842.705048
440.122428,740.205942,-7994.224174,1915.238745
440.122756,-2368.659014,-8364.327145,1302.362347
440.123084,-5107.421000,-9030.512492,-229.828649
440.123412,-6069.688724,-8956.491898,-1838.629195
440.123739,-4441.235652,-8586.388927,-2221.676944
440.124067,-1406.391290,-8142.265362,-1149.143247
440.124395,740.205942,-7994.224174,306.438199
440.124723,666.185348,-8512.368333,2298.286494
440.125050,-1332.370696,-9622.677246,2068.457845
440.125378,-4737.318029,-10584.944971,689.485948
440.125706,-6069.688724,-10362.883188,-995.924147
440.126034,-4367.215058,-9992.780217,-1915.238745
440.126361,-592.164754,-8734.430116,-995.924147
440.126689,3775.050304,-7920.203579,76.609550
440.127017,5181.441594,-7846.182985,1762.019645
440.127345,4293.194464,-8808.450710,2451.505594
440.127672,1480.411884,-9178.553681,1762.019645
440.128000,-222.061783,-9622.677246,919.314598
440.128328,148.041188,-10066.800811,-383.047749
440.128656,2072.576638,-9770.718434,0.000000
440.128983,4885.359217,-9696.697840,2221.676944
440.129311,5551.544565,-9400.615463,2834.553343
440.129639,2886.803174,-10214.842000,4443.353888
440.129967,518.144159,-10732.986159,2987.772442
440.130295,-3034.844362,-11103.089130,2068.457845
440.130622,-3552.988522,-10510.924376,0.000000
440.130950,-1406.391290,-9474.636058,-383.047749
440.131278,592.164754,-8290.306550,229.828649
440.131606,2146.597232,-7328.038826,1378.971896
440.131933,1184.329507,-8142.265362,2068.457845
440.132261,-1924.535449,-8512.368333,1532.190996
440.132589,-4441.235652,-8808.450710,-153.219100
440.132917,-5699.585753,-8734.430116,-1532.190996
440.133244,-4589.276840,-8216.285956,-2068.457845
440.133572,-1776.494261,-7994.224174,-1225.752797
440.133900,592.164754,-7698.141797,0.000000
440.134228,370.102971,-8364.327145,1685.410096
440.134555,-1776.494261,-9474.636058,1838.629195
440.134883,-4589.276840,-10214.842000,459.657299
440.135211,-5921.647536,-10362.883188,-1302.362347
440.135539,-4885.359217,-9918.759623,-2374.896044
440.135866,-1258.350101,-9326.594869,-1762.019645
440.136194,2960.823768,-8290.306550,-459.657299
440.136522,5329.482782,-7698.141797,995.924147
440.136850,4367.215058,-8290.306550,2604.724693
440.137177,1850.514855,-9474.636058,1378.971896
440.137505,0.000000,-9992.780217,229.828649
440.137833,222.061783,-9918.759623,-842.705048
440.138161,2516.700203,-9770.718434,-383.047749
440.138488,5181.441594,-9400.615463,842.705048
440.138816,6513.812290,-9252.574275,3064.381992
440.139144,5033.400406,-9622.677246,3753.867940
440.139472,814.226536,-10807.006753,3600.648841
440.139799,-1924.535449,-10658.965565,1762.019645
440.140127,-2960.823768,-9918.759623,306.438199
440.140455,-1554.432478,-9474.636058,-153.219100
440.140783,814.226536,-8364.327145,-153.219100
440.141110,2220.617826,-8364.327145,1685.410096
440.141438,1480.411884,-8142.265362,1915.238745
440.141766,-1184.329507,-8586.388927,1378.971896
440.142094,-4737.318029,-8364.327145,919.314598
440.142421,-6143.709319,-8364.327145,-1532.190996
440.142749,-4737.318029,-8290.306550,-1991.848295
440.143077,-1998.556043,-7402.059420,-1378.971896
440.143405,74.020594,-7476.080014,0.000000
440.143732,444.123565,-7846.182985,1915.238745
440.144060,-2220.617826,-8882.471304,2145.067394
440.144388,-5033.400406,-9770.718434,766.095498
440.144716,-6809.894666,-9770.718434,-766.095498
440.145043,-5699.585753,-9252.574275,-1685.410096
440.145371,-2368.659014,-8364.327145,-1685.410096
440.145699,2146.597232,-7254.018232,-306.438199
440.146027,4145.153275,-7105.977043,1455.581446
440.146354,3849.070898,-7994.224174,2451.505594
440.146682,1184.329507,-8956.491898,1762.019645
440.147010,-1332.370696,-9918.759623,229.828649
440.147338,-666.185348,-9548.656652,0.000000
440.147665,1480.411884,-9474.636058,-306.438199
440.147993,4441.235652,-8956.491898,995.924147
440.148321,6217.729913,-9178.553681,3140.991542
440.148649,5033.400406,-9844.739029,4749.792088
440.148976,2072.576638,-10288.862594,3677.258390
440.149304,-2368.659014,-10658.965565,2374.896044
440.149632,-2442.679609,-9770.718434,0.000000
440.149960,-1480.411884,-9696.697840,-766.095498
440.150288,1110.308913,-8512.368333,-536.266849
440.150615,2590.720797,-7698.141797,1225.752797
440.150943,1924.535449,-8142.265362,1915.238745
440.151271,-296.082377,-8438.347739,1838.629195
440.151599,-3552.988522,-9178.553681,383.047749
440.151926,-5699.585753,-8808.450710,-1378.971896
440.152254,-3701.029710,-8882.471304,-1838.629195
440.152582,-1924.535449,-8364.327145,-1378.971896
440.152910,370.102971,-7920.203579,0.000000
440.153237,888.247130,-8290.306550,1532.190996
440.153565,-1406.391290,-9548.656652,1762.019645
440.153893,-4367.215058,-10214.842000,766.095498
440.154221,-6513.812290,-10214.842000,-1378.971896
440.154548,-5847.626942,-9844.739029,-2681.334243
440.154876,-2368.659014,-8956.491898,-2451.505594
440.155204,1406.391290,-8068.244768,-1149.143247
440.155532,3923.091493,-7624.121203,306.438199
440.155859,3478.967927,-8660.409521,2374.896044
440.156187,1110.308913,-9770.718434,995.924147
440.156515,-962.267725,-10658.965565,-153.219100
440.156843,-1332.370696,-10732.986159,-1378.971896
440.157170,1184.329507,-10362.883188,-919.314598
440.157498,4663.297435,-9400.615463,842.705048
440.157826,6809.894666,-9474.636058,2451.505594
440.158154,5033.400406,-9696.697840,3294.210641
440.158481,2294.638420,-10584.944971,3983.696590
440.158809,-370.102971,-10436.903782,1685.410096
440.159137,-2368.659014,-10510.924376,76.609550
440.159465,-814.226536,-9622.677246,-766.095498
440.159792,1406.391290,-8512.368333,0.000000
440.160120,3478.967927,-7772.162391,1302.362347
440.160448,3108.864956,-7698.141797,2451.505594
440.160776,222.061783,-8586.388927,2834.553343
440.161103,-2886.803174,-8438.347739,1838.629195
440.161431,-4737.318029,-9326.594869,-153.219100
440.161759,-4663.297435,-9104.533087,-1072.533697
440.162087,-2886.803174,-8808.450710,-995.924147
440.162414,-592.164754,-7994.224174,766.095498
440.162742,0.000000,-8142.265362,1915.238745
440.163070,-1924.535449,-9030.512492,2221.676944
440.163398,-4811.338623,-9770.718434,1225.752797
440.163725,-7105.977043,-9622.677246,-536.266849
440.164053,-6513.812290,-9252.574275,-1838.629195
440.164381,-3701.029710,-7920.203579,-2145.067394
440.164708,74.020594,-7179.997637,-995.924147
440.165036,2886.803174,-7031.956449,919.314598
440.165363,2738.761985,-7846.182985,1838.629195
440.165691,814.226536,-9178.553681,1608.800546
440.166018,-1406.391290,-9252.574275,919.314598
440.166346,-1110.308913,-9622.677246,-153.219100
440.166673,1184.329507,-9474.636058,-153.219100
440.167001,4441.235652,-9178.553681,1149.143247
440.167329,6365.771101,-9400.615463,2987.772442
440.167656,5773.606348,-9548.656652,4213.525239
440.167984,1776.494261,-10288.862594,3370.820191
440.168311,-148.041188,-10807.006753,2911.162892
440.168639,-1480.411884,-10288.862594,383.047749
440.168966,-1480.411884,-9770.718434,-306.438199
440.169294,1628.453072,-8660.409521,-306.438199
440.169621,3256.906145,-7994.224174,1149.143247
440.169949,2442.679609,-8290.306550,1915.238745
440.170276,0.000000,-7994.224174,1838.629195
440.170604,-3182.885551,-9178.553681,1149.143247
440.170931,-5107.421000,-9326.594869,-919.314598
440.171259,-4663.297435,-9474.636058,-2221.676944
440.171587,-2738.761985,-8512.368333,-1838.629195
440.171914,-740.205942,-7920.203579,-612.876398
440.172242,370.102971,-8142.265362,1225.752797
440.172569,-2072.576638,-8586.388927,1532.190996
440.172897,-4737.318029,-8956.491898,842.705048
440.173224,-7031.956449,-9474.636058,-1532.190996
440.173552,-6661.853478,-9326.594869,-2604.724693
440.173879,-3627.009116,-8586.388927,-2911.162892
440.174207,370.102971,-7550.100608,-1608.800546
440.174534,3256.906145,-7105.977043,-229.828649
440.174862,3256.906145,-8438.347739,1302.362347
440.175190,1332.370696,-9474.636058,842.705048
440.175517,-1110.308913,-10214.842000,0.000000
440.175845,-1258.350101,-10658.965565,-1608.800546
440.176172,1184.329507,-10362.883188,-1378.971896
440.176500,4737.318029,-9548.656652,229.828649
440.176827,6957.935855,-9474.636058,2221.676944
440.177155,6883.915261,-10214.842000,3830.477490
440.177482,3701.029710,-10807.006753,3907.087040
440.177810,666.185348,-11325.150913,2757.943793
440.178137,-2072.576638,-10807.006753,-229.828649
440.178465,-1776.494261,-10214.842000,-383.047749
440.178792,1924.535449,-8438.347739,-383.047749
440.179120,3182.885551,-8512.368333,1225.752797
440.179448,3256.906145,-7994.224174,2451.505594
440.179775,1406.391290,-8068.244768,2604.724693
440.180103,-2146.597232,-9178.553681,1608.800546
440.180430,-4367.215058,-9400.615463,-383.047749
440.180758,-4441.235652,-9400.615463,-995.924147
440.181085,-2368.659014,-8808.450710,-1149.143247
440.181413,0.000000,-8734.430116,0.000000
440.181740,74.020594,-8364.327145,1532.190996
440.182068,-1554.432478,-9474.636058,2604.724693
440.182395,-4589.276840,-9844.739029,1608.800546
440.182723,-7105.977043,-10288.862594,-306.438199
440.183050,-7105.977043,-9844.739029,-1762.019645
440.183378,-4589.276840,-9030.512492,-1608.800546
440.183706,-148.041188,-8068.244768,-1149.143247
440.184033,2516.700203,-7624.121203,306.438199
440.184361,2590.720797,-8216.285956,1608.800546
440.184688,666.185348,-9252.574275,1455.581446
440.185016,-1702.473667,-9400.615463,459.657299
440.185343,-2146.597232,-10140.821405,-689.485948
440.185671,222.061783,-9696.697840,-459.657299
440.185998,3701.029710,-8882.471304,383.047749
440.186326,6365.771101,-8734.430116,2451.505594
440.186653,6143.709319,-9326.594869,3907.087040
440.186981,3849.070898,-9622.677246,3830.477490
440.187308,-740.205942,-10140.821405,1762.019645
440.187636,-2146.597232,-10066.800811,1302.362347
440.187964,-444.123565,-9326.594869,-536.266849
440.188291,888.247130,-9178.553681,0.000000
440.188619,3627.009116,-7994.224174,842.705048
440.188946,3775.050304,-7772.162391,2298.286494
440.189274,1110.308913,-8364.327145,2451.505594
440.189601,-1628.453072,-8660.409521,1685.410096
440.189929,-3923.091493,-9030.512492,459.657299
440.190256,-3923.091493,-8660.409521,-536.266849
440.190584,-1998.556043,-8586.388927,-689.485948
440.190911,-222.061783,-8068.244768,229.828649
440.191239,222.061783,-8142.265362,1685.410096
440.191566,-1184.329507,-8660.409521,2528.115143
440.191894,-4589.276840,-8808.450710,1532.190996
440.192222,-7179.997637,-9178.553681,-229.828649
440.192549,-7476.080014,-8734.430116,-2221.676944
440.192877,-5107.421000,-8068.244768,-2528.115143
440.193204,-1480.411884,-7031.956449,-1991.848295
440.193532,1998.556043,-6291.750507,229.828649
440.193859,2294.638420,-7105.977043,536.266849
440.194187,444.123565,-8364.327145,766.095498
440.194514,-2368.659014,-9400.615463,-383.047749
440.194842,-3108.864956,-9622.677246,-1762.019645
440.195169,-888.247130,-9252.574275,-1378.971896
440.195497,2812.782580,-8734.430116,-536.266849
440.195824,5995.668130,-8808.450710,1378.971896
440.196152,6883.915261,-9622.677246,2834.553343
440.196480,4293.194464,-10510.924376,3294.210641
440.196807,814.226536,-11177.109724,2221.676944
440.197135,-1776.494261,-11103.089130,-1149.143247
440.197462,-1628.453072,-10881.027347,-842.705048
440.197790,2442.679609,-9474.636058,-1608.800546
440.198117,4811.338623,-9326.594869,459.657299
440.198445,5181.441594,-8290.306550,1762.019645
440.198772,4071.132681,-9770.718434,2911.162892
440.199100,148.041188,-9326.594869,1838.629195
440.199427,-2442.679609,-10288.862594,0.000000
440.199755,-2368.659014,-10066.800811,-842.705048
440.200082,-1628.453072,-9770.718434,-1302.362347
440.200410,666.185348,-9400.615463,0.000000
440.200738,1776.494261,-9030.512492,1762.019645
440.201065,-888.247130,-9622.677246,2374.896044
440.201393,-3478.967927,-9770.718434,1915.238745
440.201720,-6809.894666,-9844.739029,-229.828649
440.202048,-7476.080014,-9326.594869,-1838.629195
440.202375,-5699.585753,-8586.388927,-2451.505594
440.202703,-2368.659014,-7550.100608,-1991.848295
440.203030,666.185348,-6957.935855,-383.047749
440.203358,1184.329507,-7254.018232,1149.143247
440.203685,-444.123565,-8586.388927,1762.019645
440.204013,-2590.720797,-9474.636058,153.219100
440.204341,-3849.070898,-9770.718434,-612.876398
440.204668,-1776.494261,-9548.656652,-1225.752797
440.204996,1702.473667,-8956.491898,306.438199
440.205323,5033.400406,-8808.450710,2298.286494
440.205651,5699.585753,-9400.615463,4290.134789
440.205978,3552.988522,-10140.821405,4443.353888
440.206306,0.000000,-10881.027347,3294.210641
440.206633,-1850.514855,-10436.903782,1991.848295
440.206961,-1850.514855,-9844.739029,-612.876398
440.207288,1110.308913,-8956.491898,459.657299
440.207616,4663.297435,-7698.141797,919.314598
440.207943,4367.215058,-8364.327145,2451.505594
440.208271,2442.679609,-8068.244768,3064.381992
440.208599,0.000000,-8882.471304,2298.286494
440.208926,-2886.803174,-9400.615463,689.485948
440.209254,-3108.864956,-9326.594869,-612.876398
440.209581,-1850.514855,-9178.553681,-383.047749
440.209909,-148.041188,-8438.347739,306.438199
440.210236,962.267725,-8216.285956,1838.629195
440.210564,-592.164754,-8734.430116,2681.334243
440.210891,-3552.988522,-9252.574275,2145.067394
440.211219,-5847.626942,-9400.615463,306.438199
440.211546,-7179.997637,-8882.471304,-1838.629195
440.211874,-5477.523971,-8142.265362,-2451.505594
440.212201,-1850.514855,-7698.141797,-2298.286494
440.212529,962.267725,-6957.935855,-919.314598
440.212857,1628.453072,-6957.935855,-229.828649
440.213184,-148.041188,-8364.327145,383.047749
440.213512,-2812.782580,-9252.574275,-536.266849
440.213839,-3701.029710,-9992.780217,-1991.848295
440.214167,-2072.576638,-10066.800811,-2068.457845
440.214494,2368.659014,-9696.697840,-1072.533697
440.214822,5921.647536,-9400.615463,842.705048
440.215149,6957.935855,-9992.780217,2757.943793
440.215477,4663.297435,-10955.047942,3140.991542
440.215804,1184.329507,-11473.192101,2451.505594
440.216132,-1036.288319,-11103.089130,995.924147
440.216459,-1480.411884,-11251.130318,-1149.143247
440.216787,1184.329507,-10288.862594,-459.657299
440.217115,4811.338623,-8586.388927,383.047749
440.217442,4959.379811,-8586.388927,2145.067394
440.217770,4663.297435,-8364.327145,2604.724693
440.218097,1258.350101,-8586.388927,2451.505594
440.218425,-2368.659014,-9474.636058,536.266849
440.218752,-2960.823768,-9474.636058,-842.705048
440.219080,-1850.514855,-9474.636058,-612.876398
440.219407,-222.061783,-8438.347739,-153.219100
440.219735,1332.370696,-8586.388927,1762.019645
440.220062,0.000000,-9030.512492,2757.943793
440.220390,-3404.947333,-9400.615463,2298.286494
440.220717,-6217.729913,-9622.677246,995.924147
440.221045,-7698.141797,-8882.471304,-842.705048
440.221373,-6365.771101,-8364.327145,-1532.190996
440.221700,-3182.885551,-7550.100608,-2068.457845
440.222028,-148.041188,-6587.832884,-689.485948
440.222355,666.185348,-7105.977043,919.314598
440.222683,-962.267725,-7772.162391,1455.581446
440.223010,-3256.906145,-8660.409521,306.438199
440.223338,-4071.132681,-9326.594869,-1455.581446
440.223665,-2368.659014,-9178.553681,-1685.410096
440.223993,1406.391290,-8882.471304,-842.705048
440.224320,4885.359217,-8364.327145,919.314598
440.224648,6143.709319,-9104.533087,2987.772442
440.224975,4441.235652,-10362.883188,3677.258390
440.225303,814.226536,-10584.944971,2604.724693
440.225631,-1554.432478,-10955.047942,919.314598
440.225958,-1184.329507,-10510.924376,-383.047749
440.226286,296.082377,-9474.636058,-1455.581446
440.226613,3775.050304,-8586.388927,1302.362347
440.226941,6069.688724,-7624.121203,1762.019645
440.227268,3997.112087,-8734.430116,2834.553343
440.227596,1036.288319,-9178.553681,1991.848295
440.227923,-1554.432478,-9844.739029,612.876398
440.228251,-2516.700203,-9474.636058,-1302.362347
440.228578,-1406.391290,-9030.512492,-1302.362347
440.228906,962.267725,-8808.450710,0.000000
440.229234,1998.556043,-8512.368333,1149.143247
440.229561,1184.329507,-9178.553681,2528.115143
440.229889,-2220.617826,-9622.677246,2221.676944
440.230216,-5255.462188,-9918.759623,536.266849
440.230544,-6809.894666,-10140.821405,-842.705048
440.230871,-5403.503377,-9252.574275,-1915.238745
440.231199,-2368.659014,-8364.327145,-1685.410096
440.231526,0.000000,-7179.997637,-383.047749
440.231854,1332.370696,-7254.018232,1378.971896
440.232181,-518.144159,-8438.347739,995.924147
440.232509,-2812.782580,-8956.491898,0.000000
440.232836,-3923.091493,-9696.697840,-995.924147
440.233164,-2516.700203,-9326.594869,-1455.581446
440.233492,1332.370696,-8882.471304,-536.266849
440.233819,4367.215058,-8956.491898,689.485948
440.234147,5403.503377,-9622.677246,2911.162892
440.234474,3256.906145,-10362.883188,3600.648841
440.234802,0.000000,-11177.109724,2757.943793
440.235129,-2368.659014,-11251.130318,612.876398
440.235457,-2590.720797,-10807.006753,-229.828649
440.235784,-814.226536,-9622.677246,-1149.143247
440.236112,2590.720797,-8586.388927,459.657299
440.236439,5181.441594,-7550.100608,1455.581446
440.236767,3256.906145,-7772.162391,3140.991542
440.237094,1184.329507,-8216.285956,2068.457845
440.237422,-1850.514855,-8734.430116,842.705048
440.237750,-3108.864956,-9326.594869,-459.657299
440.238077,-1702.473667,-8808.450710,-1302.362347
440.238405,222.061783,-8438.347739,153.219100
440.238732,1924.535449,-7994.224174,1915.238745
440.239060,1406.391290,-8882.471304,2911.162892
440.239387,-1110.308913,-9252.574275,2757.943793
440.239715,-4515.256246,-9770.718434,1302.362347
440.240042,-5107.421000,-9918.759623,0.000000
440.240370,-4589.276840,-8808.450710,-1378.971896
440.240697,-2146.597232,-7624.121203,-995.924147
440.241025,740.205942,-7254.018232,0.000000
440.241352,1628.453072,-7476.080014,1762.019645
440.241680,0.000000,-8290.306550,1685.410096
440.242008,-2590.720797,-8660.409521,459.657299
440.242335,-4219.173869,-9252.574275,-306.438199
440.242663,-3034.844362,-9326.594869,-1149.143247
440.242990,0.000000,-8956.491898,-842.705048
440.243318,2960.823768,-8364.327145,536.266849
440.243645,4737.318029,-7920.203579,2221.676944
440.243973,3182.885551,-9622.677246,3677.258390
440.244300,0.000000,-10140.821405,2528.115143
440.244628,-3034.844362,-10584.944971,842.705048
440.244955,-3404.947333,-10362.883188,-689.485948
440.245283,-1332.370696,-9474.636058,-1455.581446
440.245610,1924.535449,-8216.285956,-306.438199
440.245938,4663.297435,-7105.977043,919.314598
440.246266,3552.988522,-8364.327145,2451.505594
440.246593,1258.350101,-8734.430116,1762.019645
440.246921,-1776.494261,-9400.615463,459.657299
440.247248,-2886.803174,-9844.739029,-689.485948
440.247576,-1776.494261,-9548.656652,-1532.190996
440.247903,444.123565,-9326.594869,-842.705048
440.248231,2294.638420,-8586.388927,689.485948
440.248558,2590.720797,-9252.574275,2374.896044
440.248886,518.144159,-9400.615463,2451.505594
440.249213,-2960.823768,-9844.739029,995.924147
440.249541,-4737.318029,-10214.842000,-842.705048
440.249868,-4293.194464,-9992.780217,-2068.457845
440.250196,-1702.473667,-9104.533087,-2145.067394
440.250524,1184.329507,-8142.265362,-766.095498
440.250851,1998.556043,-7994.224174,689.485948
440.251179,222.061783,-9104.533087,1149.143247
440.251506,-2516.700203,-9474.636058,229.828649
440.251834,-4441.235652,-9696.697840,-919.314598
440.252161,-3404.947333,-9992.780217,-2221.676944
440.252489,-888.247130,-8808.450710,-2221.676944
440.252816,2590.720797,-8512.368333,-536.266849
440.253144,4663.297435,-8808.450710,1378.971896
440.253471,3478.967927,-9474.636058,2528.115143
440.253799,592.164754,-10436.903782,2451.505594
440.254126,-2442.679609,-10881.027347,689.485948
440.254454,-3034.844362,-10881.027347,-766.095498
440.254782,-1110.308913,-10288.862594,-995.924147
440.255109,1702.473667,-9326.594869,-229.828649
440.255437,4515.256246,-8438.347739,1149.143247
440.255764,4145.153275,-8734.430116,2451.505594
440.256092,2146.597232,-9178.553681,2757.943793
440.256419,-814.226536,-9844.739029,1455.581446
440.256747,-2294.638420,-10362.883188,0.000000
440.257074,-1036.288319,-10066.800811,-766.095498
440.257402,1110.308913,-9474.636058,0.000000
440.257729,2886.803174,-8956.491898,1685.410096
440.258057,2886.803174,-9400.615463,3294.210641
440.258385,0.000000,-10140.821405,3677.258390
440.258712,-2812.782580,-10362.883188,2374.896044
440.259040,-4515.256246,-10510.924376,995.924147
440.259367,-4367.215058,-8882.471304,-995.924147
440.259695,-1776.494261,-8364.327145,153.219100
440.260022,666.185348,-7476.080014,766.095498
440.260350,1332.370696,-7402.059420,1915.238745
440.260677,-296.082377,-7994.224174,2451.505594
440.261005,-3404.947333,-7846.182985,1455.581446
440.261332,-5403.503377,-8216.285956,-229.828649
440.261660,-4293.194464,-8364.327145,-1072.533697
440.261987,-1036.288319,-7846.182985,-842.705048
440.262315,2072.576638,-7772.162391,842.705048
440.262643,3478.967927,-7846.182985,2528.115143
440.262970,2146.597232,-9474.636058,3294.210641
440.263298,-1480.411884,-10288.862594,2298.286494
440.263625,-4515.256246,-10510.924376,766.095498
440.263953,-4515.256246,-10362.883188,-1149.143247
440.264280,-2368.659014,-9474.636058,-919.314598
440.264608,1554.432478,-8216.285956,-383.047749
440.264935,4071.132681,-7254.018232,1455.581446
440.265263,4367.215058,-7402.059420,1915.238745
440.265590,1850.514855,-8142.265362,1838.629195
440.265918,-1258.350101,-8882.471304,459.657299
440.266246,-2442.679609,-8956.491898,-842.705048
440.266573,-1628.453072,-8808.450710,-1762.019645
440.266901,1184.329507,-8290.306550,-536.266849
440.267229,3775.050304,-8142.265362,995.924147
440.267556,3701.029710,-8734.430116,2528.115143
440.267884,1406.391290,-9030.512492,3064.381992
440.268212,-2146.597232,-9770.718434,1762.019645
440.268539,-4293.194464,-10066.800811,-153.219100
440.268867,-3775.050304,-9696.697840,-1532.190996
440.269194,-1702.473667,-8808.450710,-1608.800546
440.269522,1480.411884,-7698.141797,0.000000
440.269850,2812.782580,-7698.141797,842.705048
440.270177,1110.308913,-7994.224174,1455.581446
440.270505,-1702.473667,-8734.430116,612.876398
440.270833,-3997.112087,-9178.553681,-1149.143247
440.271160,-3404.947333,-9400.615463,-1762.019645
440.271488,-962.267725,-9104.533087,-2068.457845
440.271816,1776.494261,-8586.388927,-612.876398
440.272143,3997.112087,-9030.512492,1532.190996
440.272471,2294.638420,-10066.800811,2604.724693
440.272798,-1110.308913,-10658.965565,1532.190996
440.273126,-3849.070898,-11251.130318,383.047749
440.273454,-4811.338623,-11029.068536,-1378.971896
440.273781,-2294.638420,-9696.697840,-1915.238745
440.274109,1406.391290,-8734.430116,-919.314598
440.274437,4367.215058,-7920.203579,459.657299
440.274764,4737.318029,-8068.244768,2221.676944
440.275092,2590.720797,-9178.553681,1991.848295
440.275420,-814.226536,-9770.718434,1072.533697
440.275747,-2664.741391,-9992.780217,-766.095498
440.276075,-1480.411884,-10214.842000,-995.924147
440.276403,888.247130,-9474.636058,-612.876398
440.276730,3256.906145,-9030.512492,1072.533697
440.277058,3627.009116,-9326.594869,3064.381992
440.277385,1332.370696,-9918.759623,3140.991542
440.277713,-1850.514855,-10510.924376,2451.505594
440.278041,-4219.173869,-10362.883188,229.828649
440.278368,-3997.112087,-9696.697840,-459.657299
440.278696,-1554.432478,-8882.471304,-689.485948
440.279024,444.123565,-7772.162391,0.000000
440.279351,1924.535449,-7550.100608,1838.629195
440.279679,740.205942,-7550.100608,2834.553343
440.280007,-1924.535449,-7994.224174,1838.629195
440.280334,-4219.173869,-8142.265362,76.609550
440.280662,-4071.132681,-8512.368333,-612.876398
440.280990,-1850.514855,-8364.327145,-689.485948
440.281317,740.205942,-7994.224174,612.876398
440.281645,2220.617826,-8142.265362,2221.676944
440.281972,1406.391290,-9030.512492,3294.210641
440.282300,-1554.432478,-9474.636058,2681.334243
440.282628,-4515.256246,-9696.697840,1225.752797
440.282955,-4737.318029,-10066.800811,-383.047749
440.283283,-3108.864956,-8660.409521,-689.485948
440.283611,222.061783,-8438.347739,-383.047749
440.283938,3256.906145,-7254.018232,842.705048
440.284266,3552.988522,-7772.162391,2145.067394
440.284594,1480.411884,-8586.388927,2145.067394
440.284921,-1332.370696,-8956.491898,1608.800546
440.285249,-3034.844362,-9030.512492,-612.876398
440.285577,-1850.514855,-9474.636058,-1378.971896
440.285904,444.123565,-9030.512492,-766.095498
440.286232,2960.823768,-8364.327145,536.266849
440.286559,3627.009116,-8734.430116,2374.896044
440.286887,2072.576638,-9770.718434,2528.115143
440.287215,-1036.288319,-9918.759623,2145.067394
440.287542,-3552.988522,-10362.883188,0.000000
440.287870,-2960.823768,-10140.821405,-1302.362347
440.288198,-888.247130,-9326.594869,-1608.800546
440.288525,1924.535449,-7698.141797,-995.924147
440.288853,3923.091493,-8068.244768,842.705048
440.289181,2368.659014,-8660.409521,1608.800546
440.289508,-296.082377,-9326.594869,995.924147
440.289836,-2664.741391,-9548.656652,-383.047749
440.290164,-2960.823768,-9474.636058,-1072.533697
440.290491,-1036.288319,-9622.677246,-1455.581446
440.290819,1850.514855,-9030.512492,-306.438199
440.291146,3478.967927,-9326.594869,1455.581446
440.291474,2294.638420,-9918.759623,2911.162892
440.291802,-1258.350101,-10658.965565,2757.943793
440.292129,-4071.132681,-11251.130318,1378.971896
440.292457,-5403.503377,-10955.047942,-842.705048
440.292785,-3404.947333,-10288.862594,-1302.362347
440.293112,-444.123565,-8808.450710,-1455.581446
440.293440,2516.700203,-7846.182985,76.609550
440.293768,3923.091493,-7846.182985,2145.067394
440.294095,1480.411884,-8364.327145,1915.238745
440.294423,-1628.453072,-9178.553681,766.095498
440.294750,-3404.947333,-9770.718434,-919.314598
440.295078,-3034.844362,-9548.656652,-1762.019645
440.295406,-888.247130,-8660.409521,-1455.581446
440.295733,1924.535449,-8734.430116,306.438199
440.296061,2738.761985,-8882.471304,1991.848295
440.296389,1258.350101,-9400.615463,2681.334243
440.296716,-1184.329507,-9696.697840,1762.019645
440.297044,-3478.967927,-9770.718434,229.828649
440.297372,-3256.906145,-9622.677246,-1225.752797
440.297699,-1406.391290,-9030.512492,-1685.410096
440.298027,1480.411884,-7846.182985,-766.095498
440.298355,3701.029710,-7698.141797,766.095498
440.298682,2886.803174,-8364.327145,2451.505594
440.299010,296.082377,-8734.430116,1685.410096
440.299337,-2072.576638,-9400.615463,459.657299
440.299665,-2516.700203,-9326.594869,-842.705048
440.299993,-296.082377,-9030.512492,-612.876398
440.300320,2368.659014,-8882.471304,383.047749
440.300648,3849.070898,-8438.347739,2374.896044
440.300976,2886.803174,-9474.636058,3217.601092
440.301303,-222.061783,-9918.759623,3140.991542
440.301631,-3552.988522,-10214.842000,1685.410096
440.301959,-4737.318029,-10214.842000,76.609550
440.302286,-3330.926739,-9030.512492,-689.485948
440.302614,-666.185348,-8438.347739,-612.876398
440.302942,2220.617826,-7624.121203,612.876398
440.303269,2516.700203,-7920.203579,1915.238745
440.303597,814.226536,-8734.430116,1915.238745
440.303924,-2368.659014,-9104.533087,919.314598
440.304252,-3701.029710,-9474.636058,-306.438199
440.304580,-3478.967927,-9474.636058,-1302.362347
440.304907,-1258.350101,-9104.533087,-919.314598
440.305235,1406.391290,-8734.430116,766.095498
440.305563,2738.761985,-8290.306550,2451.505594
440.305890,1406.391290,-9178.553681,3140.991542
440.306218,-962.267725,-9992.780217,2451.505594
440.306546,-3256.906145,-10214.842000,689.485948
440.306873,-3182.885551,-10066.800811,-459.657299
440.307201,-1184.329507,-9178.553681,-689.485948
440.307529,1628.453072,-7772.162391,229.828649
440.307856,3627.009116,-8068.244768,1378.971896
440.308184,3034.844362,-8660.409521,2451.505594
440.308511,370.102971,-9326.594869,2068.457845
440.308839,-2146.597232,-9918.759623,995.924147
440.309167,-2146.597232,-9696.697840,-383.047749
440.309494,-740.205942,-10214.842000,-766.095498
440.309822,1776.494261,-9252.574275,153.219100
440.310150,3627.009116,-9178.553681,1838.629195
440.310477,2664.741391,-9622.677246,2604.724693
440.310805,-444.123565,-10140.821405,2681.334243
440.311133,-3404.947333,-10288.862594,689.485948
440.311460,-5329.482782,-9844.739029,-766.095498
440.311788,-3997.112087,-9326.594869,-1762.019645
440.312116,-1184.329507,-8142.265362,-1685.410096
440.312443,2072.576638,-7254.018232,306.438199
440.312771,2960.823768,-7179.997637,1762.019645
440.313098,1036.288319,-7698.141797,1455.581446
440.313426,-1480.411884,-8808.450710,536.266849
440.313754,-3849.070898,-9326.594869,-1225.752797
440.314081,-3552.988522,-9474.636058,-2145.067394
440.314409,-1776.494261,-8290.306550,-1915.238745
440.314737,1702.473667,-8660.409521,-229.828649
440.315064,3478.967927,-8438.347739,1685.410096
440.315392,2516.700203,-9326.594869,2451.505594
440.315720,0.000000,-9622.677246,2068.457845
440.316047,-2590.720797,-9844.739029,766.095498
440.316375,-3256.906145,-9918.759623,-1762.019645
440.316702,-1702.473667,-9622.677246,-1838.629195
440.317030,1406.391290,-8068.244768,-919.314598
440.317358,4071.132681,-7550.100608,766.095498
440.317685,3552.988522,-7698.141797,1991.848295
440.318013,1480.411884,-8512.368333,2298.286494
440.318341,-1110.308913,-8734.430116,612.876398
440.318668,-1924.535449,-9178.553681,-459.657299
440.318996,-444.123565,-8586.388927,-689.485948
440.319324,1998.556043,-8438.347739,0.000000
440.319651,3627.009116,-8068.244768,2068.457845
440.319979,2664.741391,-9104.533087,3140.991542
440.320307,-296.082377,-9548.656652,2987.772442
440.320634,-3627.009116,-10066.800811,1608.800546
440.320962,-5477.523971,-10066.800811,0.000000
440.321289,-4441.235652,-9696.697840,-1608.800546
440.321617,-1924.535449,-8364.327145,-1225.752797
440.321945,1332.370696,-7402.059420,0.000000
440.322272,2516.700203,-7402.059420,1302.362347
440.322600,814.226536,-8068.244768,1685.410096
440.322928,-1850.514855,-8808.450710,995.924147
440.323255,-4219.173869,-8956.491898,-919.314598
440.323583,-4367.215058,-9326.594869,-1608.800546
440.323911,-2072.576638,-8586.388927,-1532.190996
440.324238,962.267725,-8512.368333,0.000000
440.324566,3034.844362,-8660.409521,1991.848295
440.324894,2146.597232,-9474.636058,2681.334243
440.325221,-888.247130,-10214.842000,2068.457845
440.325549,-3404.947333,-10955.047942,229.828649
440.325876,-3775.050304,-11103.089130,-995.924147
440.326204,-1702.473667,-10066.800811,-1455.581446
440.326532,2072.576638,-8734.430116,-383.047749
440.326859,4515.256246,-8068.244768,1072.533697
440.327187,4589.276840,-8808.450710,2528.115143
440.327515,2072.576638,-9178.553681,1915.238745
440.327842,-296.082377,-9992.780217,1302.362347
440.328170,-814.226536,-10362.883188,0.000000
440.328498,-444.123565,-10658.965565,-153.219100
440.328825,2442.679609,-9918.759623,459.657299
440.329153,4219.173869,-9770.718434,2451.505594
440.329481,3775.050304,-10214.842000,3677.258390
440.329808,592.164754,-10732.986159,3830.477490
440.330136,-2516.700203,-10436.903782,2145.067394
440.330463,-4737.318029,-10658.965565,612.876398
440.330791,-4219.173869,-9696.697840,-383.047749
440.331119,-1924.535449,-8586.388927,-842.705048
440.331446,740.205942,-7920.203579,153.219100
440.331774,1184.329507,-7476.080014,1991.848295
440.332102,-444.123565,-7994.224174,1762.019645
440.332429,-3404.947333,-8364.327145,1072.533697
440.332757,-5625.565159,-8808.450710,-919.314598
440.333085,-5847.626942,-9030.512492,-1838.629195
440.333412,-3478.967927,-8216.285956,-2145.067394
440.333740,-296.082377,-7698.141797,-612.876398
440.334068,1998.556043,-7772.162391,1072.533697
440.334395,1480.411884,-8734.430116,2145.067394
440.334723,-666.185348,-9252.574275,1838.629195
440.335050,-3034.844362,-9400.615463,612.876398
440.335378,-3182.885551,-10140.821405,-1225.752797
440.335706,-1110.308913,-9474.636058,-1991.848295
440.336033,2220.617826,-8216.285956,-995.924147
440.336361,4959.379811,-7772.162391,842.705048
440.336689,5551.544565,-7772.162391,2145.067394
440.337016,3701.029710,-9030.512492,2221.676944
440.337344,1036.288319,-9474.636058,1378.971896
440.337672,-814.226536,-9844.739029,-459.657299
440.337999,148.041188,-9770.718434,-536.266849
440.338327,3034.844362,-9030.512492,-536.266849
440.338654,4589.276840,-8734.430116,1532.190996
440.338982,3997.112087,-9104.533087,3140.991542
440.339310,1332.370696,-9474.636058,2911.162892
440.339637,-2294.638420,-9770.718434,1685.410096
440.339965,-4885.359217,-9696.697840,-383.047749
440.340293,-4663.297435,-8956.491898,-1455.581446
440.340620,-2738.761985,-8660.409521,-1455.581446
440.340948,0.000000,-7179.997637,-536.266849
440.341276,1184.329507,-7254.018232,536.266849
440.341603,-370.102971,-7920.203579,1072.533697
440.341931,-2886.803174,-8290.306550,1072.533697
440.342259,-5033.400406,-8808.450710,-1225.752797
440.342586,-5551.544565,-9178.553681,-2451.505594
440.342914,-3182.885551,-8956.491898,-2221.676944
440.343241,-222.061783,-8660.409521,-995.924147
440.343569,2294.638420,-8438.347739,1302.362347
440.343897,1924.535449,-9178.553681,1762.019645
440.344224,0.000000,-10140.821405,2145.067394
440.344552,-2516.700203,-10807.006753,842.705048
440.344880,-3256.906145,-11177.109724,-459.657299
440.345207,-1776.494261,-10288.862594,-995.924147
440.345535,2146.597232,-9104.533087,-383.047749
440.345863,5107.421000,-8438.347739,995.924147
440.346190,5329.482782,-8808.450710,2451.505594
440.346518,3404.947333,-9474.636058,2834.553343
440.346846,814.226536,-9844.739029,1685.410096
440.347173,370.102971,-10140.821405,995.924147
440.347501,74.020594,-10066.800811,-306.438199
440.347828,2294.638420,-9696.697840,766.095498
440.348156,4219.173869,-8882.471304,2221.676944
440.348484,2960.823768,-10066.800811,3370.820191
440.348811,518.144159,-10436.903782,3524.039291
440.349139,-2812.782580,-10658.965565,2451.505594
440.349467,-5773.606348,-10881.027347,536.266849
440.349794,-4885.359217,-9770.718434,-612.876398
440.350122,-2812.782580,-8808.450710,-919.314598
440.350450,-370.102971,-7402.059420,0.000000
440.350777,1036.288319,-6661.853478,1455.581446
440.351105,-148.041188,-7254.018232,1838.629195
440.351433,-2368.659014,-7624.121203,1149.143247
440.351760,-5107.421000,-8438.347739,-306.438199
440.352088,-5255.462188,-8512.368333,-1149.143247
440.352415,-3330.926739,-8142.265362,-1685.410096
440.352743,-370.102971,-7772.162391,0.000000
440.353071,2072.576638,-7772.162391,1685.410096
440.353398,1480.411884,-8808.450710,2681.334243
440.353726,-666.185348,-9400.615463,2528.115143
440.354054,-3108.864956,-10066.800811,383.047749
440.354381,-4293.194464,-9770.718434,-766.095498
440.354709,-2294.638420,-9622.677246,-1378.971896
440.355037,1110.308913,-8586.388927,-1072.533697
440.355364,4219.173869,-7698.141797,306.438199
440.355692,5551.544565,-7550.100608,2145.067394
440.356020,3404.947333,-8068.244768,2451.505594
440.356347,888.247130,-8808.450710,1225.752797
440.356675,-962.267725,-9474.636058,-919.314598
440.357002,-296.082377,-9844.739029,-612.876398
440.357330,2886.803174,-9104.533087,0.000000
440.357658,4071.132681,-9548.656652,1149.143247
440.357985,4145.153275,-9252.574275,2834.553343
440.358313,2442.679609,-10140.821405,3370.820191
440.358641,-1184.329507,-10214.842000,2451.505594
440.358968,-3627.009116,-10214.842000,383.047749
440.359296,-3701.029710,-9400.615463,-459.657299
440.359624,-2072.576638,-8586.388927,-1072.533697
440.359951,370.102971,-7994.224174,-383.047749
440.360279,1628.453072,-7402.059420,995.924147
440.360606,148.041188,-7994.224174,1302.362347
440.360934,-1628.453072,-8142.265362,536.266849
440.361262,-4811.338623,-9030.512492,-689.485948
440.361589,-5773.606348,-9326.594869,-1991.848295
440.361917,-4071.132681,-9178.553681,-1991.848295
440.362245,-1480.411884,-8512.368333,-1378.971896
440.362572,1480.411884,-8290.306550,306.438199
440.362900,1258.350101,-8734.430116,1915.238745
440.363228,-666.185348,-9918.759623,1762.019645
440.363555,-3404.947333,-10436.903782,459.657299
440.363883,-4219.173869,-11251.130318,-1225.752797
440.364211,-2886.803174,-10732.986159,-1608.800546
440.364538,592.164754,-9474.636058,-995.924147
440.364866,3849.070898,-8660.409521,0.000000
440.365193,5255.462188,-8512.368333,1838.629195
440.365521,3923.091493,-9178.553681,2145.067394
440.365849,1776.494261,-9770.718434,1149.143247
440.366176,-222.061783,-9696.697840,153.219100
440.366504,814.226536,-10214.842000,-1072.533697
440.366832,2442.679609,-9992.780217,0.000000
440.367159,5329.482782,-9474.636058,1455.581446
440.367487,4959.379811,-10288.862594,3064.381992
440.367815,2368.659014,-10732.986159,4213.525239
440.368142,-814.226536,-10658.965565,2911.162892
440.368470,-3404.947333,-10288.862594,1532.190996
440.368798,-3775.050304,-9992.780217,-229.828649
440.369125,-1924.535449,-9104.533087,-306.438199
440.369453,518.144159,-8142.265362,306.438199
440.369781,1850.514855,-7550.100608,1762.019645
440.370108,296.082377,-7920.203579,2374.896044
440.370436,-2812.782580,-8512.368333,1762.019645
440.370764,-5551.544565,-8956.491898,76.609550
440.371091,-6365.771101,-8438.347739,-1225.752797
440.371419,-4737.318029,-7846.182985,-1838.629195
440.371747,-1850.514855,-7476.080014,-383.047749
440.372074,296.082377,-7402.059420,1072.533697
440.372402,444.123565,-7994.224174,2451.505594
440.372730,-1406.391290,-8956.491898,2221.676944
440.373057,-4071.132681,-9326.594869,1762.019645
440.373385,-5107.421000,-9400.615463,-842.705048
440.373713,-3627.009116,-9178.553681,-1455.581446
440.374040,-592.164754,-8290.306550,-1378.971896
440.374368,3182.885551,-7846.182985,229.828649
440.374696,4811.338623,-7772.162391,1685.410096
440.375023,3627.009116,-7772.162391,2221.676944
440.375351,1406.391290,-8734.430116,1302.362347
440.375679,-148.041188,-9326.594869,-306.438199
440.376006,370.102971,-9474.636058,-842.705048
440.376334,2368.659014,-8734.430116,-919.314598
440.376662,4959.379811,-7920.203579,1302.362347
440.376989,5551.544565,-9030.512492,2451.505594
440.377317,2812.782580,-9770.718434,3830.477490
440.377645,148.041188,-9770.718434,2604.724693
440.377972,-2664.741391,-10214.842000,1838.629195
440.378300,-3034.844362,-9844.739029,-229.828649
440.378628,-1702.473667,-9252.574275,-689.485948
440.378956,74.020594,-8586.388927,0.000000
440.379283,1998.556043,-7772.162391,536.266849
440.379611,962.267725,-8142.265362,1608.800546
440.379939,-1628.453072,-8438.347739,1149.143247
440.380266,-4219.173869,-9104.533087,-459.657299
440.380594,-5329.482782,-9326.594869,-1915.238745
440.380922,-4515.256246,-8882.471304,-2298.286494
440.381249,-2072.576638,-8438.347739,-1532.190996
440.381577,888.247130,-7994.224174,-306.438199
440.381905,1480.411884,-9400.615463,1455.581446
440.382232,-888.247130,-9918.759623,1378.971896
440.382560,-3627.009116,-10436.903782,383.047749
440.382888,-5181.441594,-10807.006753,-1149.143247
440.383215,-3478.967927,-10510.924376,-1685.410096
440.383543,-740.205942,-9844.739029,-1608.800546
440.383871,2590.720797,-8956.491898,-383.047749
440.384198,4737.318029,-8882.471304,1302.362347
440.384526,3997.112087,-9474.636058,2221.676944
440.384854,1628.453072,-9622.677246,1608.800546
440.385181,-148.041188,-10288.862594,306.438199
440.385509,0.000000,-10288.862594,-383.047749
440.385837,2442.679609,-10066.800811,0.000000
440.386164,4737.318029,-9474.636058,1225.752797
440.386492,4811.338623,-9548.656652,2757.943793
440.386820,3701.029710,-9622.677246,4443.353888
440.387147,74.020594,-9844.739029,3524.039291
440.387475,-3330.926739,-10140.821405,1685.410096
440.387803,-3627.009116,-9844.739029,229.828649
440.388130,-1776.494261,-9104.533087,0.000000
440.388458,0.000000,-7698.141797,536.266849
440.388786,2220.617826,-7624.121203,1455.581446
440.389113,888.247130,-7476.080014,2604.724693
440.389441,-1924.535449,-7846.182985,1915.238745
440.389769,-4737.318029,-8290.306550,612.876398
440.390096,-6291.750507,-8660.409521,-306.438199
440.390424,-4737.318029,-8068.244768,-995.924147
440.390752,-2368.659014,-7772.162391,-306.438199
440.391079,0.000000,-7254.018232,766.095498
440.391407,444.123565,-8068.244768,1915.238745
440.391735,-1554.432478,-8808.450710,1915.238745
440.392062,-3923.091493,-9400.615463,919.314598
440.392390,-5773.606348,-9326.594869,-1378.971896
440.392718,-4293.194464,-9178.553681,-2221.676944
440.393045,-962.267725,-7920.203579,-2221.676944
440.393373,2664.741391,-7105.977043,-842.705048
440.393701,5107.421000,-7402.059420,995.924147
440.394028,4071.132681,-7846.182985,1838.629195
440.394356,1628.453072,-9252.574275,1149.143247
440.394684,-370.102971,-9770.718434,0.000000
440.395011,-222.061783,-10362.883188,-919.314598
440.395339,1924.535449,-9918.759623,-919.314598
440.395667,5107.421000,-8808.450710,1072.533697
440.395994,5995.668130,-8956.491898,2757.943793
440.396322,3997.112087,-9770.718434,3140.991542
440.396650,1554.432478,-10436.903782,2681.334243
440.396977,-1702.473667,-9770.718434,1225.752797
440.397305,-3256.906145,-9918.759623,-153.219100
440.397633,-1554.432478,-9696.697840,-1302.362347
440.397960,222.061783,-8660.409521,-995.924147
440.398288,2072.576638,-8808.450710,919.314598
440.398616,1998.556043,-8586.388927,1685.410096
440.398944,-370.102971,-8808.450710,1838.629195
440.399271,-3701.029710,-9400.615463,306.438199
440.399599,-5329.482782,-9474.636058,-1532.190996
440.399927,-5107.421000,-9622.677246,-2145.067394
440.400254,-2368.659014,-9030.512492,-1685.410096
440.400582,74.020594,-8660.409521,-306.438199
440.400910,888.247130,-8808.450710,1532.190996
440.401237,-814.226536,-9696.697840,1991.848295
440.401565,-3478.967927,-10214.842000,1149.143247
440.401893,-5033.400406,-10436.903782,-842.705048
440.402220,-4737.318029,-9918.759623,-1149.143247
440.402548,-1702.473667,-9326.594869,-1991.848295
440.402876,2072.576638,-8586.388927,-689.485948
440.403203,4589.276840,-8438.347739,1072.533697
440.403531,4145.153275,-9252.574275,2145.067394
440.403859,2220.617826,-9918.759623,1762.019645
440.404186,-296.082377,-10362.883188,842.705048
440.404514,-518.144159,-10807.006753,76.609550
440.404842,1850.514855,-10807.006753,76.609550
440.405169,4367.215058,-9696.697840,1225.752797
440.405497,5477.523971,-9474.636058,2834.553343
440.405825,3404.947333,-10066.800811,3983.696590
440.406152,962.267725,-10658.965565,3217.601092
440.406480,-2146.597232,-10362.883188,2221.676944
440.406808,-3478.967927,-9992.780217,459.657299
440.407135,-1628.453072,-9474.636058,0.000000
440.407463,518.144159,-8808.450710,229.828649
440.407791,1480.411884,-7846.182985,995.924147
440.408118,1184.329507,-7698.141797,2528.115143
440.408446,-1480.411884,-8290.306550,2145.067394
440.408774,-3997.112087,-8808.450710,1149.143247
440.409101,-5847.626942,-8660.409521,-689.485948
440.409429,-5255.462188,-8290.306550,-919.314598
440.409757,-2220.617826,-8142.265362,-689.485948
440.410084,-74.020594,-7920.203579,766.095498
440.410412,518.144159,-7994.224174,1991.848295
440.410740,-1480.411884,-8512.368333,2068.457845
440.411067,-4293.194464,-9400.615463,1149.143247
440.411395,-5773.606348,-9622.677246,-919.314598
440.411723,-4885.359217,-9252.574275,-1991.848295
440.412050,-1776.494261,-8142.265362,-1762.019645
440.412378,2146.597232,-7254.018232,-612.876398
440.412706,4367.215058,-7254.018232,1149.143247
440.413033,3997.112087,-8142.265362,1302.362347
440.413361,1776.494261,-8660.409521,1149.143247
440.413689,0.000000,-9326.594869,-153.219100
440.414016,0.000000,-9474.636058,-766.095498
440.414344,1776.494261,-9030.512492,-919.314598
440.414672,4737.318029,-8956.491898,612.876398
440.414999,5847.626942,-8956.491898,1991.848295
440.415327,5033.400406,-9918.759623,3600.648841
440.415655,1998.556043,-9992.780217,2451.505594
440.415982,-1998.556043,-9844.739029,1608.800546
440.416310,-2294.638420,-9474.636058,-689.485948
440.416638,-1628.453072,-9548.656652,-995.924147
440.416965,148.041188,-8512.368333,-766.095498
440.417293,2738.761985,-7476.080014,153.219100
440.417621,2220.617826,-7846.182985,1685.410096
440.417948,222.061783,-8216.285956,1225.752797
440.418276,-2886.803174,-8808.450710,153.219100
440.418604,-4663.297435,-9030.512492,-1149.143247
440.418931,-3775.050304,-8808.450710,-2145.067394
440.419259,-2442.679609,-8290.306550,-1378.971896
440.419587,148.041188,-8068.244768,0.000000
440.419915,1110.308913,-8142.265362,1762.019645
440.420242,-814.226536,-9252.574275,2221.676944
440.420570,-4071.132681,-9696.697840,1149.143247
440.420898,-5921.647536,-10214.842000,-229.828649
440.421225,-5773.606348,-9696.697840,-1532.190996
440.421553,-2664.741391,-8808.450710,-1455.581446
440.421881,740.205942,-8142.265362,-842.705048
440.422208,3775.050304,-7920.203579,612.876398
440.422536,3552.988522,-8660.409521,1838.629195
440.422864,1702.473667,-9252.574275,1915.238745
440.423191,-962.267725,-9770.718434,0.000000
440.423519,-1184.329507,-10436.903782,-459.657299
440.423847,518.144159,-10436.903782,-306.438199
440.424174,3478.967927,-9622.677246,612.876398
440.424502,4811.338623,-9474.636058,2681.334243
440.424830,4589.276840,-9474.636058,2987.772442
440.425157,1258.350101,-10658.965565,3830.477490
440.425485,-814.226536,-10436.903782,2145.067394
440.425813,-2368.659014,-10436.903782,612.876398
440.426140,-1924.535449,-9474.636058,-153.219100
440.426468,962.267725,-8956.491898,536.266849
440.426796,2664.741391,-7920.203579,1225.752797
440.427123,2368.659014,-7994.224174,2528.115143
440.427451,1258.350101,-8364.327145,2757.943793
440.427779,-2294.638420,-9030.512492,1685.410096
440.428106,-4071.132681,-9104.533087,0.000000
440.428434,-3923.091493,-8586.388927,-612.876398
440.428762,-2442.679609,-8734.430116,-383.047749
440.429089,0.000000,-8068.244768,842.705048
440.429417,296.082377,-8438.347739,2145.067394
440.429745,-1184.329507,-9030.512492,2451.505594
440.430072,-4219.173869,-9326.594869,1532.190996
440.430400,-6365.771101,-9770.718434,-383.047749
440.430728,-6217.729913,-9474.636058,-1608.800546
440.431055,-3627.009116,-8586.388927,-2221.676944
440.431383,0.000000,-7772.162391,-842.705048
440.431711,2368.659014,-7105.977043,766.095498
440.432038,2664.741391,-7994.224174,1072.533697
440.432366,370.102971,-8882.471304,995.924147
440.432694,-1628.453072,-9548.656652,76.609550
440.433021,-2146.597232,-9992.780217,-919.314598
440.433349,148.041188,-9770.718434,-1149.143247
440.433677,2960.823768,-8956.491898,153.219100
440.434004,5329.482782,-8956.491898,1685.410096
440.434332,4885.359217,-9252.574275,3294.210641
440.434660,1924.535449,-10066.800811,2834.553343
440.434987,-296.082377,-10288.862594,2451.505594
440.435315,-1554.432478,-9992.780217,-153.219100
440.435643,-1480.411884,-9918.759623,-689.485948
440.435970,1036.288319,-8956.491898,-689.485948
440.436298,3182.885551,-8216.285956,842.705048
440.436626,3330.926739,-7624.121203,2145.067394
440.436953,1628.453072,-8364.327145,2528.115143
440.437281,-1924.535449,-9030.512492,1072.533697
440.437609,-4071.132681,-9178.553681,-689.485948
440.437936,-3627.009116,-9326.594869,-1455.581446
440.438264,-2220.617826,-8660.409521,-1225.752797
440.438592,-296.082377,-8364.327145,76.609550
440.438919,888.247130,-8660.409521,1532.190996
440.439247,-962.267725,-8956.491898,2298.286494
440.439575,-3849.070898,-9400.615463,1225.752797
440.439902,-5921.647536,-9474.636058,-306.438199
440.440230,-6291.750507,-9326.594869,-1685.410096
440.440558,-3849.070898,-8882.471304,-2528.115143
440.440886,-296.082377,-7698.141797,-1302.362347
440.441213,2294.638420,-7179.997637,229.828649
440.441541,2738.761985,-7920.203579,1225.752797
440.441869,1036.288319,-8734.430116,1149.143247
440.442196,-1110.308913,-9844.739029,-383.047749
440.442524,-1776.494261,-10140.821405,-1225.752797
440.442852,296.082377,-10140.821405,-1378.971896
440.443179,3256.906145,-9548.656652,-153.219100
440.443507,5403.503377,-9622.677246,1915.238745
440.443835,5551.544565,-10214.842000,3064.381992
440.444162,2812.782580,-10584.944971,3370.820191
440.444490,0.000000,-10658.965565,1685.410096
440.444818,-2738.761985,-10881.027347,306.438199
440.445145,-814.226536,-10288.862594,-766.095498
440.445473,1702.473667,-8734.430116,-459.657299
440.445801,3182.885551,-7772.162391,919.314598
440.446128,3849.070898,-8290.306550,2374.896044
440.446456,2072.576638,-8438.347739,2757.943793
440.446784,-1332.370696,-9030.512492,2221.676944
440.447111,-3108.864956,-8438.347739,612.876398
440.447439,-3552.988522,-9474.636058,0.000000
440.447767,-2368.659014,-9030.512492,-153.219100
440.448094,-222.061783,-8512.368333,842.705048
440.448422,74.020594,-8586.388927,2451.505594
440.448750,-1184.329507,-8438.347739,3830.477490
440.449077,-3627.009116,-9400.615463,2221.676944
440.449405,-6809.894666,-9474.636058,306.438199
440.449733,-6587.832884,-9252.574275,-1225.752797
440.450060,-4589.276840,-8586.388927,-1991.848295
440.450388,-962.267725,-7772.162391,-842.705048
440.450716,1480.411884,-7105.977043,536.266849
440.451043,1702.473667,-7846.182985,1378.971896
440.451371,0.000000,-8290.306550,1149.143247
440.451699,-2072.576638,-9252.574275,229.828649
440.452026,-2516.700203,-9474.636058,-842.705048
440.452354,-444.123565,-9474.636058,-995.924147
440.452682,2294.638420,-9400.615463,153.219100
440.453009,4811.338623,-9178.553681,1915.238745
440.453337,5033.400406,-9918.759623,3217.601092
440.453665,2960.823768,-10436.903782,3140.991542
440.453992,444.123565,-10658.965565,1991.848295
440.454320,-1036.288319,-10436.903782,383.047749
440.454648,-1406.391290,-9992.780217,-766.095498
440.454975,2220.617826,-8882.471304,-536.266849
440.455303,4441.235652,-7772.162391,766.095498
440.455631,4441.235652,-7624.121203,1532.190996
440.455958,2960.823768,-8438.347739,2374.896044
440.456286,-370.102971,-8808.450710,1225.752797
440.456614,-2812.782580,-9918.759623,76.609550
440.456941,-2960.823768,-9548.656652,-1072.533697
440.457269,-2072.576638,-9474.636058,-612.876398
440.457597,444.123565,-8808.450710,76.609550
440.457924,1480.411884,-8882.471304,1838.629195
440.458252,-222.061783,-9104.533087,2528.115143
440.458580,-2960.823768,-9622.677246,1838.629195
440.458907,-5773.606348,-9622.677246,0.000000
440.459235,-6661.853478,-9622.677246,-1378.971896
440.459563,-4959.379811,-8586.388927,-2604.724693
440.459890,-1998.556043,-7698.141797,-1991.848295
440.460218,962.267725,-7105.977043,-383.047749
440.460546,1776.494261,-7402.059420,1225.752797
440.460874,0.000000,-8438.347739,1149.143247
440.461201,-1850.514855,-9178.553681,153.219100
440.461529,-3034.844362,-9770.718434,-1225.752797
440.461857,-1628.453072,-9844.739029,-1838.629195
440.462184,1406.391290,-9474.636058,-919.314598
440.462512,4293.194464,-9030.512492,459.657299
440.462840,5033.400406,-9474.636058,3064.381992
440.463167,3552.988522,-10658.965565,2834.553343
440.463495,518.144159,-10807.006753,2068.457845
440.463823,-1110.308913,-10732.986159,383.047749
440.464150,-74.020594,-9696.697840,76.609550
440.464478,1850.514855,-8808.450710,-919.314598
440.464806,3478.967927,-8068.244768,536.266849
440.465133,4811.338623,-7254.018232,1762.019645
440.465461,3256.906145,-8216.285956,2451.505594
440.465789,296.082377,-8364.327145,1838.629195
440.466116,-1776.494261,-8734.430116,0.000000
440.466444,-2960.823768,-9474.636058,-229.828649
440.466771,-1554.432478,-9252.574275,-766.095498
440.467099,-148.041188,-9030.512492,766.095498
440.467427,888.247130,-8956.491898,1838.629195
440.467754,-592.164754,-9104.533087,2681.334243
440.468082,-2812.782580,-9400.615463,2145.067394
440.468410,-5551.544565,-9548.656652,306.438199
440.468737,-6439.791695,-9178.553681,-1072.533697
440.469065,-4663.297435,-8512.368333,-1762.019645
440.469393,-1628.453072,-7031.956449,-1149.143247
440.469720,962.267725,-7105.977043,-459.657299
440.470048,1036.288319,-7254.018232,1378.971896
440.470375,-518.144159,-8142.265362,1455.581446
440.470703,-2590.720797,-9178.553681,536.266849
440.471031,-3404.947333,-9474.636058,-459.657299
440.471358,-1702.473667,-9770.718434,-995.924147
440.471686,1258.350101,-9326.594869,0.000000
440.472014,3627.009116,-9474.636058,1762.019645
440.472341,4071.132681,-9770.718434,3294.210641
440.472669,2368.659014,-10362.883188,3370.820191
440.472997,-666.185348,-10140.821405,2451.505594
440.473324,-2220.617826,-10288.862594,919.314598
440.473652,-1850.514855,-9918.759623,-689.485948
440.473979,1036.288319,-8956.491898,-153.219100
440.474307,3849.070898,-7994.224174,229.828649
440.474635,4441.235652,-8660.409521,2604.724693
440.474962,3404.947333,-8808.450710,2451.505594
440.475290,148.041188,-9326.594869,2068.457845
440.475618,-2442.679609,-9770.718434,383.047749
440.475945,-2738.761985,-9992.780217,-689.485948
440.476273,-1480.411884,-9844.739029,-459.657299
440.476601,74.020594,-9104.533087,536.266849
440.476928,1628.453072,-9178.553681,1915.238745
440.477256,444.123565,-9474.636058,2604.724693
440.477583,-2072.576638,-9844.739029,1915.238745
440.477911,-4515.256246,-9474.636058,536.266849
440.478239,-5329.482782,-8734.430116,-1455.581446
440.478566,-3701.029710,-8512.368333,-1838.629195
440.478894,-1184.329507,-7328.038826,-1685.410096
440.479222,1628.453072,-6883.915261,-153.219100
440.479549,1998.556043,-7031.956449,919.314598
440.479877,296.082377,-7920.203579,1225.752797
440.480205,-2442.679609,-9030.512492,383.047749
440.480532,-3627.009116,-9696.697840,-995.924147
440.480860,-2812.782580,-9992.780217,-1608.800546
440.481188,296.082377,-9474.636058,-995.924147
440.481515,3182.885551,-9104.533087,612.876398
440.481843,3849.070898,-9400.615463,2451.505594
440.482170,2812.782580,-10214.842000,2911.162892
440.482498,-148.041188,-10362.883188,1685.410096
440.482826,-2368.659014,-10436.903782,76.609550
440.483153,-2590.720797,-9918.759623,-1991.848295
440.483481,0.000000,-9400.615463,-1072.533697
440.483809,3404.947333,-8068.244768,-229.828649
440.484136,3775.050304,-7994.224174,1378.971896
440.484464,3330.926739,-8364.327145,1915.238745
440.484792,814.226536,-8882.471304,1608.800546
440.485119,-1554.432478,-9400.615463,766.095498
440.485447,-2738.761985,-8956.491898,-766.095498
440.485774,-1258.350101,-9474.636058,-689.485948
440.486102,666.185348,-8808.450710,76.609550
440.486430,2294.638420,-8586.388927,1991.848295
440.486757,1332.370696,-8734.430116,2834.553343
440.487085,-740.205942,-9104.533087,2681.334243
440.487413,-3330.926739,-9178.553681,1072.533697
440.487740,-4885.359217,-9252.574275,-459.657299
440.488068,-4071.132681,-8660.409521,-1302.362347
440.488396,-1628.453072,-8068.244768,-995.924147
440.488723,518.144159,-7105.977043,306.438199
440.489051,1184.329507,-7920.203579,1838.629195
440.489378,-518.144159,-8734.430116,1915.238745
440.489706,-2812.782580,-9326.594869,766.095498
440.490034,-4071.132681,-9400.615463,-536.266849
440.490361,-2664.741391,-8956.491898,-995.924147
440.490689,-592.164754,-8882.471304,-919.314598
440.491017,2516.700203,-8808.450710,689.485948
440.491344,3627.009116,-8882.471304,2528.115143
440.491672,2220.617826,-9622.677246,3140.991542
440.492000,-518.144159,-10288.862594,2068.457845
440.492327,-2812.782580,-10658.965565,306.438199
440.492655,-2664.741391,-10436.903782,-459.657299
440.492982,-370.102971,-9474.636058,-612.876398
440.493310,2146.597232,-8512.368333,0.000000
440.493638,3997.112087,-8142.265362,1838.629195
440.493965,3552.988522,-8216.285956,2528.115143
440.494293,888.247130,-9104.533087,2145.067394
440.494621,-1184.329507,-9548.656652,689.485948
440.494948,-1998.556043,-9770.718434,-459.657299
440.495276,-740.205942,-9918.759623,-766.095498
440.495604,1184.329507,-9178.553681,383.047749
440.495931,2590.720797,-9104.533087,1762.019645
440.496259,2072.576638,-9622.677246,2834.553343
440.496586,0.000000,-9918.759623,2451.505594
440.496914,-3256.906145,-9992.780217,1225.752797
440.497242,-4219.173869,-9770.718434,0.000000
440.497569,-3330.926739,-9474.636058,-1225.752797
440.497897,-1554.432478,-8660.409521,-842.705048
440.498225,1110.308913,-7624.121203,76.609550
440.498552,1554.432478,-7846.182985,1225.752797
440.498880,0.000000,-7920.203579,1225.752797
440.499208,-2516.700203,-8512.368333,689.485948
440.499535,-3775.050304,-9104.533087,-612.876398
440.499863,-2960.823768,-9252.574275,-1455.581446
440.500190,-814.226536,-8808.450710,-919.314598
440.500518,1480.411884,-8882.471304,229.828649
440.500846,2812.782580,-9030.512492,2068.457845
440.501173,1850.514855,-10066.800811,2834.553343
440.501501,-888.247130,-10288.862594,2298.286494
440.501829,-3108.864956,-10807.006753,459.657299
440.502156,-2960.823768,-10510.924376,-766.095498
440.502484,-370.102971,-9474.636058,-766.095498
440.502812,1776.494261,-8364.327145,0.000000
440.503139,3923.091493,-7772.162391,919.314598
440.503467,3108.864956,-8364.327145,1991.848295
440.503794,962.267725,-8586.388927,1455.581446
440.504122,-1406.391290,-8956.491898,153.219100
440.504450,-2294.638420,-9326.594869,-1225.752797
440.504777,-1406.391290,-9178.553681,-1072.533697
440.505105,666.185348,-8660.409521,-306.438199
440.505433,2590.720797,-8512.368333,1149.143247
440.505760,2516.700203,-8586.388927,2221.676944
440.506088,740.205942,-9548.656652,2451.505594
440.506416,-2220.617826,-9474.636058,1302.362347
440.506743,-3997.112087,-9400.615463,-306.438199
440.507071,-3478.967927,-9474.636058,-1302.362347
440.507398,-1258.350101,-8438.347739,-842.705048
440.507726,1332.370696,-7846.182985,-153.219100
440.508054,2072.576638,-7772.162391,1072.533697
440.508381,814.226536,-8364.327145,1608.800546
440.508709,-1406.391290,-9030.512492,842.705048
440.509037,-3182.885551,-9178.553681,-383.047749
440.509364,-2664.741391,-8882.471304,-995.924147
440.509692,-592.164754,-8956.491898,-766.095498
440.510020,2146.597232,-8734.430116,383.047749
440.510347,3478.967927,-8956.491898,1991.848295
440.510675,1776.494261,-9770.718434,2757.943793
440.511003,-814.226536,-10362.883188,2221.676944
440.511330,-3256.906145,-10140.821405,919.314598
440.511658,-3478.967927,-10066.800811,-383.047749
440.511985,-1850.514855,-9474.636058,-919.314598
440.512313,1184.329507,-8364.327145,-229.828649
440.512641,2738.761985,-7994.224174,1685.410096
440.512968,2516.700203,-7920.203579,2068.457845
440.513296,444.123565,-8734.430116,1532.190996
440.513624,-1702.473667,-9178.553681,459.657299
440.513951,-2664.741391,-9622.677246,-995.924147
440.514279,-1480.411884,-9622.677246,-536.266849
440.514607,888.247130,-9400.615463,-229.828649
440.514934,2664.741391,-8734.430116,1302.362347
440.515262,2590.720797,-9326.594869,2604.724693
440.515589,740.205942,-10436.903782,2757.943793
440.515917,-1924.535449,-10584.944971,1685.410096
440.516245,-3775.050304,-10732.986159,153.219100
440.516572,-3182.885551,-10436.903782,-689.485948
440.516900,-1480.411884,-9400.615463,-689.485948
440.517228,1258.350101,-8586.388927,536.266849
440.517555,2220.617826,-8512.368333,1838.629195
440.517883,1036.288319,-8364.327145,2451.505594
440.518211,-1480.411884,-9178.553681,1225.752797
440.518538,-3182.885551,-9178.553681,0.000000
440.518866,-2960.823768,-9252.574275,-842.705048
440.519193,-1036.288319,-8956.491898,-689.485948
440.519521,1628.453072,-8512.368333,383.047749
440.519849,3182.885551,-8586.388927,2451.505594
440.520176,1702.473667,-9474.636058,2757.943793
440.520504,-1036.288319,-9696.697840,2374.896044
440.520832,-3404.947333,-9918.759623,919.314598
440.521159,-3849.070898,-9992.780217,-459.657299
440.521487,-2146.597232,-9326.594869,-766.095498
440.521815,666.185348,-8438.347739,-229.828649
440.522142,2368.659014,-7846.182985,842.705048
440.522470,2368.659014,-8142.265362,1915.238745
440.522797,666.185348,-8660.409521,1455.581446
440.523125,-1258.350101,-9178.553681,1225.752797
440.523453,-2812.782580,-9548.656652,-995.924147
440.523780,-1406.391290,-9326.594869,-1225.752797
440.524108,518.144159,-8734.430116,-689.485948
440.524436,2516.700203,-8290.306550,1072.533697
440.524763,3256.906145,-8586.388927,2451.505594
440.525091,1628.453072,-9030.512492,2987.772442
440.525419,-1332.370696,-9622.677246,1685.410096
440.525746,-3182.885551,-10066.800811,76.609550
440.526074,-3034.844362,-9844.739029,-842.705048
440.526401,-1184.329507,-8956.491898,-1378.971896
440.526729,1480.411884,-8068.244768,0.000000
440.527057,2664.741391,-7994.224174,1378.971896
440.527384,1702.473667,-8216.285956,1685.410096
440.527712,-814.226536,-8734.430116,1225.752797
440.528040,-2738.761985,-9252.574275,-383.047749
440.528367,-2812.782580,-8882.471304,-1149.143247
440.528695,-888.247130,-8734.430116,-1225.752797
440.529023,1924.535449,-8586.388927,0.000000
440.529350,3182.885551,-8660.409521,1608.800546
440.529678,2368.659014,-9252.574275,2451.505594
440.530005,-296.082377,-9548.656652,1608.800546
440.530333,-3404.947333,-9622.677246,842.705048
440.530661,-3775.050304,-9992.780217,-766.095498
440.530988,-2516.700203,-9178.553681,-1149.143247
440.531316,296.082377,-8142.265362,-612.876398
440.531644,2590.720797,-7846.182985,995.924147
440.531971,2664.741391,-7698.141797,1608.800546
440.532299,666.185348,-8586.388927,1838.629195
440.532627,-1628.453072,-9104.533087,612.876398
440.532954,-3256.906145,-9178.553681,-689.485948
440.533282,-2368.659014,-9178.553681,-1532.190996
440.533609,-296.082377,-8882.471304,-689.485948
440.533937,2368.659014,-8882.471304,689.485948
440.534265,2738.761985,-9104.533087,2374.896044
440.534592,1406.391290,-9992.780217,2757.943793
440.534920,-1554.432478,-10510.924376,1838.629195
440.535248,-3404.947333,-10807.006753,536.266849
440.535575,-3701.029710,-10584.944971,-842.705048
440.535903,-1480.411884,-9474.636058,-1072.533697
440.536231,1258.350101,-8364.327145,0.000000
440.536558,2664.741391,-8068.244768,1378.971896
440.536886,2294.638420,-8512.368333,1915.238745
440.537213,74.020594,-8438.347739,1378.971896
440.537541,-2294.638420,-8882.471304,229.828649
440.537869,-2368.659014,-9252.574275,-766.095498
440.538196,-814.226536,-9252.574275,-459.657299
440.538524,1036.288319,-8512.368333,536.266849
440.538852,2960.823768,-9548.656652,2145.067394
440.539179,1776.494261,-9696.697840,2834.553343
440.539507,-1184.329507,-10066.800811,2451.505594
440.539835,-3627.009116,-10436.903782,1149.143247
440.540162,-4737.318029,-10066.800811,-229.828649
440.540490,-3256.906145,-9474.636058,-919.314598
440.540818,-148.041188,-8586.388927,-689.485948
440.541145,2072.576638,-7476.080014,459.657299
440.541473,2590.720797,-7772.162391,1302.362347
440.541800,1184.329507,-8364.327145,1455.581446
440.542128,-1332.370696,-8660.409521,76.609550
440.542456,-3330.926739,-9474.636058,-995.924147
440.542783,-2368.659014,-9474.636058,-1455.581446
440.543111,-444.123565,-9400.615463,-842.705048
440.543439,2220.617826,-9178.553681,766.095498
440.543766,3108.864956,-9104.533087,2068.457845
440.544094,1628.453072,-9844.739029,3294.210641
440.544422,-888.247130,-10214.842000,2298.286494
440.544749,-3108.864956,-10214.842000,459.657299
440.545077,-3034.844362,-9918.759623,-842.705048
440.545404,-814.226536,-8882.471304,-842.705048
440.545732,2146.597232,-7328.038826,229.828649
440.546060,3552.988522,-7402.059420,1302.362347
440.546387,2812.782580,-7920.203579,2068.457845
440.546715,518.144159,-8364.327145,1532.190996
440.547043,-1702.473667,-8586.388927,459.657299
440.547370,-2146.597232,-8956.491898,-306.438199
440.547698,-666.185348,-8660.409521,-459.657299
440.548026,1554.432478,-8512.368333,383.047749
440.548353,2812.782580,-8438.347739,2221.676944
440.548681,1850.514855,-9400.615463,2757.943793
440.549008,-296.082377,-10140.821405,2604.724693
440.549336,-3701.029710,-9770.718434,1302.362347
440.549664,-5033.400406,-9844.739029,-229.828649
440.549991,-3478.967927,-9178.553681,-1149.143247
440.550319,-1702.473667,-8438.347739,-842.705048
440.550647,1628.453072,-7624.121203,536.266849
440.550974,1850.514855,-7254.018232,1685.410096
440.551302,296.082377,-8216.285956,1378.971896
440.551630,-2294.638420,-8882.471304,229.828649
440.551957,-3849.070898,-9104.533087,-1149.143247
440.552285,-3330.926739,-9030.512492,-1762.019645
440.552612,-888.247130,-8438.347739,-1149.143247
440.552940,1776.494261,-8512.368333,229.828649
440.553268,3108.864956,-8882.471304,1991.848295
440.553595,1850.514855,-9622.677246,2528.115143
440.553923,-814.226536,-9992.780217,1685.410096
440.554251,-2886.803174,-10362.883188,229.828649
440.554578,-3034.844362,-10510.924376,-1225.752797
440.554906,-962.267725,-9548.656652,-1532.190996
440.555234,2220.617826,-8512.368333,-383.047749
440.555561,4293.194464,-8290.306550,995.924147
440.555889,3849.070898,-8438.347739,2068.457845
440.556216,1554.432478,-9252.574275,1685.410096
440.556544,-1036.288319,-9474.636058,229.828649
440.556872,-1554.432478,-9696.697840,-306.438199
440.557199,-296.082377,-9770.718434,-229.828649
440.557527,1850.514855,-9030.512492,536.266849
440.557855,3330.926739,-9400.615463,2145.067394
440.558182,2220.617826,-9770.718434,3064.381992
440.558510,-148.041188,-10214.842000,2911.162892
440.558838,-3256.906145,-10362.883188,1838.629195
440.559165,-4959.379811,-10214.842000,0.000000
440.559493,-3849.070898,-9622.677246,-766.095498
440.559820,-1850.514855,-8438.347739,-919.314598
440.560148,592.164754,-7624.121203,76.609550
440.560476,1332.370696,-7550.100608,1455.581446
440.560803,-444.123565,-8068.244768,1378.971896
440.561131,-3108.864956,-8808.450710,459.657299
440.561459,-4737.318029,-9178.553681,-995.924147
440.561786,-4515.256246,-9178.553681,-1762.019645
440.562114,-1850.514855,-8660.409521,-1378.971896
440.562442,1554.432478,-8142.265362,383.047749
440.562769,2960.823768,-8290.306550,1762.019645
440.563097,1924.535449,-8882.471304,2987.772442
440.563424,-592.164754,-9770.718434,1991.848295
440.563752,-2738.761985,-10436.903782,536.266849
440.564080,-2960.823768,-10288.862594,-689.485948
440.564407,-814.226536,-9770.718434,-1302.362347
440.564735,1776.494261,-7994.224174,0.000000
440.565063,4071.132681,-8068.244768,1072.533697
440.565390,4293.194464,-8142.265362,2528.115143
440.565718,1850.514855,-8586.388927,1455.581446
440.566046,-370.102971,-9178.553681,612.876398
440.566373,-740.205942,-9326.594869,-612.876398
440.566701,-222.061783,-9474.636058,-766.095498
440.567028,2072.576638,-8734.430116,-153.219100
440.567356,3775.050304,-8882.471304,2221.676944
440.567683,3034.844362,-9474.636058,3217.601092
440.568011,148.041188,-9992.780217,3217.601092
440.568338,-2960.823768,-10214.842000,1991.848295
440.568666,-4885.359217,-10140.821405,76.609550
440.568993,-4219.173869,-9474.636058,-612.876398
440.569321,-2146.597232,-8364.327145,-689.485948
440.569648,518.144159,-7328.038826,-153.219100
440.569976,1258.350101,-7105.977043,1225.752797
440.570303,-148.041188,-7550.100608,1149.143247
440.570631,-2738.761985,-8216.285956,153.219100
440.570958,-4737.318029,-8290.306550,-1225.752797
440.571286,-4219.173869,-8660.409521,-2068.457845
440.571613,-1924.535449,-8586.388927,-1302.362347
440.571941,1036.288319,-8438.347739,-229.828649
440.572268,2442.679609,-8956.491898,1608.800546
440.572596,1924.535449,-9622.677246,2451.505594
440.572923,-740.205942,-10288.862594,2145.067394
440.573251,-3034.844362,-10881.027347,306.438199
440.573579,-3627.009116,-10732.986159,-1072.533697
440.573906,-1554.432478,-9918.759623,-1225.752797
440.574234,2072.576638,-8882.471304,-153.219100
440.574561,4589.276840,-8142.265362,1302.362347
440.574889,5033.400406,-8364.327145,2298.286494
440.575216,2590.720797,-9548.656652,2221.676944
440.575544,148.041188,-9992.780217,1225.752797
440.575871,-1110.308913,-9992.780217,-306.438199
440.576199,-296.082377,-10140.821405,0.000000
440.576526,2368.659014,-9400.615463,459.657299
440.576854,3627.009116,-9696.697840,2068.457845
440.577181,3108.864956,-10140.821405,2911.162892
440.577509,592.164754,-10362.883188,3370.820191
440.577836,-2664.741391,-10658.965565,2145.067394
440.578164,-4959.379811,-9992.780217,0.000000
440.578491,-4515.256246,-9770.718434,-689.485948
440.578819,-2664.741391,-8734.430116,-1378.971896
440.579146,148.041188,-7698.141797,-306.438199
440.579474,1036.288319,-7402.059420,919.314598
440.579801,-222.061783,-7994.224174,1302.362347
440.580129,-2886.803174,-8216.285956,995.924147
440.580456,-4885.359217,-8956.491898,-919.314598
440.580784,-4737.318029,-9104.533087,-1915.238745
440.581111,-2442.679609,-8660.409521,-1608.800546
440.581439,296.082377,-8290.306550,-306.438199
440.581766,2368.659014,-8586.388927,1455.581446
440.582094,2072.576638,-9252.574275,2528.115143
440.582421,-370.102971,-10066.800811,2145.067394
440.582749,-2738.761985,-10288.862594,536.266849
440.583077,-3256.906145,-10362.883188,-536.266849
440.583404,-1184.329507,-9622.677246,-995.924147
440.583732,1998.556043,-8586.388927,-995.924147
440.584059,4589.276840,-7994.224174,1072.533697
440.584387,4737.318029,-7994.224174,2298.286494
440.584714,2738.761985,-8808.450710,2145.067394
440.585042,370.102971,-8660.409521,919.314598
440.585369,-888.247130,-9326.594869,612.876398
440.585697,518.144159,-9104.533087,-383.047749
440.586024,2220.617826,-9326.594869,229.828649
440.586352,3404.947333,-8734.430116,1608.800546
440.586679,3478.967927,-9400.615463,2757.943793
440.587007,1110.308913,-9844.739029,3140.991542
440.587334,-2294.638420,-9770.718434,1991.848295
440.587662,-4145.153275,-10140.821405,612.876398
440.587989,-4219.173869,-9696.697840,-536.266849
440.588317,-2294.638420,-8586.388927,-842.705048
440.588644,0.000000,-7328.038826,-153.219100
440.588972,888.247130,-7179.997637,919.314598
440.589299,-148.041188,-7624.121203,1149.143247
440.589627,-2664.741391,-8068.244768,306.438199
440.589954,-5107.421000,-8290.306550,-1225.752797
440.590282,-5033.400406,-8586.388927,-1762.019645
440.590609,-2960.823768,-8068.244768,-2145.067394
440.590937,-518.144159,-8068.244768,-766.095498
440.591264,1554.432478,-8364.327145,842.705048
440.591592,1332.370696,-9400.615463,1991.848295
440.591920,-740.205942,-9770.718434,1838.629195
440.592247,-2738.761985,-10362.883188,536.266849
440.592575,-3330.926739,-10510.924376,-995.924147
440.592902,-1702.473667,-9844.739029,-1378.971896
440.593230,1480.411884,-8660.409521,-689.485948
440.593557,4441.235652,-8142.265362,919.314598
440.593885,5329.482782,-7624.121203,2145.067394
440.594212,3701.029710,-8808.450710,1991.848295
440.594540,1184.329507,-9252.574275,1455.581446
440.594867,74.020594,-9770.718434,229.828649
440.595195,0.000000,-9770.718434,-383.047749
440.595522,2368.659014,-9326.594869,689.485948
440.595850,4515.256246,-9178.553681,2298.286494
440.596177,3330.926739,-9918.759623,3524.039291
440.596505,1480.411884,-10584.944971,3370.820191
440.596832,-1924.535449,-10510.924376,2681.334243
440.597160,-3923.091493,-10510.924376,766.095498
440.597487,-4145.153275,-9400.615463,383.047749
440.597815,-2664.741391,-8660.409521,-306.438199
440.598142,-444.123565,-7846.182985,153.219100
440.598470,518.144159,-7179.997637,995.924147
440.598797,-518.144159,-7550.100608,1685.410096
440.599125,-2368.659014,-8142.265362,1225.752797
440.599452,-5255.462188,-8290.306550,-383.047749
440.599780,-5551.544565,-8808.450710,-1455.581446
440.600107,-3849.070898,-8586.388927,-1685.410096
440.600435,-888.247130,-8438.347739,-306.438199
440.600762,1332.370696,-8512.368333,536.266849
440.601090,1406.391290,-9178.553681,2451.505594
440.601418,-592.164754,-9918.759623,2145.067394
440.601745,-2960.823768,-10584.944971,995.924147
440.602073,-3775.050304,-10807.006753,-689.485948
440.602400,-2368.659014,-10214.842000,-1455.581446
440.602728,814.226536,-8216.285956,-536.266849
440.603055,3923.091493,-7920.203579,459.657299
440.603383,5033.400406,-8142.265362,2068.457845
440.603710,3849.070898,-8808.450710,2145.067394
440.604038,1110.308913,-8882.471304,842.705048
440.604365,-1036.288319,-9474.636058,-383.047749
440.604693,0.000000,-9992.780217,-459.657299
440.605020,1850.514855,-8882.471304,-689.485948
440.605348,3256.906145,-8660.409521,1149.143247
440.605675,4737.318029,-9400.615463,2528.115143
440.606003,1850.514855,-9474.636058,3600.648841
440.606330,-1258.350101,-10066.800811,2451.505594
440.606658,-3627.009116,-10288.862594,383.047749
440.606985,-4293.194464,-10140.821405,-612.876398
440.607313,-2738.761985,-9252.574275,-995.924147
440.607640,-148.041188,-8068.244768,0.000000
440.607968,1332.370696,-7698.141797,1149.143247
440.608295,666.185348,-7624.121203,1225.752797
440.608623,-1924.535449,-8068.244768,766.095498
440.608950,-4293.194464,-8512.368333,-383.047749
440.609278,-5255.462188,-8586.388927,-1532.190996
440.609605,-3997.112087,-8216.285956,-2374.896044
440.609933,-1480.411884,-8142.265362,-1378.971896
440.610260,1110.308913,-8216.285956,76.609550
440.610588,1332.370696,-9104.533087,1838.629195
440.610916,-370.102971,-9548.656652,1685.410096
440.611243,-2738.761985,-10140.821405,612.876398
440.611571,-4367.215058,-10362.883188,-1072.533697
440.611898,-2960.823768,-10436.903782,-1915.238745
440.612226,148.041188,-9178.553681,-1532.190996
440.612553,3478.967927,-8290.306550,153.219100
440.612881,5625.565159,-7994.224174,1838.629195
440.613208,4441.235652,-9030.512492,2298.286494
440.613536,2146.597232,-9400.615463,1762.019645
440.613863,370.102971,-9770.718434,383.047749
440.614191,518.144159,-9770.718434,-689.485948
440.614518,2072.576638,-9548.656652,0.000000
440.614846,5107.421000,-9252.574275,995.924147
440.615173,5255.462188,-9992.780217,3064.381992
440.615501,2960.823768,-10066.800811,3753.867940
440.615828,444.123565,-10510.924376,3140.991542
440.616156,-2664.741391,-10510.924376,1685.410096
440.616483,-3108.864956,-10881.027347,153.219100
440.616811,-2516.700203,-9474.636058,-306.438199
440.617138,-814.226536,-8660.409521,76.609550
440.617466,888.247130,-7994.224174,1225.752797
440.617793,-222.061783,-7698.141797,1915.238745
440.618121,-2590.720797,-7994.224174,1072.533697
440.618448,-5329.482782,-8586.388927,0.000000
440.618776,-6365.771101,-8734.430116,-1532.190996
440.619103,-5033.400406,-8216.285956,-1991.848295
440.619431,-2146.597232,-7920.203579,-919.314598
440.619759,370.102971,-7994.224174,612.876398
440.620086,592.164754,-8808.450710,2068.457845
440.620414,-1110.308913,-9696.697840,2221.676944
440.620741,-3849.070898,-10288.862594,1149.143247
440.621069,-5107.421000,-10881.027347,-306.438199
440.621396,-3627.009116,-10510.924376,-919.314598
440.621724,-518.144159,-8956.491898,-1149.143247
440.622051,3108.864956,-8290.306550,76.609550
440.622379,5181.441594,-7846.182985,1455.581446
440.622706,4145.153275,-8364.327145,2298.286494
440.623034,2294.638420,-8660.409521,1378.971896
440.623361,0.000000,-9326.594869,0.000000
440.623689,444.123565,-9918.759623,-766.095498
440.624016,1702.473667,-9548.656652,-842.705048
440.624344,4441.235652,-9474.636058,995.924147
440.624671,5995.668130,-9252.574275,2681.334243
440.624999,3404.947333,-9992.780217,3983.696590
440.625326,1036.288319,-10881.027347,2911.162892
440.625654,-2368.659014,-10584.944971,1455.581446
440.625981,-3478.967927,-10510.924376,-153.219100
440.626309,-1998.556043,-9252.574275,-919.314598
440.626636,592.164754,-8216.285956,0.000000
440.626964,1998.556043,-7402.059420,1378.971896
440.627291,2146.597232,-7698.141797,2374.896044
440.627619,0.000000,-7846.182985,2221.676944
440.627946,-3330.926739,-8364.327145,689.485948
440.628274,-3997.112087,-8808.450710,-306.438199
440.628601,-3478.967927,-8364.327145,-1072.533697
440.628929,-1924.535449,-8290.306550,-153.219100
440.629257,1036.288319,-8364.327145,1225.752797
440.629584,1332.370696,-8438.347739,2757.943793
440.629912,-592.164754,-8882.471304,3524.039291
440.630239,-3182.885551,-9770.718434,2221.676944
440.630567,-5477.523971,-10436.903782,766.095498
440.630894,-4959.379811,-9918.759623,-612.876398
440.631222,-2442.679609,-9178.553681,-612.876398
440.631549,1258.350101,-7550.100608,689.485948
440.631877,4515.256246,-7624.121203,2987.772442
440.632204,3997.112087,-7920.203579,3753.867940
440.632532,1850.514855,-8734.430116,3140.991542
440.632859,-666.185348,-9770.718434,2451.505594
440.633187,-2294.638420,-10214.842000,766.095498
440.633514,-1480.411884,-9918.759623,459.657299
440.633842,1184.329507,-9400.615463,1225.752797
440.634169,3552.988522,-8808.450710,3447.429741
440.634497,5033.400406,-8808.450710,5439.278036
440.634824,3701.029710,-8734.430116,6205.373534
440.635152,74.020594,-8734.430116,5209.449386
440.635479,-1258.350101,-10288.862594,3370.820191
440.635807,-2590.720797,-10214.842000,1685.410096
440.636134,-2664.741391,-9992.780217,1149.143247
440.636462,-814.226536,-8734.430116,2145.067394
440.636789,1554.432478,-7772.162391,4519.963438
440.637117,2442.679609,-7550.100608,6205.373534
440.637444,1628.453072,-7846.182985,6128.763984
440.637772,-888.247130,-8512.368333,4826.401637
440.638099,-3108.864956,-9474.636058,2757.943793
440.638427,-5625.565159,-10510.924376,1149.143247
440.638755,-5847.626942,-10214.842000,766.095498
440.639082,-4145.153275,-9474.636058,1991.848295
440.639410,-1702.473667,-8364.327145,3907.087040
440.639737,444.123565,-7624.121203,5286.058936
440.640065,1480.411884,-7476.080014,6128.763984
440.640392,666.185348,-7550.100608,4903.011187
440.640720,-1258.350101,-8882.471304,3600.648841
440.641047,-3108.864956,-10288.862594,1762.019645
440.641375,-4293.194464,-10807.006753,1149.143247
440.641702,-3627.009116,-10510.924376,1608.800546
440.642030,-1924.535449,-9474.636058,2987.772442
440.642357,1258.350101,-8734.430116,4213.525239
440.642685,3997.112087,-8290.306550,4903.011187
440.643012,4293.194464,-7994.224174,4596.572988
440.643340,3108.864956,-8808.450710,3140.991542
440.643667,1184.329507,-9770.718434,2528.115143
440.643995,148.041188,-10066.800811,1915.238745
440.644322,-962.267725,-10658.965565,2681.334243
440.644650,0.000000,-10584.944971,3294.210641
440.644977,592.164754,-10288.862594,4136.915689
440.645305,962.267725,-9696.697840,3830.477490
440.645632,1036.288319,-9252.574275,3447.429741
440.645960,74.020594,-9252.574275,2604.724693
440.646287,-296.082377,-9252.574275,1838.629195
440.646615,-888.247130,-9030.512492,1838.629195
440.646942,-518.144159,-8586.388927,2221.676944
440.647270,666.185348,-7772.162391,2528.115143
440.647598,1628.453072,-7920.203579,3447.429741
440.647925,2072.576638,-8068.244768,3677.258390
440.648253,1480.411884,-8364.327145,4060.306139
440.648580,-296.082377,-9252.574275,3983.696590
440.648908,-2072.576638,-9696.697840,3600.648841
440.649235,-3034.844362,-9696.697840,3370.820191
440.649563,-3034.844362,-9696.697840,3370.820191
440.649890,-2146.597232,-9178.553681,3294.210641
440.650218,-222.061783,-8882.471304,3294.210641
440.650545,370.102971,-8734.430116,3677.258390
440.650873,518.144159,-8142.265362,3064.381992
440.651200,-296.082377,-8438.347739,3370.820191
440.651528,-962.267725,-8364.327145,3064.381992
440.651855,-1554.432478,-8290.306550,3140.991542
440.652183,-1036.288319,-8586.388927,3217.601092
440.652510,-148.041188,-8142.265362,2757.943793
440.652838,370.102971,-8512.368333,3524.039291
440.653165,592.164754,-9178.553681,3677.258390
440.653493,0.000000,-9918.759623,4443.353888
440.653820,-148.041188,-9992.780217,4443.353888
440.654148,-1332.370696,-9622.677246,4290.134789
440.654475,-1332.370696,-9400.615463,3600.648841
440.654803,-888.247130,-8882.471304,3140.991542
440.655130,-296.082377,-8438.347739,2681.334243
440.655458,370.102971,-8068.244768,2681.334243
440.655785,888.247130,-8438.347739,2681.334243
440.656113,370.102971,-8290.306550,2528.115143
440.656440,-444.123565,-9104.533087,2681.334243
440.656768,-814.226536,-9844.739029,2451.505594
440.657096,-1110.308913,-9918.759623,1762.019645
440.657423,-592.164754,-9474.636058,1532.190996
440.657751,-518.144159,-9326.594869,1915.238745
440.658078,0.000000,-9400.615463,1762.019645
440.658406,-370.102971,-9770.718434,2145.067394
440.658733,-666.185348,-10066.800811,2068.457845
440.659061,-1258.350101,-9844.739029,1915.238745
440.659388,-1110.308913,-9104.533087,2221.676944
440.659716,-222.061783,-9400.615463,1302.362347
440.660043,518.144159,-9252.574275,1072.533697
440.660371,962.267725,-8734.430116,1225.752797
440.660698,1184.329507,-8808.450710,1455.581446
440.661026,1110.308913,-8586.388927,1455.581446
440.661353,444.123565,-9178.553681,1532.190996
440.661681,74.020594,-9474.636058,1455.581446
440.662008,370.102971,-9696.697840,1302.362347
440.662336,518.144159,-9770.718434,1302.362347
440.662663,1184.329507,-10214.842000,1532.190996
440.662991,962.267725,-9622.677246,1302.362347
440.663318,814.226536,-9622.677246,1915.238745
440.663646,518.144159,-9474.636058,1838.629195
440.663973,-222.061783,-9474.636058,1685.410096
440.664301,-740.205942,-9104.533087,1378.971896
440.664628,-888.247130,-9104.533087,766.095498
440.664956,-1184.329507,-9030.512492,612.876398
440.665283,-1258.350101,-9030.512492,612.876398
440.665611,-1110.308913,-9030.512492,689.485948
440.665938,-1110.308913,-8882.471304,995.924147
440.666266,-962.267725,-8142.265362,919.314598
440.666594,-814.226536,-8512.368333,919.314598
440.666921,-740.205942,-8364.327145,229.828649
440.667249,-740.205942,-8586.388927,153.219100
440.667576,-592.164754,-8438.347739,229.828649
440.667904,-444.123565,-8734.430116,1378.971896
440.668231,-444.123565,-8808.450710,919.314598
440.668559,-148.041188,-9326.594869,1302.362347
440.668886,0.000000,-8956.491898,1455.581446
440.669214,222.061783,-8882.471304,842.705048
440.669541,518.144159,-8808.450710,1225.752797
440.669869,740.205942,-8808.450710,919.314598
440.670196,518.144159,-8660.409521,612.876398
440.670524,222.061783,-9178.553681,919.314598
440.670851,0.000000,-9178.553681,1149.143247
440.671179,222.061783,-9252.574275,1302.362347
440.671506,0.000000,-8512.368333,995.924147
440.671834,0.000000,-8956.491898,919.314598
440.672161,0.000000,-8808.450710,459.657299
440.672489,-370.102971,-8956.491898,536.266849
440.672816,-444.123565,-9104.533087,612.876398
440.673144,-518.144159,-8512.368333,842.705048
440.673471,-1110.308913,-8734.430116,1378.971896
440.673799,-1036.288319,-8882.471304,995.924147
440.674126,-1480.411884,-8882.471304,612.876398
440.674454,-1258.350101,-8808.450710,689.485948
440.674782,-1184.329507,-8438.347739,766.095498
440.675109,-1258.350101,-8290.306550,612.876398
440.675437,-1110.308913,-8290.306550,612.876398
440.675764,-592.164754,-8660.409521,766.095498
440.676092,0.000000,-9030.512492,919.314598
440.676419,-148.041188,-9104.533087,459.657299
440.676747,0.000000,-9252.574275,536.266849
440.677074,-74.020594,-9548.656652,536.266849
440.677402,-296.082377,-9844.739029,612.876398
440.677729,-370.102971,-10140.821405,689.485948
440.678057,-222.061783,-10140.821405,612.876398
440.678384,296.082377,-10510.924376,1072.533697
440.678712,740.205942,-9918.759623,612.876398
440.679039,740.205942,-9696.697840,612.876398
440.679367,888.247130,-9474.636058,459.657299
440.679694,592.164754,-9400.615463,383.047749
440.680022,518.144159,-9030.512492,76.609550
440.680349,74.020594,-9252.574275,383.047749
440.680677,-296.082377,-9474.636058,459.657299
440.681004,-296.082377,-9622.677246,459.657299
440.681332,-370.102971,-9400.615463,459.657299
440.681659,-148.041188,-8808.450710,612.876398
440.681987,0.000000,-8734.430116,536.266849
440.682314,0.000000,-8660.409521,229.828649
440.682642,-222.061783,-8808.450710,306.438199
440.682970,-518.144159,-8808.450710,306.438199
440.683297,-666.185348,-8956.491898,383.047749
440.683625,-666.185348,-8660.409521,842.705048
440.683952,-962.267725,-8956.491898,306.438199
440.684280,-814.226536,-9030.512492,383.047749
440.684607,-814.226536,-9252.574275,229.828649
440.684935,-740.205942,-9326.594869,459.657299
440.685262,-592.164754,-8882.471304,842.705048
440.685590,-296.082377,-8808.450710,919.314598
440.685917,-148.041188,-8660.409521,536.266849
440.686245,-444.123565,-8808.450710,612.876398
440.686572,-592.164754,-9030.512492,612.876398
440.686900,-592.164754,-9326.594869,689.485948
440.687227,-814.226536,-9252.574275,766.095498
440.687555,-1184.329507,-9400.615463,766.095498
440.687882,-740.205942,-9178.553681,995.924147
440.688210,-518.144159,-8734.430116,766.095498
440.688537,0.000000,-8290.306550,689.485948
440.688865,0.000000,-8216.285956,1149.143247
440.689192,-370.102971,-8364.327145,459.657299
440.689520,-592.164754,-8734.430116,459.657299
440.689847,-814.226536,-8956.491898,766.095498
440.690175,-1036.288319,-9252.574275,612.876398
440.690503,-740.205942,-9400.615463,1072.533697
440.690830,-518.144159,-9474.636058,689.485948
440.691158,-296.082377,-9030.512492,536.266849
440.691485,0.000000,-8956.491898,766.095498
440.691813,148.041188,-8586.388927,229.828649
440.692140,74.020594,-9030.512492,0.000000
440.692468,-296.082377,-9030.512492,459.657299
440.692795,-370.102971,-9104.533087,459.657299
440.693123,-444.123565,-9474.636058,689.485948
440.693450,-370.102971,-9474.636058,459.657299
440.693778,-444.123565,-9326.594869,766.095498
440.694105,0.000000,-8882.471304,229.828649
440.694433,-222.061783,-8808.450710,306.438199
440.694760,-444.123565,-8586.388927,459.657299
440.695088,-666.185348,-8586.388927,229.828649
440.695415,-888.247130,-8438.347739,612.876398
440.695743,-592.164754,-8808.450710,766.095498
440.696070,-740.205942,-9104.533087,459.657299
440.696398,-814.226536,-9252.574275,612.876398
440.696725,-666.185348,-9400.615463,612.876398
440.697053,-148.041188,-9030.512492,612.876398
440.697380,0.000000,-8734.430116,0.000000
440.697708,148.041188,-8734.430116,612.876398
440.698035,0.000000,-9178.553681,612.876398
440.698363,0.000000,-9326.594869,383.047749
440.698691,0.000000,-9696.697840,612.876398
440.699018,74.020594,-9622.677246,689.485948
440.699346,0.000000,-9770.718434,995.924147
440.699673,444.123565,-9770.718434,919.314598
440.700001,592.164754,-9326.594869,689.485948
440.700328,666.185348,-8882.471304,536.266849
440.700656,740.205942,-8734.430116,459.657299
440.700983,518.144159,-8586.388927,-153.219100
440.701311,148.041188,-8956.491898,229.828649
440.701638,0.000000,-9104.533087,766.095498
440.701966,0.000000,-9178.553681,459.657299
440.702293,74.020594,-9252.574275,766.095498
440.702621,592.164754,-9178.553681,612.876398
440.702948,222.061783,-8808.450710,153.219100
440.703276,0.000000,-8512.368333,229.828649
440.703603,0.000000,-8660.409521,153.219100
440.703931,0.000000,-8956.491898,153.219100
440.704258,-148.041188,-8808.450710,689.485948
440.704586,-222.061783,-9474.636058,459.657299
440.704913,-148.041188,-9770.718434,689.485948
440.705241,-148.041188,-9696.697840,536.266849
440.705568,-148.041188,-9474.636058,383.047749
440.705896,74.020594,-8808.450710,459.657299
440.706224,74.020594,-8808.450710,153.219100
440.706551,0.000000,-9104.533087,229.828649
440.706879,-222.061783,-9178.553681,229.828649
440.707206,0.000000,-9474.636058,612.876398
440.707534,-148.041188,-9178.553681,1149.143247
440.707861,-444.123565,-9104.533087,766.095498
440.708189,-296.082377,-9548.656652,995.924147
440.708516,-222.061783,-9326.594869,612.876398
440.708844,-296.082377,-9030.512492,459.657299
440.709171,-74.020594,-9030.512492,459.657299
440.709499,-222.061783,-8808.450710,689.485948
440.709826,-296.082377,-9178.553681,383.047749
440.710154,-444.123565,-9400.615463,383.047749
440.710481,-518.144159,-9548.656652,612.876398
440.710809,-592.164754,-9622.677246,689.485948
440.711136,-740.205942,-9474.636058,919.314598
440.711464,-814.226536,-9400.615463,383.047749
440.711791,-296.082377,-9252.574275,536.266849
440.712119,-740.205942,-9326.594869,459.657299
440.712446,-592.164754,-9326.594869,612.876398
440.712774,-370.102971,-9474.636058,229.828649
440.713101,-962.267725,-9474.636058,612.876398
440.713429,-1036.288319,-9622.677246,766.095498
440.713756,-962.267725,-9326.594869,536.266849
440.714084,-740.205942,-9326.594869,689.485948
440.714412,-370.102971,-8808.450710,229.828649
440.714739,-592.164754,-8956.491898,1072.533697
440.715067,-740.205942,-8734.430116,459.657299
440.715394,-888.247130,-8734.430116,612.876398
440.715722,-814.226536,-8956.491898,766.095498
440.716049,-1184.329507,-9326.594869,612.876398
440.716377,-666.185348,-8882.471304,536.266849
440.716704,-888.247130,-8734.430116,459.657299
440.717032,-592.164754,-8734.430116,612.876398
440.717359,-592.164754,-8586.388927,306.438199
440.717687,-296.082377,-8660.409521,536.266849
440.718014,-444.123565,-8660.409521,842.705048
440.718342,-370.102971,-8882.471304,153.219100
440.718669,-444.123565,-9252.574275,612.876398
440.718997,-148.041188,-9104.533087,689.485948
440.719324,0.000000,-9252.574275,536.266849
440.719652,-370.102971,-8882.471304,1072.533697
440.719979,0.000000,-8586.388927,995.924147
440.720307,-148.041188,-9104.533087,536.266849
440.720634,0.000000,-8956.491898,383.047749
440.720962,0.000000,-8956.491898,536.266849
440.721289,296.082377,-8882.471304,612.876398
440.721617,296.082377,-9030.512492,536.266849
440.721944,222.061783,-8956.491898,766.095498
