#time,accel_x,accel_y,accel_z
472.705264,-148.041188,-8734.430116,766.095498
472.705591,-444.123565,-8956.491898,612.876398
472.705919,-222.061783,-9400.615463,612.876398
472.706247,-296.082377,-9178.553681,612.876398
472.706574,-296.082377,-9030.512492,766.095498
472.706902,0.000000,-9030.512492,1072.533697
472.707230,0.000000,-8956.491898,459.657299
472.707558,-222.061783,-9030.512492,612.876398
472.707885,-444.123565,-8956.491898,612.876398
472.708213,-296.082377,-9104.533087,459.657299
472.708541,0.000000,-9252.574275,689.485948
472.708869,-222.061783,-9030.512492,842.705048
472.709196,-296.082377,-8882.471304,766.095498
472.709524,-222.061783,-9178.553681,612.876398
472.709852,-148.041188,-9252.574275,536.266849
472.710180,-592.164754,-9030.512492,1149.143247
472.710507,0.000000,-9104.533087,689.485948
472.710835,-222.061783,-9252.574275,383.047749
472.711163,-296.082377,-9178.553681,536.266849
472.711491,-296.082377,-9252.574275,612.876398
472.711818,0.000000,-8808.450710,919.314598
472.712146,0.000000,-9030.512492,919.314598
472.712474,-222.061783,-9252.574275,612.876398
472.712801,-296.082377,-9178.553681,459.657299
472.713129,-370.102971,-9178.553681,612.876398
472.713457,-370.102971,-8956.491898,306.438199
472.713785,-148.041188,-8586.388927,-229.828649
472.714112,-148.041188,-9252.574275,536.266849
472.714440,-148.041188,-9326.594869,612.876398
472.714768,-444.123565,-9030.512492,383.047749
472.715096,-296.082377,-9326.594869,153.219100
472.715423,-222.061783,-9326.594869,229.828649
472.715751,-1554.432478,-9252.574275,0.000000
472.716079,-1332.370696,-9400.615463,0.000000
472.716407,-962.267725,-9474.636058,-306.438199
472.716734,-814.226536,-8956.491898,-306.438199
472.717062,-444.123565,-9178.553681,-153.219100
472.717390,-222.061783,-9030.512492,-383.047749
472.717717,-814.226536,-9252.574275,-766.095498
472.718045,-1184.329507,-9400.615463,-1149.143247
472.718373,-1110.308913,-9104.533087,-1455.581446
472.718701,-1110.308913,-8586.388927,-1149.143247
472.719028,-444.123565,-9178.553681,-995.924147
472.719356,-444.123565,-9326.594869,-1378.971896
472.719684,-296.082377,-9252.574275,-1225.752797
472.720012,0.000000,-9252.574275,-1225.752797
472.720339,0.000000,-9326.594869,-1608.800546
472.720667,74.020594,-9030.512492,-2221.676944
472.720995,74.020594,-9104.533087,-1532.190996
472.721323,370.102971,-9252.574275,-1608.800546
472.721650,296.082377,-9400.615463,-1915.238745
472.721978,148.041188,-9326.594869,-1532.190996
472.722306,370.102971,-8882.471304,-1455.581446
472.722633,148.041188,-8956.491898,-1302.362347
472.722961,444.123565,-9178.553681,-1762.019645
472.723289,222.061783,-9400.615463,-1685.410096
472.723617,0.000000,-9400.615463,-1685.410096
472.723944,0.000000,-9252.574275,-1378.971896
472.724272,222.061783,-8808.450710,-1762.019645
472.724600,0.000000,-9252.574275,-1608.800546
472.724928,-370.102971,-9400.615463,-1532.190996
472.725255,-814.226536,-9326.594869,-1762.019645
472.725583,-814.226536,-9030.512492,-1455.581446
472.725911,-962.267725,-8956.491898,-2528.115143
472.726239,-1184.329507,-8808.450710,-2221.676944
472.726566,-1406.391290,-9030.512492,-2451.505594
472.726894,-1628.453072,-9104.533087,-2681.334243
472.727222,-1998.556043,-9326.594869,-2911.162892
472.727550,-2368.659014,-8586.388927,-3217.601092
472.727877,-1998.556043,-8956.491898,-3447.429741
472.728205,-2146.597232,-8956.491898,-3753.867940
472.728533,-2072.576638,-9030.512492,-3907.087040
472.728860,-2072.576638,-8956.491898,-3907.087040
472.729188,-1480.411884,-8512.368333,-3677.258390
472.729516,-1036.288319,-8734.430116,-4366.744339
472.729844,-666.185348,-8882.471304,-3753.867940
472.730171,74.020594,-9104.533087,-3600.648841
472.730499,814.226536,-9104.533087,-3294.210641
472.730827,1258.350101,-8882.471304,-2528.115143
472.731155,2368.659014,-9104.533087,-1991.848295
472.731482,2368.659014,-9178.553681,-2068.457845
472.731810,2368.659014,-9474.636058,-1838.629195
472.732138,1998.556043,-9844.739029,-1915.238745
472.732466,814.226536,-10214.842000,-1915.238745
472.732793,296.082377,-10584.944971,-2528.115143
472.733121,-962.267725,-10510.924376,-3217.601092
472.733449,-1776.494261,-10288.862594,-4673.182538
472.733776,-2442.679609,-9622.677246,-4826.401637
472.734104,-1332.370696,-9104.533087,-4826.401637
472.734432,-74.020594,-8512.368333,-4673.182538
472.734760,1258.350101,-7328.038826,-4213.525239
472.735087,2590.720797,-6883.915261,-3140.991542
472.735415,2960.823768,-7031.956449,-2221.676944
472.735743,2442.679609,-7846.182985,-1685.410096
472.736071,814.226536,-8882.471304,-1608.800546
472.736398,-1628.453072,-9992.780217,-2145.067394
472.736726,-3404.947333,-10658.965565,-2451.505594
472.737054,-4737.318029,-11177.109724,-2681.334243
472.737382,-3627.009116,-10288.862594,-2528.115143
472.737709,444.123565,-8216.285956,-919.314598
472.738037,5477.523971,-6069.688724,919.314598
472.738365,9844.739029,-5181.441594,3064.381992
472.738692,10436.903782,-5699.585753,4213.525239
472.739020,7550.100608,-8142.265362,4060.306139
472.739348,1998.556043,-10584.944971,2757.943793
472.739676,-3701.029710,-12657.521608,1072.533697
472.740003,-9252.574275,-13619.789333,-1685.410096
472.740331,-12065.356855,-14211.954086,-2528.115143
472.740659,-11695.253884,-13619.789333,-3753.867940
472.740987,-10955.047942,-11917.315666,-4060.306139
472.741314,-4219.173869,-7254.018232,-3753.867940
472.741642,-2960.823768,-5181.441594,-3217.601092
472.741970,1184.329507,-4145.153275,-3753.867940
472.742298,-296.082377,-4811.338623,-4749.792088
472.742625,-4515.256246,-6513.812290,-5745.716235
472.742953,-7105.977043,-8216.285956,-7277.907231
472.743281,-11843.295072,-9844.739029,-8656.879127
472.743608,-10584.944971,-9696.697840,-8503.660028
472.743936,-7920.203579,-9622.677246,-7507.735880
472.744264,-2442.679609,-8290.306550,-5975.544884
472.744592,4589.276840,-6809.894666,-3753.867940
472.744919,8142.265362,-6883.915261,-2681.334243
472.745247,8586.388927,-8216.285956,-3600.648841
472.745575,7105.977043,-9992.780217,-4366.744339
472.745903,4885.359217,-11103.089130,-5592.497135
472.746230,5181.441594,-11547.212695,-6128.763984
472.746558,8216.285956,-9844.739029,-3830.477490
472.746886,11769.274478,-8586.388927,-1762.019645
472.747214,13915.871710,-9622.677246,689.485948
472.747541,12657.521608,-9918.759623,1378.971896
472.747869,9696.697840,-10066.800811,-612.876398
472.748197,7105.977043,-11251.130318,612.876398
472.748525,7624.121203,-11251.130318,-612.876398
472.748852,5625.565159,-11473.192101,229.828649
472.749180,2516.700203,-10584.944971,0.000000
472.749508,-1628.453072,-12953.603985,-766.095498
472.749835,-7550.100608,-12509.480420,-2068.457845
472.750163,-12805.562797,-9844.739029,-4136.915689
472.750491,-12213.398043,-6365.771101,-5362.668486
472.750819,-9178.553681,-3256.906145,-5056.230287
472.751146,-1776.494261,-1702.473667,-3217.601092
472.751474,-888.247130,-1554.432478,-1072.533697
472.751802,-592.164754,-2220.617826,-766.095498
472.752130,-2516.700203,-4959.379811,-383.047749
472.752457,-5847.626942,-6069.688724,0.000000
472.752785,-6069.688724,-7920.203579,536.266849
472.753113,-5107.421000,-9030.512492,1915.238745
472.753441,-4515.256246,-9918.759623,2604.724693
472.753768,-3627.009116,-11177.109724,5209.449386
472.754096,-1924.535449,-11103.089130,6588.421283
472.754424,1036.288319,-10658.965565,6665.030833
472.754751,4589.276840,-9622.677246,6281.983084
472.755079,4441.235652,-10807.006753,4903.011187
472.755407,2368.659014,-11695.253884,4136.915689
472.755735,592.164754,-11399.171507,3140.991542
472.756062,0.000000,-10362.883188,2604.724693
472.756390,1258.350101,-8956.491898,3140.991542
472.756718,2960.823768,-9030.512492,4290.134789
472.757046,1776.494261,-9474.636058,2604.724693
472.757373,-1776.494261,-9992.780217,3370.820191
472.757701,-3552.988522,-11177.109724,2374.896044
472.758029,-7402.059420,-12509.480420,919.314598
472.758357,-6365.771101,-10140.821405,229.828649
472.758684,-2738.761985,-10140.821405,0.000000
472.759012,-1850.514855,-8216.285956,612.876398
472.759340,-2516.700203,-7698.141797,459.657299
472.759667,-2516.700203,-6883.915261,689.485948
472.759995,-4811.338623,-7031.956449,-995.924147
472.760323,-4145.153275,-8068.244768,-1762.019645
472.760651,-2738.761985,-8068.244768,-3447.429741
472.760978,-370.102971,-8734.430116,-3447.429741
472.761306,1554.432478,-9992.780217,-2911.162892
472.761634,222.061783,-10436.903782,-1991.848295
472.761961,962.267725,-10510.924376,-1455.581446
472.762289,2812.782580,-11029.068536,-1532.190996
472.762617,4663.297435,-10362.883188,-1302.362347
472.762944,5773.606348,-10584.944971,-842.705048
472.763272,4515.256246,-11473.192101,-306.438199
472.763600,2368.659014,-11621.233289,0.000000
472.763928,740.205942,-12213.398043,-383.047749
472.764255,2294.638420,-11325.150913,306.438199
472.764583,4811.338623,-9474.636058,536.266849
472.764911,6809.894666,-9030.512492,689.485948
472.765238,5329.482782,-8364.327145,919.314598
472.765566,3552.988522,-8068.244768,919.314598
472.765894,1184.329507,-7698.141797,306.438199
472.766221,-518.144159,-7105.977043,-459.657299
472.766549,2072.576638,-6513.812290,306.438199
472.766877,2294.638420,-6439.791695,536.266849
472.767204,0.000000,-8216.285956,1225.752797
472.767532,-2738.761985,-8808.450710,229.828649
472.767860,-5107.421000,-9030.512492,-229.828649
472.768187,-6809.894666,-8808.450710,-1378.971896
472.768515,-4219.173869,-7920.203579,-995.924147
472.768843,-4071.132681,-7698.141797,-766.095498
472.769171,-4293.194464,-8068.244768,-536.266849
472.769498,-5107.421000,-7994.224174,-383.047749
472.769826,-5107.421000,-7550.100608,-612.876398
472.770154,-3108.864956,-6587.832884,-459.657299
472.770481,296.082377,-6291.750507,766.095498
472.770809,2294.638420,-6735.874072,919.314598
472.771137,1480.411884,-7698.141797,1838.629195
472.771464,-592.164754,-8586.388927,2068.457845
472.771792,-1998.556043,-9252.574275,2145.067394
472.772120,-740.205942,-8512.368333,2451.505594
472.772447,2220.617826,-8438.347739,2987.772442
472.772775,3997.112087,-9104.533087,3524.039291
472.773103,2960.823768,-9770.718434,3370.820191
472.773430,740.205942,-10436.903782,3140.991542
472.773758,-296.082377,-10214.842000,2757.943793
472.774086,1406.391290,-8808.450710,2221.676944
472.774413,3552.988522,-8364.327145,2068.457845
472.774741,4663.297435,-8956.491898,2221.676944
472.775069,2368.659014,-9400.615463,1072.533697
472.775397,-2886.803174,-10510.924376,1302.362347
472.775724,-3256.906145,-11177.109724,229.828649
472.776052,-4589.276840,-10584.944971,383.047749
472.776380,-3108.864956,-9548.656652,306.438199
472.776707,-962.267725,-10510.924376,0.000000
472.777035,-1554.432478,-9844.739029,-153.219100
472.777363,-3997.112087,-10066.800811,0.000000
472.777690,-3775.050304,-9030.512492,-459.657299
472.778018,-3775.050304,-8512.368333,-995.924147
472.778346,-370.102971,-7698.141797,-383.047749
472.778673,1406.391290,-7476.080014,0.000000
472.779001,740.205942,-8216.285956,0.000000
472.779329,-666.185348,-8438.347739,383.047749
472.779656,-1924.535449,-9252.574275,0.000000
472.779984,-518.144159,-9400.615463,-153.219100
472.780312,1924.535449,-9474.636058,-306.438199
472.780640,3330.926739,-9844.739029,459.657299
472.780967,2738.761985,-10362.883188,842.705048
472.781295,1258.350101,-11325.150913,995.924147
472.781623,-222.061783,-11103.089130,689.485948
472.781950,1036.288319,-10584.944971,229.828649
472.782278,3256.906145,-10214.842000,612.876398
472.782606,3775.050304,-10140.821405,842.705048
472.782933,2590.720797,-10510.924376,1149.143247
472.783261,-296.082377,-11177.109724,919.314598
472.783589,-2886.803174,-10732.986159,229.828649
472.783916,-2368.659014,-9992.780217,383.047749
472.784244,-370.102971,-8660.409521,-766.095498
472.784572,-740.205942,-8290.306550,459.657299
472.784899,-370.102971,-7920.203579,0.000000
472.785227,-3182.885551,-8290.306550,229.828649
472.785555,-4293.194464,-7772.162391,-536.266849
472.785883,-2516.700203,-6957.935855,-383.047749
472.786210,-370.102971,-6513.812290,229.828649
472.786538,1554.432478,-6735.874072,153.219100
472.786866,296.082377,-7772.162391,995.924147
472.787193,-1998.556043,-8882.471304,612.876398
472.787521,-3478.967927,-9178.553681,459.657299
472.787849,-2294.638420,-8808.450710,0.000000
472.788176,74.020594,-8216.285956,383.047749
472.788504,2368.659014,-8586.388927,1302.362347
472.788832,2220.617826,-8956.491898,1762.019645
472.789159,1036.288319,-9104.533087,1838.629195
472.789487,592.164754,-8882.471304,1378.971896
472.789815,1554.432478,-8290.306550,1762.019645
472.790142,2516.700203,-8512.368333,1762.019645
472.790470,2442.679609,-9030.512492,2068.457845
472.790798,814.226536,-9844.739029,2298.286494
472.791126,-1850.514855,-9844.739029,2374.896044
472.791453,-3627.009116,-9622.677246,1532.190996
472.791781,-2146.597232,-9030.512492,1072.533697
472.792109,74.020594,-8142.265362,766.095498
472.792436,962.267725,-7846.182985,689.485948
472.792764,-296.082377,-8586.388927,1072.533697
472.793092,-1702.473667,-8512.368333,536.266849
472.793419,-3034.844362,-8660.409521,0.000000
472.793747,-1924.535449,-7476.080014,-153.219100
472.794075,444.123565,-7550.100608,76.609550
472.794402,1480.411884,-7846.182985,536.266849
472.794730,666.185348,-9326.594869,995.924147
472.795058,-2072.576638,-9400.615463,536.266849
472.795385,-3552.988522,-10214.842000,153.219100
472.795713,-2590.720797,-10362.883188,-306.438199
472.796041,-148.041188,-9918.759623,-536.266849
472.796369,1332.370696,-10362.883188,76.609550
472.796696,1702.473667,-9844.739029,536.266849
472.797024,0.000000,-9770.718434,229.828649
472.797352,-740.205942,-9474.636058,76.609550
472.797679,148.041188,-9104.533087,76.609550
472.798007,2220.617826,-8364.327145,76.609550
472.798335,2960.823768,-8734.430116,689.485948
472.798662,1554.432478,-9844.739029,536.266849
472.798990,-962.267725,-11029.068536,76.609550
472.799318,-2590.720797,-11029.068536,0.000000
472.799645,-1924.535449,-10214.842000,-383.047749
472.799973,0.000000,-9474.636058,-306.438199
472.800301,1554.432478,-9252.574275,766.095498
472.800628,740.205942,-9696.697840,383.047749
472.800956,-1628.453072,-10140.821405,-459.657299
472.801284,-2812.782580,-9696.697840,-612.876398
472.801612,-740.205942,-8216.285956,-612.876398
472.801939,1628.453072,-8290.306550,153.219100
472.802267,2738.761985,-8512.368333,383.047749
472.802595,1628.453072,-9696.697840,842.705048
472.802922,-1332.370696,-10288.862594,612.876398
472.803250,-2516.700203,-10510.924376,153.219100
472.803578,-1776.494261,-9474.636058,-536.266849
472.803905,222.061783,-9030.512492,0.000000
472.804233,1850.514855,-9178.553681,459.657299
472.804561,1406.391290,-9400.615463,919.314598
472.804888,-888.247130,-9474.636058,1685.410096
472.805216,-888.247130,-8216.285956,1225.752797
472.805544,296.082377,-7920.203579,1149.143247
472.805871,2072.576638,-7179.997637,1225.752797
472.806199,2960.823768,-8068.244768,1762.019645
472.806527,814.226536,-8808.450710,2221.676944
472.806855,-1702.473667,-8660.409521,2451.505594
472.807182,-2960.823768,-9400.615463,1608.800546
472.807510,-2220.617826,-8956.491898,1225.752797
472.807838,-222.061783,-8660.409521,1378.971896
472.808165,592.164754,-9178.553681,1608.800546
472.808493,-444.123565,-9326.594869,1608.800546
472.808821,-3108.864956,-9326.594869,842.705048
472.809148,-4145.153275,-9104.533087,153.219100
472.809476,-2590.720797,-7846.182985,459.657299
472.809804,296.082377,-6883.915261,536.266849
472.810131,1554.432478,-7402.059420,1378.971896
472.810459,296.082377,-7846.182985,842.705048
472.810787,-2664.741391,-9178.553681,1072.533697
472.811114,-4589.276840,-9030.512492,229.828649
472.811442,-3330.926739,-8882.471304,-153.219100
472.811770,-814.226536,-8290.306550,306.438199
472.812097,1110.308913,-8142.265362,919.314598
472.812425,444.123565,-8956.491898,919.314598
472.812753,-1184.329507,-9104.533087,919.314598
472.813081,-1776.494261,-8734.430116,153.219100
472.813408,0.000000,-8216.285956,0.000000
472.813736,2664.741391,-7772.162391,229.828649
472.814064,3330.926739,-8512.368333,383.047749
472.814391,1998.556043,-9474.636058,689.485948
472.814719,-444.123565,-9992.780217,536.266849
472.815047,-1406.391290,-10140.821405,76.609550
472.815374,-444.123565,-9400.615463,536.266849
472.815702,1998.556043,-9474.636058,229.828649
472.816030,2516.700203,-9844.739029,689.485948
472.816357,962.267725,-10658.965565,536.266849
472.816685,-1406.391290,-10955.047942,306.438199
472.817013,-1924.535449,-10362.883188,-612.876398
472.817340,-740.205942,-9474.636058,76.609550
472.817668,2294.638420,-8660.409521,383.047749
472.817996,2886.803174,-8882.471304,919.314598
472.818324,1184.329507,-9474.636058,1225.752797
472.818651,-1776.494261,-9696.697840,536.266849
472.818979,-3404.947333,-9178.553681,0.000000
472.819307,-2368.659014,-8956.491898,-689.485948
472.819634,-296.082377,-8364.327145,-383.047749
472.819962,666.185348,-8660.409521,0.000000
472.820290,-296.082377,-9326.594869,0.000000
472.820617,-1628.453072,-9400.615463,536.266849
472.820945,-2294.638420,-9178.553681,-229.828649
472.821273,-1036.288319,-8586.388927,-153.219100
472.821600,1184.329507,-8660.409521,0.000000
472.821928,2072.576638,-9474.636058,383.047749
472.822256,666.185348,-9770.718434,1072.533697
472.822583,-1036.288319,-10658.965565,1072.533697
472.822911,-2146.597232,-10658.965565,536.266849
472.823239,-740.205942,-10214.842000,536.266849
472.823567,1554.432478,-9770.718434,612.876398
472.823894,1998.556043,-9474.636058,919.314598
472.824222,888.247130,-10066.800811,1762.019645
472.824550,-1258.350101,-10140.821405,1072.533697
472.824877,-1702.473667,-9474.636058,612.876398
472.825205,444.123565,-8438.347739,612.876398
472.825533,2960.823768,-7920.203579,919.314598
472.825860,3404.947333,-7994.224174,1608.800546
472.826188,1480.411884,-9030.512492,1685.410096
472.826516,-1776.494261,-9622.677246,1455.581446
472.826843,-3108.864956,-9622.677246,766.095498
472.827171,-1850.514855,-8808.450710,536.266849
472.827499,0.000000,-8586.388927,612.876398
472.827826,1110.308913,-8808.450710,1225.752797
472.828154,-370.102971,-9104.533087,1302.362347
472.828482,-2368.659014,-9252.574275,995.924147
472.828810,-2960.823768,-8364.327145,536.266849
472.829137,-1406.391290,-8216.285956,306.438199
472.829465,148.041188,-7179.997637,842.705048
472.829793,814.226536,-7846.182985,919.314598
472.830120,-740.205942,-8808.450710,919.314598
472.830448,-2960.823768,-8808.450710,536.266849
472.830776,-3997.112087,-8808.450710,76.609550
472.831103,-2146.597232,-8364.327145,536.266849
472.831431,0.000000,-8068.244768,383.047749
472.831759,1184.329507,-8290.306550,842.705048
472.832086,444.123565,-8734.430116,842.705048
472.832414,-1850.514855,-9178.553681,919.314598
472.832742,-1924.535449,-8364.327145,459.657299
472.833069,0.000000,-8068.244768,459.657299
472.833397,2072.576638,-8142.265362,689.485948
472.833725,2368.659014,-8956.491898,919.314598
472.834053,296.082377,-10066.800811,1149.143247
472.834380,-2368.659014,-10214.842000,383.047749
472.834708,-2960.823768,-10362.883188,0.000000
472.835036,-1628.453072,-9474.636058,-306.438199
472.835363,888.247130,-8956.491898,-689.485948
472.835691,1776.494261,-9326.594869,-153.219100
472.836019,1702.473667,-9030.512492,229.828649
472.836346,-666.185348,-9178.553681,0.000000
472.836674,-1184.329507,-9104.533087,-689.485948
472.837002,518.144159,-8512.368333,-689.485948
472.837329,2442.679609,-8512.368333,-306.438199
472.837657,3034.844362,-8882.471304,-459.657299
472.837985,1480.411884,-9770.718434,842.705048
472.838312,-1258.350101,-10288.862594,459.657299
472.838640,-2220.617826,-10510.924376,229.828649
472.838968,-592.164754,-9844.739029,76.609550
472.839296,1480.411884,-9548.656652,229.828649
472.839623,2590.720797,-9474.636058,689.485948
472.839951,1110.308913,-10140.821405,995.924147
472.840279,-444.123565,-9696.697840,919.314598
472.840606,-370.102971,-9030.512492,689.485948
472.840934,1480.411884,-8512.368333,995.924147
472.841262,3330.926739,-8142.265362,1838.629195
472.841589,3478.967927,-9030.512492,1838.629195
472.841917,592.164754,-9918.759623,1915.238745
472.842245,-2294.638420,-10584.944971,1532.190996
472.842572,-3627.009116,-10584.944971,995.924147
472.842900,-2590.720797,-9844.739029,536.266849
472.843228,-740.205942,-9474.636058,919.314598
472.843555,-814.226536,-9400.615463,1378.971896
472.843883,-1998.556043,-9326.594869,1225.752797
472.844211,-3849.070898,-9030.512492,536.266849
472.844539,-3923.091493,-8290.306550,229.828649
472.844866,-1998.556043,-7328.038826,0.000000
472.845194,-148.041188,-6735.874072,459.657299
472.845522,296.082377,-7179.997637,536.266849
472.845849,-1184.329507,-7846.182985,1072.533697
472.846177,-3478.967927,-8660.409521,689.485948
472.846505,-4145.153275,-8142.265362,459.657299
472.846832,-2294.638420,-8068.244768,0.000000
472.847160,148.041188,-8364.327145,536.266849
472.847488,1036.288319,-8808.450710,919.314598
472.847815,444.123565,-9400.615463,1225.752797
472.848143,-444.123565,-9178.553681,919.314598
472.848471,-592.164754,-9326.594869,995.924147
472.848798,1850.514855,-8586.388927,1072.533697
472.849126,4071.132681,-8364.327145,1149.143247
472.849454,4441.235652,-9104.533087,1838.629195
472.849781,2442.679609,-9844.739029,2374.896044
472.850109,-814.226536,-10510.924376,1302.362347
472.850437,-1480.411884,-10955.047942,536.266849
472.850765,-666.185348,-9918.759623,76.609550
472.851092,370.102971,-9400.615463,0.000000
472.851420,1776.494261,-9770.718434,153.219100
472.851748,-444.123565,-10214.842000,0.000000
472.852075,-2738.761985,-9696.697840,-229.828649
472.852403,-2812.782580,-8956.491898,-995.924147
472.852731,-1406.391290,-7994.224174,-1302.362347
472.853058,1258.350101,-7402.059420,-1072.533697
472.853386,1998.556043,-7772.162391,-689.485948
472.853714,-518.144159,-8364.327145,-306.438199
472.854041,-2442.679609,-9400.615463,-612.876398
472.854369,-3256.906145,-9474.636058,-1149.143247
472.854697,-1480.411884,-9326.594869,-919.314598
472.855024,1332.370696,-8956.491898,-536.266849
472.855352,2072.576638,-9400.615463,689.485948
472.855680,1406.391290,-10214.842000,766.095498
472.856008,-222.061783,-10288.862594,1072.533697
472.856335,148.041188,-9992.780217,689.485948
472.856663,2146.597232,-9104.533087,1838.629195
472.856991,4071.132681,-9104.533087,1991.848295
472.857318,3701.029710,-10288.862594,2451.505594
472.857646,1184.329507,-11177.109724,2221.676944
472.857974,-1702.473667,-11473.192101,2145.067394
472.858301,-2442.679609,-10658.965565,1149.143247
472.858629,-962.267725,-9992.780217,995.924147
472.858957,370.102971,-9770.718434,919.314598
472.859284,444.123565,-9548.656652,1072.533697
472.859612,-2146.597232,-9400.615463,995.924147
472.859940,-3775.050304,-8956.491898,383.047749
472.860267,-3627.009116,-7772.162391,-383.047749
472.860595,-2294.638420,-6883.915261,-306.438199
472.860923,148.041188,-6513.812290,0.000000
472.861251,148.041188,-7105.977043,229.828649
472.861578,-2146.597232,-7698.141797,459.657299
472.861906,-4219.173869,-7994.224174,229.828649
472.862233,-4737.318029,-8364.327145,0.000000
472.862561,-2368.659014,-7624.121203,-383.047749
472.862888,666.185348,-7476.080014,229.828649
472.863216,2294.638420,-8142.265362,1149.143247
472.863543,1850.514855,-8438.347739,2451.505594
472.863871,814.226536,-8364.327145,2451.505594
472.864198,1480.411884,-8290.306550,1915.238745
472.864526,3182.885551,-8068.244768,2374.896044
472.864853,4663.297435,-8660.409521,2374.896044
472.865181,4071.132681,-9548.656652,2451.505594
472.865508,1554.432478,-10288.862594,2145.067394
472.865836,-962.267725,-10732.986159,2298.286494
472.866163,-1702.473667,-10140.821405,1608.800546
472.866491,222.061783,-9548.656652,1378.971896
472.866818,1110.308913,-8882.471304,459.657299
472.867146,0.000000,-9030.512492,842.705048
472.867473,-1554.432478,-9030.512492,383.047749
472.867801,-4441.235652,-9326.594869,-229.828649
472.868128,-4515.256246,-8438.347739,-995.924147
472.868456,-2368.659014,-7476.080014,-1149.143247
472.868783,-296.082377,-7254.018232,-689.485948
472.869111,222.061783,-6957.935855,-229.828649
472.869438,-1628.453072,-7920.203579,76.609550
472.869765,-4145.153275,-8660.409521,-383.047749
472.870093,-4663.297435,-8956.491898,-995.924147
472.870420,-2812.782580,-8586.388927,-1378.971896
472.870748,-888.247130,-8364.327145,-995.924147
472.871075,1184.329507,-9252.574275,-153.219100
472.871403,148.041188,-9622.677246,0.000000
472.871730,-814.226536,-9696.697840,0.000000
472.872058,222.061783,-9622.677246,76.609550
472.872385,3034.844362,-9252.574275,153.219100
472.872713,4737.318029,-9252.574275,612.876398
472.873040,5033.400406,-10140.821405,995.924147
472.873368,2664.741391,-10807.006753,1149.143247
472.873695,518.144159,-11251.130318,1378.971896
472.874023,-2368.659014,-11251.130318,-459.657299
472.874350,1628.453072,-12139.377449,459.657299
472.874678,1998.556043,-9548.656652,-153.219100
472.875005,1480.411884,-10584.944971,995.924147
472.875333,-740.205942,-11621.233289,0.000000
472.875660,-3256.906145,-10214.842000,0.000000
472.875988,-3256.906145,-9178.553681,-842.705048
472.876315,-370.102971,-8512.368333,-536.266849
472.876643,1480.411884,-7846.182985,0.000000
472.876970,592.164754,-8364.327145,0.000000
472.877298,-1332.370696,-9178.553681,76.609550
472.877625,-3404.947333,-9252.574275,-459.657299
472.877953,-4367.215058,-9178.553681,-612.876398
472.878280,-2368.659014,-8660.409521,-689.485948
472.878608,0.000000,-8956.491898,0.000000
472.878935,1480.411884,-9030.512492,459.657299
472.879262,-370.102971,-10288.862594,1532.190996
472.879590,-962.267725,-9992.780217,1302.362347
472.879917,-222.061783,-9622.677246,1378.971896
472.880245,1480.411884,-9104.533087,1685.410096
472.880572,3330.926739,-9400.615463,2374.896044
472.880900,2664.741391,-9548.656652,2528.115143
472.881227,888.247130,-10362.883188,3064.381992
472.881555,-1258.350101,-10362.883188,2528.115143
472.881882,-1184.329507,-9474.636058,2298.286494
472.882210,518.144159,-8882.471304,2221.676944
472.882537,2220.617826,-9030.512492,2068.457845
472.882865,1184.329507,-9474.636058,2757.943793
472.883192,-1332.370696,-9474.636058,2221.676944
472.883520,-3478.967927,-8956.491898,1302.362347
472.883847,-4071.132681,-8216.285956,842.705048
472.884175,-1554.432478,-7476.080014,612.876398
472.884502,-296.082377,-7476.080014,919.314598
472.884830,-1258.350101,-7994.224174,842.705048
472.885157,-3478.967927,-8586.388927,153.219100
472.885485,-5625.565159,-9030.512492,0.000000
472.885812,-5255.462188,-8512.368333,-1225.752797
472.886140,-2294.638420,-7550.100608,-1378.971896
472.886467,592.164754,-7476.080014,-612.876398
472.886795,1628.453072,-7698.141797,0.000000
472.887122,592.164754,-8438.347739,459.657299
472.887450,-518.144159,-8586.388927,459.657299
472.887777,518.144159,-8142.265362,536.266849
472.888105,2442.679609,-8290.306550,459.657299
472.888432,4589.276840,-8660.409521,919.314598
472.888759,3849.070898,-9696.697840,1455.581446
472.889087,2072.576638,-10510.924376,1455.581446
472.889414,666.185348,-10510.924376,842.705048
472.889742,592.164754,-9548.656652,1455.581446
472.890069,2368.659014,-9400.615463,689.485948
472.890397,3701.029710,-9030.512492,383.047749
472.890724,2812.782580,-9326.594869,383.047749
472.891052,296.082377,-9770.718434,459.657299
472.891379,-2368.659014,-9104.533087,0.000000
472.891707,-1924.535449,-8660.409521,-689.485948
472.892034,0.000000,-7698.141797,-919.314598
472.892362,962.267725,-7920.203579,-306.438199
472.892689,296.082377,-8808.450710,0.000000
472.893017,-2072.576638,-9400.615463,-153.219100
472.893344,-4885.359217,-9622.677246,-612.876398
472.893672,-4959.379811,-9252.574275,-1378.971896
472.893999,-3552.988522,-8882.471304,-1915.238745
472.894327,-1258.350101,-8586.388927,-1149.143247
472.894654,-370.102971,-8364.327145,-995.924147
472.894982,-1184.329507,-8364.327145,76.609550
472.895309,-1480.411884,-8586.388927,0.000000
472.895637,-666.185348,-8142.265362,-383.047749
472.895964,1628.453072,-7920.203579,229.828649
472.896292,3404.947333,-8216.285956,1302.362347
472.896619,3552.988522,-9104.533087,1608.800546
472.896947,1924.535449,-10288.862594,2145.067394
472.897274,0.000000,-11399.171507,2298.286494
472.897602,-148.041188,-11251.130318,2145.067394
472.897929,1776.494261,-10881.027347,2221.676944
472.898256,2590.720797,-10214.842000,2374.896044
472.898584,1850.514855,-11103.089130,2145.067394
472.898911,-814.226536,-11103.089130,1685.410096
472.899239,-2886.803174,-10436.903782,612.876398
472.899566,-2590.720797,-8956.491898,383.047749
472.899894,296.082377,-7328.038826,689.485948
472.900221,2146.597232,-7846.182985,919.314598
472.900549,148.041188,-8364.327145,919.314598
472.900876,-2812.782580,-9474.636058,383.047749
472.901204,-5699.585753,-9400.615463,-306.438199
472.901531,-5921.647536,-8586.388927,-1149.143247
472.901859,-3182.885551,-8290.306550,-766.095498
472.902186,-1184.329507,-8586.388927,-306.438199
472.902514,-370.102971,-8734.430116,689.485948
472.902841,-888.247130,-9252.574275,1072.533697
472.903169,-1850.514855,-8586.388927,1149.143247
472.903496,-370.102971,-8290.306550,995.924147
472.903824,1628.453072,-8068.244768,1072.533697
472.904151,3108.864956,-8512.368333,1685.410096
472.904479,2960.823768,-9326.594869,2145.067394
472.904806,1110.308913,-9918.759623,2298.286494
472.905134,0.000000,-10658.965565,2528.115143
472.905461,518.144159,-9770.718434,2221.676944
472.905789,2220.617826,-9844.739029,1991.848295
472.906116,2590.720797,-10140.821405,1991.848295
472.906444,1406.391290,-10807.006753,1915.238745
472.906771,-1628.453072,-10732.986159,1302.362347
472.907098,-3701.029710,-10436.903782,76.609550
472.907426,-2442.679609,-9326.594869,229.828649
472.907753,74.020594,-7698.141797,76.609550
472.908081,888.247130,-7550.100608,459.657299
472.908408,74.020594,-7920.203579,383.047749
472.908736,-2812.782580,-8586.388927,459.657299
472.909063,-5477.523971,-8512.368333,-612.876398
472.909391,-5477.523971,-8068.244768,-1762.019645
472.909718,-3182.885551,-7179.997637,-1838.629195
472.910046,-740.205942,-7105.977043,-1302.362347
472.910373,0.000000,-7254.018232,-766.095498
472.910701,-1406.391290,-8290.306550,0.000000
472.911028,-2294.638420,-8290.306550,-229.828649
472.911356,-740.205942,-7994.224174,-459.657299
472.911683,1850.514855,-7920.203579,-306.438199
472.912011,4071.132681,-8882.471304,153.219100
472.912338,3701.029710,-9548.656652,536.266849
472.912666,2146.597232,-10362.883188,1149.143247
472.912993,814.226536,-10362.883188,995.924147
472.913321,1480.411884,-9844.739029,842.705048
472.913648,3256.906145,-9474.636058,1149.143247
472.913976,4515.256246,-9474.636058,1302.362347
472.914303,3330.926739,-9992.780217,995.924147
472.914631,222.061783,-10140.821405,766.095498
472.914958,-1776.494261,-9622.677246,153.219100
472.915286,-444.123565,-8882.471304,0.000000
472.915613,1628.453072,-7550.100608,0.000000
472.915941,1554.432478,-7920.203579,306.438199
472.916268,74.020594,-8808.450710,229.828649
472.916595,-3627.009116,-9622.677246,0.000000
472.916923,-6291.750507,-9622.677246,-1072.533697
472.917250,-5625.565159,-8586.388927,-1685.410096
472.917578,-2886.803174,-7698.141797,-1608.800546
472.917905,-370.102971,-7476.080014,-1072.533697
472.918233,0.000000,-8142.265362,0.000000
472.918560,-1110.308913,-8660.409521,0.000000
472.918888,-2072.576638,-9030.512492,153.219100
472.919215,-1184.329507,-9178.553681,0.000000
472.919543,1036.288319,-8808.450710,0.000000
472.919870,2664.741391,-9474.636058,919.314598
472.920198,2516.700203,-10436.903782,1915.238745
472.920525,1258.350101,-10955.047942,2834.553343
472.920853,296.082377,-10510.924376,2451.505594
472.921180,888.247130,-10732.986159,2298.286494
472.921508,2368.659014,-10436.903782,2374.896044
472.921835,3182.885551,-10288.862594,2221.676944
472.922163,1924.535449,-10510.924376,2604.724693
472.922490,0.000000,-10807.006753,2068.457845
472.922818,-1924.535449,-10066.800811,1455.581446
472.923145,-1036.288319,-8882.471304,1149.143247
472.923473,592.164754,-8142.265362,1532.190996
472.923800,1628.453072,-8586.388927,1455.581446
472.924128,-592.164754,-9400.615463,919.314598
472.924455,-4515.256246,-9770.718434,612.876398
472.924783,-6809.894666,-9992.780217,-383.047749
472.925110,-6217.729913,-8882.471304,-1072.533697
472.925438,-3552.988522,-7920.203579,-842.705048
472.925765,-370.102971,-7031.956449,76.609550
472.926092,0.000000,-7994.224174,612.876398
472.926420,-1850.514855,-8364.327145,536.266849
472.926747,-2442.679609,-8290.306550,459.657299
472.927075,-1184.329507,-8068.244768,229.828649
472.927402,1406.391290,-7846.182985,1072.533697
472.927730,2664.741391,-8364.327145,1532.190996
472.928057,2072.576638,-9548.656652,2145.067394
472.928385,740.205942,-10214.842000,2374.896044
472.928712,-518.144159,-10214.842000,2221.676944
472.929040,444.123565,-9696.697840,1991.848295
472.929367,2368.659014,-8808.450710,1608.800546
472.929695,2960.823768,-9474.636058,1532.190996
472.930022,1406.391290,-9326.594869,1149.143247
472.930350,-518.144159,-9474.636058,919.314598
472.930677,-1702.473667,-9030.512492,383.047749
472.931005,-518.144159,-7994.224174,153.219100
472.931332,1628.453072,-7328.038826,459.657299
472.931660,2146.597232,-7328.038826,383.047749
472.931987,0.000000,-8438.347739,842.705048
472.932315,-2738.761985,-9104.533087,0.000000
472.932642,-5329.482782,-9548.656652,-766.095498
472.932970,-4811.338623,-8882.471304,-1378.971896
472.933297,-2590.720797,-8512.368333,-1455.581446
472.933625,-740.205942,-8512.368333,-842.705048
472.933952,-666.185348,-8364.327145,-459.657299
472.934280,-1776.494261,-8512.368333,-995.924147
472.934607,-2368.659014,-8290.306550,-919.314598
472.934935,-740.205942,-7624.121203,-1225.752797
472.935262,2146.597232,-7179.997637,-766.095498
472.935589,3997.112087,-7624.121203,0.000000
472.935917,3775.050304,-9178.553681,766.095498
472.936244,2220.617826,-9696.697840,1149.143247
472.936572,518.144159,-10362.883188,919.314598
472.936899,1184.329507,-10510.924376,919.314598
472.937227,2664.741391,-10436.903782,919.314598
472.937554,3404.947333,-10955.047942,1072.533697
472.937882,2812.782580,-11473.192101,2221.676944
472.938209,518.144159,-11103.089130,1225.752797
472.938537,-370.102971,-10584.944971,919.314598
472.938864,222.061783,-9770.718434,766.095498
472.939192,2146.597232,-8734.430116,842.705048
472.939519,2146.597232,-8808.450710,919.314598
472.939847,0.000000,-9474.636058,383.047749
472.940174,-3478.967927,-10510.924376,0.000000
472.940502,-5995.668130,-10288.862594,-766.095498
472.940829,-4811.338623,-9474.636058,-1302.362347
472.941157,-2442.679609,-8438.347739,-1225.752797
472.941484,0.000000,-8586.388927,0.000000
472.941812,-888.247130,-8808.450710,459.657299
472.942139,-2442.679609,-9474.636058,153.219100
472.942467,-3108.864956,-9104.533087,0.000000
472.942794,-2220.617826,-8364.327145,-306.438199
472.943122,666.185348,-7698.141797,-229.828649
472.943449,2516.700203,-8586.388927,919.314598
472.943777,1924.535449,-9400.615463,1608.800546
472.944104,518.144159,-9918.759623,2451.505594
472.944431,-814.226536,-9844.739029,2068.457845
472.944759,444.123565,-9992.780217,2221.676944
472.945086,1702.473667,-9252.574275,1915.238745
472.945414,2664.741391,-9770.718434,1991.848295
472.945741,1776.494261,-10140.821405,2528.115143
472.946069,0.000000,-10288.862594,2451.505594
472.946396,-370.102971,-9696.697840,3064.381992
472.946724,814.226536,-8142.265362,2604.724693
472.947051,2368.659014,-7920.203579,2451.505594
472.947379,2220.617826,-8142.265362,2374.896044
472.947706,-1258.350101,-9030.512492,1915.238745
472.948034,-4589.276840,-9178.553681,766.095498
472.948361,-6587.832884,-9400.615463,153.219100
472.948689,-5699.585753,-7846.182985,-842.705048
472.949016,-2960.823768,-7105.977043,-459.657299
472.949344,-962.267725,-7105.977043,153.219100
472.949671,-1554.432478,-7105.977043,306.438199
472.949999,-3182.885551,-7402.059420,-689.485948
472.950326,-4293.194464,-7254.018232,-842.705048
472.950654,-2516.700203,-6587.832884,-1532.190996
472.950981,444.123565,-6587.832884,-1149.143247
472.951309,2368.659014,-7179.997637,153.219100
472.951636,2368.659014,-8660.409521,612.876398
472.951964,444.123565,-9548.656652,919.314598
472.952291,-666.185348,-9992.780217,766.095498
472.952619,296.082377,-9548.656652,153.219100
472.952946,2368.659014,-9622.677246,229.828649
472.953274,3849.070898,-10066.800811,229.828649
472.953601,3182.885551,-10584.944971,612.876398
472.953928,1702.473667,-10658.965565,766.095498
472.954256,1258.350101,-9770.718434,306.438199
472.954583,2812.782580,-9178.553681,459.657299
472.954911,4589.276840,-8734.430116,995.924147
472.955238,4145.153275,-9178.553681,1072.533697
472.955566,1110.308913,-10140.821405,383.047749
472.955893,-2220.617826,-10288.862594,-229.828649
472.956221,-3923.091493,-9844.739029,-919.314598
472.956548,-3552.988522,-9548.656652,-1072.533697
472.956876,-1036.288319,-9104.533087,-306.438199
472.957203,148.041188,-8808.450710,-536.266849
472.957531,-1406.391290,-9474.636058,-306.438199
472.957858,-3256.906145,-9474.636058,-459.657299
472.958186,-4737.318029,-9326.594869,-1072.533697
472.958513,-2146.597232,-8660.409521,-1149.143247
472.958841,444.123565,-7179.997637,-383.047749
472.959168,2368.659014,-7920.203579,536.266849
472.959496,2072.576638,-8956.491898,1685.410096
472.959823,-222.061783,-9992.780217,1762.019645
472.960151,-1406.391290,-11029.068536,1302.362347
472.960478,-814.226536,-9992.780217,1072.533697
472.960806,518.144159,-10066.800811,1149.143247
472.961133,1554.432478,-10732.986159,1608.800546
472.961461,888.247130,-11029.068536,2298.286494
472.961788,-370.102971,-10732.986159,2298.286494
472.962116,0.000000,-9696.697840,2374.896044
472.962443,1480.411884,-8956.491898,1762.019645
472.962771,2738.761985,-8364.327145,1915.238745
472.963098,2294.638420,-8734.430116,1915.238745
472.963425,-518.144159,-9474.636058,1532.190996
472.963753,-3627.009116,-9622.677246,612.876398
472.964081,-5551.544565,-9474.636058,-153.219100
472.964408,-3256.906145,-8512.368333,-229.828649
472.964736,-962.267725,-7994.224174,0.000000
472.965063,0.000000,-8068.244768,842.705048
472.965391,-1036.288319,-8808.450710,919.314598
472.965718,-3478.967927,-8734.430116,459.657299
472.966046,-3923.091493,-8512.368333,0.000000
472.966373,-1850.514855,-7698.141797,-383.047749
472.966701,888.247130,-7328.038826,0.000000
472.967028,2516.700203,-7698.141797,1455.581446
472.967356,2294.638420,-9030.512492,1915.238745
472.967683,-444.123565,-9474.636058,1762.019645
472.968011,-1480.411884,-9992.780217,1149.143247
472.968338,-518.144159,-9548.656652,689.485948
472.968666,1480.411884,-9400.615463,842.705048
472.968994,2368.659014,-9844.739029,459.657299
472.969321,1480.411884,-9770.718434,1225.752797
472.969649,0.000000,-10140.821405,1149.143247
472.969976,0.000000,-9326.594869,1072.533697
472.970304,1258.350101,-8438.347739,995.924147
472.970631,2812.782580,-7624.121203,919.314598
472.970959,2368.659014,-8808.450710,995.924147
472.971286,-296.082377,-9622.677246,919.314598
472.971614,-3627.009116,-9622.677246,76.609550
472.971941,-4959.379811,-9400.615463,-383.047749
472.972269,-2590.720797,-8660.409521,-919.314598
472.972596,-1184.329507,-7624.121203,-383.047749
472.972924,0.000000,-8216.285956,-306.438199
472.973251,-1110.308913,-8734.430116,-153.219100
472.973579,-3478.967927,-8882.471304,-995.924147
472.973907,-4071.132681,-8438.347739,-1608.800546
472.974234,-1776.494261,-7550.100608,-1838.629195
472.974562,1406.391290,-7550.100608,-1225.752797
472.974889,2664.741391,-7624.121203,0.000000
472.975217,2294.638420,-9030.512492,612.876398
472.975544,-148.041188,-9844.739029,1378.971896
472.975872,-888.247130,-10510.924376,229.828649
472.976199,0.000000,-9992.780217,-229.828649
472.976527,1998.556043,-9918.759623,76.609550
472.976854,3108.864956,-10140.821405,459.657299
472.977182,2664.741391,-10732.986159,1302.362347
472.977509,1036.288319,-10436.903782,1915.238745
472.977837,814.226536,-9474.636058,1455.581446
472.978164,2220.617826,-8660.409521,766.095498
472.978492,3552.988522,-8512.368333,919.314598
472.978820,3108.864956,-8808.450710,766.095498
472.979147,296.082377,-9548.656652,612.876398
472.979475,-2368.659014,-10066.800811,536.266849
472.979802,-3478.967927,-9622.677246,-229.828649
472.980130,-2072.576638,-9104.533087,0.000000
472.980457,0.000000,-8660.409521,229.828649
472.980785,444.123565,-8808.450710,842.705048
472.981112,-1332.370696,-9992.780217,1149.143247
472.981440,-3775.050304,-9918.759623,229.828649
472.981767,-4219.173869,-9400.615463,0.000000
472.982095,-2368.659014,-8364.327145,0.000000
472.982422,592.164754,-7920.203579,689.485948
472.982750,1628.453072,-7994.224174,1685.410096
472.983077,296.082377,-9030.512492,1762.019645
472.983405,-2220.617826,-9474.636058,1685.410096
472.983733,-3256.906145,-9474.636058,919.314598
472.984060,-1998.556043,-9178.553681,459.657299
472.984388,592.164754,-8882.471304,1455.581446
472.984715,1258.350101,-9252.574275,995.924147
472.985043,666.185348,-9622.677246,1685.410096
472.985370,-222.061783,-9326.594869,2068.457845
472.985698,-296.082377,-8512.368333,1685.410096
472.986025,1036.288319,-7920.203579,1608.800546
472.986353,2812.782580,-7698.141797,1685.410096
472.986680,2220.617826,-8660.409521,1685.410096
472.987008,-592.164754,-9474.636058,1838.629195
472.987335,-2738.761985,-9622.677246,1225.752797
472.987663,-3552.988522,-8660.409521,459.657299
472.987990,-1406.391290,-8438.347739,766.095498
472.988318,1258.350101,-8216.285956,919.314598
472.988645,962.267725,-8438.347739,1302.362347
472.988973,-888.247130,-9104.533087,1072.533697
472.989301,-3108.864956,-9400.615463,459.657299
472.989628,-3849.070898,-8956.491898,-459.657299
472.989956,-1554.432478,-7846.182985,-383.047749
472.990283,1480.411884,-7476.080014,153.219100
472.990611,2664.741391,-7846.182985,536.266849
472.990938,962.267725,-8660.409521,1072.533697
472.991266,-1480.411884,-8660.409521,766.095498
472.991593,-3108.864956,-9104.533087,0.000000
472.991921,-1850.514855,-9326.594869,-612.876398
472.992248,0.000000,-9104.533087,-459.657299
472.992576,888.247130,-9474.636058,-153.219100
472.992903,666.185348,-9326.594869,383.047749
472.993231,-740.205942,-9104.533087,689.485948
472.993558,-666.185348,-9104.533087,306.438199
472.993886,740.205942,-8216.285956,153.219100
472.994214,2220.617826,-8216.285956,0.000000
472.994541,1998.556043,-8586.388927,76.609550
472.994869,-370.102971,-9696.697840,153.219100
472.995196,-2664.741391,-9918.759623,-689.485948
472.995524,-2738.761985,-9548.656652,-1072.533697
472.995851,-740.205942,-8808.450710,-1072.533697
472.996179,1998.556043,-8586.388927,0.000000
472.996506,2590.720797,-9030.512492,536.266849
472.996834,222.061783,-10214.842000,76.609550
472.997161,-2516.700203,-10807.006753,-612.876398
472.997489,-2664.741391,-10214.842000,-919.314598
472.997816,-518.144159,-9400.615463,-766.095498
472.998144,2442.679609,-9030.512492,0.000000
472.998471,3552.988522,-9622.677246,1072.533697
472.998799,1184.329507,-10436.903782,1608.800546
472.999127,-1406.391290,-11029.068536,995.924147
472.999454,-2368.659014,-10510.924376,536.266849
472.999782,-1036.288319,-9548.656652,-536.266849
473.000109,1036.288319,-9178.553681,-229.828649
473.000437,1776.494261,-9622.677246,536.266849
473.000764,888.247130,-9770.718434,1225.752797
473.001092,0.000000,-9770.718434,1378.971896
473.001419,0.000000,-8956.491898,1302.362347
473.001747,1554.432478,-8216.285956,1532.190996
473.002074,2368.659014,-8808.450710,1302.362347
473.002402,1406.391290,-9548.656652,1378.971896
473.002729,-1184.329507,-10584.944971,1378.971896
473.003057,-3404.947333,-10362.883188,1302.362347
473.003384,-2886.803174,-9548.656652,2068.457845
473.003712,-444.123565,-9326.594869,1378.971896
473.004040,1554.432478,-8882.471304,1838.629195
473.004367,814.226536,-8956.491898,1838.629195
473.004695,-1184.329507,-9252.574275,1915.238745
473.005022,-3849.070898,-9474.636058,766.095498
473.005350,-3404.947333,-8142.265362,689.485948
473.005677,-962.267725,-7476.080014,689.485948
473.006005,1628.453072,-7254.018232,1455.581446
473.006332,1924.535449,-8216.285956,2221.676944
473.006660,-148.041188,-8956.491898,2757.943793
473.006987,-2960.823768,-9548.656652,1608.800546
473.007315,-3849.070898,-9400.615463,919.314598
473.007642,-2368.659014,-9030.512492,229.828649
473.007970,-518.144159,-8586.388927,306.438199
473.008297,222.061783,-8512.368333,842.705048
473.008625,-444.123565,-8734.430116,1302.362347
473.008953,-1332.370696,-8216.285956,919.314598
473.009280,-1110.308913,-7698.141797,612.876398
473.009608,888.247130,-7402.059420,153.219100
473.009935,1998.556043,-7476.080014,153.219100
473.010263,1406.391290,-8586.388927,383.047749
473.010590,-1184.329507,-9400.615463,459.657299
473.010918,-3256.906145,-9474.636058,0.000000
473.011245,-2516.700203,-9252.574275,-383.047749
473.011573,-222.061783,-8142.265362,-306.438199
473.011900,1998.556043,-8068.244768,689.485948
473.012228,2294.638420,-8660.409521,459.657299
473.012555,0.000000,-9400.615463,383.047749
473.012883,-1850.514855,-9474.636058,-229.828649
473.013210,-1332.370696,-8660.409521,-842.705048
473.013538,1480.411884,-7550.100608,-459.657299
473.013866,3627.009116,-7698.141797,153.219100
473.014193,3552.988522,-8808.450710,766.095498
473.014521,518.144159,-9992.780217,1072.533697
473.014848,-1924.535449,-10436.903782,76.609550
473.015176,-2368.659014,-10288.862594,-612.876398
473.015503,-888.247130,-9696.697840,-1149.143247
473.015831,1110.308913,-9696.697840,-459.657299
473.016158,1554.432478,-10140.821405,229.828649
473.016486,370.102971,-10214.842000,612.876398
473.016813,-962.267725,-9622.677246,153.219100
473.017141,-370.102971,-9178.553681,0.000000
473.017468,962.267725,-7994.224174,-229.828649
473.017796,2220.617826,-8660.409521,0.000000
473.018123,1258.350101,-9030.512492,306.438199
473.018451,-962.267725,-9696.697840,612.876398
473.018778,-2886.803174,-9770.718434,153.219100
473.019106,-2294.638420,-9252.574275,0.000000
473.019434,-592.164754,-8438.347739,383.047749
473.019761,1184.329507,-8586.388927,766.095498
473.020089,592.164754,-9104.533087,1378.971896
473.020416,-1628.453072,-9622.677246,1149.143247
473.020744,-3256.906145,-9622.677246,1072.533697
473.021071,-2220.617826,-8586.388927,536.266849
473.021399,444.123565,-7698.141797,842.705048
473.021726,2516.700203,-7846.182985,1532.190996
473.022054,2220.617826,-8808.450710,2298.286494
473.022381,0.000000,-9400.615463,2528.115143
473.022709,-2368.659014,-9992.780217,1685.410096
473.023036,-2664.741391,-9696.697840,919.314598
473.023364,-1554.432478,-9400.615463,612.876398
473.023691,222.061783,-9548.656652,995.924147
473.024019,592.164754,-9844.739029,1455.581446
473.024347,-1258.350101,-9474.636058,1915.238745
473.024674,-2072.576638,-9178.553681,1225.752797
473.025002,-1258.350101,-8438.347739,1072.533697
473.025329,148.041188,-7698.141797,612.876398
473.025657,1332.370696,-7994.224174,919.314598
473.025984,888.247130,-7920.203579,306.438199
473.026312,-1776.494261,-9030.512492,919.314598
473.026639,-3330.926739,-9104.533087,306.438199
473.026967,-2738.761985,-8216.285956,-229.828649
473.027294,-148.041188,-7328.038826,0.000000
473.027622,2220.617826,-7772.162391,612.876398
473.027949,1406.391290,-8882.471304,689.485948
473.028277,-518.144159,-9622.677246,919.314598
473.028604,-1702.473667,-9844.739029,689.485948
473.028932,-962.267725,-9030.512492,306.438199
473.029260,1850.514855,-8512.368333,306.438199
473.029587,3478.967927,-8956.491898,1225.752797
473.029915,2886.803174,-10214.842000,1915.238745
473.030242,0.000000,-11177.109724,1608.800546
473.030570,-2294.638420,-11325.150913,919.314598
473.030897,-2590.720797,-10658.965565,-306.438199
473.031225,-666.185348,-9770.718434,-612.876398
473.031552,1110.308913,-9770.718434,-153.219100
473.031880,888.247130,-9474.636058,153.219100
473.032207,-666.185348,-9474.636058,306.438199
473.032535,-1702.473667,-9474.636058,-383.047749
473.032862,-1924.535449,-8216.285956,-383.047749
473.033190,-222.061783,-7698.141797,-1072.533697
473.033517,740.205942,-8068.244768,-766.095498
473.033845,-222.061783,-8882.471304,-459.657299
473.034173,-1998.556043,-9400.615463,0.000000
473.034500,-3923.091493,-9474.636058,-229.828649
473.034828,-2960.823768,-8586.388927,-995.924147
473.035155,-444.123565,-8216.285956,-1149.143247
473.035483,1406.391290,-8438.347739,-459.657299
473.035810,1406.391290,-9252.574275,-229.828649
473.036138,0.000000,-9400.615463,383.047749
473.036465,-370.102971,-9400.615463,0.000000
473.036793,740.205942,-8808.450710,76.609550
473.037120,3034.844362,-8290.306550,383.047749
473.037448,4367.215058,-8956.491898,1302.362347
473.037775,3256.906145,-9844.739029,2145.067394
473.038103,222.061783,-10584.944971,1915.238745
473.038430,-1702.473667,-11177.109724,1072.533697
473.038758,-1998.556043,-10584.944971,536.266849
473.039086,74.020594,-9770.718434,536.266849
473.039413,1776.494261,-9326.594869,995.924147
473.039741,1258.350101,-9548.656652,919.314598
473.040068,-814.226536,-9696.697840,1532.190996
473.040396,-2294.638420,-8956.491898,842.705048
473.040723,-1924.535449,-8068.244768,153.219100
473.041051,0.000000,-7179.997637,459.657299
473.041378,814.226536,-7476.080014,689.485948
473.041706,370.102971,-8142.265362,1455.581446
473.042033,-1628.453072,-8956.491898,1608.800546
473.042361,-2738.761985,-8882.471304,1608.800546
473.042688,-2368.659014,-8586.388927,1225.752797
473.043016,-592.164754,-7624.121203,919.314598
473.043343,0.000000,-8882.471304,995.924147
473.043671,-518.144159,-9844.739029,1149.143247
473.043998,-2368.659014,-10140.821405,1149.143247
473.044326,-2738.761985,-9474.636058,842.705048
473.044654,-666.185348,-8512.368333,1378.971896
473.044981,2072.576638,-8142.265362,689.485948
473.045309,3256.906145,-8438.347739,1838.629195
473.045636,2294.638420,-9178.553681,2145.067394
473.045964,-518.144159,-10214.842000,1532.190996
473.046291,-2960.823768,-10658.965565,995.924147
473.046619,-2516.700203,-10436.903782,229.828649
473.046946,-296.082377,-9696.697840,0.000000
473.047274,518.144159,-9104.533087,306.438199
473.047601,370.102971,-9622.677246,1149.143247
473.047929,-1406.391290,-9548.656652,919.314598
473.048256,-2664.741391,-9252.574275,0.000000
473.048584,-1998.556043,-8216.285956,-612.876398
473.048911,0.000000,-7624.121203,-1072.533697
473.049239,1184.329507,-7994.224174,-536.266849
473.049567,1036.288319,-8512.368333,-153.219100
473.049894,-1184.329507,-8734.430116,306.438199
473.050222,-2072.576638,-9104.533087,-153.219100
473.050549,-1406.391290,-8808.450710,-536.266849
473.050877,222.061783,-8438.347739,-689.485948
473.051204,1776.494261,-8660.409521,-383.047749
473.051532,1628.453072,-9030.512492,383.047749
473.051859,148.041188,-9844.739029,383.047749
473.052187,-592.164754,-9474.636058,229.828649
473.052514,814.226536,-8142.265362,229.828649
473.052842,3404.947333,-7328.038826,995.924147
473.053169,4589.276840,-7846.182985,2221.676944
473.053497,2960.823768,-9178.553681,1762.019645
473.053824,-518.144159,-10584.944971,1762.019645
473.054152,-2812.782580,-10658.965565,1225.752797
473.054480,-2516.700203,-9770.718434,459.657299
473.054807,-740.205942,-9326.594869,229.828649
473.055135,518.144159,-9252.574275,766.095498
473.055462,-222.061783,-9474.636058,919.314598
473.055790,-2368.659014,-9474.636058,536.266849
473.056117,-3404.947333,-8364.327145,-383.047749
473.056445,-2812.782580,-7698.141797,-919.314598
473.056772,-1036.288319,-7031.956449,-995.924147
473.057100,222.061783,-7179.997637,-306.438199
473.057427,-666.185348,-8142.265362,-383.047749
473.057755,-3034.844362,-9030.512492,-306.438199
473.058082,-3997.112087,-9252.574275,-536.266849
473.058410,-2960.823768,-9326.594869,-536.266849
473.058737,-592.164754,-8660.409521,-995.924147
473.059065,1554.432478,-9252.574275,0.000000
473.059393,1480.411884,-9992.780217,919.314598
473.059720,370.102971,-10510.924376,1378.971896
473.060048,74.020594,-10066.800811,1685.410096
473.060375,1998.556043,-8734.430116,1915.238745
473.060703,4737.318029,-8734.430116,1991.848295
473.061030,5551.544565,-9474.636058,2298.286494
473.061358,3775.050304,-10362.883188,2757.943793
473.061685,962.267725,-11103.089130,2681.334243
473.062013,-962.267725,-10584.944971,1762.019645
473.062340,-1184.329507,-9844.739029,1225.752797
473.062668,1110.308913,-9622.677246,1072.533697
473.062995,1184.329507,-9844.739029,1455.581446
473.063323,-592.164754,-9992.780217,1532.190996
473.063650,-3182.885551,-10288.862594,1225.752797
473.063978,-4737.318029,-9400.615463,306.438199
473.064305,-4367.215058,-8438.347739,-612.876398
473.064633,-1924.535449,-7994.224174,-383.047749
473.064960,-1480.411884,-7772.162391,-459.657299
473.065288,-2294.638420,-8290.306550,383.047749
473.065615,-4367.215058,-8216.285956,-229.828649
473.065943,-5403.503377,-7994.224174,-766.095498
473.066270,-3849.070898,-7476.080014,-1302.362347
473.066598,-962.267725,-7179.997637,-1149.143247
473.066925,740.205942,-7402.059420,306.438199
473.067253,1702.473667,-8660.409521,612.876398
473.067580,148.041188,-9104.533087,1149.143247
473.067908,0.000000,-9178.553681,1072.533697
473.068235,2294.638420,-8660.409521,1225.752797
473.068563,4589.276840,-8808.450710,1532.190996
473.068890,4663.297435,-9622.677246,2528.115143
473.069218,3552.988522,-10807.006753,2451.505594
473.069545,888.247130,-11621.233289,2145.067394
473.069873,-666.185348,-11029.068536,1532.190996
473.070200,666.185348,-9992.780217,995.924147
473.070528,2664.741391,-9326.594869,612.876398
473.070856,1776.494261,-9030.512492,766.095498
473.071183,1036.288319,-9548.656652,612.876398
473.071511,-1628.453072,-9178.553681,459.657299
473.071838,-3923.091493,-8734.430116,-459.657299
473.072166,-2664.741391,-7846.182985,-1149.143247
473.072493,-518.144159,-7031.956449,-689.485948
473.072821,-518.144159,-7624.121203,-229.828649
473.073148,-666.185348,-8216.285956,459.657299
473.073476,-3330.926739,-8660.409521,153.219100
473.073803,-4293.194464,-8882.471304,153.219100
473.074131,-2738.761985,-8512.368333,-842.705048
473.074458,-1406.391290,-8216.285956,-536.266849
473.074786,370.102971,-8290.306550,-383.047749
473.075113,296.082377,-8882.471304,153.219100
473.075441,-814.226536,-9400.615463,306.438199
473.075768,-962.267725,-8808.450710,689.485948
473.076096,1406.391290,-8216.285956,459.657299
473.076423,4145.153275,-8586.388927,1302.362347
473.076751,4663.297435,-9474.636058,1762.019645
473.077078,2590.720797,-10881.027347,2068.457845
473.077406,0.000000,-11991.336260,2221.676944
473.077733,-1184.329507,-11843.295072,1302.362347
473.078061,-962.267725,-11103.089130,995.924147
473.078388,888.247130,-10584.944971,1225.752797
473.078716,1258.350101,-10288.862594,995.924147
473.079043,148.041188,-10362.883188,1915.238745
473.079371,-1554.432478,-9326.594869,1302.362347
473.079698,-3330.926739,-8734.430116,-383.047749
473.080026,-2146.597232,-7402.059420,-536.266849
473.080353,-148.041188,-6661.853478,-689.485948
473.080681,370.102971,-6809.894666,-306.438199
473.081008,-814.226536,-7254.018232,229.828649
473.081336,-2738.761985,-8438.347739,536.266849
473.081663,-4737.318029,-8586.388927,-612.876398
473.081991,-3478.967927,-8512.368333,-459.657299
473.082318,-1702.473667,-8290.306550,-459.657299
473.082646,-222.061783,-9104.533087,459.657299
473.082973,-444.123565,-9918.759623,459.657299
473.083301,-1628.453072,-9844.739029,766.095498
473.083628,-962.267725,-9252.574275,536.266849
473.083956,1258.350101,-8290.306550,612.876398
473.084283,4071.132681,-8068.244768,1149.143247
473.084611,4663.297435,-8438.347739,1378.971896
473.084938,3404.947333,-9770.718434,2221.676944
473.085266,666.185348,-10288.862594,1915.238745
473.085593,-370.102971,-10214.842000,1608.800546
473.085921,0.000000,-9770.718434,1302.362347
473.086248,1776.494261,-9770.718434,1149.143247
473.086576,1702.473667,-9918.759623,1915.238745
473.086903,-296.082377,-10436.903782,1915.238745
473.087231,-2442.679609,-10510.924376,1302.362347
473.087558,-3404.947333,-9474.636058,0.000000
473.087886,-2590.720797,-8438.347739,-536.266849
473.088214,0.000000,-7476.080014,-536.266849
473.088541,148.041188,-7698.141797,76.609550
473.088869,-814.226536,-8438.347739,153.219100
473.089196,-3330.926739,-8586.388927,-383.047749
473.089524,-4367.215058,-8734.430116,-536.266849
473.089851,-3552.988522,-8438.347739,-1455.581446
473.090179,-1406.391290,-8882.471304,-1532.190996
473.090506,148.041188,-8956.491898,-153.219100
473.090834,0.000000,-9400.615463,229.828649
473.091161,-1184.329507,-9474.636058,842.705048
473.091489,-518.144159,-10066.800811,0.000000
473.091816,1332.370696,-8808.450710,459.657299
473.092144,3849.070898,-8512.368333,842.705048
473.092471,4589.276840,-9400.615463,1608.800546
473.092799,3256.906145,-10066.800811,2221.676944
473.093126,74.020594,-10881.027347,1838.629195
473.093454,-296.082377,-10140.821405,919.314598
473.093781,888.247130,-9326.594869,842.705048
473.094109,2886.803174,-9104.533087,1302.362347
473.094436,3330.926739,-9770.718434,1685.410096
473.094764,1036.288319,-9992.780217,1991.848295
473.095091,-1628.453072,-10214.842000,1225.752797
473.095419,-2886.803174,-9622.677246,0.000000
473.095746,-2442.679609,-8734.430116,0.000000
473.096074,-148.041188,-8068.244768,0.000000
473.096401,0.000000,-7994.224174,306.438199
473.096729,-1628.453072,-8882.471304,536.266849
473.097056,-3997.112087,-9030.512492,76.609550
473.097384,-5255.462188,-8956.491898,-459.657299
473.097711,-3997.112087,-8142.265362,-1149.143247
473.098039,-1406.391290,-7550.100608,-459.657299
473.098366,0.000000,-7698.141797,0.000000
473.098694,-444.123565,-8216.285956,76.609550
473.099021,-1406.391290,-8364.327145,383.047749
473.099349,-888.247130,-7772.162391,229.828649
473.099676,1480.411884,-7254.018232,689.485948
473.100004,3552.988522,-7698.141797,1149.143247
473.100331,3552.988522,-8438.347739,1685.410096
473.100659,1998.556043,-9992.780217,1915.238745
473.100986,-296.082377,-10140.821405,1915.238745
473.101314,-740.205942,-9992.780217,1608.800546
473.101641,518.144159,-8956.491898,1455.581446
473.101969,2590.720797,-9178.553681,1225.752797
473.102296,2886.803174,-9770.718434,1991.848295
473.102624,962.267725,-9918.759623,1378.971896
473.102951,-1554.432478,-9992.780217,919.314598
473.103279,-2146.597232,-9326.594869,459.657299
473.103606,-1332.370696,-8068.244768,0.000000
473.103934,-444.123565,-8586.388927,0.000000
473.104261,222.061783,-8956.491898,306.438199
473.104589,-2072.576638,-9548.656652,229.828649
473.104916,-4885.359217,-9622.677246,0.000000
473.105244,-5181.441594,-9252.574275,-1532.190996
473.105571,-4367.215058,-8660.409521,-1762.019645
473.105899,-1554.432478,-8216.285956,-1378.971896
473.106227,222.061783,-7994.224174,-689.485948
473.106554,222.061783,-8586.388927,766.095498
473.106882,-370.102971,-8808.450710,459.657299
473.107209,-444.123565,-8438.347739,76.609550
473.107537,1480.411884,-8290.306550,306.438199
473.107864,3849.070898,-8660.409521,995.924147
473.108192,3923.091493,-9474.636058,1608.800546
473.108519,1998.556043,-10584.944971,2298.286494
473.108847,296.082377,-11103.089130,2068.457845
473.109174,-222.061783,-10584.944971,1532.190996
473.109502,1406.391290,-9844.739029,1532.190996
473.109829,3182.885551,-9474.636058,1685.410096
473.110157,3330.926739,-9696.697840,1762.019645
473.110484,814.226536,-10510.924376,1762.019645
473.110812,-1702.473667,-10584.944971,1072.533697
473.111139,-2738.761985,-9400.615463,383.047749
473.111467,-1850.514855,-8512.368333,76.609550
473.111794,74.020594,-7846.182985,995.924147
473.112122,0.000000,-8586.388927,1072.533697
473.112449,-2220.617826,-8956.491898,1072.533697
473.112777,-4811.338623,-9326.594869,536.266849
473.113104,-5921.647536,-8956.491898,-383.047749
473.113432,-4737.318029,-7772.162391,-1455.581446
473.113759,-2368.659014,-6883.915261,-1149.143247
473.114087,-1480.411884,-7624.121203,-306.438199
473.114414,-1554.432478,-7994.224174,0.000000
473.114742,-2294.638420,-7994.224174,0.000000
473.115069,-1332.370696,-7550.100608,-229.828649
473.115397,1036.288319,-7105.977043,306.438199
473.115724,3404.947333,-7698.141797,306.438199
473.116052,3923.091493,-8660.409521,1532.190996
473.116379,2664.741391,-9844.739029,1838.629195
473.116707,518.144159,-10807.006753,1608.800546
473.117034,0.000000,-10881.027347,1302.362347
473.117362,1628.453072,-10436.903782,1225.752797
473.117689,3182.885551,-10362.883188,1378.971896
473.118017,3034.844362,-10510.924376,1378.971896
473.118344,1036.288319,-10955.047942,1225.752797
473.118672,-1480.411884,-10436.903782,1225.752797
473.118999,-1702.473667,-9548.656652,0.000000
473.119327,-444.123565,-8438.347739,-459.657299
473.119654,814.226536,-8068.244768,0.000000
473.119982,1258.350101,-8068.244768,229.828649
473.120309,-1258.350101,-9104.533087,0.000000
473.120637,-3552.988522,-9178.553681,-383.047749
473.120964,-5107.421000,-9030.512492,-1072.533697
473.121292,-3552.988522,-8586.388927,-1302.362347
473.121619,-1554.432478,-8290.306550,-1225.752797
473.121947,-518.144159,-9178.553681,0.000000
473.122274,-1258.350101,-9104.533087,306.438199
473.122602,-2368.659014,-9326.594869,0.000000
473.122929,-1332.370696,-8882.471304,-153.219100
473.123257,1036.288319,-8438.347739,76.609550
473.123584,3478.967927,-8586.388927,766.095498
473.123912,4145.153275,-9178.553681,1685.410096
473.124240,2664.741391,-10214.842000,2068.457845
473.124567,888.247130,-11029.068536,2068.457845
473.124895,74.020594,-10807.006753,1685.410096
473.125222,1776.494261,-10436.903782,1838.629195
473.125550,2886.803174,-10436.903782,2068.457845
473.125877,2294.638420,-11251.130318,2604.724693
473.126205,0.000000,-11547.212695,2068.457845
473.126532,-1850.514855,-11177.109724,1685.410096
473.126860,-2368.659014,-9992.780217,842.705048
473.127187,-444.123565,-8808.450710,689.485948
473.127515,296.082377,-7994.224174,1072.533697
473.127842,370.102971,-8512.368333,1378.971896
473.128170,-2368.659014,-9252.574275,842.705048
473.128497,-4737.318029,-9400.615463,229.828649
473.128825,-5403.503377,-9104.533087,-612.876398
473.129152,-3627.009116,-7846.182985,-459.657299
473.129480,-1480.411884,-7994.224174,-383.047749
473.129807,-888.247130,-8364.327145,0.000000
473.130135,-1628.453072,-8660.409521,0.000000
473.130462,-2368.659014,-8512.368333,0.000000
473.130790,-1258.350101,-7920.203579,0.000000
473.131117,888.247130,-7402.059420,-153.219100
473.131445,3404.947333,-7476.080014,383.047749
473.131772,3997.112087,-8586.388927,1225.752797
473.132100,2220.617826,-9474.636058,1685.410096
473.132427,666.185348,-9770.718434,1838.629195
473.132755,0.000000,-9696.697840,1225.752797
473.133082,1702.473667,-9252.574275,1149.143247
473.133410,2886.803174,-9252.574275,1072.533697
473.133737,2590.720797,-9770.718434,1455.581446
473.134065,1036.288319,-9770.718434,1608.800546
473.134392,-666.185348,-9030.512492,1302.362347
473.134720,-1110.308913,-8438.347739,229.828649
473.135047,592.164754,-7402.059420,459.657299
473.135375,2146.597232,-7328.038826,229.828649
473.135702,666.185348,-8142.265362,612.876398
473.136030,-1628.453072,-8734.430116,383.047749
473.136357,-4811.338623,-9030.512492,-153.219100
473.136685,-5107.421000,-8660.409521,-842.705048
473.137012,-3627.009116,-7994.224174,-1378.971896
473.137340,-1332.370696,-7698.141797,-919.314598
473.137667,-592.164754,-7846.182985,0.000000
473.137995,-1480.411884,-8512.368333,0.000000
473.138322,-2442.679609,-8438.347739,-306.438199
473.138650,-2146.597232,-8216.285956,-536.266849
473.138977,444.123565,-7772.162391,-612.876398
473.139305,2590.720797,-8142.265362,-229.828649
473.139632,2960.823768,-8660.409521,1378.971896
473.139960,1554.432478,-9474.636058,1532.190996
473.140287,0.000000,-9992.780217,1072.533697
473.140615,0.000000,-10066.800811,1149.143247
473.140942,1480.411884,-9474.636058,842.705048
473.141270,3256.906145,-9770.718434,1302.362347
473.141598,2812.782580,-10214.842000,1685.410096
473.141925,1110.308913,-10807.006753,1685.410096
473.142253,-444.123565,-10732.986159,1149.143247
473.142580,0.000000,-9770.718434,919.314598
473.142908,1998.556043,-8734.430116,689.485948
473.143235,1998.556043,-8808.450710,919.314598
473.143563,1258.350101,-9548.656652,1149.143247
473.143890,-1998.556043,-10584.944971,766.095498
473.144218,-4959.379811,-10362.883188,76.609550
473.144545,-5329.482782,-9548.656652,-459.657299
473.144873,-3330.926739,-8512.368333,-1072.533697
473.145200,-1702.473667,-8734.430116,-766.095498
473.145528,-888.247130,-8586.388927,76.609550
473.145855,-2368.659014,-8808.450710,383.047749
473.146183,-2886.803174,-8808.450710,76.609550
473.146510,-2442.679609,-8438.347739,-229.828649
473.146838,-666.185348,-7920.203579,0.000000
473.147165,1628.453072,-8438.347739,612.876398
473.147493,1998.556043,-9178.553681,1378.971896
473.147820,962.267725,-10066.800811,2221.676944
473.148148,-1258.350101,-10214.842000,2451.505594
473.148475,-888.247130,-9992.780217,2145.067394
473.148803,962.267725,-9622.677246,1455.581446
473.149130,2294.638420,-9474.636058,1378.971896
473.149458,1776.494261,-9918.759623,1762.019645
473.149785,518.144159,-10362.883188,1838.629195
473.150113,-962.267725,-9474.636058,1455.581446
473.150440,-296.082377,-8734.430116,1455.581446
473.150768,1628.453072,-7698.141797,1225.752797
473.151095,2442.679609,-7772.162391,1455.581446
473.151423,592.164754,-9030.512492,1991.848295
473.151750,-1850.514855,-9770.718434,1532.190996
473.152078,-4811.338623,-9696.697840,76.609550
473.152405,-5403.503377,-9030.512492,-842.705048
473.152733,-3034.844362,-8586.388927,-995.924147
473.153060,-1036.288319,-8512.368333,-383.047749
473.153388,-740.205942,-8364.327145,76.609550
473.153715,-1480.411884,-8586.388927,229.828649
473.154043,-2664.741391,-8438.347739,-536.266849
473.154370,-1924.535449,-7698.141797,-1072.533697
473.154698,888.247130,-7476.080014,-766.095498
473.155025,2960.823768,-7402.059420,-153.219100
473.155353,2886.803174,-8438.347739,612.876398
473.155680,1184.329507,-9474.636058,995.924147
473.156008,-370.102971,-10066.800811,766.095498
473.156335,0.000000,-9992.780217,459.657299
473.156663,1554.432478,-9844.739029,383.047749
473.156990,2960.823768,-9622.677246,766.095498
473.157318,2812.782580,-10214.842000,1225.752797
473.157645,1406.391290,-10288.862594,1455.581446
473.157973,222.061783,-9770.718434,995.924147
473.158300,740.205942,-8882.471304,1838.629195
473.158628,1924.535449,-8290.306550,919.314598
473.158955,2516.700203,-8586.388927,919.314598
473.159283,740.205942,-9326.594869,919.314598
473.159611,-2072.576638,-10214.842000,689.485948
473.159938,-4737.318029,-9844.739029,0.000000
473.160266,-4737.318029,-9474.636058,-766.095498
473.160593,-2738.761985,-8364.327145,-919.314598
473.160921,-888.247130,-8142.265362,-689.485948
473.161248,-814.226536,-8512.368333,0.000000
473.161576,-1850.514855,-8438.347739,76.609550
473.161903,-2812.782580,-8586.388927,-383.047749
473.162231,-2294.638420,-7994.224174,-919.314598
473.162558,296.082377,-7624.121203,-229.828649
473.162886,1776.494261,-8068.244768,459.657299
473.163213,1702.473667,-9104.533087,1225.752797
473.163541,592.164754,-10214.842000,1302.362347
473.163868,-962.267725,-9474.636058,1685.410096
473.164196,-370.102971,-9844.739029,919.314598
473.164523,1258.350101,-9770.718434,1072.533697
473.164851,2886.803174,-9844.739029,1302.362347
473.165179,2516.700203,-9696.697840,1302.362347
473.165506,1406.391290,-10140.821405,2528.115143
473.165834,0.000000,-9770.718434,1455.581446
473.166161,444.123565,-9178.553681,1149.143247
473.166489,1924.535449,-8438.347739,1225.752797
473.166816,2886.803174,-9030.512492,1608.800546
473.167144,888.247130,-9622.677246,1302.362347
473.167472,-2368.659014,-10214.842000,1302.362347
473.167799,-4811.338623,-10140.821405,383.047749
473.168127,-5033.400406,-9770.718434,-229.828649
473.168454,-2960.823768,-8808.450710,-536.266849
473.168782,-1184.329507,-8512.368333,-383.047749
473.169109,-962.267725,-8882.471304,0.000000
473.169437,-2664.741391,-8956.491898,153.219100
473.169765,-3627.009116,-8438.347739,-306.438199
473.170092,-2516.700203,-7698.141797,-766.095498
473.170420,148.041188,-7031.956449,0.000000
473.170747,2072.576638,-7328.038826,0.000000
473.171075,2368.659014,-8586.388927,1072.533697
473.171402,592.164754,-9400.615463,995.924147
473.171730,-518.144159,-9844.739029,1072.533697
473.172058,0.000000,-9696.697840,919.314598
473.172385,1480.411884,-9104.533087,766.095498
473.172713,2812.782580,-9474.636058,995.924147
473.173040,2294.638420,-9918.759623,1225.752797
473.173368,666.185348,-9918.759623,995.924147
473.173695,-296.082377,-9474.636058,1072.533697
473.174023,222.061783,-8586.388927,1378.971896
473.174351,2590.720797,-8512.368333,383.047749
473.174678,2442.679609,-8734.430116,995.924147
473.175006,888.247130,-9252.574275,1149.143247
473.175333,-1998.556043,-9918.759623,459.657299
473.175661,-4737.318029,-9844.739029,0.000000
473.175988,-3775.050304,-9030.512492,-766.095498
473.176316,-2072.576638,-8364.327145,-842.705048
473.176644,0.000000,-8068.244768,0.000000
473.176971,-444.123565,-8364.327145,306.438199
473.177299,-1554.432478,-8734.430116,306.438199
473.177626,-2812.782580,-8068.244768,229.828649
473.177954,-2146.597232,-7772.162391,-383.047749
473.178281,0.000000,-7402.059420,0.000000
473.178609,1554.432478,-7994.224174,612.876398
473.178937,888.247130,-8956.491898,1149.143247
473.179264,-444.123565,-9696.697840,1762.019645
473.179592,-1850.514855,-9844.739029,1072.533697
473.179919,-1184.329507,-9474.636058,689.485948
473.180247,1110.308913,-9400.615463,612.876398
473.180574,2368.659014,-9548.656652,919.314598
473.180902,2072.576638,-9844.739029,1225.752797
473.181230,518.144159,-10066.800811,1302.362347
473.181557,-444.123565,-9696.697840,919.314598
473.181885,370.102971,-9104.533087,842.705048
473.182212,1850.514855,-8882.471304,1072.533697
473.182540,2146.597232,-9178.553681,1532.190996
473.182867,518.144159,-9548.656652,1225.752797
473.183195,-1998.556043,-10510.924376,1149.143247
473.183522,-3701.029710,-9918.759623,612.876398
473.183850,-2812.782580,-9252.574275,0.000000
473.184178,-814.226536,-8586.388927,0.000000
473.184505,814.226536,-7994.224174,383.047749
473.184833,0.000000,-8142.265362,612.876398
473.185160,-1628.453072,-9104.533087,76.609550
473.185488,-2738.761985,-8808.450710,229.828649
473.185815,-1850.514855,-8216.285956,-612.876398
473.186143,370.102971,-7624.121203,-383.047749
473.186471,1776.494261,-8068.244768,383.047749
473.186798,1184.329507,-9104.533087,995.924147
473.187126,-518.144159,-9992.780217,995.924147
473.187453,-2220.617826,-10066.800811,689.485948
473.187781,-1628.453072,-9400.615463,842.705048
473.188108,222.061783,-9400.615463,-229.828649
473.188436,1184.329507,-9400.615463,459.657299
473.188764,1036.288319,-9918.759623,1072.533697
473.189091,0.000000,-10066.800811,995.924147
473.189419,-1258.350101,-9252.574275,536.266849
473.189746,740.205942,-8586.388927,1225.752797
473.190074,2146.597232,-7772.162391,766.095498
473.190401,2590.720797,-8364.327145,919.314598
473.190729,1036.288319,-8956.491898,1225.752797
473.191057,-1480.411884,-9770.718434,995.924147
473.191384,-2886.803174,-9548.656652,612.876398
473.191712,-2738.761985,-9030.512492,-306.438199
473.192039,-592.164754,-8734.430116,383.047749
473.192367,518.144159,-8512.368333,842.705048
473.192694,0.000000,-9030.512492,1225.752797
473.193022,-1406.391290,-9030.512492,1072.533697
473.193350,-2516.700203,-8734.430116,459.657299
473.193677,-1998.556043,-8142.265362,-229.828649
473.194005,518.144159,-7698.141797,0.000000
473.194332,1924.535449,-8068.244768,536.266849
473.194660,1184.329507,-8956.491898,1149.143247
473.194987,-666.185348,-9548.656652,1225.752797
473.195315,-2220.617826,-9622.677246,612.876398
473.195643,-1924.535449,-9326.594869,0.000000
473.195970,-148.041188,-9252.574275,-229.828649
473.196298,962.267725,-9474.636058,306.438199
473.196625,518.144159,-9622.677246,919.314598
473.196953,-592.164754,-9918.759623,766.095498
473.197280,-1406.391290,-9252.574275,459.657299
473.197608,74.020594,-8290.306550,383.047749
473.197936,2294.638420,-7920.203579,383.047749
473.198263,3256.906145,-7994.224174,995.924147
473.198591,1332.370696,-8956.491898,1149.143247
473.198918,-740.205942,-9622.677246,995.924147
473.199246,-2220.617826,-9844.739029,536.266849
473.199573,-1776.494261,-9178.553681,229.828649
473.199901,592.164754,-8808.450710,612.876398
473.200229,1184.329507,-8808.450710,383.047749
473.200556,0.000000,-9622.677246,612.876398
473.200884,-1776.494261,-10066.800811,689.485948
473.201211,-3108.864956,-9474.636058,153.219100
473.201539,-1628.453072,-8882.471304,-536.266849
473.201866,592.164754,-7624.121203,0.000000
473.202194,1998.556043,-8956.491898,612.876398
473.202522,740.205942,-9696.697840,995.924147
473.202849,-1406.391290,-10140.821405,919.314598
473.203177,-3108.864956,-9992.780217,919.314598
473.203504,-2294.638420,-9178.553681,76.609550
473.203832,-296.082377,-9400.615463,0.000000
473.204159,1036.288319,-9252.574275,383.047749
473.204487,518.144159,-9030.512492,919.314598
473.204815,-740.205942,-9030.512492,995.924147
473.205142,-1480.411884,-8438.347739,919.314598
473.205470,0.000000,-7772.162391,689.485948
473.205797,1702.473667,-7698.141797,306.438199
473.206125,2220.617826,-8216.285956,612.876398
473.206452,814.226536,-9030.512492,1149.143247
473.206780,-1406.391290,-9474.636058,689.485948
473.207108,-2294.638420,-10214.842000,689.485948
473.207435,-1258.350101,-9474.636058,536.266849
473.207763,74.020594,-9178.553681,306.438199
473.208090,1258.350101,-9548.656652,919.314598
473.208418,518.144159,-9918.759623,919.314598
473.208745,-1924.535449,-10362.883188,919.314598
473.209073,-2146.597232,-9696.697840,383.047749
473.209401,-814.226536,-8808.450710,0.000000
473.209728,1332.370696,-8216.285956,383.047749
473.210056,2516.700203,-8290.306550,995.924147
473.210383,888.247130,-8956.491898,1378.971896
473.210711,-1554.432478,-9474.636058,1225.752797
473.211038,-2960.823768,-9474.636058,306.438199
473.211366,-2442.679609,-9326.594869,0.000000
473.211694,-592.164754,-8882.471304,0.000000
473.212021,370.102971,-8586.388927,919.314598
473.212349,74.020594,-8956.491898,612.876398
473.212676,-1332.370696,-9252.574275,689.485948
473.213004,-1850.514855,-8660.409521,229.828649
473.213331,-370.102971,-7920.203579,0.000000
473.213659,1998.556043,-7550.100608,-76.609550
473.213987,2516.700203,-7994.224174,536.266849
473.214314,814.226536,-9178.553681,1149.143247
473.214642,-1406.391290,-10066.800811,995.924147
473.214969,-2516.700203,-9918.759623,842.705048
473.215297,-1480.411884,-9474.636058,-153.219100
473.215624,296.082377,-9030.512492,459.657299
473.215952,962.267725,-9622.677246,842.705048
473.216280,-296.082377,-10510.924376,1072.533697
473.216607,-1776.494261,-10362.883188,842.705048
473.216935,-2294.638420,-9400.615463,689.485948
473.217262,148.041188,-8586.388927,612.876398
473.217590,1924.535449,-7920.203579,689.485948
473.217917,2590.720797,-8216.285956,842.705048
473.218245,1332.370696,-9030.512492,1149.143247
473.218573,-1332.370696,-9252.574275,842.705048
473.218900,-2368.659014,-8956.491898,229.828649
473.219228,-1998.556043,-8808.450710,0.000000
473.219555,0.000000,-8586.388927,229.828649
473.219883,740.205942,-8808.450710,459.657299
473.220210,148.041188,-9030.512492,1072.533697
473.220538,-1258.350101,-8956.491898,842.705048
473.220866,-1924.535449,-8956.491898,459.657299
473.221193,-296.082377,-8290.306550,383.047749
473.221521,1184.329507,-7920.203579,153.219100
473.221848,1924.535449,-8364.327145,689.485948
473.222176,444.123565,-9178.553681,612.876398
473.222503,-1554.432478,-9474.636058,995.924147
473.222831,-2664.741391,-9474.636058,0.000000
473.223159,-1258.350101,-9104.533087,-229.828649
473.223486,592.164754,-9178.553681,229.828649
473.223814,1110.308913,-9400.615463,766.095498
473.224141,74.020594,-9622.677246,1225.752797
473.224469,-1184.329507,-10066.800811,1225.752797
473.224796,-1924.535449,-9622.677246,689.485948
473.225124,0.000000,-9178.553681,536.266849
473.225452,1998.556043,-8586.388927,995.924147
473.225779,2220.617826,-8364.327145,1991.848295
473.226107,592.164754,-9326.594869,1455.581446
473.226434,-1998.556043,-9844.739029,766.095498
473.226762,-3034.844362,-9622.677246,306.438199
473.227089,-1702.473667,-8734.430116,0.000000
473.227417,592.164754,-8586.388927,536.266849
473.227745,1776.494261,-8364.327145,229.828649
473.228072,444.123565,-8956.491898,919.314598
473.228400,-814.226536,-9474.636058,612.876398
473.228727,-1554.432478,-8808.450710,76.609550
473.229055,-592.164754,-8512.368333,0.000000
473.229382,1110.308913,-7920.203579,306.438199
473.229710,1258.350101,-9178.553681,459.657299
473.230038,-370.102971,-9696.697840,919.314598
473.230365,-2072.576638,-10214.842000,766.095498
473.230693,-3182.885551,-9844.739029,306.438199
473.231020,-1480.411884,-8956.491898,0.000000
473.231348,74.020594,-8660.409521,0.000000
473.231675,1036.288319,-9030.512492,306.438199
473.232003,222.061783,-9030.512492,383.047749
473.232331,-1036.288319,-8882.471304,306.438199
473.232658,-1184.329507,-8734.430116,0.000000
473.232986,222.061783,-7994.224174,76.609550
473.233313,2442.679609,-8068.244768,612.876398
473.233641,2368.659014,-8660.409521,1378.971896
473.233968,592.164754,-9770.718434,1455.581446
473.234296,-1332.370696,-10732.986159,1991.848295
473.234624,-2516.700203,-10510.924376,536.266849
473.234951,-1554.432478,-9844.739029,153.219100
473.235279,222.061783,-9474.636058,229.828649
473.235606,444.123565,-9474.636058,536.266849
473.235934,-222.061783,-9178.553681,1072.533697
473.236261,-1702.473667,-9252.574275,612.876398
473.236589,-2146.597232,-8734.430116,0.000000
473.236917,-666.185348,-8216.285956,-383.047749
473.237244,1036.288319,-7994.224174,76.609550
473.237572,1406.391290,-8216.285956,306.438199
473.237899,148.041188,-8882.471304,383.047749
473.238227,-2072.576638,-9844.739029,383.047749
473.238554,-2960.823768,-9770.718434,153.219100
473.238882,-1554.432478,-9326.594869,-153.219100
473.239210,444.123565,-8808.450710,153.219100
473.239537,1184.329507,-9252.574275,919.314598
473.239865,444.123565,-9400.615463,1532.190996
473.240192,-740.205942,-9622.677246,842.705048
473.240520,-666.185348,-8734.430116,766.095498
473.240847,1554.432478,-7624.121203,995.924147
473.241175,3478.967927,-7179.997637,1225.752797
473.241503,3552.988522,-8438.347739,2068.457845
473.241830,1480.411884,-9474.636058,1991.848295
473.242158,-1110.308913,-10066.800811,1685.410096
473.242485,-2368.659014,-10066.800811,1149.143247
473.242813,-1554.432478,-9548.656652,842.705048
473.243140,-296.082377,-9844.739029,919.314598
473.243468,0.000000,-9918.759623,919.314598
473.243796,-1480.411884,-10140.821405,689.485948
473.244123,-3256.906145,-9992.780217,306.438199
473.244451,-3478.967927,-9030.512492,-459.657299
473.244778,-1776.494261,-7179.997637,0.000000
473.245106,370.102971,-6883.915261,-689.485948
473.245433,1406.391290,-7476.080014,0.000000
473.245761,0.000000,-7920.203579,153.219100
473.246088,-2442.679609,-8512.368333,0.000000
473.246416,-2960.823768,-8808.450710,0.000000
473.246744,-1850.514855,-8068.244768,0.000000
473.247071,148.041188,-8660.409521,0.000000
473.247399,740.205942,-9326.594869,306.438199
473.247726,74.020594,-9770.718434,536.266849
473.248054,-1184.329507,-9918.759623,689.485948
473.248381,-148.041188,-9178.553681,536.266849
473.248709,1924.535449,-8882.471304,842.705048
473.249037,3849.070898,-8512.368333,1378.971896
473.249364,4145.153275,-9474.636058,1378.971896
473.249692,1776.494261,-9770.718434,1762.019645
473.250019,-888.247130,-10362.883188,1149.143247
473.250347,-1850.514855,-10214.842000,383.047749
473.250674,-222.061783,-9474.636058,229.828649
473.251002,814.226536,-9770.718434,536.266849
473.251330,1184.329507,-9622.677246,766.095498
473.251657,-814.226536,-9992.780217,536.266849
473.251985,-2516.700203,-10140.821405,689.485948
473.252312,-3330.926739,-8956.491898,0.000000
473.252640,-1258.350101,-8216.285956,-229.828649
473.252967,370.102971,-7402.059420,0.000000
473.253295,1258.350101,-7772.162391,0.000000
473.253623,-740.205942,-8216.285956,689.485948
473.253950,-2368.659014,-8734.430116,229.828649
473.254278,-2812.782580,-8660.409521,-229.828649
473.254605,-1554.432478,-7994.224174,-612.876398
473.254933,814.226536,-8290.306550,-459.657299
473.255260,1184.329507,-8512.368333,-229.828649
473.255588,296.082377,-9104.533087,689.485948
473.255916,0.000000,-9474.636058,919.314598
473.256243,0.000000,-9104.533087,842.705048
473.256571,1776.494261,-9104.533087,1455.581446
473.256898,2960.823768,-8956.491898,1838.629195
473.257226,3034.844362,-9770.718434,1685.410096
473.257553,444.123565,-10807.006753,1838.629195
473.257881,-1924.535449,-11325.150913,1532.190996
473.258209,-2812.782580,-10584.944971,459.657299
473.258536,-444.123565,-9548.656652,1072.533697
473.258864,1258.350101,-8956.491898,536.266849
473.259191,814.226536,-8956.491898,536.266849
473.259519,-666.185348,-9326.594869,612.876398
473.259846,-2590.720797,-8882.471304,153.219100
473.260174,-3108.864956,-8142.265362,-383.047749
473.260502,-1036.288319,-7476.080014,-459.657299
473.260829,0.000000,-7476.080014,0.000000
473.261157,0.000000,-7920.203579,536.266849
473.261484,-1628.453072,-8808.450710,459.657299
473.261812,-3849.070898,-8660.409521,383.047749
473.262139,-3923.091493,-8808.450710,-459.657299
473.262467,-1776.494261,-8586.388927,-689.485948
473.262795,296.082377,-8364.327145,0.000000
473.263122,1184.329507,-8882.471304,536.266849
473.263450,814.226536,-9548.656652,842.705048
473.263777,0.000000,-9252.574275,1072.533697
473.264105,296.082377,-9104.533087,995.924147
473.264432,2220.617826,-8882.471304,995.924147
473.264760,3775.050304,-9474.636058,1532.190996
473.265088,3330.926739,-10214.842000,1915.238745
473.265415,1406.391290,-11029.068536,1532.190996
473.265743,-962.267725,-11029.068536,1685.410096
473.266070,-1332.370696,-10436.903782,1378.971896
473.266398,0.000000,-10214.842000,1302.362347
473.266725,666.185348,-9844.739029,919.314598
473.267053,0.000000,-9548.656652,1532.190996
473.267380,-1036.288319,-9770.718434,612.876398
473.267708,-3330.926739,-9622.677246,383.047749
473.268035,-3182.885551,-9178.553681,0.000000
473.268363,-1406.391290,-7920.203579,-306.438199
473.268690,296.082377,-7402.059420,0.000000
473.269018,74.020594,-7994.224174,383.047749
473.269345,-1924.535449,-8660.409521,-153.219100
473.269673,-3923.091493,-9326.594869,-766.095498
473.270001,-4071.132681,-8956.491898,-919.314598
473.270328,-1924.535449,-8734.430116,-995.924147
473.270656,148.041188,-7994.224174,-459.657299
473.270983,1406.391290,-8882.471304,229.828649
473.271311,518.144159,-9474.636058,995.924147
473.271638,-222.061783,-9400.615463,1149.143247
473.271966,444.123565,-9178.553681,766.095498
473.272293,2368.659014,-8734.430116,612.876398
473.272621,3478.967927,-8808.450710,1378.971896
473.272948,3256.906145,-9992.780217,1685.410096
473.273276,1332.370696,-10584.944971,2221.676944
473.273603,-592.164754,-10584.944971,1838.629195
473.273931,-592.164754,-10362.883188,1149.143247
473.274258,444.123565,-9178.553681,1225.752797
473.274586,1776.494261,-9474.636058,1225.752797
473.274914,1258.350101,-9326.594869,1149.143247
473.275241,-1332.370696,-9326.594869,1072.533697
473.275569,-2368.659014,-9030.512492,536.266849
473.275896,-2664.741391,-8660.409521,459.657299
473.276224,-1258.350101,-7550.100608,-229.828649
473.276551,222.061783,-7476.080014,0.000000
473.276879,-296.082377,-7994.224174,689.485948
473.277206,-2294.638420,-8586.388927,306.438199
473.277534,-4293.194464,-8882.471304,76.609550
473.277861,-4663.297435,-8808.450710,-842.705048
473.278189,-2590.720797,-7994.224174,-1072.533697
473.278516,148.041188,-7846.182985,-383.047749
473.278844,666.185348,-7920.203579,76.609550
473.279171,666.185348,-8512.368333,842.705048
473.279499,0.000000,-8882.471304,612.876398
473.279827,0.000000,-8290.306550,842.705048
473.280154,2146.597232,-8068.244768,1149.143247
473.280482,3256.906145,-8586.388927,1302.362347
473.280809,3404.947333,-9474.636058,1991.848295
473.281137,1554.432478,-10066.800811,2374.896044
473.281464,-148.041188,-10510.924376,2451.505594
473.281792,-296.082377,-10140.821405,1762.019645
473.282119,1480.411884,-9770.718434,1532.190996
473.282447,1628.453072,-9400.615463,1838.629195
473.282774,1332.370696,-9770.718434,2298.286494
473.283102,-962.267725,-9844.739029,1302.362347
473.283429,-3256.906145,-9918.759623,536.266849
473.283757,-2664.741391,-8660.409521,-153.219100
473.284084,-1036.288319,-7846.182985,153.219100
473.284412,370.102971,-7624.121203,0.000000
473.284740,148.041188,-8216.285956,536.266849
473.285067,-2664.741391,-9326.594869,153.219100
473.285395,-5255.462188,-9474.636058,-689.485948
473.285722,-5329.482782,-9178.553681,-1225.752797
473.286050,-3182.885551,-7698.141797,-1378.971896
473.286377,-370.102971,-7772.162391,-612.876398
473.286705,592.164754,-8142.265362,0.000000
473.287032,148.041188,-8512.368333,536.266849
473.287360,-666.185348,-8512.368333,536.266849
473.287687,296.082377,-8438.347739,306.438199
473.288015,1702.473667,-7920.203579,306.438199
473.288342,3256.906145,-8882.471304,1149.143247
473.288670,2960.823768,-10066.800811,1225.752797
473.288997,1406.391290,-10955.047942,1838.629195
473.289325,0.000000,-11621.233289,2145.067394
473.289653,-444.123565,-10955.047942,1838.629195
473.289980,1406.391290,-10362.883188,1302.362347
473.290308,2664.741391,-10288.862594,1532.190996
473.290635,962.267725,-10436.903782,1072.533697
473.290963,-666.185348,-10732.986159,1225.752797
473.291290,-2442.679609,-9918.759623,76.609550
473.291618,-3034.844362,-9178.553681,-306.438199
473.291945,-962.267725,-8068.244768,-536.266849
473.292273,296.082377,-7698.141797,-153.219100
473.292600,-222.061783,-7920.203579,0.000000
473.292928,-2738.761985,-8808.450710,0.000000
473.293255,-4737.318029,-9030.512492,-459.657299
473.293583,-5551.544565,-8660.409521,-1455.581446
473.293910,-2812.782580,-8290.306550,-1532.190996
473.294238,-222.061783,-8216.285956,-995.924147
473.294566,962.267725,-8512.368333,229.828649
473.294893,740.205942,-8956.491898,1225.752797
473.295221,0.000000,-9030.512492,842.705048
473.295548,592.164754,-8586.388927,536.266849
473.295876,2812.782580,-8364.327145,995.924147
473.296203,4441.235652,-8956.491898,1225.752797
473.296531,4441.235652,-9400.615463,2298.286494
473.296858,2664.741391,-10732.986159,2298.286494
473.297186,962.267725,-11177.109724,2451.505594
473.297513,592.164754,-10584.944971,2221.676944
473.297841,2072.576638,-10288.862594,1991.848295
473.298168,2590.720797,-10436.903782,1915.238745
473.298496,1184.329507,-10436.903782,1685.410096
473.298823,-1554.432478,-10584.944971,1378.971896
473.299151,-3552.988522,-9992.780217,536.266849
473.299479,-3034.844362,-8290.306550,383.047749
473.299806,-1110.308913,-7328.038826,689.485948
473.300134,666.185348,-7105.977043,1378.971896
473.300461,0.000000,-7476.080014,1225.752797
473.300789,-2738.761985,-8882.471304,1149.143247
473.301116,-5403.503377,-9178.553681,306.438199
473.301444,-6513.812290,-8586.388927,-995.924147
473.301771,-4145.153275,-7846.182985,0.000000
473.302099,-740.205942,-7550.100608,153.219100
473.302426,592.164754,-7550.100608,1225.752797
473.302754,518.144159,-7994.224174,1991.848295
473.303081,74.020594,-8216.285956,2298.286494
473.303409,666.185348,-8512.368333,1991.848295
473.303736,2146.597232,-8290.306550,1762.019645
473.304064,3775.050304,-8660.409521,2145.067394
473.304392,4293.194464,-9770.718434,2987.772442
473.304719,2590.720797,-10584.944971,3830.477490
473.305047,1406.391290,-11177.109724,3524.039291
473.305374,666.185348,-11029.068536,3447.429741
473.305702,1406.391290,-10658.965565,3217.601092
473.306029,2220.617826,-10510.924376,2911.162892
473.306357,1776.494261,-10288.862594,2987.772442
473.306684,148.041188,-10066.800811,3064.381992
473.307012,-1184.329507,-10214.842000,2911.162892
473.307339,-2368.659014,-9474.636058,2221.676944
473.307667,-2368.659014,-8290.306550,1532.190996
473.307994,-1184.329507,-7698.141797,1532.190996
473.308322,0.000000,-6883.915261,2681.334243
473.308649,-370.102971,-7031.956449,2757.943793
473.308977,-1702.473667,-8068.244768,3217.601092
473.309305,-3775.050304,-9252.574275,2374.896044
473.309632,-4959.379811,-9326.594869,1225.752797
473.309960,-4959.379811,-9326.594869,383.047749
473.310287,-3330.926739,-8808.450710,1225.752797
473.310615,-962.267725,-8068.244768,2374.896044
473.310942,1406.391290,-7846.182985,3677.258390
473.311270,2294.638420,-8290.306550,4213.525239
473.311597,1406.391290,-9178.553681,3600.648841
473.311925,0.000000,-9770.718434,2681.334243
473.312252,-1776.494261,-9992.780217,1532.190996
473.312580,-888.247130,-10066.800811,2298.286494
473.312907,1332.370696,-9400.615463,3907.087040
473.313235,4145.153275,-8882.471304,5362.668486
473.313562,5551.544565,-9474.636058,6052.154434
473.313890,4071.132681,-10140.821405,6358.592633
473.314218,666.185348,-10732.986159,5132.839837
473.314545,-2590.720797,-11325.150913,3600.648841
473.314873,-3330.926739,-11251.130318,2681.334243
473.315200,-2294.638420,-9474.636058,3140.991542
473.315528,74.020594,-8438.347739,4443.353888
473.315855,3404.947333,-7328.038826,5286.058936
473.316183,3108.864956,-7179.997637,6205.373534
473.316510,740.205942,-7698.141797,5132.839837
473.316838,-2590.720797,-8734.430116,3753.867940
473.317165,-5181.441594,-9548.656652,2145.067394
473.317493,-6513.812290,-9474.636058,1072.533697
473.317820,-4885.359217,-9178.553681,1455.581446
473.318148,-1924.535449,-8734.430116,2987.772442
473.318475,740.205942,-7846.182985,4903.011187
473.318803,1998.556043,-7550.100608,5822.325785
473.319131,888.247130,-7846.182985,5209.449386
473.319458,-1332.370696,-8882.471304,3753.867940
473.319786,-3701.029710,-10066.800811,2145.067394
473.320113,-4589.276840,-10732.986159,766.095498
473.320441,-3701.029710,-10510.924376,689.485948
473.320768,-1628.453072,-9252.574275,1838.629195
473.321096,1036.288319,-8290.306550,3370.820191
473.321423,3182.885551,-7328.038826,3983.696590
473.321751,3997.112087,-7624.121203,4136.915689
473.322078,3256.906145,-8734.430116,3677.258390
473.322406,1110.308913,-9326.594869,2834.553343
473.322733,370.102971,-10214.842000,2145.067394
473.323061,74.020594,-10362.883188,2145.067394
473.323388,592.164754,-10362.883188,2911.162892
473.323716,1184.329507,-9844.739029,3600.648841
473.324044,1850.514855,-9622.677246,4749.792088
473.324371,666.185348,-9474.636058,3677.258390
473.324699,-370.102971,-9622.677246,3217.601092
473.325026,0.000000,-8586.388927,2451.505594
473.325354,-518.144159,-9030.512492,1762.019645
473.325681,370.102971,-8216.285956,1762.019645
473.326009,1850.514855,-8290.306550,2528.115143
473.326336,1480.411884,-8216.285956,3447.429741
473.326664,1998.556043,-8068.244768,3753.867940
473.326991,1184.329507,-8808.450710,4213.525239
473.327319,222.061783,-9326.594869,3830.477490
473.327646,-962.267725,-9252.574275,3753.867940
473.327974,-1924.535449,-9696.697840,2987.772442
473.328301,-2220.617826,-9770.718434,3524.039291
473.328629,-2368.659014,-9474.636058,3140.991542
473.328957,-1776.494261,-8660.409521,3753.867940
473.329284,-814.226536,-7920.203579,3447.429741
473.329612,-740.205942,-7994.224174,2911.162892
473.329939,-444.123565,-7698.141797,3140.991542
473.330267,-592.164754,-7772.162391,2757.943793
473.330594,-888.247130,-7846.182985,2681.334243
473.330922,-814.226536,-8142.265362,3753.867940
473.331249,-1110.308913,-8734.430116,3294.210641
473.331577,-740.205942,-9178.553681,3600.648841
473.331904,222.061783,-9696.697840,4136.915689
473.332232,222.061783,-10140.821405,4213.525239
473.332559,444.123565,-10362.883188,4749.792088
473.332887,-888.247130,-10658.965565,4136.915689
473.333214,-1184.329507,-10214.842000,3677.258390
473.333542,-1554.432478,-9548.656652,3677.258390
473.333870,0.000000,-8956.491898,3370.820191
473.334197,296.082377,-8586.388927,3370.820191
473.334525,1036.288319,-8068.244768,2757.943793
473.334852,1110.308913,-8438.347739,2604.724693
473.335180,592.164754,-8808.450710,2681.334243
473.335507,0.000000,-9178.553681,2528.115143
473.335835,-370.102971,-9252.574275,2298.286494
473.336162,-666.185348,-9252.574275,2374.896044
473.336490,-444.123565,-9178.553681,2298.286494
473.336817,-518.144159,-9400.615463,2221.676944
473.337145,-740.205942,-9474.636058,1991.848295
473.337472,-1110.308913,-9622.677246,2145.067394
473.337800,-1184.329507,-9548.656652,1991.848295
473.338127,-1332.370696,-9474.636058,1685.410096
473.338455,-888.247130,-8882.471304,1378.971896
473.338783,-370.102971,-8586.388927,1302.362347
473.339110,222.061783,-8512.368333,1072.533697
473.339438,1036.288319,-8364.327145,1455.581446
473.339765,370.102971,-8808.450710,919.314598
473.340093,0.000000,-9252.574275,1149.143247
473.340420,-370.102971,-9918.759623,1072.533697
473.340748,-296.082377,-10066.800811,1225.752797
473.341075,222.061783,-10214.842000,1378.971896
473.341403,888.247130,-10214.842000,1915.238745
473.341730,1184.329507,-10066.800811,1838.629195
473.342058,1554.432478,-9770.718434,1838.629195
473.342385,888.247130,-9400.615463,1532.190996
473.342713,296.082377,-9326.594869,1455.581446
473.343040,74.020594,-8882.471304,766.095498
473.343368,-962.267725,-8734.430116,766.095498
473.343696,-444.123565,-8586.388927,689.485948
473.344023,-222.061783,-8586.388927,842.705048
473.344351,0.000000,-8586.388927,766.095498
473.344678,-222.061783,-8438.347739,1072.533697
473.345006,-740.205942,-8734.430116,919.314598
473.345333,-814.226536,-8660.409521,536.266849
473.345661,-814.226536,-8660.409521,383.047749
473.345988,-1184.329507,-8660.409521,229.828649
473.346316,-444.123565,-8586.388927,536.266849
473.346643,0.000000,-9104.533087,689.485948
473.346971,-296.082377,-8956.491898,919.314598
473.347298,-444.123565,-9178.553681,1225.752797
473.347626,-444.123565,-9252.574275,1072.533697
473.347953,-444.123565,-8882.471304,1149.143247
473.348281,0.000000,-9400.615463,689.485948
473.348609,-222.061783,-8808.450710,766.095498
473.348936,0.000000,-8808.450710,842.705048
473.349264,296.082377,-8956.491898,1072.533697
473.349591,0.000000,-8808.450710,1149.143247
473.349919,0.000000,-8956.491898,1915.238745
473.350246,-148.041188,-9326.594869,1608.800546
473.350574,0.000000,-9252.574275,1149.143247
473.350901,-296.082377,-9104.533087,995.924147
473.351229,74.020594,-8956.491898,689.485948
473.351556,0.000000,-8808.450710,919.314598
473.351884,0.000000,-9030.512492,919.314598
473.352211,-370.102971,-8882.471304,995.924147
473.352539,-444.123565,-8808.450710,1072.533697
473.352866,-888.247130,-8660.409521,766.095498
473.353194,-962.267725,-8956.491898,1455.581446
473.353522,-1036.288319,-8882.471304,459.657299
473.353849,-1258.350101,-9104.533087,383.047749
473.354177,-740.205942,-9030.512492,306.438199
473.354504,-518.144159,-9104.533087,459.657299
473.354832,-148.041188,-9326.594869,306.438199
473.355159,148.041188,-9622.677246,766.095498
473.355487,-148.041188,-9252.574275,536.266849
473.355814,-296.082377,-9178.553681,229.828649
473.356142,-296.082377,-9474.636058,383.047749
473.356469,-518.144159,-9622.677246,306.438199
473.356797,-296.082377,-10066.800811,766.095498
473.357124,-518.144159,-9844.739029,536.266849
473.357452,0.000000,-9918.759623,919.314598
473.357779,296.082377,-9844.739029,536.266849
473.358107,444.123565,-9548.656652,536.266849
473.358435,740.205942,-9252.574275,76.609550
473.358762,444.123565,-9400.615463,383.047749
473.359090,148.041188,-9326.594869,536.266849
473.359417,444.123565,-9252.574275,306.438199
473.359745,0.000000,-9474.636058,536.266849
473.360072,0.000000,-9474.636058,1225.752797
473.360400,222.061783,-9030.512492,306.438199
473.360727,296.082377,-9178.553681,459.657299
473.361055,0.000000,-9030.512492,459.657299
473.361382,0.000000,-8660.409521,306.438199
473.361710,-222.061783,-8586.388927,766.095498
473.362037,0.000000,-8068.244768,153.219100
473.362365,-592.164754,-8586.388927,536.266849
473.362692,-888.247130,-8808.450710,229.828649
473.363020,-1036.288319,-8808.450710,383.047749
473.363348,-1036.288319,-9252.574275,536.266849
473.363675,-1110.308913,-8660.409521,383.047749
473.364003,-592.164754,-8882.471304,536.266849
473.364330,-666.185348,-8660.409521,459.657299
473.364658,-518.144159,-8808.450710,306.438199
473.364985,-518.144159,-8808.450710,383.047749
473.365313,-370.102971,-9030.512492,536.266849
473.365640,-592.164754,-9252.574275,689.485948
473.365968,-740.205942,-9474.636058,842.705048
473.366295,-888.247130,-9474.636058,919.314598
473.366623,-962.267725,-9474.636058,995.924147
473.366950,-666.185348,-8956.491898,612.876398
473.367278,-370.102971,-8882.471304,689.485948
473.367606,-370.102971,-8660.409521,612.876398
473.367933,-370.102971,-8586.388927,612.876398
473.368261,-222.061783,-8438.347739,612.876398
473.368588,-370.102971,-8586.388927,612.876398
473.368916,-666.185348,-8734.430116,842.705048
473.369243,-888.247130,-9104.533087,919.314598
473.369571,-814.226536,-9030.512492,612.876398
473.369899,-592.164754,-9326.594869,689.485948
473.370226,-370.102971,-9104.533087,536.266849
473.370554,0.000000,-9178.553681,842.705048
473.370881,-222.061783,-9030.512492,459.657299
473.371209,-592.164754,-9326.594869,306.438199
473.371536,-666.185348,-9326.594869,689.485948
473.371864,-666.185348,-9548.656652,612.876398
473.372191,-148.041188,-9178.553681,842.705048
473.372519,-148.041188,-9548.656652,536.266849
473.372847,-296.082377,-9178.553681,383.047749
473.373174,-222.061783,-9104.533087,459.657299
473.373502,-222.061783,-8956.491898,536.266849
473.373829,-296.082377,-8882.471304,459.657299
473.374157,-296.082377,-8734.430116,842.705048
473.374484,-148.041188,-9178.553681,459.657299
473.374812,-296.082377,-9252.574275,689.485948
473.375140,-370.102971,-9474.636058,612.876398
473.375467,-370.102971,-9400.615463,842.705048
473.375795,0.000000,-8808.450710,612.876398
473.376122,-370.102971,-8512.368333,459.657299
473.376450,-592.164754,-8586.388927,536.266849
473.376777,-962.267725,-8438.347739,229.828649
473.377105,-888.247130,-8586.388927,306.438199
473.377432,-740.205942,-8586.388927,842.705048
473.377760,-666.185348,-8882.471304,459.657299
473.378088,-370.102971,-9178.553681,612.876398
473.378415,0.000000,-9104.533087,459.657299
473.378743,148.041188,-8660.409521,459.657299
473.379070,370.102971,-8956.491898,383.047749
473.379398,74.020594,-8364.327145,612.876398
473.379725,0.000000,-9326.594869,459.657299
473.380053,0.000000,-9770.718434,766.095498
473.380381,0.000000,-9992.780217,689.485948
473.380708,0.000000,-9992.780217,842.705048
473.381036,0.000000,-9622.677246,1378.971896
473.381363,444.123565,-9474.636058,842.705048
473.381691,1036.288319,-8808.450710,689.485948
473.382018,888.247130,-8068.244768,153.219100
473.382346,814.226536,-7920.203579,76.609550
473.382673,148.041188,-7846.182985,459.657299
473.383001,-148.041188,-8586.388927,306.438199
473.383329,-370.102971,-9178.553681,536.266849
473.383656,-370.102971,-9326.594869,612.876398
473.383984,-222.061783,-9474.636058,612.876398
473.384311,148.041188,-9252.574275,306.438199
473.384639,518.144159,-8734.430116,383.047749
473.384966,666.185348,-8808.450710,153.219100
473.385294,444.123565,-8512.368333,306.438199
473.385621,444.123565,-8882.471304,-153.219100
473.385949,296.082377,-8956.491898,306.438199
473.386277,-148.041188,-9474.636058,536.266849
473.386604,-296.082377,-9696.697840,689.485948
473.386932,-444.123565,-9992.780217,689.485948
473.387259,-592.164754,-9622.677246,459.657299
473.387587,-222.061783,-9326.594869,459.657299
473.387914,370.102971,-8660.409521,383.047749
473.388242,0.000000,-8734.430116,229.828649
473.388570,0.000000,-8734.430116,306.438199
473.388897,0.000000,-9326.594869,612.876398
473.389225,-370.102971,-9474.636058,842.705048
473.389552,74.020594,-9992.780217,1225.752797
473.389880,-888.247130,-9548.656652,919.314598
473.390207,-666.185348,-9844.739029,689.485948
473.390535,-740.205942,-9474.636058,766.095498
473.390862,-444.123565,-9104.533087,612.876398
473.391190,-740.205942,-8734.430116,612.876398
473.391518,-444.123565,-9104.533087,536.266849
473.391845,-888.247130,-9474.636058,612.876398
473.392173,-666.185348,-9844.739029,689.485948
473.392500,-740.205942,-9918.759623,1072.533697
473.392828,-740.205942,-9770.718434,689.485948
473.393155,-592.164754,-9548.656652,919.314598
473.393483,-518.144159,-9474.636058,766.095498
473.393811,-370.102971,-9178.553681,612.876398
473.394138,-370.102971,-8956.491898,459.657299
473.394466,-222.061783,-9104.533087,842.705048
473.394793,-666.185348,-9104.533087,995.924147
473.395121,-888.247130,-9474.636058,919.314598
473.395448,-518.144159,-9696.697840,919.314598
473.395776,-592.164754,-9252.574275,919.314598
473.396103,-814.226536,-9178.553681,536.266849
473.396431,-518.144159,-9030.512492,383.047749
473.396759,-962.267725,-8438.347739,459.657299
473.397086,-666.185348,-8586.388927,229.828649
473.397414,-666.185348,-8586.388927,459.657299
473.397741,-888.247130,-8808.450710,383.047749
473.398069,-1110.308913,-8364.327145,766.095498
473.398396,-592.164754,-9104.533087,459.657299
473.398724,-740.205942,-9030.512492,536.266849
473.399052,-592.164754,-8660.409521,612.876398
473.399379,-592.164754,-8660.409521,229.828649
473.399707,-370.102971,-8142.265362,306.438199
473.400034,-148.041188,-8068.244768,0.000000
473.400362,-370.102971,-8586.388927,536.266849
473.400689,-296.082377,-8808.450710,383.047749
473.401017,-370.102971,-8956.491898,689.485948
473.401344,-296.082377,-8956.491898,1378.971896
473.401672,-148.041188,-8660.409521,1149.143247
473.402000,0.000000,-8512.368333,612.876398
473.402327,0.000000,-8438.347739,612.876398
473.402655,0.000000,-8586.388927,459.657299
473.402982,148.041188,-8808.450710,536.266849
473.403310,444.123565,-8512.368333,612.876398
473.403637,296.082377,-8734.430116,842.705048
473.403965,0.000000,-9178.553681,766.095498
473.404293,0.000000,-9326.594869,689.485948
473.404620,0.000000,-9252.574275,536.266849
473.404948,370.102971,-8734.430116,766.095498
473.405275,0.000000,-8956.491898,153.219100
473.405603,0.000000,-9030.512492,536.266849
473.405930,0.000000,-9252.574275,383.047749
473.406258,0.000000,-8808.450710,306.438199
473.406585,0.000000,-9104.533087,153.219100
473.406913,-148.041188,-8956.491898,842.705048
473.407241,-222.061783,-9474.636058,612.876398
473.407568,0.000000,-9326.594869,459.657299
473.407896,0.000000,-9326.594869,383.047749
473.408223,0.000000,-8956.491898,536.266849
473.408551,74.020594,-9178.553681,689.485948
473.408878,74.020594,-9474.636058,612.876398
473.409206,296.082377,-9474.636058,383.047749
473.409534,148.041188,-9474.636058,459.657299
473.409861,74.020594,-9474.636058,536.266849
473.410189,74.020594,-9770.718434,612.876398
473.410516,74.020594,-9252.574275,919.314598
473.410844,0.000000,-9474.636058,689.485948
473.411171,74.020594,-9400.615463,229.828649
473.411499,74.020594,-9400.615463,153.219100
473.411826,0.000000,-9696.697840,0.000000
473.412154,-222.061783,-9252.574275,842.705048
473.412482,-296.082377,-9400.615463,383.047749
473.412809,-444.123565,-9400.615463,536.266849
473.413137,-444.123565,-9474.636058,689.485948
473.413464,-444.123565,-9400.615463,1149.143247
473.413792,-222.061783,-9030.512492,689.485948
473.414119,-444.123565,-9326.594869,459.657299
473.414447,-518.144159,-9400.615463,459.657299
473.414775,-444.123565,-9474.636058,536.266849
473.415102,-444.123565,-9178.553681,612.876398
473.415430,-370.102971,-9030.512492,842.705048
473.415757,-444.123565,-9178.553681,689.485948
473.416085,-518.144159,-9252.574275,612.876398
473.416412,-370.102971,-9252.574275,689.485948
473.416740,-222.061783,-9178.553681,766.095498
473.417067,0.000000,-9104.533087,536.266849
473.417395,0.000000,-9030.512492,689.485948
473.417723,0.000000,-9104.533087,919.314598
473.418050,-148.041188,-9252.574275,995.924147
473.418378,-222.061783,-9104.533087,766.095498
473.418705,74.020594,-9030.512492,612.876398
473.419033,74.020594,-9030.512492,383.047749
473.419360,-222.061783,-9104.533087,612.876398
473.419688,-222.061783,-9178.553681,536.266849
473.420016,-222.061783,-8956.491898,842.705048
473.420343,-222.061783,-8660.409521,459.657299
473.420671,-296.082377,-8734.430116,689.485948
473.420998,-444.123565,-9104.533087,306.438199
473.421326,-296.082377,-9104.533087,383.047749
473.421653,-444.123565,-8956.491898,536.266849
473.421981,-518.144159,-9178.553681,306.438199
473.422308,-296.082377,-8882.471304,842.705048
473.422636,-296.082377,-9178.553681,229.828649
473.422964,-222.061783,-9252.574275,383.047749
473.423291,-296.082377,-9030.512492,612.876398
473.423619,-296.082377,-9178.553681,229.828649
473.423946,-148.041188,-8882.471304,919.314598
473.424274,-444.123565,-9104.533087,383.047749
473.424601,-222.061783,-9178.553681,766.095498
473.424929,-222.061783,-9030.512492,383.047749
473.425257,-148.041188,-9104.533087,459.657299
473.425584,-222.061783,-8808.450710,306.438199
473.425912,-370.102971,-8512.368333,766.095498
473.426239,-148.041188,-8808.450710,689.485948
473.426567,-296.082377,-8882.471304,842.705048
473.426894,-296.082377,-8882.471304,536.266849
473.427222,-592.164754,-8512.368333,842.705048
473.427549,-444.123565,-8956.491898,995.924147
473.427877,-666.185348,-8734.430116,766.095498
473.428205,-814.226536,-8660.409521,536.266849
473.428532,-740.205942,-8660.409521,229.828649
473.428860,-740.205942,-8956.491898,536.266849
473.429187,-592.164754,-8660.409521,1149.143247
473.429515,-814.226536,-8734.430116,612.876398
473.429842,-518.144159,-9030.512492,612.876398
473.430170,-740.205942,-8808.450710,383.047749
473.430498,-814.226536,-9104.533087,689.485948
473.430825,-888.247130,-8734.430116,766.095498
473.431153,-592.164754,-9104.533087,306.438199
473.431480,-814.226536,-8882.471304,536.266849
473.431808,-518.144159,-8956.491898,689.485948
473.432135,-444.123565,-9104.533087,459.657299
473.432463,-222.061783,-8956.491898,383.047749
473.432790,-370.102971,-8364.327145,919.314598
473.433118,-370.102971,-8660.409521,612.876398
473.433446,-296.082377,-8956.491898,612.876398
473.433773,-444.123565,-8808.450710,536.266849
473.434101,-370.102971,-8808.450710,766.095498
473.434428,-148.041188,-9104.533087,383.047749
473.434756,-148.041188,-8882.471304,612.876398
473.435083,-296.082377,-8808.450710,689.485948
473.435411,-370.102971,-8808.450710,459.657299
473.435739,-222.061783,-9104.533087,229.828649
473.436066,0.000000,-9178.553681,383.047749
473.436394,-444.123565,-8882.471304,689.485948
473.436721,-222.061783,-8882.471304,536.266849
473.437049,-222.061783,-9178.553681,536.266849
473.437376,0.000000,-9326.594869,459.657299
473.437704,74.020594,-9326.594869,153.219100
473.438031,0.000000,-8956.491898,689.485948
473.438359,0.000000,-9252.574275,459.657299
473.438687,-148.041188,-9326.594869,459.657299
473.439014,-296.082377,-9400.615463,612.876398
473.439342,0.000000,-9252.574275,842.705048
473.439669,222.061783,-9326.594869,536.266849
473.439997,148.041188,-9252.574275,459.657299
473.440324,0.000000,-9178.553681,536.266849
473.440652,0.000000,-9326.594869,612.876398
473.440980,0.000000,-9178.553681,459.657299
473.441307,74.020594,-9252.574275,766.095498
473.441635,-148.041188,-9326.594869,536.266849
473.441962,0.000000,-9252.574275,612.876398
473.442290,0.000000,-9400.615463,536.266849
473.442617,0.000000,-9326.594869,766.095498
473.442945,222.061783,-9400.615463,919.314598
473.443272,0.000000,-9252.574275,842.705048
473.443600,0.000000,-9326.594869,612.876398
473.443928,0.000000,-9326.594869,536.266849
473.444255,0.000000,-9474.636058,306.438199
473.444583,74.020594,-9178.553681,612.876398
473.444910,0.000000,-9474.636058,459.657299
473.445238,-148.041188,-9326.594869,153.219100
473.445565,-148.041188,-9178.553681,766.095498
473.445893,0.000000,-9474.636058,612.876398
473.446221,148.041188,-9400.615463,995.924147
473.446548,-222.061783,-9474.636058,459.657299
473.446876,0.000000,-9474.636058,306.438199
473.447203,-148.041188,-9474.636058,459.657299
473.447531,0.000000,-9474.636058,383.047749
473.447858,0.000000,-9474.636058,383.047749
473.448186,444.123565,-9622.677246,459.657299
473.448513,74.020594,-9326.594869,383.047749
473.448841,0.000000,-9474.636058,612.876398
473.449169,74.020594,-9326.594869,306.438199
473.449496,0.000000,-9030.512492,459.657299
473.449824,148.041188,-9178.553681,153.219100
473.450151,-222.061783,-8882.471304,612.876398
473.450479,0.000000,-9178.553681,536.266849
473.450806,-222.061783,-9104.533087,536.266849
473.451134,-296.082377,-8956.491898,766.095498
473.451462,0.000000,-8882.471304,842.705048
473.451789,-222.061783,-8808.450710,689.485948
473.452117,-592.164754,-8808.450710,766.095498
473.452444,-666.185348,-8808.450710,536.266849
473.452772,-740.205942,-8660.409521,536.266849
473.453099,-666.185348,-8586.388927,842.705048
473.453427,-666.185348,-8882.471304,383.047749
473.453754,-962.267725,-8882.471304,536.266849
473.454082,-1036.288319,-8808.450710,766.095498
473.454410,-1036.288319,-8956.491898,766.095498
473.454737,-962.267725,-8882.471304,919.314598
473.455065,-370.102971,-8808.450710,612.876398
473.455392,-740.205942,-8734.430116,766.095498
473.455720,-592.164754,-8734.430116,842.705048
473.456047,-592.164754,-8808.450710,766.095498
473.456375,-592.164754,-8734.430116,919.314598
473.456703,-518.144159,-8734.430116,1225.752797
473.457030,-222.061783,-8808.450710,612.876398
473.457358,-518.144159,-8808.450710,383.047749
473.457685,-518.144159,-8808.450710,689.485948
473.458013,-444.123565,-8882.471304,536.266849
473.458340,-370.102971,-8364.327145,766.095498
473.458668,-296.082377,-8660.409521,689.485948
473.458995,-370.102971,-8734.430116,459.657299
473.459323,-518.144159,-8512.368333,459.657299
473.459651,-592.164754,-8808.450710,459.657299
473.459978,-222.061783,-8882.471304,612.876398
473.460306,-296.082377,-9030.512492,536.266849
473.460633,-518.144159,-8882.471304,229.828649
473.460961,-518.144159,-8808.450710,76.609550
473.461288,-518.144159,-9104.533087,383.047749
473.461616,-444.123565,-9178.553681,383.047749
473.461944,-296.082377,-8882.471304,1072.533697
473.462271,0.000000,-9326.594869,383.047749
473.462599,0.000000,-9252.574275,536.266849
473.462926,0.000000,-9400.615463,229.828649
473.463254,0.000000,-9474.636058,306.438199
473.463581,370.102971,-8882.471304,536.266849
473.463909,0.000000,-9252.574275,459.657299
473.464236,0.000000,-9474.636058,536.266849
473.464564,74.020594,-9474.636058,459.657299
473.464892,148.041188,-9326.594869,383.047749
473.465219,148.041188,-9326.594869,459.657299
473.465547,370.102971,-9326.594869,306.438199
473.465874,0.000000,-9400.615463,612.876398
473.466202,74.020594,-9326.594869,689.485948
473.466530,0.000000,-9104.533087,842.705048
473.466857,148.041188,-9178.553681,459.657299
473.467185,148.041188,-8808.450710,766.095498
473.467512,0.000000,-9178.553681,383.047749
473.467840,0.000000,-9104.533087,536.266849
473.468168,0.000000,-9030.512492,536.266849
473.468495,0.000000,-9178.553681,536.266849
473.468823,0.000000,-9400.615463,153.219100
473.469150,0.000000,-9252.574275,689.485948
473.469478,0.000000,-9326.594869,306.438199
473.469806,-222.061783,-9178.553681,842.705048
473.470133,0.000000,-9474.636058,612.876398
473.470461,222.061783,-9474.636058,842.705048
473.470789,0.000000,-9696.697840,229.828649
473.471116,222.061783,-9474.636058,612.876398
473.471444,0.000000,-9548.656652,689.485948
473.471771,148.041188,-9548.656652,612.876398
473.472099,-444.123565,-9400.615463,766.095498
473.472427,0.000000,-9104.533087,766.095498
473.472754,74.020594,-9474.636058,536.266849
473.473082,-148.041188,-9326.594869,689.485948
473.473409,0.000000,-9474.636058,459.657299
473.473737,-296.082377,-9252.574275,612.876398
473.474065,222.061783,-9400.615463,842.705048
473.474392,-222.061783,-9178.553681,612.876398
473.474720,-222.061783,-9104.533087,459.657299
473.475047,-148.041188,-9030.512492,383.047749
473.475375,-518.144159,-8882.471304,153.219100
473.475703,-296.082377,-8808.450710,766.095498
473.476030,-296.082377,-8956.491898,229.828649
473.476358,-666.185348,-9178.553681,536.266849
473.476685,-592.164754,-9252.574275,689.485948
473.477013,-592.164754,-9178.553681,689.485948
473.477341,-666.185348,-9030.512492,766.095498
473.477668,-444.123565,-8956.491898,689.485948
473.477996,-666.185348,-9252.574275,536.266849
473.478323,-444.123565,-9252.574275,689.485948
473.478651,-518.144159,-9326.594869,612.876398
473.478979,-518.144159,-9252.574275,842.705048
473.479306,-296.082377,-9030.512492,383.047749
473.479634,-222.061783,-9178.553681,842.705048
473.479961,-444.123565,-8956.491898,536.266849
473.480289,-296.082377,-9178.553681,306.438199
473.480617,-370.102971,-9178.553681,612.876398
473.480944,-296.082377,-9178.553681,153.219100
473.481272,-518.144159,-8734.430116,766.095498
473.481599,-370.102971,-8882.471304,459.657299
473.481927,-148.041188,-8882.471304,612.876398
473.482255,-148.041188,-8956.491898,536.266849
473.482582,-296.082377,-8364.327145,1225.752797
473.482910,-222.061783,-9030.512492,766.095498
473.483237,-592.164754,-8734.430116,383.047749
473.483565,-740.205942,-8438.347739,306.438199
473.483893,-518.144159,-8364.327145,383.047749
473.484220,-296.082377,-8808.450710,689.485948
473.484548,-592.164754,-8808.450710,689.485948
473.484876,-444.123565,-8808.450710,229.828649
473.485203,-444.123565,-8808.450710,383.047749
473.485531,-592.164754,-8882.471304,536.266849
473.485858,-370.102971,-9252.574275,536.266849
473.486186,-444.123565,-8808.450710,842.705048
473.486514,0.000000,-9030.512492,459.657299
473.486841,-370.102971,-8882.471304,536.266849
473.487169,-222.061783,-9030.512492,842.705048
473.487496,-296.082377,-9104.533087,689.485948
473.487824,0.000000,-9326.594869,919.314598
473.488152,-222.061783,-9104.533087,383.047749
473.488479,-370.102971,-8956.491898,536.266849
473.488807,-296.082377,-9104.533087,459.657299
473.489134,-148.041188,-9178.553681,536.266849
473.489462,0.000000,-8734.430116,612.876398
473.489790,0.000000,-8734.430116,536.266849
473.490117,0.000000,-9104.533087,842.705048
473.490445,-222.061783,-9030.512492,689.485948
473.490772,-296.082377,-9030.512492,536.266849
473.491100,-222.061783,-8586.388927,689.485948
473.491428,-148.041188,-8956.491898,383.047749
473.491755,-296.082377,-8956.491898,459.657299
473.492083,-296.082377,-9178.553681,536.266849
473.492410,0.000000,-9104.533087,612.876398
473.492738,-296.082377,-9030.512492,383.047749
473.493066,0.000000,-9104.533087,842.705048
473.493393,-444.123565,-9104.533087,689.485948
473.493721,-370.102971,-9474.636058,459.657299
473.494048,-444.123565,-9400.615463,459.657299
473.494376,-296.082377,-9326.594869,612.876398
473.494704,-148.041188,-8956.491898,842.705048
473.495031,0.000000,-9696.697840,766.095498
473.495359,-296.082377,-9548.656652,689.485948
473.495686,-222.061783,-9400.615463,536.266849
473.496014,-222.061783,-9400.615463,536.266849
473.496342,-296.082377,-9474.636058,383.047749
473.496669,-222.061783,-9252.574275,1072.533697
473.496997,-222.061783,-9474.636058,536.266849
473.497325,0.000000,-9326.594869,536.266849
473.497652,-222.061783,-9474.636058,459.657299
473.497980,-370.102971,-9178.553681,153.219100
473.498307,-518.144159,-9252.574275,1072.533697
473.498635,0.000000,-9252.574275,459.657299
473.498963,-222.061783,-8956.491898,306.438199
473.499290,-222.061783,-9030.512492,536.266849
473.499618,-222.061783,-9252.574275,919.314598
473.499945,74.020594,-9474.636058,229.828649
473.500273,-518.144159,-9104.533087,459.657299
473.500601,-296.082377,-9326.594869,689.485948
473.500928,-222.061783,-9252.574275,612.876398
473.501256,-296.082377,-9252.574275,612.876398
473.501583,0.000000,-9474.636058,229.828649
473.501911,-74.020594,-9252.574275,842.705048
473.502239,0.000000,-9178.553681,766.095498
473.502566,0.000000,-9178.553681,383.047749
473.502894,0.000000,-9400.615463,536.266849
473.503221,-296.082377,-9252.574275,229.828649
473.503549,0.000000,-9548.656652,612.876398
473.503877,0.000000,-9252.574275,459.657299
473.504204,222.061783,-9178.553681,459.657299
473.504532,74.020594,-9178.553681,536.266849
473.504859,0.000000,-9252.574275,1149.143247
473.505187,0.000000,-9178.553681,612.876398
473.505515,0.000000,-9104.533087,689.485948
473.505842,0.000000,-8956.491898,536.266849
473.506170,-148.041188,-8808.450710,612.876398
473.506497,-296.082377,-8956.491898,689.485948
473.506825,0.000000,-8512.368333,383.047749
473.507153,0.000000,-9030.512492,612.876398
473.507480,-296.082377,-8734.430116,306.438199
473.507808,-222.061783,-8734.430116,536.266849
473.508135,-370.102971,-8808.450710,536.266849
473.508463,74.020594,-9030.512492,1072.533697
473.508791,-444.123565,-9030.512492,766.095498
473.509118,-592.164754,-8882.471304,536.266849
473.509446,-370.102971,-9252.574275,536.266849
473.509774,-592.164754,-9252.574275,612.876398
473.510101,-296.082377,-9030.512492,536.266849
473.510429,-222.061783,-9326.594869,459.657299
473.510756,-296.082377,-9104.533087,612.876398
473.511084,-296.082377,-9178.553681,536.266849
473.511412,-444.123565,-9030.512492,383.047749
473.511739,0.000000,-8956.491898,383.047749
473.512067,0.000000,-9104.533087,689.485948
473.512394,-222.061783,-9104.533087,612.876398
473.512722,-296.082377,-9474.636058,306.438199
473.513050,-444.123565,-9104.533087,536.266849
473.513377,-296.082377,-9030.512492,383.047749
473.513705,0.000000,-9326.594869,306.438199
473.514032,-296.082377,-8882.471304,459.657299
473.514360,-148.041188,-8956.491898,459.657299
473.514688,-370.102971,-8882.471304,383.047749
473.515015,-592.164754,-9030.512492,612.876398
473.515343,-592.164754,-9030.512492,459.657299
473.515670,-592.164754,-8660.409521,536.266849
473.515998,-518.144159,-8808.450710,459.657299
473.516326,-666.185348,-8956.491898,536.266849
473.516653,-666.185348,-8956.491898,536.266849
473.516981,-888.247130,-8660.409521,459.657299
473.517308,-296.082377,-8956.491898,612.876398
473.517636,-666.185348,-8882.471304,689.485948
473.517964,-666.185348,-9030.512492,459.657299
473.518291,-592.164754,-9178.553681,536.266849
473.518619,-740.205942,-8882.471304,1072.533697
473.518946,-666.185348,-8808.450710,1072.533697
473.519274,-592.164754,-9104.533087,612.876398
473.519602,-518.144159,-8882.471304,689.485948
473.519929,-444.123565,-9030.512492,842.705048
473.520257,-370.102971,-9030.512492,689.485948
473.520584,148.041188,-8882.471304,842.705048
473.520912,-518.144159,-9030.512492,766.095498
473.521240,-370.102971,-8808.450710,536.266849
473.521567,-296.082377,-8808.450710,612.876398
473.521895,-148.041188,-9030.512492,536.266849
473.522222,0.000000,-8808.450710,689.485948
473.522550,-148.041188,-8660.409521,459.657299
473.522878,-370.102971,-9104.533087,766.095498
473.523205,-222.061783,-8956.491898,536.266849
473.523533,-296.082377,-9030.512492,383.047749
473.523861,-148.041188,-8660.409521,0.000000
473.524188,0.000000,-8956.491898,306.438199
473.524516,-148.041188,-9252.574275,306.438199
473.524843,0.000000,-9326.594869,383.047749
473.525171,0.000000,-9400.615463,306.438199
473.525499,296.082377,-9474.636058,536.266849
473.525826,444.123565,-9326.594869,229.828649
473.526154,148.041188,-9622.677246,766.095498
473.526481,222.061783,-9918.759623,536.266849
473.526809,296.082377,-9622.677246,306.438199
473.527137,148.041188,-9622.677246,306.438199
473.527464,0.000000,-9252.574275,1225.752797
473.527792,222.061783,-9770.718434,306.438199
473.528119,296.082377,-9474.636058,459.657299
473.528447,296.082377,-9548.656652,306.438199
473.528775,148.041188,-9326.594869,536.266849
473.529102,814.226536,-9252.574275,689.485948
473.529430,0.000000,-9400.615463,536.266849
473.529757,0.000000,-9400.615463,689.485948
473.530085,-222.061783,-9178.553681,766.095498
473.530413,-222.061783,-9178.553681,536.266849
473.530740,-444.123565,-9104.533087,1225.752797
473.531068,-148.041188,-8956.491898,459.657299
473.531395,-370.102971,-9252.574275,536.266849
473.531723,-518.144159,-9252.574275,459.657299
473.532051,-370.102971,-9326.594869,766.095498
473.532378,-592.164754,-9104.533087,766.095498
473.532706,-370.102971,-8956.491898,842.705048
473.533033,-296.082377,-9326.594869,766.095498
473.533361,-370.102971,-9252.574275,766.095498
473.533689,-296.082377,-9400.615463,612.876398
473.534016,-518.144159,-9326.594869,689.485948
473.534344,-444.123565,-9104.533087,689.485948
473.534671,-222.061783,-9474.636058,689.485948
473.534999,-444.123565,-9104.533087,995.924147
