#time,accel_x,accel_y,accel_z
601.628195,-222.061783,-8882.471304,459.657299
601.628523,-370.102971,-9104.533087,536.266849
601.628850,-296.082377,-9252.574275,612.876398
601.629178,-370.102971,-9104.533087,383.047749
601.629506,-296.082377,-9104.533087,766.095498
601.629833,-296.082377,-8956.491898,612.876398
601.630161,-222.061783,-9252.574275,536.266849
601.630489,-222.061783,-9252.574275,689.485948
601.630816,-296.082377,-9104.533087,612.876398
601.631144,-518.144159,-9030.512492,612.876398
601.631472,-296.082377,-9252.574275,306.438199
601.631799,-370.102971,-8956.491898,536.266849
601.632127,-222.061783,-9178.553681,536.266849
601.632455,-296.082377,-9252.574275,689.485948
601.632783,-444.123565,-9030.512492,766.095498
601.633110,-592.164754,-8956.491898,536.266849
601.633438,-370.102971,-9252.574275,842.705048
601.633766,-296.082377,-9178.553681,612.876398
601.634093,0.000000,-9400.615463,612.876398
601.634421,-296.082377,-9178.553681,612.876398
601.634749,-296.082377,-8808.450710,995.924147
601.635076,-148.041188,-8956.491898,536.266849
601.635404,-296.082377,-9178.553681,536.266849
601.635732,-444.123565,-9104.533087,536.266849
601.636059,-370.102971,-9104.533087,459.657299
601.636387,0.000000,-9326.594869,995.924147
601.636715,0.000000,-9104.533087,995.924147
601.637043,-222.061783,-9104.533087,536.266849
601.637370,-370.102971,-9030.512492,689.485948
601.637698,-370.102971,-9326.594869,459.657299
601.638026,-296.082377,-9400.615463,612.876398
601.638353,222.061783,-9030.512492,612.876398
601.638681,0.000000,-9030.512492,689.485948
601.639009,0.000000,-9252.574275,306.438199
601.639336,-296.082377,-9252.574275,459.657299
601.639664,-148.041188,-9030.512492,306.438199
601.639992,222.061783,-8734.430116,306.438199
601.640319,0.000000,-9030.512492,612.876398
601.640647,-222.061783,-9104.533087,612.876398
601.640975,-370.102971,-9252.574275,612.876398
601.641303,-222.061783,-9178.553681,459.657299
601.641630,0.000000,-8956.491898,536.266849
601.641958,0.000000,-8808.450710,459.657299
601.642286,-148.041188,-9104.533087,536.266849
601.642613,-296.082377,-9400.615463,612.876398
601.642941,-370.102971,-9252.574275,383.047749
601.643269,-592.164754,-9252.574275,229.828649
601.643596,-814.226536,-9696.697840,0.000000
601.643924,-1554.432478,-9178.553681,0.000000
601.644252,-1406.391290,-9178.553681,-229.828649
601.644579,-666.185348,-8882.471304,-306.438199
601.644907,-518.144159,-8882.471304,0.000000
601.645235,-740.205942,-9252.574275,-612.876398
601.645563,-888.247130,-9252.574275,-536.266849
601.645890,-1110.308913,-9252.574275,-995.924147
601.646218,-1406.391290,-8956.491898,-1149.143247
601.646546,-1184.329507,-9178.553681,-1302.362347
601.646873,-888.247130,-9104.533087,-1685.410096
601.647201,-296.082377,-9030.512492,-1149.143247
601.647529,-148.041188,-9030.512492,-1225.752797
601.647856,0.000000,-9104.533087,-1302.362347
601.648184,-222.061783,-9252.574275,-1608.800546
601.648512,-296.082377,-8808.450710,-1072.533697
601.648839,518.144159,-8882.471304,-1532.190996
601.649167,0.000000,-9326.594869,-1762.019645
601.649495,148.041188,-9400.615463,-1685.410096
601.649823,296.082377,-9474.636058,-1455.581446
601.650150,370.102971,-9474.636058,-1608.800546
601.650478,518.144159,-8956.491898,-2068.457845
601.650806,296.082377,-9178.553681,-1838.629195
601.651133,370.102971,-9474.636058,-1915.238745
601.651461,444.123565,-9400.615463,-2298.286494
601.651789,222.061783,-9400.615463,-2068.457845
601.652116,296.082377,-9474.636058,-1915.238745
601.652444,0.000000,-9104.533087,-1532.190996
601.652772,0.000000,-9326.594869,-1608.800546
601.653099,-444.123565,-9252.574275,-2145.067394
601.653427,-814.226536,-9252.574275,-2145.067394
601.653755,-962.267725,-9326.594869,-2221.676944
601.654083,-1110.308913,-9178.553681,-2451.505594
601.654410,-1480.411884,-9252.574275,-2451.505594
601.654738,-1776.494261,-9030.512492,-2757.943793
601.655066,-1998.556043,-9104.533087,-2987.772442
601.655393,-1776.494261,-8512.368333,-3524.039291
601.655721,-1998.556043,-9030.512492,-3677.258390
601.656049,-2146.597232,-9252.574275,-3830.477490
601.656376,-2146.597232,-9104.533087,-3830.477490
601.656704,-2220.617826,-8956.491898,-3983.696590
601.657032,-1924.535449,-8808.450710,-4060.306139
601.657359,-1184.329507,-8734.430116,-3830.477490
601.657687,-740.205942,-8660.409521,-3830.477490
601.658015,74.020594,-8734.430116,-3524.039291
601.658343,888.247130,-8956.491898,-3217.601092
601.658670,1554.432478,-8956.491898,-2834.553343
601.658998,2146.597232,-9030.512492,-2068.457845
601.659326,2294.638420,-9104.533087,-1762.019645
601.659653,2072.576638,-9474.636058,-2221.676944
601.659981,1406.391290,-9918.759623,-1915.238745
601.660309,592.164754,-10436.903782,-2528.115143
601.660636,-296.082377,-10362.883188,-3600.648841
601.660964,-1258.350101,-9992.780217,-3447.429741
601.661292,-1332.370696,-10140.821405,-4290.134789
601.661619,-1924.535449,-9548.656652,-4749.792088
601.661947,-888.247130,-9030.512492,-4903.011187
601.662275,222.061783,-7994.224174,-4366.744339
601.662603,1776.494261,-7402.059420,-3753.867940
601.662930,2442.679609,-7031.956449,-2987.772442
601.663258,2664.741391,-7328.038826,-2145.067394
601.663586,1776.494261,-8290.306550,-1762.019645
601.663913,0.000000,-9104.533087,-1838.629195
601.664241,-1628.453072,-10362.883188,-2451.505594
601.664569,-3108.864956,-10584.944971,-2068.457845
601.664896,-3552.988522,-10807.006753,-2451.505594
601.665224,-2590.720797,-10436.903782,-2451.505594
601.665552,-1184.329507,-9474.636058,-2221.676944
601.665879,592.164754,-7846.182985,-1455.581446
601.666207,4293.194464,-6957.935855,0.000000
601.666535,7920.203579,-5403.503377,2068.457845
601.666863,10510.924376,-5329.482782,3600.648841
601.667190,9474.636058,-7031.956449,4903.011187
601.667518,4737.318029,-10140.821405,4826.401637
601.667846,-2072.576638,-13323.706956,3524.039291
601.668173,-8290.306550,-14359.995275,612.876398
601.668501,-11769.274478,-14878.139434,-459.657299
601.668829,-11103.089130,-13915.871710,-2068.457845
601.669156,-9548.656652,-12065.356855,-2068.457845
601.669484,-4811.338623,-8808.450710,-2221.676944
601.669812,-2442.679609,-6513.812290,-1072.533697
601.670139,-1480.411884,-3775.050304,-3600.648841
601.670467,-2368.659014,-5403.503377,-4136.915689
601.670795,-8068.244768,-6439.791695,-7660.954980
601.671123,-10732.986159,-7920.203579,-9116.536426
601.671450,-14582.057057,-8734.430116,-10878.556072
601.671778,-12953.603985,-8290.306550,-10648.727422
601.672106,-9030.512492,-8438.347739,-8810.098227
601.672433,-2664.741391,-7328.038826,-7660.954980
601.672761,2812.782580,-6587.832884,-5286.058936
601.673089,5181.441594,-7994.224174,-5975.544884
601.673416,5033.400406,-9104.533087,-5822.325785
601.673744,3256.906145,-9918.759623,-6818.249932
601.674072,4589.276840,-11547.212695,-6818.249932
601.674399,6957.935855,-10066.800811,-6052.154434
601.674727,11325.150913,-10066.800811,-4749.792088
601.675055,13693.809927,-9622.677246,-2834.553343
601.675383,13619.789333,-10140.821405,-1532.190996
601.675710,13397.727550,-10510.924376,-1685.410096
601.676038,13249.686362,-9474.636058,-1915.238745
601.676366,12731.542202,-9770.718434,-2911.162892
601.676693,12657.521608,-10955.047942,-1149.143247
601.677021,9696.697840,-11991.336260,-2911.162892
601.677349,-148.041188,-15544.324782,-4673.182538
601.677676,-9104.533087,-14952.160028,-7890.783629
601.678004,-10584.944971,-12287.418637,-8503.660028
601.678332,-5921.647536,-6809.894666,-7354.516781
601.678659,-296.082377,-3034.844362,-5286.058936
601.678987,5773.606348,-1924.535449,-1762.019645
601.679315,3849.070898,-1998.556043,-536.266849
601.679643,1406.391290,-2738.761985,76.609550
601.679970,-3256.906145,-4293.194464,-612.876398
601.680298,-6957.935855,-6143.709319,-1225.752797
601.680626,-7105.977043,-7698.141797,-1072.533697
601.680953,-7698.141797,-9696.697840,766.095498
601.681281,-6735.874072,-9918.759623,2604.724693
601.681609,-5033.400406,-9252.574275,5439.278036
601.681936,-3627.009116,-8216.285956,5515.887586
601.682264,-1924.535449,-7328.038826,4596.572988
601.682592,-3034.844362,-9696.697840,2374.896044
601.682919,-5921.647536,-11029.068536,-459.657299
601.683247,-7698.141797,-10140.821405,-1991.848295
601.683575,-6513.812290,-9696.697840,-1149.143247
601.683903,-3108.864956,-8216.285956,76.609550
601.684230,-962.267725,-8216.285956,995.924147
601.684558,-370.102971,-9696.697840,1072.533697
601.684886,-2294.638420,-8882.471304,612.876398
601.685213,-5329.482782,-8882.471304,0.000000
601.685541,-4145.153275,-9770.718434,383.047749
601.685869,-3849.070898,-10436.903782,-689.485948
601.686196,-2590.720797,-11103.089130,-1225.752797
601.686524,-2368.659014,-11547.212695,-1991.848295
601.686852,-2368.659014,-9178.553681,-1838.629195
601.687179,1332.370696,-7550.100608,-1225.752797
601.687507,814.226536,-6809.894666,-2068.457845
601.687835,518.144159,-6883.915261,-3370.820191
601.688163,3404.947333,-8438.347739,-4749.792088
601.688490,5477.523971,-8142.265362,-4749.792088
601.688818,5773.606348,-8290.306550,-4060.306139
601.689146,6513.812290,-9474.636058,-3524.039291
601.689473,4441.235652,-12805.562797,-3370.820191
601.689801,3997.112087,-14508.036463,-3447.429741
601.690126,3775.050304,-13841.851115,-4213.525239
601.690453,2590.720797,-13249.686362,-3907.087040
601.690781,2368.659014,-12213.398043,-4060.306139
601.691109,814.226536,-11103.089130,-4136.915689
601.691436,2368.659014,-10881.027347,-3140.991542
601.691764,2812.782580,-9622.677246,-3064.381992
601.692091,1184.329507,-8512.368333,-4136.915689
601.692419,-888.247130,-8290.306550,-4903.011187
601.692747,-1702.473667,-8660.409521,-5439.278036
601.693074,-3108.864956,-7179.997637,-6435.202183
601.693402,-1924.535449,-6735.874072,-6128.763984
601.693729,-1110.308913,-5847.626942,-4979.620737
601.694057,518.144159,-4885.359217,-3983.696590
601.694385,1406.391290,-5181.441594,-2528.115143
601.694712,666.185348,-6883.915261,-1762.019645
601.695040,-1258.350101,-8216.285956,-2068.457845
601.695368,-1924.535449,-8956.491898,-2298.286494
601.695695,-2812.782580,-10214.842000,-2221.676944
601.696023,-3849.070898,-10362.883188,-2451.505594
601.696350,-3478.967927,-9400.615463,-1991.848295
601.696678,-1258.350101,-7846.182985,-1608.800546
601.697006,962.267725,-7476.080014,-229.828649
601.697333,-444.123565,-8364.327145,-2068.457845
601.697661,-2664.741391,-9696.697840,-2681.334243
601.697988,-3182.885551,-9030.512492,-3677.258390
601.698316,-3701.029710,-9104.533087,-4673.182538
601.698644,-2812.782580,-9030.512492,-4290.134789
601.698971,296.082377,-8438.347739,-3370.820191
601.699299,2146.597232,-6365.771101,-2834.553343
601.699627,4737.318029,-5477.523971,-1149.143247
601.699954,4293.194464,-6883.915261,0.000000
601.700282,2442.679609,-6735.874072,-229.828649
601.700609,666.185348,-7846.182985,-306.438199
601.700937,222.061783,-10066.800811,-153.219100
601.701265,-1554.432478,-10362.883188,-689.485948
601.701592,-814.226536,-9474.636058,0.000000
601.701920,1406.391290,-9178.553681,306.438199
601.702247,2220.617826,-9474.636058,1072.533697
601.702575,1110.308913,-9252.574275,-919.314598
601.702903,962.267725,-8586.388927,-1762.019645
601.703230,-592.164754,-8734.430116,-2834.553343
601.703558,-666.185348,-9548.656652,-2068.457845
601.703886,-518.144159,-9252.574275,-2987.772442
601.704213,148.041188,-10140.821405,-1072.533697
601.704541,888.247130,-10807.006753,-689.485948
601.704868,-148.041188,-11325.150913,0.000000
601.705196,-2738.761985,-11473.192101,-1072.533697
601.705524,-3997.112087,-10510.924376,-1149.143247
601.705851,-4515.256246,-11325.150913,-1302.362347
601.706179,-4589.276840,-10214.842000,-1608.800546
601.706507,-4737.318029,-9178.553681,-1991.848295
601.706834,-3552.988522,-8734.430116,-1532.190996
601.707162,-2516.700203,-7846.182985,-1455.581446
601.707489,-1628.453072,-7328.038826,-1302.362347
601.707817,-444.123565,-6809.894666,-1608.800546
601.708145,1628.453072,-7254.018232,-919.314598
601.708472,2442.679609,-7698.141797,-612.876398
601.708800,1332.370696,-8586.388927,-153.219100
601.709127,1480.411884,-10066.800811,536.266849
601.709455,1702.473667,-10066.800811,689.485948
601.709783,1406.391290,-10955.047942,459.657299
601.710110,2368.659014,-11547.212695,1072.533697
601.710438,2368.659014,-11843.295072,1149.143247
601.710766,1554.432478,-12287.418637,1762.019645
601.711093,-1036.288319,-11103.089130,0.000000
601.711421,-1036.288319,-11473.192101,-1149.143247
601.711748,-1924.535449,-10140.821405,-2221.676944
601.712076,-740.205942,-8808.450710,-2374.896044
601.712404,1332.370696,-7698.141797,-1149.143247
601.712731,2664.741391,-6809.894666,-306.438199
601.713059,2442.679609,-7254.018232,-306.438199
601.713386,740.205942,-8068.244768,-153.219100
601.713714,-1998.556043,-8660.409521,-842.705048
601.714042,-2812.782580,-8808.450710,-1685.410096
601.714369,-3404.947333,-8216.285956,-1455.581446
601.714697,-3182.885551,-8438.347739,-1378.971896
601.715025,-2220.617826,-8586.388927,-459.657299
601.715352,-1850.514855,-8956.491898,153.219100
601.715680,-962.267725,-7994.224174,612.876398
601.716007,74.020594,-6587.832884,612.876398
601.716335,1776.494261,-6587.832884,1378.971896
601.716663,2590.720797,-6513.812290,842.705048
601.716990,3404.947333,-6883.915261,1532.190996
601.717318,3256.906145,-8290.306550,2068.457845
601.717645,1480.411884,-9400.615463,2451.505594
601.717973,-296.082377,-10140.821405,2068.457845
601.718301,-814.226536,-10658.965565,2451.505594
601.718628,-592.164754,-11029.068536,2528.115143
601.718956,-1184.329507,-10436.903782,1991.848295
601.719284,-1110.308913,-9696.697840,1838.629195
601.719611,-1110.308913,-9178.553681,1378.971896
601.719939,-2072.576638,-8586.388927,1225.752797
601.720266,-1480.411884,-7846.182985,995.924147
601.720594,-1110.308913,-8438.347739,919.314598
601.720922,-1776.494261,-7254.018232,995.924147
601.721249,-1776.494261,-6513.812290,766.095498
601.721577,-1924.535449,-6661.853478,306.438199
601.721905,-3182.885551,-7328.038826,0.000000
601.722232,-3923.091493,-7994.224174,-919.314598
601.722560,-2220.617826,-8290.306550,-766.095498
601.722887,-1332.370696,-8142.265362,-536.266849
601.723215,-148.041188,-8586.388927,-229.828649
601.723543,962.267725,-9326.594869,153.219100
601.723870,888.247130,-10658.965565,612.876398
601.724198,518.144159,-10955.047942,153.219100
601.724525,1998.556043,-10955.047942,842.705048
601.724853,2886.803174,-10807.006753,1149.143247
601.725181,3108.864956,-10732.986159,1302.362347
601.725508,3108.864956,-11399.171507,1072.533697
601.725836,2294.638420,-12583.501014,1302.362347
601.726164,518.144159,-12583.501014,919.314598
601.726491,74.020594,-11991.336260,766.095498
601.726819,296.082377,-11843.295072,153.219100
601.727146,814.226536,-11103.089130,229.828649
601.727474,592.164754,-10436.903782,306.438199
601.727802,-148.041188,-9696.697840,153.219100
601.728129,518.144159,-9474.636058,-306.438199
601.728457,-1036.288319,-8956.491898,0.000000
601.728784,0.000000,-8216.285956,76.609550
601.729112,0.000000,-8808.450710,153.219100
601.729440,-888.247130,-9030.512492,536.266849
601.729767,-1924.535449,-9030.512492,766.095498
601.730095,-2442.679609,-10288.862594,612.876398
601.730423,-4367.215058,-9770.718434,76.609550
601.730750,-3627.009116,-9770.718434,-383.047749
601.731078,-3182.885551,-9326.594869,-612.876398
601.731405,-962.267725,-8068.244768,0.000000
601.731733,518.144159,-8216.285956,76.609550
601.732061,-296.082377,-8956.491898,536.266849
601.732388,-222.061783,-9178.553681,612.876398
601.732716,962.267725,-8216.285956,1072.533697
601.733043,2516.700203,-7550.100608,1532.190996
601.733371,2368.659014,-8216.285956,2221.676944
601.733699,1406.391290,-9104.533087,2604.724693
601.734026,-222.061783,-10140.821405,2451.505594
601.734354,-2220.617826,-9252.574275,1762.019645
601.734682,-1406.391290,-8808.450710,1532.190996
601.735009,-296.082377,-8660.409521,1455.581446
601.735337,-1110.308913,-8290.306550,919.314598
601.735664,-370.102971,-7846.182985,1225.752797
601.735992,0.000000,-6735.874072,766.095498
601.736320,-148.041188,-5847.626942,689.485948
601.736647,296.082377,-6365.771101,306.438199
601.736975,0.000000,-6809.894666,612.876398
601.737303,370.102971,-6735.874072,995.924147
601.737630,-592.164754,-6809.894666,1378.971896
601.737958,-740.205942,-7920.203579,1302.362347
601.738285,-2294.638420,-9474.636058,689.485948
601.738613,-3404.947333,-10066.800811,536.266849
601.738941,-2516.700203,-9178.553681,-153.219100
601.739268,-1924.535449,-8882.471304,-383.047749
601.739596,-888.247130,-8956.491898,0.000000
601.739923,148.041188,-8142.265362,383.047749
601.740251,370.102971,-9030.512492,306.438199
601.740579,1110.308913,-8142.265362,-76.609550
601.740906,2220.617826,-7476.080014,153.219100
601.741234,3108.864956,-7846.182985,842.705048
601.741562,2590.720797,-8882.471304,919.314598
601.741889,1406.391290,-9474.636058,1608.800546
601.742217,74.020594,-11621.233289,1685.410096
601.742544,-1554.432478,-12139.377449,1072.533697
601.742872,-2294.638420,-12213.398043,229.828649
601.743200,-1998.556043,-11251.130318,0.000000
601.743527,-814.226536,-11103.089130,-612.876398
601.743855,-666.185348,-10066.800811,-459.657299
601.744182,666.185348,-8068.244768,-612.876398
601.744510,1998.556043,-8068.244768,-306.438199
601.744838,2294.638420,-7328.038826,-306.438199
601.745165,2664.741391,-7994.224174,459.657299
601.745493,2220.617826,-8512.368333,612.876398
601.745821,1406.391290,-9030.512492,1302.362347
601.746148,-444.123565,-10140.821405,1762.019645
601.746476,-2294.638420,-11843.295072,1685.410096
601.746803,-4367.215058,-13101.645173,1225.752797
601.747131,-4515.256246,-12657.521608,1225.752797
601.747459,-4367.215058,-11325.150913,229.828649
601.747786,-2960.823768,-10140.821405,229.828649
601.748114,-2294.638420,-8734.430116,-459.657299
601.748441,-444.123565,-7624.121203,0.000000
601.748769,0.000000,-6735.874072,-306.438199
601.749097,666.185348,-5255.462188,-689.485948
601.749424,1998.556043,-5255.462188,0.000000
601.749752,1776.494261,-5921.647536,536.266849
601.750080,1110.308913,-7179.997637,995.924147
601.750407,0.000000,-8882.471304,995.924147
601.750735,-1998.556043,-10436.903782,1225.752797
601.751062,-3701.029710,-11399.171507,1072.533697
601.751390,-3330.926739,-11325.150913,995.924147
601.751718,-2516.700203,-11103.089130,612.876398
601.752045,-1628.453072,-10658.965565,306.438199
601.752373,-296.082377,-8734.430116,1225.752797
601.752701,296.082377,-7994.224174,153.219100
601.753028,1924.535449,-6587.832884,0.000000
601.753356,3256.906145,-6069.688724,76.609550
601.753683,4515.256246,-6809.894666,1072.533697
601.754011,3923.091493,-6661.853478,1455.581446
601.754339,3478.967927,-7994.224174,2068.457845
601.754666,1776.494261,-9918.759623,1991.848295
601.754994,-1258.350101,-11547.212695,1455.581446
601.755321,-2368.659014,-12657.521608,1378.971896
601.755649,-2590.720797,-12361.439231,1608.800546
601.755977,-2220.617826,-11917.315666,1225.752797
601.756304,-2072.576638,-10807.006753,919.314598
601.756632,-888.247130,-10066.800811,536.266849
601.756960,-222.061783,-9178.553681,0.000000
601.757287,888.247130,-7328.038826,0.000000
601.757615,2664.741391,-5329.482782,-229.828649
601.757942,3330.926739,-5995.668130,766.095498
601.758270,2738.761985,-6513.812290,1072.533697
601.758598,1480.411884,-7846.182985,1225.752797
601.758925,-1110.308913,-9252.574275,1149.143247
601.759253,-2960.823768,-10362.883188,766.095498
601.759580,-4071.132681,-10807.006753,459.657299
601.759908,-3775.050304,-11325.150913,459.657299
601.760236,-4441.235652,-11547.212695,0.000000
601.760563,-3404.947333,-10362.883188,229.828649
601.760891,-3034.844362,-9548.656652,-153.219100
601.761219,-2294.638420,-7920.203579,-612.876398
601.761546,0.000000,-6587.832884,-612.876398
601.761874,1998.556043,-6217.729913,0.000000
601.762201,2812.782580,-6587.832884,76.609550
601.762529,2812.782580,-7476.080014,766.095498
601.762857,1628.453072,-8956.491898,1302.362347
601.763184,-592.164754,-9992.780217,842.705048
601.763512,-1628.453072,-10881.027347,536.266849
601.763839,-1702.473667,-11547.212695,76.609550
601.764167,-1554.432478,-11695.253884,306.438199
601.764495,-1998.556043,-10955.047942,-766.095498
601.764822,-1184.329507,-10288.862594,153.219100
601.765150,74.020594,-9252.574275,0.000000
601.765478,740.205942,-7476.080014,-383.047749
601.765805,3627.009116,-6587.832884,153.219100
601.766133,5255.462188,-6217.729913,306.438199
601.766460,4145.153275,-6883.915261,1302.362347
601.766788,3701.029710,-7402.059420,1838.629195
601.767116,1924.535449,-8660.409521,2145.067394
601.767443,-592.164754,-10140.821405,1608.800546
601.767771,-1850.514855,-11473.192101,1685.410096
601.768099,-2590.720797,-11621.233289,689.485948
601.768426,-3256.906145,-11473.192101,1072.533697
601.768754,-3034.844362,-9992.780217,536.266849
601.769081,-2886.803174,-9622.677246,76.609550
601.769409,-2368.659014,-8956.491898,-919.314598
601.769737,-1554.432478,-7254.018232,-766.095498
601.770064,888.247130,-6217.729913,76.609550
601.770392,1850.514855,-6291.750507,536.266849
601.770719,1184.329507,-6735.874072,1072.533697
601.771047,1036.288319,-8364.327145,2068.457845
601.771375,-888.247130,-8956.491898,1149.143247
601.771702,-2146.597232,-9104.533087,919.314598
601.772030,-2738.761985,-10510.924376,842.705048
601.772358,-3256.906145,-11547.212695,459.657299
601.772685,-3256.906145,-11547.212695,306.438199
601.773013,-2590.720797,-10214.842000,306.438199
601.773340,-2294.638420,-9622.677246,-459.657299
601.773668,-888.247130,-9400.615463,0.000000
601.773996,962.267725,-7550.100608,-459.657299
601.774323,3182.885551,-6439.791695,383.047749
601.774651,4367.215058,-6069.688724,1225.752797
601.774978,4737.318029,-6883.915261,1378.971896
601.775306,3404.947333,-8512.368333,1685.410096
601.775634,1184.329507,-10436.903782,1378.971896
601.775961,-888.247130,-11029.068536,1072.533697
601.776289,-2220.617826,-11473.192101,1302.362347
601.776617,-2368.659014,-12805.562797,995.924147
601.776944,-2368.659014,-12139.377449,612.876398
601.777272,-1850.514855,-10658.965565,536.266849
601.777599,-1184.329507,-10066.800811,229.828649
601.777927,-296.082377,-8068.244768,0.000000
601.778255,1406.391290,-6365.771101,-383.047749
601.778582,2368.659014,-6143.709319,383.047749
601.778910,2368.659014,-6291.750507,306.438199
601.779237,1480.411884,-7550.100608,919.314598
601.779565,0.000000,-8216.285956,1608.800546
601.779893,-2812.782580,-8956.491898,306.438199
601.780220,-3182.885551,-10214.842000,153.219100
601.780548,-4367.215058,-10881.027347,-536.266849
601.780876,-4071.132681,-11621.233289,229.828649
601.781203,-4145.153275,-10807.006753,-229.828649
601.781531,-3182.885551,-10362.883188,0.000000
601.781858,-3034.844362,-9696.697840,-1532.190996
601.782186,-740.205942,-7920.203579,-1378.971896
601.782514,1776.494261,-6661.853478,-1225.752797
601.782841,3478.967927,-6735.874072,0.000000
601.783169,3701.029710,-6735.874072,459.657299
601.783497,3108.864956,-8142.265362,1072.533697
601.783824,1998.556043,-8438.347739,689.485948
601.784152,888.247130,-9844.739029,459.657299
601.784479,222.061783,-10955.047942,766.095498
601.784807,0.000000,-11621.233289,1685.410096
601.785135,-444.123565,-11251.130318,536.266849
601.785462,-592.164754,-11177.109724,919.314598
601.785790,-962.267725,-10362.883188,459.657299
601.786117,-148.041188,-9178.553681,0.000000
601.786445,2516.700203,-7031.956449,153.219100
601.786773,3627.009116,-6291.750507,459.657299
601.787100,4145.153275,-5773.606348,1455.581446
601.787428,3627.009116,-6809.894666,1608.800546
601.787756,1702.473667,-8290.306550,1762.019645
601.788083,-296.082377,-9844.739029,1532.190996
601.788411,-1110.308913,-10955.047942,1225.752797
601.788738,-2294.638420,-11325.150913,1915.238745
601.789066,-3478.967927,-11843.295072,1685.410096
601.789394,-4219.173869,-11547.212695,1378.971896
601.789721,-4293.194464,-11843.295072,1455.581446
601.790049,-4811.338623,-9696.697840,76.609550
601.790376,-3552.988522,-7254.018232,-383.047749
601.790704,-962.267725,-6735.874072,-536.266849
601.791032,148.041188,-5551.544565,-383.047749
601.791359,1110.308913,-5403.503377,536.266849
601.791687,1332.370696,-5773.606348,306.438199
601.792015,-370.102971,-6291.750507,689.485948
601.792342,-1406.391290,-8808.450710,612.876398
601.792670,-2072.576638,-10140.821405,919.314598
601.792998,-2442.679609,-10881.027347,842.705048
601.793325,-2368.659014,-10658.965565,1302.362347
601.793653,-2146.597232,-10807.006753,766.095498
601.793981,-2294.638420,-11547.212695,536.266849
601.794309,-1998.556043,-10288.862594,-229.828649
601.794636,962.267725,-8216.285956,0.000000
601.794964,2960.823768,-7031.956449,0.000000
601.795292,4737.318029,-6513.812290,1072.533697
601.795619,4959.379811,-6809.894666,919.314598
601.795947,3923.091493,-8364.327145,1225.752797
601.796275,2368.659014,-9548.656652,1225.752797
601.796602,1258.350101,-9992.780217,995.924147
601.796930,592.164754,-11029.068536,1225.752797
601.797258,-814.226536,-12139.377449,689.485948
601.797585,-1184.329507,-12139.377449,766.095498
601.797913,-1776.494261,-11843.295072,995.924147
601.798241,-2738.761985,-11029.068536,0.000000
601.798568,-2516.700203,-9548.656652,-612.876398
601.798896,-592.164754,-8216.285956,0.000000
601.799224,296.082377,-7328.038826,-459.657299
601.799552,740.205942,-6587.832884,0.000000
601.799879,888.247130,-6883.915261,229.828649
601.800207,0.000000,-7328.038826,153.219100
601.800535,-1258.350101,-8364.327145,1072.533697
601.800862,-1924.535449,-9622.677246,76.609550
601.801190,-2146.597232,-10140.821405,689.485948
601.801518,-3182.885551,-10732.986159,229.828649
601.801845,-2812.782580,-10955.047942,306.438199
601.802173,-3256.906145,-10807.006753,-306.438199
601.802501,-2368.659014,-10288.862594,-459.657299
601.802828,-740.205942,-9030.512492,-689.485948
601.803156,1702.473667,-8068.244768,-229.828649
601.803484,2664.741391,-7254.018232,76.609550
601.803811,3256.906145,-7550.100608,766.095498
601.804139,2368.659014,-8882.471304,536.266849
601.804467,962.267725,-9030.512492,383.047749
601.804795,222.061783,-9252.574275,842.705048
601.805122,666.185348,-9400.615463,919.314598
601.805450,-296.082377,-9770.718434,995.924147
601.805778,592.164754,-10436.903782,1608.800546
601.806105,-296.082377,-10436.903782,1532.190996
601.806433,-518.144159,-10140.821405,1455.581446
601.806761,-518.144159,-8808.450710,919.314598
601.807088,1184.329507,-8512.368333,1225.752797
601.807416,1702.473667,-8882.471304,1149.143247
601.807744,1998.556043,-7328.038826,1378.971896
601.808071,1776.494261,-7476.080014,1685.410096
601.808399,1258.350101,-7772.162391,1838.629195
601.808727,-666.185348,-8364.327145,1072.533697
601.809055,-1184.329507,-8068.244768,1149.143247
601.809382,-1406.391290,-8808.450710,1149.143247
601.809710,-1554.432478,-8882.471304,995.924147
601.810038,-1776.494261,-8808.450710,1072.533697
601.810365,-2886.803174,-10066.800811,1302.362347
601.810693,-3923.091493,-9696.697840,1225.752797
601.811021,-3330.926739,-8438.347739,306.438199
601.811348,-2220.617826,-8290.306550,383.047749
601.811676,-1332.370696,-7550.100608,383.047749
601.812004,-962.267725,-6957.935855,612.876398
601.812331,-222.061783,-7179.997637,842.705048
601.812659,-1554.432478,-7179.997637,536.266849
601.812987,-814.226536,-7994.224174,766.095498
601.813314,-888.247130,-7994.224174,76.609550
601.813642,148.041188,-8734.430116,612.876398
601.813970,148.041188,-8808.450710,306.438199
601.814298,148.041188,-9844.739029,536.266849
601.814625,-296.082377,-10881.027347,766.095498
601.814953,-888.247130,-10436.903782,76.609550
601.815281,666.185348,-9992.780217,306.438199
601.815608,1554.432478,-10732.986159,459.657299
601.815936,1332.370696,-9992.780217,1072.533697
601.816264,1036.288319,-10732.986159,995.924147
601.816591,814.226536,-10658.965565,229.828649
601.816919,0.000000,-10955.047942,0.000000
601.817247,0.000000,-10658.965565,-306.438199
601.817574,148.041188,-11103.089130,-612.876398
601.817902,444.123565,-10881.027347,-306.438199
601.818230,1184.329507,-9696.697840,0.000000
601.818557,1258.350101,-9104.533087,76.609550
601.818885,740.205942,-9474.636058,0.000000
601.819213,370.102971,-9326.594869,-383.047749
601.819541,1110.308913,-9030.512492,689.485948
601.819868,1110.308913,-8364.327145,536.266849
601.820196,740.205942,-8882.471304,1225.752797
601.820524,-518.144159,-10214.842000,1225.752797
601.820851,-1554.432478,-11251.130318,1225.752797
601.821179,-2294.638420,-9992.780217,1149.143247
601.821507,-1480.411884,-9326.594869,536.266849
601.821834,-1036.288319,-9770.718434,459.657299
601.822162,-1406.391290,-10066.800811,612.876398
601.822490,-1258.350101,-10066.800811,766.095498
601.822817,-1258.350101,-8956.491898,459.657299
601.823145,-1628.453072,-8882.471304,383.047749
601.823473,-518.144159,-8216.285956,76.609550
601.823800,-148.041188,-8660.409521,612.876398
601.824128,-444.123565,-8734.430116,1072.533697
601.824456,-962.267725,-8068.244768,1302.362347
601.824784,-1110.308913,-8808.450710,1762.019645
601.825111,-1998.556043,-8882.471304,1072.533697
601.825439,-2294.638420,-9030.512492,612.876398
601.825767,-1110.308913,-8512.368333,1072.533697
601.826094,-592.164754,-7476.080014,1072.533697
601.826422,592.164754,-7105.977043,1378.971896
601.826750,296.082377,-7402.059420,1532.190996
601.827077,74.020594,-7402.059420,1149.143247
601.827405,0.000000,-6883.915261,766.095498
601.827733,1332.370696,-6365.771101,1072.533697
601.828060,2220.617826,-6883.915261,1915.238745
601.828388,1776.494261,-7254.018232,1532.190996
601.828716,1258.350101,-8364.327145,1762.019645
601.829044,-296.082377,-9178.553681,1532.190996
601.829371,-1036.288319,-8512.368333,995.924147
601.829699,-518.144159,-8438.347739,766.095498
601.830027,-444.123565,-9178.553681,76.609550
601.830354,-666.185348,-8512.368333,306.438199
601.830682,-814.226536,-7994.224174,0.000000
601.831010,-148.041188,-7994.224174,306.438199
601.831337,-592.164754,-7920.203579,0.000000
601.831665,296.082377,-7254.018232,536.266849
601.831993,370.102971,-7994.224174,459.657299
601.832320,296.082377,-8290.306550,766.095498
601.832648,-370.102971,-8808.450710,612.876398
601.832976,-962.267725,-9696.697840,766.095498
601.833303,-1776.494261,-10510.924376,0.000000
601.833631,-2368.659014,-9770.718434,-383.047749
601.833959,-2812.782580,-10066.800811,-842.705048
601.834287,-2516.700203,-9548.656652,-1149.143247
601.834614,-1332.370696,-9252.574275,-1302.362347
601.834942,-518.144159,-8290.306550,-1149.143247
601.835270,0.000000,-8882.471304,-1532.190996
601.835597,0.000000,-8882.471304,-1685.410096
601.835925,1258.350101,-9030.512492,-1149.143247
601.836253,2442.679609,-9548.656652,0.000000
601.836580,2368.659014,-9622.677246,536.266849
601.836908,2368.659014,-11843.295072,1378.971896
601.837236,518.144159,-12805.562797,1149.143247
601.837563,-1036.288319,-13101.645173,766.095498
601.837891,-1258.350101,-12361.439231,689.485948
601.838219,-296.082377,-11991.336260,689.485948
601.838546,814.226536,-10881.027347,995.924147
601.838874,1406.391290,-10140.821405,842.705048
601.839202,2738.761985,-9474.636058,1225.752797
601.839530,2442.679609,-9030.512492,1149.143247
601.839857,2812.782580,-8364.327145,1302.362347
601.840185,2886.803174,-8734.430116,1762.019645
601.840513,2590.720797,-9474.636058,2451.505594
601.840840,1036.288319,-9548.656652,2451.505594
601.841168,-1110.308913,-10362.883188,2451.505594
601.841496,-3108.864956,-11621.233289,1991.848295
601.841823,-5699.585753,-10881.027347,1302.362347
601.842151,-4811.338623,-11251.130318,995.924147
601.842479,-5107.421000,-10362.883188,229.828649
601.842806,-4515.256246,-9252.574275,153.219100
601.843134,-3034.844362,-8882.471304,459.657299
601.843462,-2664.741391,-7105.977043,0.000000
601.843789,-2368.659014,-6217.729913,-689.485948
601.844117,-518.144159,-5329.482782,0.000000
601.844445,0.000000,-5477.523971,306.438199
601.844773,-592.164754,-7105.977043,1302.362347
601.845100,-814.226536,-7476.080014,1608.800546
601.845428,-1998.556043,-8808.450710,2145.067394
601.845756,-3256.906145,-9178.553681,1149.143247
601.846083,-2812.782580,-9474.636058,153.219100
601.846411,-1554.432478,-9178.553681,383.047749
601.846739,-370.102971,-8364.327145,-153.219100
601.847066,1554.432478,-7179.997637,-76.609550
601.847394,2368.659014,-6587.832884,0.000000
601.847722,3404.947333,-7105.977043,153.219100
601.848049,3330.926739,-6513.812290,306.438199
601.848377,5551.544565,-7105.977043,1149.143247
601.848705,5107.421000,-7179.997637,1762.019645
601.849033,3701.029710,-7402.059420,2145.067394
601.849360,2072.576638,-9844.739029,2221.676944
601.849688,74.020594,-11251.130318,1762.019645
601.850016,-2812.782580,-11399.171507,689.485948
601.850343,-2368.659014,-11103.089130,919.314598
601.850671,-1924.535449,-10436.903782,-153.219100
601.850999,-2368.659014,-10140.821405,-383.047749
601.851326,-814.226536,-8808.450710,-689.485948
601.851654,-666.185348,-7624.121203,-1149.143247
601.851982,0.000000,-6883.915261,-1455.581446
601.852309,814.226536,-6365.771101,-995.924147
601.852637,1036.288319,-6587.832884,-612.876398
601.852965,296.082377,-6957.935855,-153.219100
601.853292,74.020594,-7698.141797,306.438199
601.853620,-1702.473667,-9326.594869,229.828649
601.853948,-3034.844362,-11029.068536,153.219100
601.854276,-4589.276840,-11547.212695,-306.438199
601.854603,-4071.132681,-11473.192101,0.000000
601.854931,-2368.659014,-11399.171507,-153.219100
601.855259,-1110.308913,-10881.027347,-229.828649
601.855586,592.164754,-9770.718434,-153.219100
601.855914,1776.494261,-8956.491898,76.609550
601.856242,2812.782580,-7402.059420,-229.828649
601.856569,4367.215058,-7254.018232,229.828649
601.856897,4737.318029,-8734.430116,1455.581446
601.857225,3775.050304,-9696.697840,1991.848295
601.857552,2072.576638,-10436.903782,2451.505594
601.857880,0.000000,-12213.398043,1915.238745
601.858208,-2516.700203,-12879.583391,1915.238745
601.858535,-3034.844362,-12731.542202,1455.581446
601.858863,-2738.761985,-12731.542202,1455.581446
601.859191,-2886.803174,-11029.068536,536.266849
601.859519,-1998.556043,-10066.800811,766.095498
601.859846,-1628.453072,-8142.265362,229.828649
601.860174,-740.205942,-6587.832884,-306.438199
601.860502,444.123565,-6143.709319,0.000000
601.860829,1332.370696,-5625.565159,995.924147
601.861157,1480.411884,-6217.729913,1149.143247
601.861485,518.144159,-7105.977043,2221.676944
601.861812,-888.247130,-9104.533087,2221.676944
601.862140,-2738.761985,-11251.130318,2145.067394
601.862468,-4663.297435,-11843.295072,1149.143247
601.862795,-4145.153275,-11843.295072,1762.019645
601.863123,-3997.112087,-11621.233289,995.924147
601.863451,-3627.009116,-10807.006753,459.657299
601.863778,-2146.597232,-9548.656652,153.219100
601.864106,-1184.329507,-8438.347739,-383.047749
601.864434,888.247130,-6439.791695,-919.314598
601.864762,2886.803174,-5551.544565,-919.314598
601.865089,4589.276840,-5847.626942,383.047749
601.865417,4219.173869,-6513.812290,536.266849
601.865745,3775.050304,-7402.059420,1608.800546
601.866072,1628.453072,-9178.553681,2221.676944
601.866400,-148.041188,-11621.233289,1685.410096
601.866728,-1702.473667,-12213.398043,1225.752797
601.867055,-2516.700203,-12065.356855,766.095498
601.867383,-2738.761985,-11917.315666,919.314598
601.867711,-1554.432478,-10807.006753,919.314598
601.868038,-962.267725,-9844.739029,306.438199
601.868366,-666.185348,-7476.080014,-536.266849
601.868694,1110.308913,-5773.606348,-995.924147
601.869022,3182.885551,-4589.276840,-612.876398
601.869349,3552.988522,-4441.235652,-229.828649
601.869677,3701.029710,-5107.421000,383.047749
601.870005,2812.782580,-7476.080014,995.924147
601.870332,74.020594,-9326.594869,919.314598
601.870660,-2368.659014,-10807.006753,459.657299
601.870988,-3923.091493,-11917.315666,153.219100
601.871315,-4219.173869,-12435.459826,-153.219100
601.871643,-4515.256246,-11695.253884,-153.219100
601.871971,-3108.864956,-10214.842000,-612.876398
601.872298,-1332.370696,-9400.615463,-306.438199
601.872626,-222.061783,-7254.018232,-1072.533697
601.872954,2294.638420,-6513.812290,-306.438199
601.873281,3256.906145,-5995.668130,0.000000
601.873609,3256.906145,-5403.503377,229.828649
601.873937,3404.947333,-6365.771101,1149.143247
601.874265,1702.473667,-7846.182985,1302.362347
601.874592,-444.123565,-9992.780217,1455.581446
601.874920,-1924.535449,-11769.274478,1225.752797
601.875248,-3256.906145,-11991.336260,689.485948
601.875575,-2812.782580,-12509.480420,1378.971896
601.875903,-3182.885551,-11695.253884,842.705048
601.876231,-1702.473667,-10436.903782,-153.219100
601.876558,-1480.411884,-9770.718434,0.000000
601.876886,0.000000,-7846.182985,-995.924147
601.877214,1554.432478,-6809.894666,-229.828649
601.877541,2812.782580,-6439.791695,153.219100
601.877869,2886.803174,-6439.791695,766.095498
601.878197,1628.453072,-7624.121203,1149.143247
601.878524,592.164754,-9474.636058,1378.971896
601.878852,-1998.556043,-10288.862594,1149.143247
601.879180,-2368.659014,-11029.068536,1072.533697
601.879508,-2886.803174,-11843.295072,842.705048
601.879835,-3256.906145,-11547.212695,1532.190996
601.880163,-2294.638420,-11251.130318,536.266849
601.880491,-1258.350101,-10436.903782,842.705048
601.880818,-592.164754,-8882.471304,76.609550
601.881146,1480.411884,-7254.018232,153.219100
601.881474,3182.885551,-6883.915261,766.095498
601.881801,4293.194464,-7105.977043,1455.581446
601.882129,4293.194464,-7328.038826,1762.019645
601.882457,2886.803174,-8512.368333,2145.067394
601.882784,222.061783,-9992.780217,2145.067394
601.883112,-1702.473667,-11769.274478,1302.362347
601.883440,-2294.638420,-12509.480420,1532.190996
601.883767,-2664.741391,-12953.603985,1532.190996
601.884095,-3034.844362,-12583.501014,1072.533697
601.884423,-2146.597232,-12065.356855,995.924147
601.884751,-2590.720797,-11621.233289,229.828649
601.885078,-2220.617826,-9474.636058,-306.438199
601.885406,222.061783,-7031.956449,-766.095498
601.885734,1480.411884,-6291.750507,-383.047749
601.886061,2812.782580,-5847.626942,383.047749
601.886389,2294.638420,-7105.977043,1225.752797
601.886717,814.226536,-7550.100608,1378.971896
601.887044,-1406.391290,-8438.347739,459.657299
601.887372,-2072.576638,-10066.800811,995.924147
601.887700,-3108.864956,-11325.150913,842.705048
601.888027,-3330.926739,-11843.295072,1072.533697
601.888355,-2886.803174,-10881.027347,919.314598
601.888683,-2442.679609,-9326.594869,306.438199
601.889011,-1554.432478,-9400.615463,0.000000
601.889338,-666.185348,-7994.224174,-689.485948
601.889666,1406.391290,-6661.853478,-612.876398
601.889994,3108.864956,-5699.585753,-229.828649
601.890321,3997.112087,-4663.297435,766.095498
601.890649,3775.050304,-6957.935855,1072.533697
601.890977,2220.617826,-8364.327145,1225.752797
601.891304,-888.247130,-9474.636058,459.657299
601.891632,-814.226536,-10584.944971,919.314598
601.891960,-1850.514855,-10881.027347,995.924147
601.892287,-2146.597232,-10881.027347,1455.581446
601.892615,-1628.453072,-10362.883188,536.266849
601.892943,-1998.556043,-9622.677246,229.828649
601.893270,-1480.411884,-7698.141797,-612.876398
601.893598,222.061783,-6143.709319,-1149.143247
601.893926,1184.329507,-5403.503377,-229.828649
601.894253,1776.494261,-5329.482782,0.000000
601.894581,2442.679609,-5255.462188,612.876398
601.894909,1628.453072,-6735.874072,306.438199
601.895237,0.000000,-7402.059420,842.705048
601.895564,-1480.411884,-8216.285956,689.485948
601.895892,-2294.638420,-9918.759623,229.828649
601.896220,-2368.659014,-10436.903782,229.828649
601.896547,-2960.823768,-10584.944971,229.828649
601.896875,-2072.576638,-10881.027347,383.047749
601.897203,-2442.679609,-9474.636058,-689.485948
601.897530,-1702.473667,-9474.636058,-612.876398
601.897858,0.000000,-8364.327145,-536.266849
601.898186,1554.432478,-7031.956449,0.000000
601.898513,2738.761985,-6365.771101,76.609550
601.898841,3775.050304,-7402.059420,1225.752797
601.899169,1924.535449,-8586.388927,1455.581446
601.899496,814.226536,-9474.636058,1302.362347
601.899824,-370.102971,-10807.006753,1378.971896
601.900152,-740.205942,-11695.253884,1532.190996
601.900479,-1258.350101,-12583.501014,2068.457845
601.900807,-1776.494261,-11843.295072,1915.238745
601.901135,-1924.535449,-11843.295072,1225.752797
601.901462,-2368.659014,-10732.986159,229.828649
601.901790,-370.102971,-8512.368333,0.000000
601.902118,1702.473667,-8068.244768,0.000000
601.902445,2812.782580,-7031.956449,612.876398
601.902773,3404.947333,-6809.894666,766.095498
601.903101,2812.782580,-7846.182985,1455.581446
601.903428,740.205942,-8882.471304,1225.752797
601.903756,-962.267725,-10140.821405,919.314598
601.904084,-1776.494261,-11843.295072,919.314598
601.904411,-2664.741391,-12287.418637,1532.190996
601.904739,-3404.947333,-12213.398043,995.924147
601.905067,-3404.947333,-12583.501014,1149.143247
601.905395,-3997.112087,-12287.418637,689.485948
601.905722,-4367.215058,-10510.924376,383.047749
601.906050,-1406.391290,-9178.553681,-306.438199
601.906378,296.082377,-7846.182985,-306.438199
601.906705,1702.473667,-7105.977043,0.000000
601.907033,1924.535449,-6809.894666,0.000000
601.907361,1554.432478,-7772.162391,0.000000
601.907688,0.000000,-8068.244768,0.000000
601.908016,74.020594,-9104.533087,0.000000
601.908344,-962.267725,-10362.883188,459.657299
601.908671,-1258.350101,-11325.150913,919.314598
601.908999,-1702.473667,-11843.295072,1072.533697
601.909327,-962.267725,-10584.944971,1225.752797
601.909654,-962.267725,-10881.027347,766.095498
601.909982,0.000000,-9474.636058,383.047749
601.910310,1554.432478,-8438.347739,0.000000
601.910637,2072.576638,-7550.100608,612.876398
601.910965,3108.864956,-6069.688724,1072.533697
601.911293,3404.947333,-6735.874072,1072.533697
601.911620,2072.576638,-7105.977043,689.485948
601.911948,1110.308913,-8142.265362,459.657299
601.912276,370.102971,-9252.574275,995.924147
601.912603,222.061783,-9400.615463,1762.019645
601.912931,-666.185348,-9474.636058,1072.533697
601.913259,-740.205942,-10436.903782,1532.190996
601.913586,-2220.617826,-10436.903782,919.314598
601.913914,-2368.659014,-9622.677246,383.047749
601.914242,-1998.556043,-7550.100608,0.000000
601.914569,-444.123565,-6439.791695,76.609550
601.914897,-666.185348,-6513.812290,0.000000
601.915225,-222.061783,-5921.647536,0.000000
601.915553,-1184.329507,-6513.812290,0.000000
601.915880,-2072.576638,-6957.935855,-153.219100
601.916208,-1998.556043,-7550.100608,-459.657299
601.916536,-1406.391290,-8068.244768,76.609550
601.916863,-1554.432478,-8438.347739,229.828649
601.917191,-1480.411884,-9252.574275,612.876398
601.917519,-1332.370696,-9770.718434,1149.143247
601.917846,-1628.453072,-9622.677246,536.266849
601.918174,-1554.432478,-9030.512492,612.876398
601.918502,518.144159,-8808.450710,612.876398
601.918829,1184.329507,-8364.327145,383.047749
601.919157,1480.411884,-8364.327145,766.095498
601.919485,1554.432478,-7994.224174,1149.143247
601.919812,1258.350101,-8882.471304,919.314598
601.920140,592.164754,-8734.430116,536.266849
601.920468,962.267725,-9030.512492,536.266849
601.920795,1554.432478,-9622.677246,612.876398
601.921123,962.267725,-9696.697840,689.485948
601.921451,518.144159,-9918.759623,1532.190996
601.921778,518.144159,-10066.800811,995.924147
601.922106,-666.185348,-9622.677246,383.047749
601.922434,-518.144159,-9622.677246,306.438199
601.922761,0.000000,-9770.718434,766.095498
601.923089,0.000000,-8956.491898,1149.143247
601.923417,-148.041188,-9326.594869,919.314598
601.923744,-592.164754,-9992.780217,995.924147
601.924072,-1850.514855,-9474.636058,306.438199
601.924400,-1850.514855,-9474.636058,-229.828649
601.924727,-1036.288319,-9030.512492,383.047749
601.925055,-1554.432478,-9030.512492,-383.047749
601.925383,-1406.391290,-9474.636058,153.219100
601.925711,-888.247130,-9622.677246,229.828649
601.926038,-888.247130,-10362.883188,689.485948
601.926366,-814.226536,-10066.800811,536.266849
601.926694,-296.082377,-10362.883188,689.485948
601.927021,0.000000,-10658.965565,1225.752797
601.927349,-666.185348,-10140.821405,919.314598
601.927677,0.000000,-10214.842000,1302.362347
601.928004,0.000000,-10807.006753,1302.362347
601.928332,-814.226536,-9992.780217,1225.752797
601.928660,-296.082377,-9844.739029,459.657299
601.928987,74.020594,-10362.883188,459.657299
601.929315,222.061783,-9104.533087,842.705048
601.929643,370.102971,-9400.615463,919.314598
601.929970,1184.329507,-9252.574275,1455.581446
601.930298,0.000000,-8882.471304,689.485948
601.930626,296.082377,-9252.574275,842.705048
601.930953,740.205942,-8808.450710,919.314598
601.931281,888.247130,-8660.409521,1532.190996
601.931609,1332.370696,-8364.327145,1225.752797
601.931936,518.144159,-9400.615463,1378.971896
601.932264,-148.041188,-9400.615463,1225.752797
601.932592,-1628.453072,-8956.491898,766.095498
601.932919,-1258.350101,-8808.450710,306.438199
601.933247,-1036.288319,-8438.347739,153.219100
601.933575,-814.226536,-7402.059420,0.000000
601.933902,-666.185348,-7476.080014,306.438199
601.934230,-962.267725,-8660.409521,383.047749
601.934558,-1628.453072,-8216.285956,0.000000
601.934885,-370.102971,-7698.141797,842.705048
601.935213,148.041188,-7994.224174,612.876398
601.935541,0.000000,-7994.224174,995.924147
601.935869,-222.061783,-8290.306550,1072.533697
601.936196,-888.247130,-9474.636058,1302.362347
601.936524,-2368.659014,-9400.615463,383.047749
601.936852,-2368.659014,-8956.491898,306.438199
601.937179,-1850.514855,-9474.636058,76.609550
601.937507,-1258.350101,-9252.574275,0.000000
601.937835,-518.144159,-8512.368333,0.000000
601.938162,0.000000,-8364.327145,0.000000
601.938490,666.185348,-7550.100608,229.828649
601.938818,592.164754,-7772.162391,-153.219100
601.939145,1924.535449,-8216.285956,229.828649
601.939473,1998.556043,-8290.306550,459.657299
601.939801,1554.432478,-8512.368333,689.485948
601.940128,1258.350101,-9178.553681,1225.752797
601.940456,-222.061783,-10140.821405,612.876398
601.940784,-1628.453072,-10436.903782,-229.828649
601.941111,-1480.411884,-10510.924376,-842.705048
601.941439,-444.123565,-10214.842000,-229.828649
601.941767,-296.082377,-9326.594869,-383.047749
601.942094,1110.308913,-9326.594869,383.047749
601.942422,370.102971,-9622.677246,383.047749
601.942750,0.000000,-8290.306550,0.000000
601.943077,1406.391290,-7550.100608,306.438199
601.943405,2072.576638,-7550.100608,229.828649
601.943733,2220.617826,-8290.306550,1302.362347
601.944060,666.185348,-8512.368333,1455.581446
601.944388,-888.247130,-9992.780217,1455.581446
601.944716,-2516.700203,-10732.986159,766.095498
601.945043,-3330.926739,-10955.047942,229.828649
601.945371,-2368.659014,-10658.965565,0.000000
601.945699,-2368.659014,-10881.027347,76.609550
601.946027,-1702.473667,-9992.780217,76.609550
601.946354,-814.226536,-9770.718434,459.657299
601.946682,0.000000,-9030.512492,383.047749
601.947010,370.102971,-7476.080014,536.266849
601.947337,1406.391290,-7624.121203,919.314598
601.947665,2146.597232,-8216.285956,1072.533697
601.947993,962.267725,-8660.409521,1302.362347
601.948320,0.000000,-9474.636058,1991.848295
601.948648,-1702.473667,-10214.842000,1532.190996
601.948976,-2590.720797,-10807.006753,612.876398
601.949303,-2886.803174,-10436.903782,689.485948
601.949631,-1628.453072,-9918.759623,689.485948
601.949959,0.000000,-9252.574275,1378.971896
601.950286,1998.556043,-7994.224174,2068.457845
601.950614,2960.823768,-7476.080014,2221.676944
601.950942,3552.988522,-6957.935855,2987.772442
601.951269,3701.029710,-6735.874072,2911.162892
601.951597,3478.967927,-7624.121203,3370.820191
601.951925,1998.556043,-8586.388927,4060.306139
601.952252,74.020594,-9400.615463,3907.087040
601.952580,-1332.370696,-10881.027347,3983.696590
601.952908,-2442.679609,-11399.171507,3830.477490
601.953235,-3701.029710,-10807.006753,2834.553343
601.953563,-2590.720797,-10658.965565,3294.210641
601.953891,-1332.370696,-9400.615463,3370.820191
601.954218,-1480.411884,-8290.306550,3600.648841
601.954546,-1554.432478,-8216.285956,2681.334243
601.954874,-2442.679609,-8142.265362,1991.848295
601.955201,-2960.823768,-7179.997637,1149.143247
601.955529,-2590.720797,-6513.812290,919.314598
601.955857,-1702.473667,-6513.812290,1225.752797
601.956185,0.000000,-6735.874072,2528.115143
601.956512,740.205942,-7105.977043,3524.039291
601.956840,370.102971,-8438.347739,4136.915689
601.957168,-1332.370696,-9696.697840,3677.258390
601.957495,-4071.132681,-10584.944971,2528.115143
601.957823,-5107.421000,-12583.501014,1072.533697
601.958151,-4737.318029,-11917.315666,842.705048
601.958478,-1702.473667,-9992.780217,1378.971896
601.958806,1628.453072,-8660.409521,2221.676944
601.959134,4071.132681,-8068.244768,2911.162892
601.959461,5625.565159,-7476.080014,2987.772442
601.959789,4589.276840,-7402.059420,2528.115143
601.960117,4071.132681,-7994.224174,2987.772442
601.960444,4145.153275,-8512.368333,2987.772442
601.960772,3923.091493,-10140.821405,3677.258390
601.961100,3256.906145,-11843.295072,5439.278036
601.961427,1850.514855,-12583.501014,5898.935335
601.961755,1036.288319,-12731.542202,6281.983084
601.962083,-1850.514855,-12435.459826,5209.449386
601.962410,-3034.844362,-12731.542202,4749.792088
601.962738,-3701.029710,-10955.047942,3294.210641
601.963066,-2886.803174,-9030.512492,2834.553343
601.963393,-2886.803174,-8216.285956,1685.410096
601.963721,-2738.761985,-7179.997637,1608.800546
601.964049,-2146.597232,-5921.647536,1532.190996
601.964376,-2146.597232,-4663.297435,1149.143247
601.964704,-1480.411884,-5699.585753,1149.143247
601.965032,-962.267725,-6217.729913,1762.019645
601.965359,-740.205942,-7254.018232,3140.991542
601.965687,-740.205942,-8586.388927,4136.915689
601.966015,-1110.308913,-9770.718434,5362.668486
601.966342,-1850.514855,-11769.274478,5056.230287
601.966670,-1628.453072,-11399.171507,5515.887586
601.966998,-1332.370696,-10955.047942,4979.620737
601.967326,-444.123565,-10955.047942,5362.668486
601.967653,222.061783,-9844.739029,5515.887586
601.967981,1924.535449,-7920.203579,4979.620737
601.968309,3552.988522,-7624.121203,4673.182538
601.968636,3404.947333,-7624.121203,4443.353888
601.968964,2442.679609,-7179.997637,3447.429741
601.969292,1850.514855,-7105.977043,2757.943793
601.969619,1924.535449,-7994.224174,2757.943793
601.969947,1776.494261,-8586.388927,3524.039291
601.970275,1258.350101,-9696.697840,4290.134789
601.970602,1406.391290,-9252.574275,4903.011187
601.970930,1332.370696,-10140.821405,5898.935335
601.971258,-814.226536,-10140.821405,5822.325785
601.971585,-3775.050304,-11029.068536,4673.182538
601.971913,-4589.276840,-10510.924376,3907.087040
601.972241,-4959.379811,-9474.636058,2911.162892
601.972568,-4737.318029,-8586.388927,1991.848295
601.972896,-4145.153275,-7476.080014,2451.505594
601.973224,-2738.761985,-7328.038826,1685.410096
601.973551,-1480.411884,-6143.709319,1532.190996
601.973879,-814.226536,-5551.544565,995.924147
601.974207,-518.144159,-6735.874072,536.266849
601.974534,-1776.494261,-8438.347739,306.438199
601.974862,-2442.679609,-9844.739029,153.219100
601.975190,-1850.514855,-10140.821405,612.876398
601.975517,74.020594,-10584.944971,1685.410096
601.975845,1776.494261,-10732.986159,3140.991542
601.976173,3182.885551,-11473.192101,4213.525239
601.976500,4071.132681,-11473.192101,5209.449386
601.976828,5033.400406,-10732.986159,5745.716235
601.977156,4737.318029,-10510.924376,5592.497135
601.977484,4071.132681,-10807.006753,5132.839837
601.977811,3182.885551,-11325.150913,4596.572988
601.978139,3256.906145,-10436.903782,4903.011187
601.978467,3849.070898,-9770.718434,4826.401637
601.978794,2368.659014,-9474.636058,4903.011187
601.979122,2220.617826,-9992.780217,4519.963438
601.979450,1036.288319,-9474.636058,4136.915689
601.979777,-888.247130,-10140.821405,3294.210641
601.980105,-1332.370696,-9474.636058,2681.334243
601.980433,-1480.411884,-9252.574275,2987.772442
601.980760,-3478.967927,-10436.903782,2911.162892
601.981088,-5181.441594,-10584.944971,2604.724693
601.981416,-7254.018232,-10807.006753,2145.067394
601.981743,-7031.956449,-9030.512492,1455.581446
601.982071,-5625.565159,-7550.100608,1608.800546
601.982399,-4589.276840,-7031.956449,1532.190996
601.982726,-3034.844362,-6439.791695,1302.362347
601.983054,-2664.741391,-6291.750507,1608.800546
601.983382,-2072.576638,-5551.544565,1532.190996
601.983709,74.020594,-5773.606348,2298.286494
601.984037,2516.700203,-6883.915261,3524.039291
601.984365,3701.029710,-8438.347739,4519.963438
601.984692,3330.926739,-10140.821405,5132.839837
601.985020,1924.535449,-11473.192101,5515.887586
601.985348,2072.576638,-11991.336260,5209.449386
601.985675,2516.700203,-11473.192101,5515.887586
601.986003,4219.173869,-10881.027347,5592.497135
601.986331,4293.194464,-11177.109724,5669.106685
601.986658,3404.947333,-10807.006753,5286.058936
601.986986,1702.473667,-10288.862594,4366.744339
601.987314,1332.370696,-9474.636058,4519.963438
601.987642,1776.494261,-8216.285956,3217.601092
601.987969,0.000000,-7550.100608,4443.353888
601.988297,814.226536,-7105.977043,3217.601092
601.988625,-1554.432478,-8290.306550,4290.134789
601.988952,-4293.194464,-8216.285956,2834.553343
601.989280,-5255.462188,-8142.265362,2068.457845
601.989608,-5995.668130,-8438.347739,2068.457845
601.989935,-4885.359217,-7846.182985,1532.190996
601.990263,-3256.906145,-7624.121203,2221.676944
601.990591,-2368.659014,-7105.977043,2834.553343
601.990918,-2294.638420,-6661.853478,2681.334243
601.991246,-1998.556043,-7254.018232,2451.505594
601.991574,-2368.659014,-7254.018232,1455.581446
601.991901,-1480.411884,-7105.977043,1149.143247
601.992229,-296.082377,-7624.121203,1532.190996
601.992556,1480.411884,-7846.182985,2604.724693
601.992884,3256.906145,-8364.327145,4213.525239
601.993211,3849.070898,-9918.759623,5362.668486
601.993539,3552.988522,-11177.109724,5286.058936
601.993866,2960.823768,-12213.398043,4366.744339
601.994194,1036.288319,-12435.459826,3907.087040
601.994521,370.102971,-12805.562797,3753.867940
601.994849,1258.350101,-12361.439231,3983.696590
601.995176,2368.659014,-11325.150913,4749.792088
601.995504,3256.906145,-10140.821405,5132.839837
601.995831,3404.947333,-9844.739029,5822.325785
601.996159,370.102971,-9400.615463,3753.867940
601.996486,-2368.659014,-9474.636058,3064.381992
601.996814,-3552.988522,-8216.285956,1915.238745
601.997141,-4589.276840,-8586.388927,1608.800546
601.997469,-2664.741391,-7698.141797,1915.238745
601.997797,-740.205942,-7105.977043,2528.115143
601.998124,-148.041188,-7105.977043,3983.696590
601.998452,0.000000,-7328.038826,4290.134789
601.998779,-1776.494261,-7994.224174,4136.915689
601.999107,-3404.947333,-9104.533087,3370.820191
601.999434,-3849.070898,-9844.739029,1838.629195
601.999762,-4293.194464,-10214.842000,1838.629195
602.000089,-3182.885551,-9992.780217,1762.019645
602.000417,-1110.308913,-9400.615463,2757.943793
602.000744,888.247130,-8660.409521,3447.429741
602.001072,1998.556043,-8512.368333,3753.867940
602.001399,1998.556043,-9030.512492,3447.429741
602.001727,1258.350101,-9400.615463,2834.553343
602.002054,222.061783,-9918.759623,2451.505594
602.002382,148.041188,-9770.718434,2911.162892
602.002709,740.205942,-10066.800811,3524.039291
602.003037,1480.411884,-10214.842000,3907.087040
602.003365,1480.411884,-10214.842000,4366.744339
602.003692,740.205942,-9622.677246,4136.915689
602.004020,148.041188,-9252.574275,4136.915689
602.004347,0.000000,-9104.533087,2834.553343
602.004675,0.000000,-8734.430116,3294.210641
602.005002,962.267725,-7624.121203,2757.943793
602.005330,222.061783,-7328.038826,3830.477490
602.005657,1924.535449,-6809.894666,3294.210641
602.005985,1850.514855,-7105.977043,3600.648841
602.006312,888.247130,-7624.121203,3830.477490
602.006640,370.102971,-8290.306550,3447.429741
602.006967,-666.185348,-9178.553681,3753.867940
602.007295,-888.247130,-9252.574275,3753.867940
602.007622,-592.164754,-9992.780217,3753.867940
602.007950,-1036.288319,-9844.739029,3907.087040
602.008277,-1036.288319,-9474.636058,3447.429741
602.008605,-1406.391290,-9252.574275,3600.648841
602.008933,-1258.350101,-8956.491898,2681.334243
602.009260,-1480.411884,-8364.327145,2604.724693
602.009588,-1998.556043,-7846.182985,2298.286494
602.009915,-1850.514855,-8068.244768,2145.067394
602.010243,-1628.453072,-8142.265362,2374.896044
602.010570,-1184.329507,-8068.244768,2757.943793
602.010898,-740.205942,-8068.244768,2911.162892
602.011225,0.000000,-8438.347739,3140.991542
602.011553,-296.082377,-8956.491898,3447.429741
602.011880,-148.041188,-9696.697840,3524.039291
602.012208,-148.041188,-9918.759623,3907.087040
602.012535,-518.144159,-9844.739029,3753.867940
602.012863,-296.082377,-9622.677246,3600.648841
602.013190,-148.041188,-9696.697840,3524.039291
602.013518,592.164754,-9474.636058,3140.991542
602.013845,592.164754,-9252.574275,2604.724693
602.014173,888.247130,-9474.636058,3064.381992
602.014501,1406.391290,-9400.615463,3140.991542
602.014828,74.020594,-10140.821405,2451.505594
602.015156,0.000000,-9918.759623,2451.505594
602.015483,-518.144159,-10066.800811,2298.286494
602.015811,-666.185348,-9844.739029,2145.067394
602.016138,-518.144159,-9992.780217,2221.676944
602.016466,0.000000,-9622.677246,2145.067394
602.016793,-1036.288319,-9622.677246,1838.629195
602.017121,-1258.350101,-9548.656652,1838.629195
602.017448,-1702.473667,-9548.656652,1608.800546
602.017776,-1554.432478,-9178.553681,995.924147
602.018103,-740.205942,-8142.265362,1455.581446
602.018431,-296.082377,-7994.224174,1302.362347
602.018758,296.082377,-7624.121203,1149.143247
602.019086,740.205942,-8068.244768,1149.143247
602.019413,444.123565,-8438.347739,1378.971896
602.019741,0.000000,-8808.450710,1532.190996
602.020068,-222.061783,-9178.553681,1072.533697
602.020396,-222.061783,-10066.800811,1072.533697
602.020724,148.041188,-10288.862594,1532.190996
602.021051,962.267725,-10436.903782,1838.629195
602.021379,1702.473667,-10140.821405,2221.676944
602.021706,1924.535449,-10140.821405,2298.286494
602.022034,1258.350101,-10140.821405,1915.238745
602.022361,370.102971,-9918.759623,1608.800546
602.022689,0.000000,-9844.739029,1455.581446
602.023016,0.000000,-8956.491898,1302.362347
602.023344,-814.226536,-9030.512492,995.924147
602.023671,-444.123565,-8438.347739,919.314598
602.023999,-592.164754,-8290.306550,1072.533697
602.024326,-592.164754,-7920.203579,842.705048
602.024654,-444.123565,-7772.162391,995.924147
602.024981,-1184.329507,-7550.100608,995.924147
602.025309,-1110.308913,-7698.141797,383.047749
602.025636,-1036.288319,-7772.162391,536.266849
602.025964,-1036.288319,-7624.121203,459.657299
602.026292,-740.205942,-8290.306550,306.438199
602.026619,-444.123565,-8216.285956,1302.362347
602.026947,-666.185348,-8882.471304,1072.533697
602.027274,-518.144159,-8956.491898,1149.143247
602.027602,-518.144159,-9326.594869,919.314598
602.027929,-518.144159,-9326.594869,1072.533697
602.028257,74.020594,-9326.594869,1225.752797
602.028584,518.144159,-9252.574275,612.876398
602.028912,148.041188,-9252.574275,766.095498
602.029239,0.000000,-9548.656652,1225.752797
602.029567,0.000000,-9548.656652,1149.143247
602.029894,74.020594,-9622.677246,1378.971896
602.030222,0.000000,-9474.636058,1225.752797
602.030549,-148.041188,-9474.636058,842.705048
602.030877,-370.102971,-9178.553681,689.485948
602.031204,-518.144159,-8808.450710,766.095498
602.031532,-148.041188,-8734.430116,995.924147
602.031860,0.000000,-8956.491898,919.314598
602.032187,-444.123565,-8586.388927,919.314598
602.032515,-518.144159,-8734.430116,689.485948
602.032842,-740.205942,-8660.409521,383.047749
602.033170,-1184.329507,-8808.450710,383.047749
602.033497,-814.226536,-9178.553681,306.438199
602.033825,-814.226536,-9474.636058,383.047749
602.034152,-740.205942,-9474.636058,459.657299
602.034480,-222.061783,-9474.636058,536.266849
602.034807,-148.041188,-9770.718434,536.266849
602.035135,148.041188,-9844.739029,0.000000
602.035462,0.000000,-9696.697840,0.000000
602.035790,0.000000,-10140.821405,383.047749
602.036117,-370.102971,-9992.780217,459.657299
602.036445,-148.041188,-10288.862594,459.657299
602.036772,0.000000,-10140.821405,919.314598
602.037100,222.061783,-9696.697840,995.924147
602.037428,222.061783,-9696.697840,689.485948
602.037755,370.102971,-9548.656652,306.438199
602.038083,296.082377,-9400.615463,459.657299
602.038410,740.205942,-9178.553681,229.828649
602.038738,222.061783,-8882.471304,153.219100
602.039065,0.000000,-8956.491898,612.876398
602.039393,-222.061783,-9252.574275,536.266849
602.039720,-222.061783,-9030.512492,766.095498
602.040048,0.000000,-8956.491898,612.876398
602.040375,0.000000,-8512.368333,383.047749
602.040703,222.061783,-8660.409521,536.266849
602.041030,74.020594,-8660.409521,153.219100
602.041358,0.000000,-8364.327145,383.047749
602.041685,-296.082377,-8586.388927,383.047749
602.042013,-370.102971,-9030.512492,612.876398
602.042340,-666.185348,-8956.491898,536.266849
602.042668,-814.226536,-9030.512492,459.657299
602.042995,-888.247130,-9400.615463,229.828649
602.043323,-740.205942,-9178.553681,459.657299
602.043651,-814.226536,-9178.553681,459.657299
602.043978,-740.205942,-8290.306550,383.047749
602.044306,-666.185348,-8438.347739,306.438199
602.044633,-518.144159,-8512.368333,306.438199
602.044961,-518.144159,-8142.265362,383.047749
602.045288,-592.164754,-8290.306550,842.705048
602.045616,-888.247130,-8290.306550,919.314598
602.045943,-814.226536,-9030.512492,766.095498
602.046271,-740.205942,-9178.553681,842.705048
602.046598,-740.205942,-9030.512492,689.485948
602.046926,-444.123565,-8956.491898,689.485948
602.047253,-296.082377,-8586.388927,153.219100
602.047581,-296.082377,-8734.430116,459.657299
602.047908,-222.061783,-8882.471304,383.047749
602.048236,-444.123565,-9104.533087,612.876398
602.048563,-370.102971,-9474.636058,536.266849
602.048891,-444.123565,-9400.615463,536.266849
602.049219,-518.144159,-9178.553681,612.876398
602.049546,0.000000,-9622.677246,536.266849
602.049874,0.000000,-9548.656652,306.438199
602.050201,-148.041188,-9252.574275,306.438199
602.050529,74.020594,-9400.615463,229.828649
602.050856,0.000000,-9104.533087,919.314598
602.051184,-370.102971,-9400.615463,689.485948
602.051511,-444.123565,-9622.677246,766.095498
602.051839,-592.164754,-9474.636058,383.047749
602.052166,0.000000,-9622.677246,919.314598
602.052494,-222.061783,-9474.636058,612.876398
602.052821,-296.082377,-8956.491898,459.657299
602.053149,0.000000,-8956.491898,383.047749
602.053476,0.000000,-8956.491898,229.828649
602.053804,-148.041188,-9104.533087,229.828649
602.054131,-518.144159,-9030.512492,1072.533697
602.054459,-222.061783,-9548.656652,536.266849
602.054787,-592.164754,-9844.739029,842.705048
602.055114,-518.144159,-9696.697840,842.705048
602.055442,-148.041188,-9696.697840,612.876398
602.055769,0.000000,-9178.553681,766.095498
602.056097,-296.082377,-8808.450710,306.438199
602.056424,-740.205942,-8660.409521,612.876398
602.056752,-1036.288319,-8808.450710,612.876398
602.057079,-1110.308913,-8956.491898,536.266849
602.057407,-1110.308913,-9104.533087,383.047749
602.057734,-740.205942,-8882.471304,995.924147
602.058062,-592.164754,-8808.450710,842.705048
602.058389,-148.041188,-8808.450710,689.485948
602.058717,296.082377,-8660.409521,766.095498
602.059044,740.205942,-8216.285956,689.485948
602.059372,518.144159,-8068.244768,306.438199
602.059699,0.000000,-8660.409521,612.876398
602.060027,-222.061783,-9548.656652,919.314598
602.060355,-518.144159,-10066.800811,1225.752797
602.060682,-444.123565,-10066.800811,1378.971896
602.061010,148.041188,-9622.677246,995.924147
602.061337,148.041188,-9104.533087,612.876398
602.061665,740.205942,-8808.450710,612.876398
602.061992,814.226536,-8068.244768,0.000000
602.062320,666.185348,-7772.162391,0.000000
602.062647,296.082377,-7698.141797,383.047749
602.062975,-296.082377,-8216.285956,153.219100
602.063302,-740.205942,-9178.553681,153.219100
602.063630,-740.205942,-9400.615463,459.657299
602.063957,-370.102971,-9474.636058,459.657299
602.064285,-148.041188,-9400.615463,459.657299
602.064612,148.041188,-9030.512492,536.266849
602.064940,296.082377,-8142.265362,153.219100
602.065267,444.123565,-8290.306550,76.609550
602.065595,444.123565,-8364.327145,76.609550
602.065923,0.000000,-9030.512492,306.438199
602.066250,-370.102971,-9326.594869,306.438199
602.066578,-666.185348,-9474.636058,842.705048
602.066905,-592.164754,-9918.759623,612.876398
602.067233,-1036.288319,-9622.677246,536.266849
602.067560,-518.144159,-9400.615463,536.266849
602.067888,296.082377,-9030.512492,536.266849
602.068215,148.041188,-8586.388927,306.438199
602.068543,296.082377,-8882.471304,383.047749
602.068870,222.061783,-9326.594869,536.266849
602.069198,0.000000,-9770.718434,612.876398
602.069525,0.000000,-10288.862594,1532.190996
602.069853,0.000000,-10214.842000,842.705048
602.070180,-740.205942,-10214.842000,919.314598
602.070508,-518.144159,-9770.718434,689.485948
602.070835,-222.061783,-9326.594869,689.485948
602.071163,0.000000,-8660.409521,612.876398
602.071490,0.000000,-8290.306550,612.876398
602.071818,-370.102971,-8956.491898,383.047749
602.072146,-592.164754,-8956.491898,383.047749
602.072473,-962.267725,-9474.636058,766.095498
602.072801,-962.267725,-9622.677246,689.485948
602.073128,-222.061783,-9474.636058,459.657299
602.073456,-370.102971,-9548.656652,689.485948
602.073783,-296.082377,-9474.636058,306.438199
602.074111,-148.041188,-9400.615463,536.266849
602.074438,0.000000,-9178.553681,459.657299
602.074766,0.000000,-9474.636058,383.047749
602.075093,-370.102971,-9474.636058,612.876398
602.075421,-518.144159,-9696.697840,842.705048
602.075748,-740.205942,-9770.718434,1072.533697
602.076076,-814.226536,-9548.656652,766.095498
602.076403,-814.226536,-9474.636058,229.828649
602.076731,-666.185348,-9178.553681,536.266849
602.077058,-518.144159,-8512.368333,383.047749
602.077386,-518.144159,-8438.347739,383.047749
602.077714,-444.123565,-8438.347739,306.438199
602.078041,-518.144159,-8660.409521,842.705048
602.078369,-888.247130,-8512.368333,766.095498
602.078696,-518.144159,-8512.368333,536.266849
602.079024,-888.247130,-8808.450710,689.485948
602.079351,-888.247130,-9030.512492,536.266849
602.079679,-666.185348,-9104.533087,536.266849
602.080006,-444.123565,-8438.347739,919.314598
602.080334,-222.061783,-8512.368333,459.657299
602.080661,-370.102971,-8734.430116,383.047749
602.080989,-296.082377,-8956.491898,842.705048
602.081316,-814.226536,-8438.347739,689.485948
602.081644,-666.185348,-8290.306550,536.266849
602.081971,-296.082377,-9030.512492,536.266849
602.082299,-370.102971,-8956.491898,306.438199
602.082626,0.000000,-9252.574275,459.657299
602.082954,0.000000,-8808.450710,459.657299
602.083282,222.061783,-9104.533087,612.876398
602.083609,370.102971,-8734.430116,229.828649
602.083937,0.000000,-8956.491898,459.657299
602.084264,0.000000,-9030.512492,459.657299
602.084592,296.082377,-9252.574275,536.266849
602.084919,0.000000,-8808.450710,612.876398
602.085247,0.000000,-9030.512492,459.657299
602.085574,0.000000,-9400.615463,536.266849
602.085902,-370.102971,-8956.491898,0.000000
602.086229,0.000000,-8882.471304,383.047749
602.086557,-444.123565,-8734.430116,383.047749
602.086884,0.000000,-9326.594869,0.000000
602.087212,-444.123565,-8586.388927,383.047749
602.087539,0.000000,-9104.533087,76.609550
602.087867,-444.123565,-9178.553681,536.266849
602.088194,-296.082377,-9400.615463,766.095498
602.088522,-148.041188,-9326.594869,383.047749
602.088850,148.041188,-9548.656652,383.047749
602.089177,-296.082377,-9548.656652,536.266849
602.089505,0.000000,-9474.636058,536.266849
602.089832,-222.061783,-9400.615463,766.095498
602.090160,74.020594,-9104.533087,1302.362347
602.090487,148.041188,-8882.471304,536.266849
602.090815,-222.061783,-9326.594869,842.705048
602.091142,-296.082377,-9030.512492,536.266849
602.091470,0.000000,-9252.574275,919.314598
602.091797,-148.041188,-9326.594869,383.047749
602.092125,0.000000,-9252.574275,766.095498
602.092452,0.000000,-9474.636058,766.095498
602.092780,0.000000,-9474.636058,995.924147
602.093107,-222.061783,-9622.677246,612.876398
602.093435,-148.041188,-9400.615463,689.485948
602.093762,0.000000,-9474.636058,766.095498
602.094090,74.020594,-9400.615463,459.657299
602.094418,74.020594,-9326.594869,612.876398
602.094745,0.000000,-9030.512492,612.876398
602.095073,74.020594,-9104.533087,306.438199
602.095400,444.123565,-8808.450710,306.438199
602.095728,0.000000,-8956.491898,306.438199
602.096055,0.000000,-9252.574275,229.828649
602.096383,0.000000,-9622.677246,536.266849
602.096710,0.000000,-9400.615463,536.266849
602.097038,0.000000,-9326.594869,229.828649
602.097365,0.000000,-9030.512492,1072.533697
602.097693,148.041188,-9178.553681,306.438199
602.098021,0.000000,-9030.512492,229.828649
602.098348,0.000000,-9178.553681,229.828649
602.098676,0.000000,-9030.512492,306.438199
602.099003,-666.185348,-8586.388927,536.266849
602.099331,-148.041188,-8956.491898,536.266849
602.099658,-296.082377,-9030.512492,612.876398
602.099986,-296.082377,-9178.553681,689.485948
602.100313,0.000000,-9178.553681,536.266849
602.100641,0.000000,-8438.347739,689.485948
602.100969,-222.061783,-9178.553681,689.485948
602.101296,-444.123565,-9326.594869,612.876398
602.101624,-592.164754,-9474.636058,536.266849
602.101951,-370.102971,-9326.594869,689.485948
602.102279,-444.123565,-9474.636058,689.485948
602.102606,-370.102971,-9178.553681,842.705048
602.102934,-518.144159,-8956.491898,689.485948
602.103261,-518.144159,-8808.450710,459.657299
602.103589,-370.102971,-8734.430116,459.657299
602.103916,0.000000,-8882.471304,459.657299
602.104244,-444.123565,-9030.512492,536.266849
602.104572,-592.164754,-8956.491898,689.485948
602.104899,-222.061783,-9252.574275,689.485948
602.105227,-518.144159,-9400.615463,689.485948
602.105554,-666.185348,-9326.594869,689.485948
602.105882,-518.144159,-9178.553681,842.705048
602.106209,-518.144159,-9252.574275,689.485948
602.106537,-444.123565,-8956.491898,536.266849
602.106864,-444.123565,-9030.512492,536.266849
602.107192,-370.102971,-8956.491898,612.876398
602.107519,-518.144159,-8808.450710,459.657299
602.107847,-592.164754,-8808.450710,612.876398
602.108175,-518.144159,-9178.553681,612.876398
602.108502,-814.226536,-9178.553681,459.657299
602.108830,-814.226536,-9178.553681,612.876398
602.109157,-518.144159,-8882.471304,689.485948
602.109485,-814.226536,-9030.512492,612.876398
602.109812,-666.185348,-9252.574275,536.266849
602.110140,-666.185348,-8956.491898,459.657299
602.110467,-592.164754,-9104.533087,766.095498
602.110795,-444.123565,-8734.430116,919.314598
602.111122,-370.102971,-8290.306550,1225.752797
602.111450,-814.226536,-8808.450710,612.876398
602.111778,-592.164754,-8586.388927,306.438199
602.112105,-592.164754,-8586.388927,459.657299
602.112433,-444.123565,-8734.430116,229.828649
602.112760,-888.247130,-8734.430116,842.705048
602.113088,-444.123565,-9030.512492,612.876398
602.113415,-518.144159,-9104.533087,919.314598
602.113743,-370.102971,-9030.512492,612.876398
602.114070,-370.102971,-9030.512492,689.485948
602.114398,-222.061783,-8808.450710,689.485948
602.114725,-370.102971,-8808.450710,612.876398
602.115053,-222.061783,-8882.471304,766.095498
602.115381,0.000000,-9030.512492,536.266849
602.115708,0.000000,-8808.450710,229.828649
602.116036,222.061783,-8882.471304,153.219100
602.116363,0.000000,-8512.368333,612.876398
602.116691,0.000000,-8882.471304,689.485948
602.117018,0.000000,-9178.553681,536.266849
602.117346,-296.082377,-9400.615463,689.485948
602.117673,0.000000,-8956.491898,229.828649
602.118001,222.061783,-9474.636058,919.314598
602.118328,0.000000,-9326.594869,459.657299
602.118656,0.000000,-9104.533087,612.876398
602.118984,0.000000,-9400.615463,383.047749
602.119311,0.000000,-9178.553681,536.266849
602.119639,0.000000,-9474.636058,383.047749
602.119966,-148.041188,-9030.512492,306.438199
602.120294,74.020594,-9178.553681,229.828649
602.120621,74.020594,-9030.512492,536.266849
602.120949,0.000000,-9252.574275,459.657299
602.121276,-296.082377,-8882.471304,612.876398
602.121604,-222.061783,-9252.574275,766.095498
602.121931,-222.061783,-9548.656652,383.047749
602.122259,0.000000,-9474.636058,612.876398
602.122587,0.000000,-9622.677246,612.876398
602.122914,148.041188,-9474.636058,0.000000
602.123242,0.000000,-9178.553681,842.705048
602.123569,0.000000,-9252.574275,536.266849
602.123897,-370.102971,-9252.574275,536.266849
602.124224,-296.082377,-9326.594869,612.876398
602.124552,-296.082377,-9252.574275,229.828649
602.124879,0.000000,-9400.615463,306.438199
602.125207,-370.102971,-9474.636058,612.876398
602.125534,0.000000,-9474.636058,536.266849
602.125862,-148.041188,-9696.697840,689.485948
602.126190,-296.082377,-9474.636058,842.705048
602.126517,74.020594,-9770.718434,689.485948
602.126845,0.000000,-9548.656652,919.314598
602.127172,0.000000,-9622.677246,612.876398
602.127500,0.000000,-9474.636058,766.095498
602.127827,-148.041188,-9178.553681,383.047749
602.128155,0.000000,-9252.574275,0.000000
602.128482,-370.102971,-9178.553681,1072.533697
602.128810,-222.061783,-9030.512492,612.876398
602.129137,-222.061783,-9030.512492,612.876398
602.129465,-296.082377,-8956.491898,459.657299
602.129793,-666.185348,-8956.491898,1072.533697
602.130120,-296.082377,-8882.471304,306.438199
602.130448,-666.185348,-8956.491898,842.705048
602.130775,-518.144159,-9252.574275,842.705048
602.131103,-592.164754,-9104.533087,612.876398
602.131430,-592.164754,-9178.553681,689.485948
602.131758,-592.164754,-8734.430116,842.705048
602.132085,-592.164754,-8882.471304,536.266849
602.132413,-518.144159,-8956.491898,536.266849
602.132740,-518.144159,-8808.450710,612.876398
602.133068,-296.082377,-8734.430116,612.876398
602.133396,-148.041188,-8808.450710,689.485948
602.133723,-148.041188,-8882.471304,689.485948
602.134051,-444.123565,-9178.553681,689.485948
602.134378,-518.144159,-9178.553681,689.485948
602.134706,-222.061783,-9252.574275,842.705048
602.135033,148.041188,-8808.450710,919.314598
602.135361,-592.164754,-9252.574275,536.266849
602.135688,-444.123565,-9178.553681,536.266849
602.136016,-296.082377,-8882.471304,689.485948
602.136344,-222.061783,-8660.409521,459.657299
602.136671,0.000000,-8512.368333,459.657299
602.136999,0.000000,-8290.306550,842.705048
602.137326,-296.082377,-8586.388927,229.828649
602.137654,-370.102971,-8586.388927,229.828649
602.137981,-518.144159,-8734.430116,459.657299
602.138309,-444.123565,-8956.491898,306.438199
602.138636,-444.123565,-8882.471304,612.876398
602.138964,-296.082377,-8956.491898,536.266849
602.139291,-296.082377,-9030.512492,229.828649
602.139619,-518.144159,-9104.533087,306.438199
602.139947,-518.144159,-8882.471304,459.657299
602.140274,-296.082377,-8734.430116,0.000000
602.140602,-148.041188,-8438.347739,0.000000
602.140929,0.000000,-8660.409521,229.828649
602.141257,-370.102971,-8882.471304,153.219100
602.141584,0.000000,-8882.471304,229.828649
602.141912,-222.061783,-9474.636058,459.657299
602.142239,-444.123565,-8956.491898,766.095498
602.142567,-518.144159,-9400.615463,153.219100
602.142894,-444.123565,-9400.615463,689.485948
602.143222,-444.123565,-9178.553681,459.657299
602.143550,-444.123565,-9252.574275,689.485948
602.143877,0.000000,-8956.491898,1455.581446
602.144205,-444.123565,-9104.533087,459.657299
602.144532,-370.102971,-9104.533087,383.047749
602.144860,-444.123565,-8734.430116,612.876398
602.145187,0.000000,-8882.471304,383.047749
602.145515,-370.102971,-8808.450710,995.924147
602.145842,-222.061783,-9030.512492,766.095498
602.146170,-518.144159,-9252.574275,612.876398
602.146497,-444.123565,-9326.594869,536.266849
602.146825,-518.144159,-9326.594869,919.314598
602.147153,-296.082377,-9326.594869,1149.143247
602.147480,-222.061783,-9474.636058,919.314598
602.147808,-222.061783,-9474.636058,689.485948
602.148135,-296.082377,-9252.574275,919.314598
602.148463,-222.061783,-9104.533087,919.314598
602.148790,0.000000,-9030.512492,1378.971896
602.149118,74.020594,-8808.450710,612.876398
602.149445,-148.041188,-9104.533087,842.705048
602.149773,-296.082377,-9252.574275,536.266849
602.150100,-148.041188,-9252.574275,612.876398
602.150428,-148.041188,-9252.574275,383.047749
602.150756,-148.041188,-9326.594869,842.705048
602.151083,0.000000,-9474.636058,689.485948
602.151411,-222.061783,-9474.636058,612.876398
602.151738,-148.041188,-9474.636058,766.095498
602.152066,0.000000,-9622.677246,459.657299
602.152393,-148.041188,-8660.409521,842.705048
602.152721,222.061783,-9104.533087,536.266849
602.153048,148.041188,-9326.594869,306.438199
602.153376,0.000000,-9104.533087,383.047749
602.153703,0.000000,-9178.553681,459.657299
602.154031,0.000000,-8660.409521,383.047749
602.154359,0.000000,-9178.553681,459.657299
602.154686,-296.082377,-9400.615463,383.047749
602.155014,-148.041188,-9474.636058,229.828649
602.155341,-296.082377,-9622.677246,689.485948
602.155669,74.020594,-9474.636058,766.095498
602.155996,-370.102971,-9474.636058,153.219100
602.156324,0.000000,-9178.553681,536.266849
602.156651,-148.041188,-9474.636058,383.047749
602.156979,0.000000,-9252.574275,459.657299
602.157306,0.000000,-9104.533087,459.657299
602.157634,74.020594,-9104.533087,1378.971896
602.157962,-296.082377,-9178.553681,536.266849
602.158289,0.000000,-9178.553681,383.047749
602.158617,-222.061783,-9326.594869,536.266849
602.158944,0.000000,-9326.594869,536.266849
602.159272,-296.082377,-9104.533087,1072.533697
602.159599,-222.061783,-9252.574275,153.219100
602.159927,-222.061783,-9252.574275,689.485948
602.160254,-296.082377,-9178.553681,383.047749
602.160582,-222.061783,-9178.553681,459.657299
602.160909,-518.144159,-8512.368333,459.657299
602.161237,-296.082377,-8808.450710,76.609550
602.161565,-444.123565,-8882.471304,229.828649
602.161892,-518.144159,-8660.409521,229.828649
602.162220,-370.102971,-8660.409521,229.828649
602.162547,0.000000,-8956.491898,229.828649
602.162875,-518.144159,-8882.471304,842.705048
602.163202,-592.164754,-8808.450710,153.219100
602.163530,-518.144159,-8808.450710,536.266849
602.163857,-296.082377,-9030.512492,536.266849
602.164185,-518.144159,-8734.430116,459.657299
602.164512,-222.061783,-8734.430116,1072.533697
602.164840,-370.102971,-8660.409521,459.657299
602.165168,-296.082377,-8586.388927,536.266849
602.165495,-222.061783,-8660.409521,459.657299
602.165823,-222.061783,-8586.388927,536.266849
602.166150,-592.164754,-8438.347739,536.266849
602.166478,-444.123565,-8586.388927,306.438199
602.166805,-518.144159,-9104.533087,689.485948
602.167133,-666.185348,-9252.574275,536.266849
602.167460,-666.185348,-9474.636058,766.095498
602.167788,-888.247130,-9326.594869,919.314598
602.168115,-370.102971,-9474.636058,919.314598
602.168443,-592.164754,-9178.553681,766.095498
602.168771,-148.041188,-9178.553681,536.266849
602.169098,-222.061783,-8882.471304,612.876398
602.169426,0.000000,-8734.430116,842.705048
602.169753,0.000000,-8512.368333,766.095498
602.170081,-222.061783,-8734.430116,459.657299
602.170408,-666.185348,-8734.430116,383.047749
602.170736,-444.123565,-9030.512492,689.485948
602.171063,-444.123565,-9252.574275,612.876398
602.171391,-222.061783,-8882.471304,842.705048
602.171718,0.000000,-9400.615463,995.924147
602.172046,-296.082377,-9474.636058,842.705048
602.172374,-370.102971,-9474.636058,919.314598
602.172701,-444.123565,-9400.615463,842.705048
602.173029,-592.164754,-9252.574275,842.705048
602.173356,-148.041188,-9178.553681,842.705048
602.173684,0.000000,-9178.553681,689.485948
602.174011,0.000000,-9104.533087,383.047749
602.174339,0.000000,-9252.574275,536.266849
602.174666,-222.061783,-9030.512492,306.438199
602.174994,-296.082377,-9326.594869,306.438199
602.175322,-370.102971,-9252.574275,383.047749
602.175649,-444.123565,-9548.656652,612.876398
602.175977,-222.061783,-9474.636058,612.876398
602.176304,-666.185348,-9400.615463,842.705048
602.176632,-444.123565,-9400.615463,229.828649
602.176959,-370.102971,-9178.553681,536.266849
602.177287,-296.082377,-9030.512492,306.438199
602.177614,0.000000,-8808.450710,459.657299
602.177942,-296.082377,-8660.409521,306.438199
602.178269,222.061783,-8364.327145,689.485948
602.178597,0.000000,-8956.491898,459.657299
602.178925,0.000000,-9030.512492,536.266849
602.179252,-222.061783,-9400.615463,612.876398
602.179580,-296.082377,-9474.636058,842.705048
602.179907,0.000000,-9400.615463,383.047749
602.180235,-444.123565,-9474.636058,612.876398
602.180562,0.000000,-9474.636058,229.828649
602.180890,0.000000,-9400.615463,536.266849
602.181217,0.000000,-9474.636058,153.219100
602.181545,-148.041188,-9178.553681,383.047749
602.181872,370.102971,-9030.512492,306.438199
602.182200,222.061783,-9252.574275,459.657299
602.182528,0.000000,-9252.574275,536.266849
602.182855,-222.061783,-9252.574275,536.266849
602.183183,-148.041188,-9030.512492,612.876398
602.183510,0.000000,-8882.471304,383.047749
602.183838,0.000000,-9326.594869,383.047749
602.184165,-444.123565,-9030.512492,536.266849
602.184493,-296.082377,-9326.594869,383.047749
602.184820,-370.102971,-9104.533087,536.266849
602.185148,-148.041188,-8956.491898,766.095498
602.185475,-222.061783,-8660.409521,383.047749
602.185803,0.000000,-8808.450710,306.438199
602.186131,0.000000,-8808.450710,229.828649
602.186458,74.020594,-8882.471304,459.657299
602.186786,222.061783,-8808.450710,536.266849
602.187113,0.000000,-8586.388927,536.266849
602.187441,-148.041188,-9178.553681,689.485948
602.187768,-370.102971,-9326.594869,689.485948
602.188096,-666.185348,-9474.636058,919.314598
602.188423,-296.082377,-9178.553681,1072.533697
602.188751,-444.123565,-9104.533087,766.095498
602.189078,-518.144159,-9178.553681,689.485948
602.189406,-592.164754,-8956.491898,536.266849
602.189734,-222.061783,-8956.491898,536.266849
602.190061,-296.082377,-8734.430116,459.657299
602.190389,0.000000,-8660.409521,1378.971896
602.190716,-518.144159,-8956.491898,842.705048
602.191044,-370.102971,-9178.553681,536.266849
602.191371,-592.164754,-9178.553681,459.657299
602.191699,-666.185348,-9178.553681,459.657299
602.192026,-592.164754,-9104.533087,1072.533697
602.192354,-592.164754,-8882.471304,612.876398
602.192681,-592.164754,-9104.533087,689.485948
602.193009,-444.123565,-8808.450710,536.266849
602.193337,-518.144159,-8882.471304,229.828649
602.193664,-666.185348,-8586.388927,536.266849
602.193992,-518.144159,-8660.409521,612.876398
602.194319,-444.123565,-8808.450710,536.266849
602.194647,-222.061783,-8956.491898,689.485948
602.194974,0.000000,-9104.533087,612.876398
602.195302,-296.082377,-9030.512492,842.705048
602.195629,-444.123565,-9104.533087,995.924147
602.195957,-518.144159,-9326.594869,612.876398
602.196284,-370.102971,-9178.553681,919.314598
602.196612,-444.123565,-9252.574275,842.705048
602.196940,-222.061783,-9252.574275,766.095498
602.197267,0.000000,-9178.553681,689.485948
602.197595,-222.061783,-8956.491898,842.705048
602.197922,-518.144159,-8438.347739,612.876398
602.198250,-518.144159,-8734.430116,536.266849
602.198577,-444.123565,-8438.347739,306.438199
602.198905,-592.164754,-7994.224174,536.266849
602.199232,-518.144159,-8438.347739,842.705048
602.199560,-592.164754,-8882.471304,459.657299
602.199888,-592.164754,-9326.594869,689.485948
602.200215,-666.185348,-9326.594869,689.485948
602.200543,-592.164754,-9252.574275,1149.143247
602.200870,-592.164754,-9104.533087,536.266849
602.201198,-518.144159,-9400.615463,612.876398
602.201525,-296.082377,-9252.574275,383.047749
602.201853,0.000000,-9178.553681,612.876398
602.202180,-296.082377,-9030.512492,842.705048
602.202508,0.000000,-9104.533087,536.266849
602.202835,0.000000,-9030.512492,229.828649
602.203163,-296.082377,-8956.491898,229.828649
602.203491,0.000000,-9252.574275,153.219100
602.203818,0.000000,-9252.574275,383.047749
602.204146,222.061783,-9252.574275,306.438199
602.204473,222.061783,-9400.615463,766.095498
602.204801,0.000000,-9400.615463,383.047749
602.205128,-222.061783,-9474.636058,536.266849
602.205456,0.000000,-9474.636058,306.438199
602.205783,-296.082377,-9104.533087,689.485948
602.206111,222.061783,-9252.574275,459.657299
602.206439,-296.082377,-8956.491898,153.219100
602.206766,-74.020594,-9030.512492,153.219100
602.207094,0.000000,-9252.574275,306.438199
602.207421,74.020594,-9400.615463,536.266849
602.207749,74.020594,-8808.450710,306.438199
602.208076,-222.061783,-9178.553681,229.828649
602.208404,-222.061783,-9548.656652,383.047749
602.208731,-370.102971,-9844.739029,383.047749
602.209059,-222.061783,-9400.615463,919.314598
602.209386,-370.102971,-9252.574275,689.485948
602.209714,-370.102971,-9252.574275,842.705048
602.210042,-444.123565,-9400.615463,536.266849
602.210369,-444.123565,-9252.574275,919.314598
602.210697,0.000000,-9030.512492,536.266849
602.211024,-148.041188,-8586.388927,842.705048
602.211352,-370.102971,-9104.533087,536.266849
602.211679,-518.144159,-9178.553681,689.485948
602.212007,-296.082377,-9104.533087,766.095498
602.212334,-222.061783,-9178.553681,919.314598
602.212662,-444.123565,-9030.512492,766.095498
602.212989,-296.082377,-9252.574275,612.876398
602.213317,-518.144159,-9252.574275,766.095498
602.213645,-370.102971,-9252.574275,842.705048
602.213972,-444.123565,-8956.491898,459.657299
602.214300,0.000000,-9030.512492,766.095498
602.214627,-148.041188,-9030.512492,612.876398
602.214955,-222.061783,-8808.450710,459.657299
602.215282,-296.082377,-8882.471304,536.266849
602.215610,0.000000,-8956.491898,612.876398
602.215937,0.000000,-9326.594869,689.485948
602.216265,-370.102971,-9178.553681,459.657299
602.216593,-592.164754,-9474.636058,612.876398
602.216920,-296.082377,-9548.656652,689.485948
602.217248,-148.041188,-9474.636058,612.876398
602.217575,0.000000,-9474.636058,536.266849
602.217903,0.000000,-9030.512492,306.438199
602.218230,74.020594,-8882.471304,306.438199
602.218558,74.020594,-8882.471304,153.219100
602.218885,0.000000,-8808.450710,383.047749
602.219213,-222.061783,-8808.450710,229.828649
602.219540,0.000000,-8586.388927,766.095498
602.219868,-370.102971,-8734.430116,229.828649
602.220196,-370.102971,-9104.533087,536.266849
602.220523,-296.082377,-9178.553681,689.485948
602.220851,-444.123565,-9178.553681,612.876398
602.221178,-370.102971,-9326.594869,612.876398
602.221506,-296.082377,-8956.491898,1072.533697
602.221833,-518.144159,-9030.512492,689.485948
602.222161,-592.164754,-9030.512492,842.705048
602.222488,-592.164754,-8956.491898,536.266849
602.222816,-444.123565,-8808.450710,842.705048
602.223144,-296.082377,-8808.450710,689.485948
602.223471,-370.102971,-8586.388927,536.266849
602.223799,-296.082377,-8586.388927,536.266849
602.224126,-592.164754,-8956.491898,536.266849
602.224454,-370.102971,-8956.491898,612.876398
602.224781,-444.123565,-8660.409521,689.485948
602.225109,-592.164754,-9104.533087,919.314598
602.225436,-444.123565,-9252.574275,842.705048
602.225764,-518.144159,-9474.636058,842.705048
602.226091,-518.144159,-9104.533087,383.047749
602.226419,-370.102971,-8956.491898,459.657299
602.226747,-518.144159,-8512.368333,612.876398
602.227074,-222.061783,-8660.409521,383.047749
602.227402,-222.061783,-8512.368333,153.219100
602.227729,0.000000,-8956.491898,383.047749
602.228057,-592.164754,-8290.306550,383.047749
602.228384,-296.082377,-9030.512492,383.047749
602.228712,-296.082377,-9326.594869,459.657299
602.229039,-296.082377,-9326.594869,612.876398
602.229367,0.000000,-9474.636058,612.876398
602.229694,0.000000,-9400.615463,689.485948
602.230022,0.000000,-9252.574275,459.657299
602.230350,-148.041188,-9178.553681,766.095498
602.230677,0.000000,-9178.553681,459.657299
602.231005,0.000000,-9252.574275,383.047749
602.231332,0.000000,-9252.574275,612.876398
602.231660,592.164754,-9252.574275,689.485948
602.231987,-296.082377,-8882.471304,612.876398
602.232315,-222.061783,-9030.512492,689.485948
602.232642,-222.061783,-9104.533087,536.266849
602.232970,-592.164754,-9474.636058,459.657299
602.233298,-370.102971,-9696.697840,766.095498
602.233625,0.000000,-9326.594869,612.876398
602.233953,-370.102971,-9400.615463,612.876398
602.234280,-740.205942,-9400.615463,383.047749
602.234608,-370.102971,-9474.636058,612.876398
602.234935,-148.041188,-8660.409521,612.876398
602.235263,-370.102971,-9030.512492,612.876398
602.235590,0.000000,-8956.491898,229.828649
602.235918,-148.041188,-8882.471304,229.828649
602.236245,0.000000,-8956.491898,306.438199
602.236573,0.000000,-9178.553681,229.828649
602.236901,148.041188,-9326.594869,153.219100
602.237228,-370.102971,-9400.615463,766.095498
602.237556,-148.041188,-9474.636058,766.095498
602.237883,-370.102971,-9548.656652,995.924147
602.238211,-296.082377,-9474.636058,842.705048
602.238538,-296.082377,-9474.636058,536.266849
602.238866,148.041188,-9252.574275,612.876398
602.239193,74.020594,-9252.574275,689.485948
602.239521,0.000000,-9252.574275,536.266849
602.239849,74.020594,-9030.512492,536.266849
602.240176,0.000000,-8808.450710,536.266849
602.240504,0.000000,-9030.512492,229.828649
602.240831,-296.082377,-9326.594869,459.657299
602.241159,-296.082377,-9252.574275,383.047749
602.241486,-222.061783,-9178.553681,689.485948
602.241814,-518.144159,-9326.594869,1072.533697
602.242141,-444.123565,-9252.574275,919.314598
602.242469,-740.205942,-9474.636058,766.095498
602.242796,-296.082377,-9178.553681,766.095498
602.243124,-444.123565,-8734.430116,842.705048
602.243452,-148.041188,-8512.368333,459.657299
602.243779,0.000000,-8660.409521,383.047749
602.244107,0.000000,-8586.388927,689.485948
602.244434,-444.123565,-8438.347739,536.266849
602.244762,-444.123565,-8734.430116,459.657299
602.245089,-444.123565,-9252.574275,842.705048
602.245417,-518.144159,-9252.574275,0.000000
602.245744,-518.144159,-8956.491898,612.876398
602.246072,-444.123565,-9400.615463,842.705048
602.246399,-222.061783,-9252.574275,689.485948
602.246727,-296.082377,-9400.615463,612.876398
602.247055,0.000000,-9178.553681,842.705048
602.247382,-148.041188,-9178.553681,229.828649
602.247710,0.000000,-8956.491898,383.047749
602.248037,0.000000,-8956.491898,229.828649
602.248365,0.000000,-8734.430116,459.657299
602.248692,0.000000,-8734.430116,612.876398
602.249020,0.000000,-8512.368333,459.657299
602.249347,-444.123565,-9252.574275,229.828649
602.249675,-444.123565,-9252.574275,459.657299
602.250003,-888.247130,-9030.512492,383.047749
602.250330,-666.185348,-9030.512492,612.876398
602.250658,-666.185348,-8882.471304,612.876398
602.250985,-444.123565,-9400.615463,536.266849
602.251313,-814.226536,-9030.512492,459.657299
602.251640,-370.102971,-8734.430116,536.266849
602.251968,-296.082377,-8586.388927,306.438199
602.252295,0.000000,-8438.347739,0.000000
602.252623,-370.102971,-8586.388927,229.828649
602.252950,-296.082377,-8808.450710,459.657299
602.253278,-444.123565,-8956.491898,536.266849
602.253606,-740.205942,-9178.553681,766.095498
602.253933,-962.267725,-9326.594869,1149.143247
602.254261,-296.082377,-9252.574275,689.485948
602.254588,-592.164754,-9400.615463,689.485948
602.254916,-444.123565,-9252.574275,766.095498
602.255243,-296.082377,-9178.553681,459.657299
602.255571,0.000000,-8956.491898,153.219100
602.255898,222.061783,-8734.430116,1149.143247
602.256226,0.000000,-8808.450710,459.657299
602.256554,0.000000,-8882.471304,383.047749
602.256881,-296.082377,-9178.553681,383.047749
602.257209,-370.102971,-9252.574275,459.657299
602.257536,-222.061783,-8882.471304,842.705048
602.257864,-444.123565,-9030.512492,383.047749
602.258191,-148.041188,-9400.615463,459.657299
602.258519,-296.082377,-9178.553681,306.438199
602.258846,-296.082377,-9178.553681,612.876398
602.259174,-370.102971,-8734.430116,536.266849
602.259501,0.000000,-9104.533087,383.047749
602.259829,-148.041188,-9030.512492,536.266849
602.260157,0.000000,-8808.450710,229.828649
602.260484,148.041188,-9030.512492,536.266849
602.260812,74.020594,-8586.388927,536.266849
602.261139,0.000000,-8808.450710,383.047749
602.261467,-74.020594,-9400.615463,612.876398
602.261794,-148.041188,-9548.656652,766.095498
602.262122,-222.061783,-9548.656652,689.485948
602.262449,-222.061783,-9622.677246,766.095498
602.262777,0.000000,-9474.636058,1378.971896
602.263104,-666.185348,-9474.636058,995.924147
602.263432,-370.102971,-9400.615463,842.705048
602.263760,-222.061783,-9252.574275,536.266849
602.264087,-296.082377,-9178.553681,459.657299
602.264415,74.020594,-8956.491898,689.485948
602.264742,-222.061783,-8808.450710,536.266849
602.265070,-296.082377,-9030.512492,689.485948
602.265397,-592.164754,-9178.553681,612.876398
602.265725,-444.123565,-9252.574275,689.485948
602.266052,-740.205942,-9178.553681,919.314598
602.266380,-518.144159,-9326.594869,612.876398
602.266708,-518.144159,-9474.636058,459.657299
602.267035,-666.185348,-9400.615463,459.657299
602.267363,-444.123565,-9326.594869,612.876398
602.267690,-222.061783,-9030.512492,383.047749
602.268018,148.041188,-8734.430116,153.219100
602.268345,0.000000,-8956.491898,383.047749
602.268673,0.000000,-8956.491898,229.828649
602.269000,0.000000,-8882.471304,153.219100
602.269328,0.000000,-8882.471304,306.438199
602.269655,370.102971,-8882.471304,995.924147
602.269983,0.000000,-9326.594869,306.438199
602.270311,148.041188,-9474.636058,536.266849
602.270638,-222.061783,-9474.636058,689.485948
602.270966,0.000000,-9548.656652,612.876398
602.271293,-370.102971,-9252.574275,766.095498
602.271621,0.000000,-9178.553681,689.485948
602.271948,-222.061783,-9104.533087,383.047749
602.272276,-296.082377,-8808.450710,229.828649
602.272603,-370.102971,-8660.409521,153.219100
602.272931,-740.205942,-8216.285956,536.266849
602.273259,-296.082377,-8512.368333,459.657299
602.273586,-518.144159,-8734.430116,383.047749
602.273914,-592.164754,-8660.409521,306.438199
602.274241,-592.164754,-8956.491898,766.095498
602.274569,-518.144159,-8956.491898,919.314598
602.274896,-444.123565,-9104.533087,995.924147
602.275224,-592.164754,-8808.450710,689.485948
602.275551,-666.185348,-8586.388927,689.485948
602.275879,-740.205942,-9030.512492,842.705048
602.276206,-444.123565,-8734.430116,612.876398
602.276534,-148.041188,-8290.306550,995.924147
602.276862,-296.082377,-8586.388927,612.876398
602.277189,-222.061783,-8734.430116,689.485948
602.277517,-296.082377,-9030.512492,842.705048
602.277844,-296.082377,-9178.553681,612.876398
602.278172,-296.082377,-8956.491898,689.485948
602.278499,-222.061783,-9030.512492,612.876398
602.278827,-370.102971,-9548.656652,459.657299
602.279154,-296.082377,-9548.656652,459.657299
602.279482,-444.123565,-9474.636058,536.266849
602.279809,-222.061783,-8956.491898,842.705048
602.280137,0.000000,-9104.533087,612.876398
602.280465,-222.061783,-9030.512492,306.438199
602.280792,-296.082377,-9030.512492,229.828649
602.281120,0.000000,-8882.471304,0.000000
602.281447,0.000000,-8660.409521,0.000000
602.281775,0.000000,-8660.409521,689.485948
602.282102,-296.082377,-8882.471304,76.609550
602.282430,-370.102971,-9400.615463,383.047749
602.282757,-370.102971,-9252.574275,383.047749
602.283085,-370.102971,-9326.594869,689.485948
602.283413,0.000000,-8956.491898,536.266849
602.283740,-222.061783,-9252.574275,383.047749
602.284068,0.000000,-9474.636058,459.657299
602.284395,-222.061783,-9104.533087,766.095498
602.284723,0.000000,-9178.553681,612.876398
602.285050,370.102971,-9252.574275,76.609550
602.285378,0.000000,-8808.450710,766.095498
602.285705,-222.061783,-9030.512492,612.876398
602.286033,0.000000,-9252.574275,919.314598
602.286360,-370.102971,-9252.574275,612.876398
602.286688,-740.205942,-8956.491898,842.705048
602.287016,-296.082377,-9104.533087,995.924147
602.287343,-814.226536,-9474.636058,766.095498
602.287671,-888.247130,-9326.594869,766.095498
602.287998,-592.164754,-9178.553681,536.266849
602.288326,-592.164754,-8956.491898,766.095498
602.288653,-666.185348,-8956.491898,459.657299
602.288981,-740.205942,-8586.388927,306.438199
602.289308,-444.123565,-8660.409521,229.828649
602.289636,-518.144159,-8808.450710,383.047749
602.289964,-444.123565,-8882.471304,306.438199
602.290291,-666.185348,-8734.430116,536.266849
602.290619,-222.061783,-9178.553681,689.485948
602.290946,-222.061783,-9474.636058,383.047749
602.291274,-148.041188,-9474.636058,459.657299
602.291601,0.000000,-9474.636058,459.657299
602.291929,-370.102971,-9326.594869,689.485948
602.292256,740.205942,-9252.574275,536.266849
602.292584,370.102971,-9104.533087,76.609550
602.292912,592.164754,-9178.553681,306.438199
602.293239,222.061783,-9030.512492,229.828649
602.293567,444.123565,-9030.512492,536.266849
602.293894,74.020594,-9030.512492,612.876398
602.294222,-148.041188,-9030.512492,229.828649
602.294550,0.000000,-9104.533087,229.828649
602.294877,0.000000,-9252.574275,459.657299
602.295205,0.000000,-9030.512492,536.266849
602.295532,74.020594,-9030.512492,842.705048
602.295860,-370.102971,-9104.533087,536.266849
602.296188,-444.123565,-9252.574275,612.876398
602.296515,-666.185348,-9326.594869,383.047749
602.296843,-296.082377,-9104.533087,459.657299
602.297170,-296.082377,-8734.430116,1072.533697
602.297498,0.000000,-8734.430116,995.924147
602.297826,-222.061783,-8808.450710,689.485948
602.298153,-296.082377,-8882.471304,689.485948
602.298481,-444.123565,-9104.533087,766.095498
602.298809,-518.144159,-9326.594869,306.438199
602.299136,-444.123565,-9326.594869,1608.800546
602.299464,-592.164754,-9326.594869,919.314598
602.299791,-518.144159,-9400.615463,1072.533697
602.300119,-518.144159,-9400.615463,995.924147
602.300447,-148.041188,-9252.574275,1149.143247
602.300774,-296.082377,-9104.533087,919.314598
602.301102,-148.041188,-9104.533087,459.657299
602.301429,-444.123565,-8512.368333,229.828649
602.301757,-518.144159,-8586.388927,383.047749
602.302085,-444.123565,-8808.450710,766.095498
602.302412,-518.144159,-8586.388927,842.705048
602.302740,-666.185348,-9030.512492,536.266849
602.303067,-740.205942,-9252.574275,383.047749
602.303395,-592.164754,-9326.594869,612.876398
602.303723,-592.164754,-9326.594869,612.876398
602.304050,0.000000,-9104.533087,536.266849
602.304378,-148.041188,-8882.471304,76.609550
602.304705,-148.041188,-8734.430116,459.657299
602.305033,-222.061783,-9030.512492,459.657299
602.305361,0.000000,-8882.471304,153.219100
602.305688,-296.082377,-8586.388927,459.657299
602.306016,222.061783,-8660.409521,306.438199
602.306344,-148.041188,-8882.471304,383.047749
602.306671,0.000000,-8808.450710,383.047749
602.306999,-296.082377,-8956.491898,459.657299
602.307326,-296.082377,-9326.594869,612.876398
602.307654,-148.041188,-8956.491898,383.047749
602.307982,-444.123565,-9104.533087,612.876398
602.308309,-518.144159,-9400.615463,612.876398
602.308637,-370.102971,-9252.574275,689.485948
602.308964,-666.185348,-9030.512492,459.657299
602.309292,-592.164754,-8512.368333,383.047749
602.309620,-444.123565,-8734.430116,459.657299
602.309947,-370.102971,-8512.368333,383.047749
602.310275,-518.144159,-8364.327145,459.657299
602.310602,-592.164754,-8512.368333,383.047749
602.310930,-666.185348,-8808.450710,459.657299
602.311258,-444.123565,-8956.491898,-153.219100
602.311585,-740.205942,-9104.533087,459.657299
602.311913,-666.185348,-9104.533087,766.095498
602.312241,-518.144159,-9474.636058,536.266849
602.312568,-888.247130,-9400.615463,383.047749
602.312896,74.020594,-9178.553681,1072.533697
602.313223,-370.102971,-9252.574275,459.657299
602.313551,0.000000,-9178.553681,459.657299
602.313879,0.000000,-8882.471304,383.047749
602.314206,148.041188,-8956.491898,536.266849
602.314534,0.000000,-8364.327145,689.485948
602.314861,74.020594,-9104.533087,612.876398
602.315189,0.000000,-9252.574275,459.657299
602.315517,0.000000,-9474.636058,459.657299
602.315844,0.000000,-9400.615463,536.266849
602.316172,0.000000,-9474.636058,1225.752797
602.316499,-296.082377,-9326.594869,459.657299
602.316827,-296.082377,-9474.636058,689.485948
602.317155,-296.082377,-9178.553681,842.705048
602.317482,-222.061783,-8956.491898,689.485948
602.317810,-148.041188,-8660.409521,306.438199
602.318138,-296.082377,-9104.533087,536.266849
602.318465,-370.102971,-9252.574275,689.485948
602.318793,-370.102971,-9030.512492,383.047749
602.319120,-370.102971,-9178.553681,689.485948
602.319448,-592.164754,-9400.615463,612.876398
602.319776,-592.164754,-9474.636058,536.266849
602.320103,-666.185348,-10066.800811,842.705048
602.320431,-814.226536,-9696.697840,766.095498
602.320758,-666.185348,-9696.697840,689.485948
602.321086,-592.164754,-9474.636058,689.485948
602.321414,0.000000,-9622.677246,612.876398
602.321741,-592.164754,-9104.533087,612.876398
602.322069,-518.144159,-9104.533087,612.876398
602.322396,-222.061783,-8882.471304,612.876398
602.322724,-444.123565,-8808.450710,383.047749
602.323052,0.000000,-8956.491898,459.657299
602.323379,0.000000,-8956.491898,766.095498
602.323707,-148.041188,-9030.512492,383.047749
602.324034,0.000000,-9326.594869,612.876398
602.324362,-518.144159,-9252.574275,612.876398
602.324690,-370.102971,-9178.553681,229.828649
602.325017,-222.061783,-9326.594869,842.705048
602.325345,0.000000,-9474.636058,766.095498
602.325673,0.000000,-9252.574275,689.485948
602.326000,0.000000,-9178.553681,612.876398
602.326328,0.000000,-8290.306550,766.095498
602.326655,370.102971,-8808.450710,306.438199
602.326983,222.061783,-8586.388927,153.219100
602.327311,-222.061783,-8734.430116,306.438199
602.327638,-444.123565,-9104.533087,459.657299
602.327966,-518.144159,-9178.553681,536.266849
602.328293,-74.020594,-8882.471304,766.095498
602.328621,-518.144159,-9178.553681,919.314598
602.328949,-592.164754,-8956.491898,536.266849
602.329276,-222.061783,-8956.491898,383.047749
602.329604,-296.082377,-8808.450710,383.047749
602.329931,-444.123565,-8364.327145,536.266849
602.330259,-296.082377,-8216.285956,612.876398
602.330587,-444.123565,-8364.327145,536.266849
602.330914,-666.185348,-8364.327145,229.828649
602.331242,-444.123565,-8586.388927,612.876398
602.331570,-592.164754,-8290.306550,76.609550
602.331897,-518.144159,-8660.409521,689.485948
602.332225,-370.102971,-8956.491898,536.266849
602.332552,-296.082377,-8882.471304,842.705048
602.332880,-148.041188,-8956.491898,689.485948
602.333208,0.000000,-9178.553681,383.047749
602.333535,74.020594,-9104.533087,919.314598
602.333863,0.000000,-9030.512492,842.705048
602.334190,0.000000,-9178.553681,536.266849
602.334518,-148.041188,-9030.512492,536.266849
602.334846,0.000000,-9252.574275,306.438199
602.335173,74.020594,-9474.636058,536.266849
602.335501,0.000000,-9104.533087,383.047749
602.335828,0.000000,-9104.533087,536.266849
602.336156,0.000000,-9252.574275,536.266849
602.336484,-296.082377,-9548.656652,536.266849
602.336811,0.000000,-9992.780217,153.219100
602.337139,-296.082377,-9548.656652,766.095498
602.337466,0.000000,-9548.656652,612.876398
602.337794,0.000000,-9474.636058,306.438199
602.338122,0.000000,-9474.636058,383.047749
602.338449,0.000000,-9252.574275,-153.219100
602.338777,-370.102971,-8882.471304,766.095498
602.339105,-296.082377,-8734.430116,229.828649
602.339432,-444.123565,-8882.471304,306.438199
602.339760,-592.164754,-9030.512492,612.876398
602.340087,-370.102971,-9252.574275,1072.533697
602.340415,-666.185348,-9030.512492,995.924147
602.340743,-592.164754,-9252.574275,536.266849
602.341070,-444.123565,-9326.594869,919.314598
602.341398,-296.082377,-9400.615463,842.705048
602.341725,0.000000,-9252.574275,842.705048
602.342053,222.061783,-8956.491898,1072.533697
602.342381,-148.041188,-9474.636058,842.705048
602.342708,-222.061783,-9474.636058,612.876398
602.343036,-370.102971,-9400.615463,995.924147
602.343363,-370.102971,-9252.574275,766.095498
602.343691,0.000000,-9400.615463,536.266849
602.344019,0.000000,-9030.512492,689.485948
602.344346,-148.041188,-9178.553681,612.876398
602.344674,-370.102971,-9104.533087,306.438199
602.345002,-148.041188,-9178.553681,459.657299
602.345329,-370.102971,-8882.471304,306.438199
602.345657,-518.144159,-9030.512492,536.266849
602.345984,-222.061783,-9326.594869,689.485948
602.346312,-296.082377,-9178.553681,612.876398
602.346640,0.000000,-9030.512492,229.828649
602.346967,74.020594,-9252.574275,306.438199
602.347295,296.082377,-8290.306550,383.047749
602.347622,148.041188,-9030.512492,229.828649
602.347950,0.000000,-9104.533087,383.047749
602.348278,-148.041188,-9252.574275,383.047749
602.348605,-296.082377,-9104.533087,459.657299
602.348933,444.123565,-9400.615463,306.438199
602.349260,0.000000,-9178.553681,0.000000
602.349588,0.000000,-9326.594869,536.266849
602.349916,-296.082377,-9178.553681,306.438199
602.350243,0.000000,-9326.594869,459.657299
602.350571,-444.123565,-9030.512492,766.095498
602.350899,0.000000,-9104.533087,306.438199
602.351226,-148.041188,-9178.553681,612.876398
602.351554,74.020594,-9400.615463,612.876398
602.351881,0.000000,-9252.574275,766.095498
602.352209,74.020594,-9326.594869,995.924147
602.352537,-296.082377,-8734.430116,306.438199
602.352864,-518.144159,-9252.574275,536.266849
602.353192,-518.144159,-9178.553681,536.266849
602.353519,-518.144159,-9178.553681,689.485948
602.353847,-444.123565,-9252.574275,383.047749
602.354175,-814.226536,-8956.491898,0.000000
602.354502,-370.102971,-8882.471304,536.266849
602.354830,-444.123565,-8734.430116,383.047749
602.355157,-296.082377,-8734.430116,612.876398
602.355485,-296.082377,-8660.409521,459.657299
602.355813,370.102971,-8586.388927,842.705048
602.356140,-444.123565,-8512.368333,229.828649
602.356468,-222.061783,-8956.491898,536.266849
602.356795,-222.061783,-9104.533087,383.047749
602.357123,-444.123565,-9326.594869,612.876398
602.357451,-296.082377,-9474.636058,1378.971896
602.357778,-148.041188,-8956.491898,612.876398
602.358106,0.000000,-9178.553681,306.438199
602.358434,-222.061783,-8956.491898,459.657299
602.358761,-222.061783,-8956.491898,383.047749
602.359089,74.020594,-8660.409521,536.266849
602.359416,0.000000,-8956.491898,383.047749
602.359744,-222.061783,-9252.574275,306.438199
602.360072,-296.082377,-9178.553681,612.876398
602.360399,-296.082377,-9400.615463,689.485948
602.360727,-296.082377,-9474.636058,766.095498
602.361054,-222.061783,-9104.533087,612.876398
602.361382,-444.123565,-9252.574275,536.266849
602.361710,-370.102971,-9326.594869,689.485948
602.362037,-666.185348,-9178.553681,689.485948
602.362365,-592.164754,-9030.512492,689.485948
602.362692,-444.123565,-9400.615463,459.657299
602.363020,-888.247130,-8956.491898,612.876398
602.363348,-592.164754,-9252.574275,689.485948
602.363675,-444.123565,-8956.491898,459.657299
602.364003,-592.164754,-8882.471304,459.657299
602.364331,-370.102971,-9030.512492,306.438199
602.364658,-518.144159,-8660.409521,995.924147
602.364986,-370.102971,-8882.471304,459.657299
602.365313,-296.082377,-9252.574275,459.657299
602.365641,-296.082377,-9252.574275,536.266849
602.365969,-296.082377,-9548.656652,689.485948
602.366296,-370.102971,-9178.553681,919.314598
602.366624,0.000000,-9474.636058,689.485948
602.366951,0.000000,-9252.574275,536.266849
602.367279,0.000000,-9326.594869,536.266849
602.367607,0.000000,-9178.553681,306.438199
602.367934,0.000000,-8660.409521,612.876398
602.368262,0.000000,-8956.491898,306.438199
602.368589,0.000000,-9400.615463,459.657299
602.368917,0.000000,-9326.594869,383.047749
602.369245,0.000000,-9326.594869,229.828649
602.369572,74.020594,-9770.718434,306.438199
602.369900,518.144159,-9030.512492,76.609550
602.370228,0.000000,-9030.512492,229.828649
602.370555,0.000000,-9030.512492,229.828649
602.370883,-444.123565,-8956.491898,383.047749
602.371210,-444.123565,-9252.574275,689.485948
602.371538,-148.041188,-9030.512492,229.828649
602.371866,-518.144159,-9326.594869,459.657299
602.372193,-222.061783,-9030.512492,383.047749
602.372521,0.000000,-9252.574275,459.657299
602.372848,74.020594,-9030.512492,612.876398
602.373176,0.000000,-8586.388927,536.266849
602.373504,0.000000,-8808.450710,383.047749
602.373831,-518.144159,-9104.533087,612.876398
602.374159,-296.082377,-9252.574275,459.657299
602.374486,-444.123565,-9400.615463,842.705048
602.374814,-518.144159,-9326.594869,1072.533697
602.375142,0.000000,-9400.615463,842.705048
602.375469,0.000000,-9104.533087,842.705048
602.375797,0.000000,-8956.491898,612.876398
602.376124,0.000000,-8882.471304,689.485948
602.376452,0.000000,-8808.450710,689.485948
602.376780,-370.102971,-8586.388927,689.485948
602.377107,-370.102971,-9030.512492,689.485948
602.377435,-444.123565,-9030.512492,842.705048
602.377763,-518.144159,-9104.533087,919.314598
602.378090,-370.102971,-9326.594869,766.095498
602.378418,-444.123565,-9252.574275,1149.143247
602.378745,-222.061783,-9030.512492,766.095498
602.379073,0.000000,-8956.491898,612.876398
602.379401,0.000000,-8808.450710,383.047749
602.379728,148.041188,-9326.594869,766.095498
602.380056,0.000000,-9474.636058,536.266849
602.380383,-370.102971,-9326.594869,842.705048
602.380711,-370.102971,-9474.636058,995.924147
602.381039,-296.082377,-9622.677246,842.705048
602.381366,-296.082377,-9400.615463,689.485948
602.381694,0.000000,-9326.594869,612.876398
602.382021,74.020594,-9030.512492,306.438199
602.382349,148.041188,-8882.471304,229.828649
602.382677,-370.102971,-8956.491898,536.266849
602.383004,-444.123565,-9030.512492,536.266849
602.383332,-74.020594,-9030.512492,766.095498
602.383660,-592.164754,-9178.553681,766.095498
602.383987,-592.164754,-9326.594869,459.657299
602.384315,-518.144159,-9400.615463,766.095498
602.384642,-148.041188,-8956.491898,536.266849
602.384970,370.102971,-8882.471304,459.657299
602.385298,962.267725,-8438.347739,2068.457845
602.385625,1036.288319,-8734.430116,1608.800546
602.385953,888.247130,-9252.574275,1532.190996
602.386280,74.020594,-9400.615463,1685.410096
602.386608,0.000000,-9178.553681,1915.238745
602.386936,0.000000,-9104.533087,1762.019645
602.387263,0.000000,-9252.574275,1838.629195
602.387591,0.000000,-9178.553681,2068.457845
602.387918,0.000000,-9104.533087,1991.848295
602.388246,0.000000,-8734.430116,1991.848295
602.388574,-222.061783,-8438.347739,2145.067394
602.388901,-222.061783,-8734.430116,2068.457845
602.389229,-148.041188,-8808.450710,2451.505594
602.389557,-296.082377,-8956.491898,2374.896044
602.389884,-370.102971,-8882.471304,2451.505594
602.390212,-518.144159,-8882.471304,2757.943793
602.390539,-740.205942,-8808.450710,2757.943793
602.390867,-888.247130,-8956.491898,2681.334243
602.391195,-666.185348,-8956.491898,2604.724693
602.391522,-888.247130,-8956.491898,2834.553343
602.391850,-444.123565,-9178.553681,3217.601092
602.392177,-888.247130,-9178.553681,2911.162892
602.392505,-592.164754,-8956.491898,2987.772442
602.392833,-666.185348,-9030.512492,2911.162892
602.393160,-444.123565,-8956.491898,2834.553343
602.393488,-592.164754,-9104.533087,2834.553343
602.393815,-444.123565,-8660.409521,2374.896044
602.394143,0.000000,-8882.471304,2757.943793
602.394471,-296.082377,-9104.533087,2987.772442
602.394798,0.000000,-9252.574275,3064.381992
602.395126,0.000000,-9474.636058,3140.991542
602.395453,444.123565,-9622.677246,3677.258390
602.395781,296.082377,-9326.594869,3370.820191
602.396108,370.102971,-9252.574275,3447.429741
602.396436,666.185348,-9252.574275,3830.477490
602.396763,1184.329507,-9252.574275,4366.744339
602.397091,1480.411884,-9104.533087,4979.620737
602.397418,1258.350101,-8882.471304,4903.011187
602.397746,1258.350101,-9474.636058,4749.792088
602.398073,740.205942,-9474.636058,4749.792088
602.398401,740.205942,-9844.739029,4979.620737
602.398728,370.102971,-9548.656652,4903.011187
602.399056,222.061783,-9178.553681,5132.839837
602.399383,-370.102971,-9770.718434,4749.792088
602.399711,-740.205942,-9548.656652,4443.353888
602.400038,-962.267725,-9400.615463,4366.744339
602.400366,-1554.432478,-9326.594869,3907.087040
602.400693,-2146.597232,-9178.553681,4290.134789
602.401020,-2368.659014,-9326.594869,3524.039291
602.401348,-2368.659014,-9030.512492,3294.210641
602.401675,-2072.576638,-8586.388927,3140.991542
602.402003,-1036.288319,-8142.265362,3677.258390
602.402330,0.000000,-7994.224174,4136.915689
602.402658,814.226536,-7920.203579,5056.230287
602.402985,1850.514855,-8068.244768,5898.935335
602.403313,1850.514855,-8364.327145,6511.811733
602.403640,1924.535449,-9400.615463,6741.640382
602.403968,814.226536,-10288.862594,6588.421283
602.404295,-592.164754,-10510.924376,6435.202183
602.404623,-1850.514855,-11251.130318,5286.058936
602.404950,-2590.720797,-11029.068536,4673.182538
602.405278,-2368.659014,-10436.903782,4136.915689
602.405605,-666.185348,-9252.574275,4290.134789
602.405933,148.041188,-7994.224174,4290.134789
602.406260,2368.659014,-7179.997637,4519.963438
602.406588,2590.720797,-7105.977043,4060.306139
602.406915,592.164754,-8734.430116,3447.429741
602.407243,-4515.256246,-10658.965565,1532.190996
602.407570,-9326.594869,-11843.295072,-995.924147
602.407898,-11917.315666,-12361.439231,-2681.334243
602.408225,-10658.965565,-10436.903782,-3600.648841
602.408553,-6587.832884,-8290.306550,-2757.943793
602.408880,-666.185348,-5995.668130,-1608.800546
602.409208,4663.297435,-4737.318029,1302.362347
602.409535,8364.327145,-3552.988522,1838.629195
602.409863,11251.130318,-4219.173869,3907.087040
602.410190,9474.636058,-5329.482782,4290.134789
602.410518,9252.574275,-8290.306550,5362.668486
602.410845,4663.297435,-11843.295072,5975.544884
602.411173,1702.473667,-13545.768739,4903.011187
602.411500,666.185348,-14285.974681,5745.716235
602.411828,592.164754,-13027.624579,5515.887586
602.412155,5403.503377,-11325.150913,7277.907231
602.412483,8808.450710,-10362.883188,8503.660028
602.412810,9696.697840,-8142.265362,7660.954980
602.413138,6809.894666,-8882.471304,7431.126331
602.413465,3627.009116,-9030.512492,5209.449386
602.413793,-3256.906145,-10658.965565,3753.867940
602.414120,-7105.977043,-10140.821405,1991.848295
602.414448,-8808.450710,-9474.636058,2145.067394
602.414775,-7105.977043,-8290.306550,3370.820191
602.415103,-4737.318029,-7105.977043,5669.106685
602.415430,-3478.967927,-6291.750507,6894.859482
602.415758,-3923.091493,-6143.709319,8273.831378
602.416085,-5551.544565,-7254.018232,6128.763984
602.416413,-7179.997637,-8142.265362,5209.449386
602.416740,-9252.574275,-7920.203579,4060.306139
602.417068,-7698.141797,-7698.141797,4366.744339
602.417395,-5921.647536,-7698.141797,4596.572988
602.417723,-4959.379811,-7772.162391,4979.620737
602.418050,-2886.803174,-7698.141797,5439.278036
602.418378,148.041188,-6143.709319,6281.983084
602.418705,5551.544565,-4367.215058,7737.564530
602.419033,9918.759623,-4885.359217,9422.974625
602.419360,9770.718434,-9030.512492,9882.631924
602.419688,3849.070898,-15100.201217,8503.660028
602.420015,-5107.421000,-17690.922014,4826.401637
602.420343,-10955.047942,-18579.169144,1378.971896
602.420670,-11399.171507,-16580.613101,-689.485948
602.420998,-8364.327145,-13619.789333,-919.314598
602.421325,-518.144159,-11843.295072,919.314598
602.421653,0.000000,-9252.574275,-306.438199
602.421980,1332.370696,-6661.853478,-153.219100
602.422308,2368.659014,-4367.215058,-1915.238745
602.422635,1850.514855,-4441.235652,-2834.553343
602.422963,3034.844362,-4811.338623,-3830.477490
602.423290,2738.761985,-8142.265362,-3217.601092
602.423618,1406.391290,-8512.368333,-1608.800546
602.423945,2812.782580,-7772.162391,536.266849
602.424273,6513.812290,-9474.636058,5056.230287
602.424600,7476.080014,-9104.533087,5515.887586
602.424928,6735.874072,-10807.006753,4903.011187
602.425255,3034.844362,-14285.974681,3830.477490
602.425583,888.247130,-14804.118840,1991.848295
602.425910,444.123565,-11843.295072,1225.752797
602.426238,4293.194464,-9400.615463,2451.505594
602.426565,9844.739029,-8882.471304,3064.381992
602.426893,7772.162391,-8882.471304,3064.381992
602.427220,5551.544565,-7920.203579,2681.334243
602.427548,-444.123565,-7698.141797,1762.019645
602.427875,-3256.906145,-7624.121203,1838.629195
602.428203,-5255.462188,-9252.574275,842.705048
602.428530,-5995.668130,-11621.233289,536.266849
602.428858,-4589.276840,-12065.356855,1838.629195
602.429185,-3627.009116,-10140.821405,3447.429741
602.429513,-1110.308913,-7105.977043,5898.935335
602.429840,-1480.411884,-6217.729913,8503.660028
602.430168,-444.123565,-6291.750507,7201.297681
602.430495,-2442.679609,-6883.915261,6741.640382
602.430823,-4367.215058,-5847.626942,5515.887586
602.431150,-6513.812290,-5181.441594,4749.792088
602.431478,-5847.626942,-7031.956449,6435.202183
602.431805,-3256.906145,-7105.977043,6435.202183
602.432133,370.102971,-6291.750507,6971.469032
602.432460,3775.050304,-6587.832884,7431.126331
602.432788,3404.947333,-8142.265362,6894.859482
602.433115,444.123565,-9992.780217,6281.983084
602.433443,-2516.700203,-10732.986159,4903.011187
602.433770,-4811.338623,-12213.398043,3524.039291
602.434098,-5995.668130,-13471.748144,2451.505594
602.434425,-5329.482782,-13323.706956,2451.505594
602.434753,-3330.926739,-11177.109724,2834.553343
602.435080,74.020594,-8882.471304,4213.525239
602.435408,2072.576638,-7624.121203,4290.134789
602.435735,1776.494261,-7846.182985,3983.696590
602.436063,2220.617826,-7328.038826,3064.381992
602.436390,962.267725,-7402.059420,2451.505594
602.436718,-1184.329507,-8068.244768,2451.505594
602.437045,-2960.823768,-9178.553681,2298.286494
602.437373,-1554.432478,-9992.780217,3600.648841
602.437700,1332.370696,-9326.594869,4596.572988
602.438028,2812.782580,-10214.842000,5439.278036
602.438355,3404.947333,-10288.862594,5362.668486
602.438683,2220.617826,-9992.780217,4136.915689
602.439010,666.185348,-10807.006753,3064.381992
602.439338,-1184.329507,-11473.192101,1532.190996
602.439665,-888.247130,-11103.089130,1532.190996
602.439993,2146.597232,-9104.533087,2451.505594
602.440320,5033.400406,-8068.244768,3907.087040
602.440648,5551.544565,-9252.574275,5592.497135
602.440975,3849.070898,-10658.965565,6052.154434
602.441303,740.205942,-11325.150913,4826.401637
602.441630,-2442.679609,-12879.583391,3600.648841
602.441958,-5773.606348,-13989.892304,1838.629195
602.442285,-5995.668130,-12287.418637,2298.286494
602.442613,-3256.906145,-11029.068536,3064.381992
602.442940,-666.185348,-9474.636058,4290.134789
602.443268,-296.082377,-8438.347739,4519.963438
602.443595,-1554.432478,-7550.100608,4136.915689
602.443923,-3849.070898,-7254.018232,1302.362347
602.444250,-5921.647536,-7031.956449,-536.266849
602.444578,-4515.256246,-6143.709319,-1378.971896
602.444905,-1480.411884,-4885.359217,-1072.533697
602.445233,2368.659014,-5773.606348,919.314598
602.445560,4737.318029,-6069.688724,3830.477490
602.445888,4367.215058,-5477.523971,4213.525239
602.446215,2294.638420,-7402.059420,4060.306139
602.446543,740.205942,-9992.780217,3677.258390
602.446870,-1036.288319,-11547.212695,2757.943793
602.447198,-888.247130,-10881.027347,2374.896044
602.447525,-740.205942,-11473.192101,2145.067394
602.447853,1480.411884,-11695.253884,3370.820191
602.448180,1850.514855,-10214.842000,2911.162892
602.448508,814.226536,-9696.697840,1991.848295
602.448835,1332.370696,-9252.574275,1072.533697
602.449163,370.102971,-7846.182985,153.219100
602.449490,1554.432478,-5847.626942,-306.438199
602.449818,2146.597232,-6883.915261,153.219100
602.450145,3034.844362,-7698.141797,1302.362347
602.450473,1998.556043,-7550.100608,1838.629195
602.450800,-1258.350101,-7772.162391,1762.019645
602.451128,-1998.556043,-8290.306550,1915.238745
602.451455,-2960.823768,-8364.327145,1302.362347
602.451783,-3923.091493,-7920.203579,919.314598
602.452110,-3108.864956,-8734.430116,919.314598
602.452438,-2368.659014,-8216.285956,612.876398
602.452765,-3478.967927,-7772.162391,-153.219100
602.453093,-2368.659014,-6735.874072,-459.657299
602.453420,148.041188,-5329.482782,-459.657299
602.453748,2960.823768,-5847.626942,0.000000
602.454075,4811.338623,-6587.832884,1455.581446
602.454403,4071.132681,-8660.409521,1378.971896
602.454730,3256.906145,-10066.800811,2374.896044
602.455058,1036.288319,-11029.068536,2451.505594
602.455385,740.205942,-12435.459826,3064.381992
602.455713,518.144159,-12583.501014,3447.429741
602.456040,-518.144159,-13989.892304,3447.429741
602.456368,-814.226536,-13767.830521,3677.258390
602.456695,-2590.720797,-12065.356855,2451.505594
602.457023,-4293.194464,-11769.274478,919.314598
602.457350,-3849.070898,-10881.027347,612.876398
602.457678,-2368.659014,-8734.430116,0.000000
602.458005,-1628.453072,-7105.977043,-612.876398
602.458333,814.226536,-6587.832884,306.438199
602.458660,962.267725,-6143.709319,459.657299
602.458988,518.144159,-7105.977043,229.828649
602.459315,370.102971,-8216.285956,-536.266849
602.459643,74.020594,-9474.636058,383.047749
