#time,accel_x,accel_y,accel_z
51952.473878,-222.061783,-8956.491898,459.657299
51952.474205,-148.041188,-9178.553681,612.876398
51952.474533,-296.082377,-9104.533087,459.657299
51952.474860,-444.123565,-8882.471304,842.705048
51952.475188,-370.102971,-8734.430116,306.438199
51952.475515,-296.082377,-9104.533087,612.876398
51952.475843,-222.061783,-9178.553681,459.657299
51952.476170,-296.082377,-9030.512492,536.266849
51952.476498,-518.144159,-9326.594869,689.485948
51952.476825,-296.082377,-8882.471304,-229.828649
51952.477153,-222.061783,-9030.512492,459.657299
51952.477480,-296.082377,-9030.512492,612.876398
51952.477808,-444.123565,-9030.512492,536.266849
51952.478135,-296.082377,-9252.574275,612.876398
51952.478463,222.061783,-9252.574275,689.485948
51952.478790,-148.041188,-9178.553681,689.485948
51952.479118,-296.082377,-9104.533087,536.266849
51952.479445,-222.061783,-8956.491898,459.657299
51952.479773,0.000000,-9252.574275,383.047749
51952.480100,-148.041188,-8808.450710,229.828649
51952.480428,0.000000,-8882.471304,306.438199
51952.480756,-296.082377,-9252.574275,766.095498
51952.481083,-222.061783,-9104.533087,536.266849
51952.481411,-296.082377,-9030.512492,612.876398
51952.481738,0.000000,-9030.512492,995.924147
51952.482066,-222.061783,-9030.512492,612.876398
51952.482393,-296.082377,-9030.512492,536.266849
51952.482721,-444.123565,-8956.491898,689.485948
51952.483048,-296.082377,-9326.594869,536.266849
51952.483376,0.000000,-9252.574275,995.924147
51952.483703,0.000000,-8956.491898,995.924147
51952.484031,-148.041188,-9252.574275,536.266849
51952.484358,-148.041188,-9104.533087,689.485948
51952.484686,-370.102971,-9030.512492,536.266849
51952.485013,-296.082377,-9178.553681,459.657299
51952.485341,-222.061783,-8956.491898,689.485948
51952.485668,0.000000,-8956.491898,229.828649
51952.485996,0.000000,-9104.533087,689.485948
51952.486323,0.000000,-9326.594869,459.657299
51952.486651,0.000000,-9104.533087,536.266849
51952.486978,-222.061783,-9178.553681,842.705048
51952.487306,-148.041188,-9104.533087,383.047749
51952.487633,-370.102971,-9104.533087,689.485948
51952.487961,-444.123565,-8956.491898,306.438199
51952.488288,-222.061783,-9252.574275,689.485948
51952.488616,0.000000,-8956.491898,689.485948
51952.488943,0.000000,-9326.594869,919.314598
51952.489271,0.000000,-9252.574275,612.876398
51952.489598,-296.082377,-9104.533087,612.876398
51952.489926,-370.102971,-9178.553681,536.266849
51952.490253,-296.082377,-9252.574275,536.266849
51952.490581,0.000000,-9252.574275,612.876398
51952.490908,-222.061783,-8956.491898,766.095498
51952.491236,-370.102971,-9104.533087,689.485948
51952.491563,-222.061783,-8882.471304,612.876398
51952.491891,-296.082377,-9178.553681,536.266849
51952.492218,-222.061783,-9326.594869,612.876398
51952.492546,-518.144159,-9104.533087,536.266849
51952.492873,-296.082377,-9252.574275,612.876398
51952.493201,-148.041188,-9030.512492,306.438199
51952.493528,0.000000,-9326.594869,383.047749
51952.493856,0.000000,-9178.553681,306.438199
51952.494183,0.000000,-9252.574275,383.047749
51952.494511,-222.061783,-9030.512492,459.657299
51952.494838,-148.041188,-9178.553681,766.095498
51952.495166,-296.082377,-9030.512492,612.876398
51952.495494,0.000000,-8586.388927,536.266849
51952.495821,148.041188,-9178.553681,536.266849
51952.496149,-370.102971,-9252.574275,536.266849
51952.496476,-444.123565,-9030.512492,612.876398
51952.496804,-148.041188,-9400.615463,536.266849
51952.497131,-148.041188,-9104.533087,612.876398
51952.497459,-296.082377,-8956.491898,919.314598
51952.497786,-370.102971,-9104.533087,459.657299
51952.498114,-370.102971,-9252.574275,536.266849
51952.498441,-222.061783,-9178.553681,536.266849
51952.498769,-296.082377,-8956.491898,919.314598
51952.499097,0.000000,-8882.471304,842.705048
51952.499424,-444.123565,-9178.553681,612.876398
51952.499752,-222.061783,-8956.491898,536.266849
51952.500079,0.000000,-9030.512492,612.876398
51952.500407,-296.082377,-9178.553681,383.047749
51952.500734,148.041188,-9178.553681,995.924147
51952.501062,-148.041188,-8956.491898,459.657299
51952.501389,-296.082377,-9104.533087,536.266849
51952.501717,-370.102971,-8956.491898,536.266849
51952.502044,-148.041188,-9030.512492,536.266849
51952.502372,-148.041188,-8882.471304,536.266849
51952.502700,0.000000,-9030.512492,-153.219100
51952.503027,0.000000,-9178.553681,229.828649
51952.503355,-222.061783,-9030.512492,383.047749
51952.503682,-296.082377,-9178.553681,612.876398
51952.504010,0.000000,-9252.574275,459.657299
51952.504337,222.061783,-9400.615463,229.828649
51952.504665,-296.082377,-9030.512492,612.876398
51952.504992,-518.144159,-9178.553681,306.438199
51952.505320,-370.102971,-9252.574275,689.485948
51952.505647,-296.082377,-9400.615463,536.266849
51952.505975,74.020594,-9252.574275,536.266849
51952.506303,-370.102971,-8808.450710,1072.533697
51952.506630,-370.102971,-9178.553681,536.266849
51952.506958,-518.144159,-9104.533087,766.095498
51952.507285,-370.102971,-8956.491898,536.266849
51952.507613,-296.082377,-9104.533087,76.609550
51952.507940,-296.082377,-8956.491898,842.705048
51952.508268,-296.082377,-9030.512492,536.266849
51952.508595,-370.102971,-9030.512492,383.047749
51952.508923,-222.061783,-9104.533087,536.266849
51952.509250,-296.082377,-8512.368333,766.095498
51952.509578,0.000000,-9104.533087,842.705048
51952.509906,-222.061783,-9326.594869,612.876398
51952.510233,-370.102971,-9178.553681,536.266849
51952.510561,-296.082377,-9252.574275,612.876398
51952.510888,-222.061783,-9178.553681,383.047749
51952.511216,-370.102971,-8734.430116,689.485948
51952.511543,-370.102971,-9252.574275,306.438199
51952.511871,-148.041188,-9178.553681,536.266849
51952.512198,0.000000,-9252.574275,536.266849
51952.512526,-222.061783,-9252.574275,459.657299
51952.512854,-148.041188,-9178.553681,306.438199
51952.513181,296.082377,-9474.636058,536.266849
51952.513509,-222.061783,-9104.533087,459.657299
51952.513836,-296.082377,-8808.450710,229.828649
51952.514164,-370.102971,-9178.553681,612.876398
51952.514491,-222.061783,-8808.450710,766.095498
51952.514819,-222.061783,-8808.450710,612.876398
51952.515146,-296.082377,-9030.512492,536.266849
51952.515474,-370.102971,-8956.491898,689.485948
51952.515801,-444.123565,-9030.512492,612.876398
51952.516129,-296.082377,-8956.491898,153.219100
51952.516457,-222.061783,-8808.450710,612.876398
51952.516784,0.000000,-9104.533087,459.657299
51952.517112,-296.082377,-8882.471304,689.485948
51952.517439,-296.082377,-9178.553681,536.266849
51952.517767,-444.123565,-9178.553681,612.876398
51952.518094,-518.144159,-8438.347739,536.266849
51952.518422,-370.102971,-9104.533087,536.266849
51952.518749,-444.123565,-9104.533087,536.266849
51952.519077,-222.061783,-9178.553681,459.657299
51952.519404,-222.061783,-9104.533087,612.876398
51952.519732,-222.061783,-9030.512492,612.876398
51952.520060,0.000000,-9178.553681,153.219100
51952.520387,0.000000,-9400.615463,306.438199
51952.520715,-148.041188,-9104.533087,459.657299
51952.521042,0.000000,-9178.553681,383.047749
51952.521370,0.000000,-9178.553681,842.705048
51952.521697,-296.082377,-8882.471304,766.095498
51952.522025,-222.061783,-9326.594869,459.657299
51952.522352,-444.123565,-8882.471304,306.438199
51952.522680,0.000000,-9104.533087,536.266849
51952.523007,-222.061783,-9104.533087,76.609550
51952.523335,-370.102971,-8660.409521,459.657299
51952.523663,-370.102971,-8956.491898,612.876398
51952.523990,-222.061783,-9252.574275,459.657299
51952.524318,-370.102971,-9030.512492,612.876398
51952.524645,-222.061783,-9252.574275,459.657299
51952.524973,0.000000,-8882.471304,1072.533697
51952.525300,0.000000,-8956.491898,383.047749
51952.525628,-148.041188,-9104.533087,536.266849
51952.525955,-370.102971,-9104.533087,689.485948
51952.526283,-370.102971,-9326.594869,842.705048
51952.526611,-518.144159,-8956.491898,1072.533697
51952.526938,-222.061783,-8734.430116,459.657299
51952.527266,-296.082377,-9178.553681,536.266849
51952.527593,0.000000,-9030.512492,536.266849
51952.527921,0.000000,-9178.553681,459.657299
51952.528248,0.000000,-9030.512492,919.314598
51952.528576,0.000000,-9104.533087,919.314598
51952.528903,-518.144159,-9104.533087,536.266849
51952.529231,-296.082377,-9252.574275,459.657299
51952.529558,-296.082377,-9178.553681,536.266849
51952.529886,0.000000,-9252.574275,536.266849
51952.530214,0.000000,-9252.574275,766.095498
51952.530541,-148.041188,-9030.512492,612.876398
51952.530869,-370.102971,-9104.533087,459.657299
51952.531196,-296.082377,-9030.512492,383.047749
51952.531524,-444.123565,-9030.512492,459.657299
51952.531851,0.000000,-9030.512492,1225.752797
51952.532179,0.000000,-9178.553681,689.485948
51952.532506,-148.041188,-8882.471304,612.876398
51952.532834,0.000000,-9178.553681,612.876398
51952.533161,-296.082377,-9030.512492,689.485948
51952.533489,-148.041188,-8882.471304,229.828649
51952.533817,-148.041188,-9178.553681,995.924147
51952.534144,0.000000,-9030.512492,689.485948
51952.534472,-296.082377,-9178.553681,612.876398
51952.534799,-222.061783,-9178.553681,612.876398
51952.535127,0.000000,-8808.450710,153.219100
51952.535454,-296.082377,-9178.553681,536.266849
51952.535782,-296.082377,-9030.512492,229.828649
51952.536109,-296.082377,-9252.574275,306.438199
51952.536437,-370.102971,-9104.533087,536.266849
51952.536764,-518.144159,-9030.512492,229.828649
51952.537092,0.000000,-9696.697840,842.705048
51952.537420,-222.061783,-9104.533087,536.266849
51952.537747,-222.061783,-9178.553681,612.876398
51952.538075,-222.061783,-9030.512492,459.657299
51952.538402,-444.123565,-9030.512492,459.657299
51952.538730,0.000000,-9326.594869,0.000000
51952.539057,-370.102971,-9030.512492,842.705048
51952.539385,-148.041188,-9104.533087,536.266849
51952.539712,0.000000,-9178.553681,689.485948
51952.540040,-222.061783,-9104.533087,459.657299
51952.540367,-222.061783,-9326.594869,0.000000
51952.540695,-444.123565,-8956.491898,689.485948
51952.541023,-370.102971,-9252.574275,766.095498
51952.541350,-148.041188,-9104.533087,536.266849
51952.541678,-370.102971,-9178.553681,689.485948
51952.542005,-148.041188,-8882.471304,919.314598
51952.542333,0.000000,-8882.471304,766.095498
51952.542660,-370.102971,-9326.594869,612.876398
51952.542988,-296.082377,-9252.574275,536.266849
51952.543315,-296.082377,-9104.533087,459.657299
51952.543643,-370.102971,-9104.533087,306.438199
51952.543971,0.000000,-8808.450710,536.266849
51952.544298,-296.082377,-9104.533087,383.047749
51952.544626,-222.061783,-9104.533087,306.438199
51952.544953,-222.061783,-9252.574275,383.047749
51952.545281,-222.061783,-9030.512492,459.657299
51952.545608,-148.041188,-8956.491898,536.266849
51952.545936,0.000000,-9030.512492,306.438199
51952.546263,-148.041188,-9252.574275,689.485948
51952.546591,-444.123565,-9326.594869,536.266849
51952.546918,-296.082377,-9104.533087,842.705048
51952.547246,0.000000,-8808.450710,842.705048
51952.547574,-222.061783,-9104.533087,459.657299
51952.547901,-222.061783,-9178.553681,612.876398
51952.548229,-296.082377,-9104.533087,612.876398
51952.548556,-222.061783,-9030.512492,842.705048
51952.548884,0.000000,-9400.615463,459.657299
51952.549211,0.000000,-9178.553681,229.828649
51952.549539,-296.082377,-9178.553681,842.705048
51952.549866,-296.082377,-9030.512492,612.876398
51952.550194,-518.144159,-9104.533087,536.266849
51952.550521,-296.082377,-9104.533087,459.657299
51952.550849,-222.061783,-9252.574275,229.828649
51952.551177,-296.082377,-8956.491898,612.876398
51952.551504,-296.082377,-9104.533087,536.266849
51952.551832,-296.082377,-9252.574275,689.485948
51952.552159,-296.082377,-9326.594869,536.266849
51952.552487,-148.041188,-9030.512492,0.000000
51952.552814,-444.123565,-9252.574275,1302.362347
51952.553142,-370.102971,-9178.553681,306.438199
51952.553469,-148.041188,-9030.512492,383.047749
51952.553797,0.000000,-9178.553681,306.438199
51952.554124,148.041188,-9474.636058,536.266849
51952.554452,0.000000,-8882.471304,229.828649
51952.554780,-222.061783,-9178.553681,689.485948
51952.555107,-148.041188,-9252.574275,459.657299
51952.555435,-370.102971,-9104.533087,306.438199
51952.555762,-518.144159,-8882.471304,612.876398
51952.556090,0.000000,-9030.512492,383.047749
51952.556417,-296.082377,-9104.533087,842.705048
51952.556745,-296.082377,-9104.533087,383.047749
51952.557072,-370.102971,-8956.491898,536.266849
51952.557400,-148.041188,-9104.533087,766.095498
51952.557728,-222.061783,-9030.512492,229.828649
51952.558055,-370.102971,-9104.533087,689.485948
51952.558383,-444.123565,-9030.512492,766.095498
51952.558710,-370.102971,-9030.512492,612.876398
51952.559038,-370.102971,-9178.553681,766.095498
51952.559365,-296.082377,-8734.430116,612.876398
51952.559693,0.000000,-9030.512492,612.876398
51952.560020,-222.061783,-9252.574275,459.657299
51952.560348,-444.123565,-9104.533087,153.219100
51952.560675,-296.082377,-9104.533087,383.047749
51952.561003,0.000000,-9030.512492,536.266849
51952.561331,0.000000,-8660.409521,536.266849
51952.561658,-370.102971,-9104.533087,536.266849
51952.561986,-296.082377,-9030.512492,459.657299
51952.562313,0.000000,-9178.553681,383.047749
51952.562641,-148.041188,-9252.574275,459.657299
51952.562968,0.000000,-8956.491898,383.047749
51952.563296,-296.082377,-9178.553681,536.266849
51952.563623,-222.061783,-9252.574275,459.657299
51952.563951,0.000000,-9030.512492,536.266849
51952.564278,-370.102971,-9030.512492,459.657299
51952.564606,-222.061783,-8734.430116,689.485948
51952.564934,-296.082377,-8808.450710,842.705048
51952.565261,-370.102971,-9104.533087,459.657299
51952.565589,-518.144159,-9030.512492,612.876398
51952.565916,-444.123565,-9104.533087,612.876398
51952.566244,-222.061783,-9030.512492,842.705048
51952.566571,-370.102971,-8660.409521,0.000000
51952.566899,-222.061783,-9030.512492,459.657299
51952.567226,-222.061783,-9178.553681,612.876398
51952.567554,-444.123565,-9030.512492,459.657299
51952.567881,-962.267725,-9252.574275,612.876398
51952.568209,0.000000,-9104.533087,766.095498
51952.568537,0.000000,-9326.594869,689.485948
51952.568864,-444.123565,-9178.553681,612.876398
51952.569192,-592.164754,-8956.491898,536.266849
51952.569519,-296.082377,-9030.512492,383.047749
51952.569847,-222.061783,-8808.450710,995.924147
51952.570174,-222.061783,-8956.491898,842.705048
51952.570502,-222.061783,-9178.553681,306.438199
51952.570829,-222.061783,-9178.553681,766.095498
51952.571157,-222.061783,-9178.553681,459.657299
51952.571484,222.061783,-9030.512492,842.705048
51952.571812,0.000000,-8586.388927,612.876398
51952.572140,-148.041188,-9178.553681,689.485948
51952.572467,-370.102971,-9178.553681,689.485948
51952.572795,-444.123565,-9104.533087,536.266849
51952.573122,-222.061783,-9030.512492,766.095498
51952.573450,148.041188,-8808.450710,842.705048
51952.573777,0.000000,-9104.533087,612.876398
51952.574105,-222.061783,-9178.553681,766.095498
51952.574432,-222.061783,-9104.533087,612.876398
51952.574760,-74.020594,-9252.574275,612.876398
51952.575088,-444.123565,-8956.491898,689.485948
51952.575415,-148.041188,-9326.594869,612.876398
51952.575743,-296.082377,-8956.491898,612.876398
51952.576070,-444.123565,-9326.594869,536.266849
51952.576398,-370.102971,-9104.533087,459.657299
51952.576725,0.000000,-8956.491898,689.485948
51952.577053,-370.102971,-8808.450710,612.876398
51952.577380,-222.061783,-9178.553681,536.266849
51952.577708,-296.082377,-9178.553681,459.657299
51952.578035,-296.082377,-9104.533087,459.657299
51952.578363,0.000000,-9030.512492,459.657299
51952.578691,0.000000,-9030.512492,383.047749
51952.579018,-222.061783,-9030.512492,459.657299
51952.579346,-148.041188,-9178.553681,459.657299
51952.579673,-296.082377,-9178.553681,306.438199
51952.580001,-296.082377,-8882.471304,76.609550
51952.580328,-370.102971,-8882.471304,383.047749
51952.580656,0.000000,-9104.533087,383.047749
51952.580983,-296.082377,-9104.533087,536.266849
51952.581311,-148.041188,-9178.553681,459.657299
51952.581638,-222.061783,-9178.553681,689.485948
51952.581966,-222.061783,-8660.409521,689.485948
51952.582294,0.000000,-9030.512492,766.095498
51952.582621,-370.102971,-9030.512492,689.485948
51952.582949,-370.102971,-9252.574275,536.266849
51952.583276,-370.102971,-9104.533087,536.266849
51952.583604,0.000000,-9030.512492,1149.143247
51952.583931,-370.102971,-8956.491898,536.266849
51952.584259,-444.123565,-8956.491898,612.876398
51952.584586,-222.061783,-9252.574275,383.047749
51952.584914,-222.061783,-9178.553681,842.705048
51952.585241,0.000000,-9400.615463,842.705048
51952.585569,-296.082377,-9178.553681,842.705048
51952.585897,-222.061783,-9178.553681,612.876398
51952.586224,-222.061783,-9178.553681,536.266849
51952.586552,-222.061783,-9178.553681,536.266849
51952.586879,-222.061783,-9178.553681,536.266849
51952.587207,-370.102971,-8512.368333,536.266849
51952.587534,-296.082377,-9030.512492,536.266849
51952.587862,-296.082377,-9104.533087,459.657299
51952.588189,-296.082377,-9326.594869,383.047749
51952.588517,-370.102971,-9252.574275,459.657299
51952.588845,-592.164754,-8734.430116,612.876398
51952.589172,-148.041188,-9030.512492,612.876398
51952.589500,0.000000,-9252.574275,459.657299
51952.589827,0.000000,-9252.574275,612.876398
51952.590155,-222.061783,-9252.574275,536.266849
51952.590482,-148.041188,-9104.533087,153.219100
51952.590810,-518.144159,-9030.512492,536.266849
51952.591137,-370.102971,-9252.574275,229.828649
51952.591465,-370.102971,-9104.533087,689.485948
51952.591792,0.000000,-9252.574275,612.876398
51952.592120,0.000000,-9030.512492,842.705048
51952.592448,0.000000,-9030.512492,766.095498
51952.592775,-296.082377,-9030.512492,612.876398
51952.593103,-370.102971,-9030.512492,689.485948
51952.593430,-370.102971,-9252.574275,536.266849
51952.593758,-222.061783,-8660.409521,459.657299
51952.594085,0.000000,-9030.512492,612.876398
51952.594413,-370.102971,-8882.471304,536.266849
51952.594740,-296.082377,-8956.491898,612.876398
51952.595068,-296.082377,-9178.553681,459.657299
51952.595395,-296.082377,-9178.553681,689.485948
51952.595723,-222.061783,-8808.450710,766.095498
51952.596051,-296.082377,-8956.491898,229.828649
51952.596378,-296.082377,-9030.512492,383.047749
51952.596704,-148.041188,-9252.574275,536.266849
51952.597032,0.000000,-9326.594869,689.485948
51952.597359,-148.041188,-9178.553681,766.095498
51952.597687,0.000000,-9326.594869,383.047749
51952.598014,0.000000,-9326.594869,459.657299
51952.598342,-444.123565,-9326.594869,306.438199
51952.598669,-296.082377,-9104.533087,459.657299
51952.598997,-296.082377,-8882.471304,842.705048
51952.599324,0.000000,-9030.512492,306.438199
51952.599652,-296.082377,-9252.574275,612.876398
51952.599979,-222.061783,-8956.491898,459.657299
51952.600307,-296.082377,-9178.553681,689.485948
51952.600634,-148.041188,-8956.491898,536.266849
51952.600962,-370.102971,-8882.471304,383.047749
51952.601289,-370.102971,-9104.533087,459.657299
51952.601617,-370.102971,-9178.553681,459.657299
51952.601944,-222.061783,-9104.533087,612.876398
51952.602272,-296.082377,-9104.533087,689.485948
51952.602599,-592.164754,-8808.450710,612.876398
51952.602927,-222.061783,-9030.512492,306.438199
51952.603254,-444.123565,-9252.574275,536.266849
51952.603582,-370.102971,-9252.574275,612.876398
51952.603909,-518.144159,-9104.533087,612.876398
51952.604236,-296.082377,-9030.512492,612.876398
51952.604564,-296.082377,-9030.512492,383.047749
51952.604891,-296.082377,-9252.574275,689.485948
51952.605219,0.000000,-9104.533087,536.266849
51952.605546,-222.061783,-9252.574275,612.876398
51952.605874,-148.041188,-9400.615463,459.657299
51952.606201,0.000000,-9178.553681,919.314598
51952.606529,-296.082377,-9178.553681,459.657299
51952.606856,-222.061783,-9178.553681,536.266849
51952.607184,-148.041188,-9104.533087,689.485948
51952.607511,-370.102971,-8882.471304,459.657299
51952.607839,-296.082377,-8808.450710,383.047749
51952.608166,-370.102971,-9178.553681,459.657299
51952.608494,-370.102971,-9030.512492,536.266849
51952.608821,-296.082377,-9178.553681,842.705048
51952.609149,-148.041188,-9252.574275,689.485948
51952.609476,-518.144159,-8586.388927,612.876398
51952.609804,-222.061783,-9104.533087,459.657299
51952.610131,-370.102971,-9178.553681,612.876398
51952.610459,-296.082377,-9178.553681,306.438199
51952.610786,-148.041188,-9252.574275,383.047749
51952.611114,0.000000,-8882.471304,612.876398
51952.611441,0.000000,-9030.512492,383.047749
51952.611769,-148.041188,-9178.553681,612.876398
51952.612096,0.000000,-9104.533087,536.266849
51952.612424,-148.041188,-9104.533087,536.266849
51952.612751,-148.041188,-9104.533087,766.095498
51952.613079,-222.061783,-9030.512492,766.095498
51952.613406,-148.041188,-9104.533087,459.657299
51952.613734,-296.082377,-9104.533087,536.266849
51952.614061,-148.041188,-9326.594869,306.438199
51952.614389,-222.061783,-9252.574275,536.266849
51952.614716,-370.102971,-8956.491898,0.000000
51952.615044,-370.102971,-8956.491898,612.876398
51952.615371,-370.102971,-9030.512492,536.266849
51952.615699,0.000000,-9178.553681,536.266849
51952.616026,-222.061783,-9326.594869,536.266849
51952.616354,-222.061783,-9474.636058,153.219100
51952.616681,-370.102971,-9104.533087,612.876398
51952.617009,-222.061783,-9104.533087,536.266849
51952.617336,-296.082377,-9030.512492,459.657299
51952.617664,0.000000,-9030.512492,612.876398
51952.617991,0.000000,-9178.553681,153.219100
51952.618319,-296.082377,-9030.512492,842.705048
51952.618646,-370.102971,-9104.533087,536.266849
51952.618974,-444.123565,-9030.512492,689.485948
51952.619301,-222.061783,-9400.615463,612.876398
51952.619629,74.020594,-8956.491898,919.314598
51952.619956,-148.041188,-8956.491898,612.876398
51952.620284,-296.082377,-9252.574275,459.657299
51952.620611,-296.082377,-9030.512492,459.657299
51952.620939,-444.123565,-9104.533087,612.876398
51952.621266,-370.102971,-9178.553681,995.924147
51952.621594,-444.123565,-8956.491898,1072.533697
51952.621921,-444.123565,-9030.512492,612.876398
51952.622249,-148.041188,-8956.491898,536.266849
51952.622576,-222.061783,-9178.553681,536.266849
51952.622904,-222.061783,-9326.594869,612.876398
51952.623231,-444.123565,-8512.368333,1072.533697
51952.623559,-222.061783,-9030.512492,383.047749
51952.623886,-222.061783,-8956.491898,536.266849
51952.624214,-296.082377,-9178.553681,536.266849
51952.624541,-296.082377,-9178.553681,536.266849
51952.624869,0.000000,-9104.533087,536.266849
51952.625196,0.000000,-9178.553681,536.266849
51952.625524,-370.102971,-9178.553681,459.657299
51952.625851,-148.041188,-9252.574275,612.876398
51952.626179,0.000000,-9030.512492,689.485948
51952.626506,0.000000,-9104.533087,383.047749
51952.626834,-370.102971,-9104.533087,919.314598
51952.627161,-296.082377,-9400.615463,536.266849
51952.627489,-444.123565,-9178.553681,612.876398
51952.627816,-222.061783,-9030.512492,612.876398
51952.628143,-444.123565,-9104.533087,689.485948
51952.628471,-370.102971,-8882.471304,306.438199
51952.628798,-222.061783,-8882.471304,536.266849
51952.629126,-222.061783,-9178.553681,536.266849
51952.629453,-370.102971,-9104.533087,536.266849
51952.629781,-444.123565,-9178.553681,612.876398
51952.630108,-296.082377,-9252.574275,383.047749
51952.630436,-444.123565,-8882.471304,536.266849
51952.630763,-296.082377,-9030.512492,766.095498
51952.631091,0.000000,-9104.533087,383.047749
51952.631418,-296.082377,-9178.553681,689.485948
51952.631746,-444.123565,-8808.450710,306.438199
51952.632073,-370.102971,-9104.533087,306.438199
51952.632401,-444.123565,-9104.533087,612.876398
51952.632728,-222.061783,-9252.574275,536.266849
51952.633056,-222.061783,-9326.594869,153.219100
51952.633383,148.041188,-9474.636058,612.876398
51952.633711,0.000000,-8808.450710,612.876398
51952.634038,0.000000,-9252.574275,766.095498
51952.634366,-148.041188,-9252.574275,383.047749
51952.634693,-296.082377,-9252.574275,306.438199
51952.635021,-296.082377,-9178.553681,383.047749
51952.635348,-814.226536,-8956.491898,995.924147
51952.635676,-148.041188,-9104.533087,459.657299
51952.636003,-222.061783,-9178.553681,612.876398
51952.636331,-222.061783,-9178.553681,766.095498
51952.636658,0.000000,-9030.512492,612.876398
51952.636986,-296.082377,-8586.388927,766.095498
51952.637313,-370.102971,-9252.574275,842.705048
51952.637641,-296.082377,-9178.553681,459.657299
51952.637968,-296.082377,-9178.553681,536.266849
51952.638296,-296.082377,-8956.491898,689.485948
51952.638623,0.000000,-8808.450710,1608.800546
51952.638951,0.000000,-8734.430116,536.266849
51952.639278,-222.061783,-9252.574275,459.657299
51952.639606,-148.041188,-9104.533087,689.485948
51952.639933,-222.061783,-9178.553681,612.876398
51952.640261,0.000000,-8956.491898,459.657299
51952.640588,0.000000,-9252.574275,536.266849
51952.640916,-444.123565,-9178.553681,766.095498
51952.641243,0.000000,-9326.594869,612.876398
51952.641571,-222.061783,-9252.574275,612.876398
51952.641898,-296.082377,-9030.512492,306.438199
51952.642226,74.020594,-9104.533087,612.876398
51952.642553,-222.061783,-9252.574275,536.266849
51952.642881,-296.082377,-8956.491898,612.876398
51952.643208,-370.102971,-9030.512492,612.876398
51952.643536,-148.041188,-9030.512492,766.095498
51952.643863,-148.041188,-9030.512492,766.095498
51952.644191,-296.082377,-9030.512492,536.266849
51952.644518,-518.144159,-9252.574275,306.438199
51952.644846,-296.082377,-9104.533087,536.266849
51952.645173,-296.082377,-9030.512492,459.657299
51952.645501,0.000000,-8882.471304,459.657299
51952.645828,-148.041188,-8734.430116,919.314598
51952.646156,0.000000,-9178.553681,766.095498
51952.646483,0.000000,-9178.553681,612.876398
51952.646811,-148.041188,-9104.533087,459.657299
51952.647138,-148.041188,-8882.471304,612.876398
51952.647466,-370.102971,-8660.409521,612.876398
51952.647793,-296.082377,-9178.553681,612.876398
51952.648121,-296.082377,-9178.553681,383.047749
51952.648448,0.000000,-9030.512492,612.876398
51952.648776,-148.041188,-9104.533087,612.876398
51952.649103,-370.102971,-9030.512492,842.705048
51952.649431,-370.102971,-9178.553681,459.657299
51952.649758,-296.082377,-9178.553681,536.266849
51952.650086,-370.102971,-9178.553681,383.047749
51952.650413,-296.082377,-9104.533087,612.876398
51952.650741,0.000000,-8660.409521,536.266849
51952.651068,0.000000,-9030.512492,76.609550
51952.651396,-296.082377,-9178.553681,459.657299
51952.651723,-444.123565,-8956.491898,689.485948
51952.652051,-222.061783,-9178.553681,612.876398
51952.652378,-592.164754,-9178.553681,842.705048
51952.652705,-222.061783,-8882.471304,766.095498
51952.653033,-296.082377,-9104.533087,612.876398
51952.653360,0.000000,-9326.594869,612.876398
51952.653688,-296.082377,-9252.574275,612.876398
51952.654015,-148.041188,-9178.553681,766.095498
51952.654343,0.000000,-9030.512492,459.657299
51952.654670,0.000000,-9104.533087,306.438199
51952.654998,-518.144159,-9104.533087,612.876398
51952.655325,-148.041188,-9326.594869,459.657299
51952.655653,-222.061783,-9252.574275,459.657299
51952.655980,74.020594,-9548.656652,612.876398
51952.656308,0.000000,-9178.553681,383.047749
51952.656635,-148.041188,-9030.512492,536.266849
51952.656963,-296.082377,-9030.512492,383.047749
51952.657290,-296.082377,-9104.533087,459.657299
51952.657618,-148.041188,-9400.615463,383.047749
51952.657945,-148.041188,-9104.533087,76.609550
51952.658273,-296.082377,-9252.574275,536.266849
51952.658600,-222.061783,-9104.533087,612.876398
51952.658928,-296.082377,-9178.553681,536.266849
51952.659255,-222.061783,-8882.471304,842.705048
51952.659583,-370.102971,-9104.533087,689.485948
51952.659910,-592.164754,-9030.512492,383.047749
51952.660238,-296.082377,-9030.512492,612.876398
51952.660565,-222.061783,-9030.512492,612.876398
51952.660893,-296.082377,-9030.512492,766.095498
51952.661220,0.000000,-8808.450710,459.657299
51952.661548,-370.102971,-9030.512492,766.095498
51952.661875,-444.123565,-9030.512492,536.266849
51952.662203,-444.123565,-9104.533087,536.266849
51952.662530,-296.082377,-9178.553681,383.047749
51952.662858,-370.102971,-8586.388927,536.266849
51952.663185,-148.041188,-9030.512492,536.266849
51952.663513,-222.061783,-9178.553681,612.876398
51952.663840,-148.041188,-9326.594869,536.266849
51952.664168,-370.102971,-9178.553681,536.266849
51952.664495,-148.041188,-9178.553681,536.266849
51952.664823,0.000000,-9104.533087,76.609550
51952.665150,0.000000,-9178.553681,306.438199
51952.665478,-370.102971,-9178.553681,536.266849
51952.665805,-148.041188,-9178.553681,383.047749
51952.666133,-296.082377,-8882.471304,842.705048
51952.666460,-222.061783,-9104.533087,689.485948
51952.666788,-444.123565,-9104.533087,536.266849
51952.667115,-370.102971,-9104.533087,459.657299
51952.667443,-444.123565,-9178.553681,612.876398
51952.667770,-444.123565,-9030.512492,612.876398
51952.668098,-370.102971,-8882.471304,919.314598
51952.668425,-222.061783,-8882.471304,612.876398
51952.668753,-444.123565,-8956.491898,689.485948
51952.669080,-370.102971,-9178.553681,612.876398
51952.669408,-370.102971,-8956.491898,229.828649
51952.669735,-296.082377,-9326.594869,536.266849
51952.670063,296.082377,-9104.533087,76.609550
51952.670390,-148.041188,-9178.553681,459.657299
51952.670718,-296.082377,-9178.553681,766.095498
51952.671045,-370.102971,-9252.574275,383.047749
51952.671373,-148.041188,-9030.512492,689.485948
51952.671700,0.000000,-9030.512492,383.047749
51952.672028,-148.041188,-9252.574275,459.657299
51952.672355,-370.102971,-9178.553681,612.876398
51952.672683,-296.082377,-9104.533087,306.438199
51952.673010,-222.061783,-9104.533087,766.095498
51952.673338,74.020594,-8808.450710,612.876398
51952.673665,-296.082377,-9178.553681,689.485948
51952.673993,-296.082377,-9326.594869,689.485948
51952.674320,-148.041188,-9030.512492,536.266849
51952.674648,-296.082377,-9104.533087,536.266849
51952.674975,-370.102971,-8660.409521,842.705048
51952.675303,0.000000,-8882.471304,612.876398
51952.675630,-222.061783,-9104.533087,536.266849
51952.675958,-222.061783,-9030.512492,536.266849
51952.676285,-296.082377,-9178.553681,612.876398
51952.676613,0.000000,-8808.450710,459.657299
51952.676940,0.000000,-8956.491898,689.485948
51952.677267,-296.082377,-9252.574275,229.828649
51952.677595,-296.082377,-9104.533087,383.047749
51952.677922,-222.061783,-9104.533087,612.876398
51952.678250,0.000000,-8660.409521,536.266849
51952.678577,0.000000,-9178.553681,383.047749
51952.678905,-222.061783,-9252.574275,536.266849
51952.679232,-370.102971,-9178.553681,153.219100
51952.679560,-296.082377,-9104.533087,383.047749
51952.679887,-370.102971,-8808.450710,153.219100
51952.680215,0.000000,-8808.450710,842.705048
51952.680542,-222.061783,-9104.533087,383.047749
51952.680870,-444.123565,-9104.533087,383.047749
51952.681197,-296.082377,-9030.512492,459.657299
51952.681525,-296.082377,-9326.594869,383.047749
51952.681852,-444.123565,-8512.368333,306.438199
51952.682180,-148.041188,-9178.553681,459.657299
51952.682507,-370.102971,-8882.471304,536.266849
51952.682835,-370.102971,-9252.574275,766.095498
51952.683162,-222.061783,-9178.553681,689.485948
51952.683490,-148.041188,-9030.512492,689.485948
51952.683817,-296.082377,-8956.491898,229.828649
51952.684145,-148.041188,-9252.574275,536.266849
51952.684472,-296.082377,-9104.533087,766.095498
51952.684800,-444.123565,-8956.491898,536.266849
51952.685127,0.000000,-8956.491898,766.095498
51952.685455,-222.061783,-8882.471304,842.705048
51952.685782,-370.102971,-9178.553681,536.266849
51952.686110,-148.041188,-9252.574275,306.438199
51952.686437,0.000000,-9178.553681,459.657299
51952.686765,-222.061783,-9326.594869,536.266849
51952.687092,-518.144159,-8734.430116,536.266849
51952.687420,-148.041188,-9252.574275,153.219100
51952.687747,-370.102971,-9252.574275,306.438199
51952.688075,-296.082377,-9178.553681,459.657299
51952.688402,-296.082377,-9104.533087,612.876398
51952.688730,-370.102971,-8586.388927,842.705048
51952.689057,0.000000,-9252.574275,612.876398
51952.689385,0.000000,-9104.533087,459.657299
51952.689712,0.000000,-9104.533087,842.705048
51952.690040,0.000000,-9178.553681,612.876398
51952.690367,-148.041188,-9326.594869,306.438199
51952.690695,0.000000,-8956.491898,995.924147
51952.691022,-296.082377,-9178.553681,612.876398
51952.691350,-296.082377,-8956.491898,689.485948
51952.691677,-222.061783,-9178.553681,612.876398
51952.692005,0.000000,-9104.533087,689.485948
51952.692332,-296.082377,-8734.430116,459.657299
51952.692660,-444.123565,-9178.553681,459.657299
51952.692987,-222.061783,-9178.553681,612.876398
51952.693315,-296.082377,-9252.574275,383.047749
51952.693642,-296.082377,-9178.553681,536.266849
51952.693970,0.000000,-8882.471304,306.438199
51952.694297,-296.082377,-9104.533087,536.266849
51952.694625,-296.082377,-9030.512492,229.828649
51952.694952,-296.082377,-9178.553681,536.266849
51952.695280,-296.082377,-9104.533087,383.047749
51952.695607,-296.082377,-8882.471304,383.047749
51952.695935,-222.061783,-9104.533087,612.876398
51952.696262,0.000000,-9104.533087,536.266849
51952.696590,0.000000,-9252.574275,459.657299
51952.696917,0.000000,-9252.574275,536.266849
51952.697245,0.000000,-9178.553681,459.657299
51952.697572,-444.123565,-8882.471304,842.705048
51952.697900,-296.082377,-9252.574275,383.047749
51952.698227,-222.061783,-9252.574275,383.047749
51952.698555,-296.082377,-9326.594869,766.095498
51952.698882,0.000000,-9030.512492,306.438199
51952.699210,74.020594,-9030.512492,766.095498
51952.699537,0.000000,-8956.491898,536.266849
51952.699865,-222.061783,-9178.553681,459.657299
51952.700192,-296.082377,-9178.553681,536.266849
51952.700520,-296.082377,-9104.533087,612.876398
51952.700847,-148.041188,-8882.471304,612.876398
51952.701175,0.000000,-9104.533087,229.828649
51952.701502,0.000000,-9252.574275,842.705048
51952.701830,-222.061783,-8882.471304,459.657299
51952.702157,-296.082377,-9252.574275,459.657299
51952.702484,0.000000,-9178.553681,459.657299
51952.702812,-370.102971,-9030.512492,612.876398
51952.703139,-296.082377,-9252.574275,536.266849
51952.703467,-296.082377,-9104.533087,383.047749
51952.703794,-222.061783,-9252.574275,383.047749
51952.704122,-148.041188,-9252.574275,995.924147
51952.704449,-148.041188,-9104.533087,229.828649
51952.704777,-296.082377,-9178.553681,612.876398
51952.705104,-296.082377,-9252.574275,306.438199
51952.705432,-370.102971,-9030.512492,459.657299
51952.705759,-148.041188,-9178.553681,459.657299
51952.706087,0.000000,-9252.574275,0.000000
51952.706414,-222.061783,-9178.553681,612.876398
51952.706742,-370.102971,-9178.553681,612.876398
51952.707069,-222.061783,-9178.553681,612.876398
51952.707397,-370.102971,-8882.471304,536.266849
51952.707724,0.000000,-9104.533087,306.438199
51952.708052,-148.041188,-8956.491898,766.095498
51952.708379,-296.082377,-9104.533087,689.485948
51952.708707,-148.041188,-9252.574275,689.485948
51952.709034,0.000000,-9104.533087,612.876398
51952.709362,-222.061783,-8956.491898,536.266849
51952.709689,-518.144159,-9178.553681,1225.752797
51952.710017,-370.102971,-9252.574275,459.657299
51952.710344,-370.102971,-9178.553681,459.657299
51952.710672,-370.102971,-9104.533087,612.876398
51952.710999,-296.082377,-9474.636058,919.314598
51952.711327,-222.061783,-8956.491898,689.485948
51952.711654,-222.061783,-9030.512492,306.438199
51952.711982,-222.061783,-9030.512492,459.657299
51952.712309,-222.061783,-9252.574275,459.657299
51952.712637,-296.082377,-9030.512492,459.657299
51952.712964,0.000000,-8808.450710,919.314598
51952.713292,-222.061783,-9030.512492,229.828649
51952.713619,-296.082377,-9030.512492,689.485948
51952.713947,-296.082377,-9030.512492,536.266849
51952.714274,-296.082377,-8956.491898,766.095498
51952.714602,-370.102971,-8882.471304,1149.143247
51952.714929,148.041188,-8956.491898,842.705048
51952.715257,-370.102971,-8882.471304,536.266849
51952.715584,-444.123565,-9252.574275,459.657299
51952.715912,-296.082377,-9030.512492,536.266849
51952.716239,-222.061783,-8734.430116,229.828649
51952.716567,74.020594,-8882.471304,536.266849
51952.716894,-222.061783,-9178.553681,689.485948
51952.717222,-222.061783,-9252.574275,459.657299
51952.717549,-222.061783,-9030.512492,459.657299
51952.717877,-148.041188,-9030.512492,383.047749
51952.718204,-148.041188,-8956.491898,306.438199
51952.718532,-222.061783,-9178.553681,612.876398
51952.718859,-222.061783,-9030.512492,612.876398
51952.719187,-370.102971,-9104.533087,459.657299
51952.719514,0.000000,-9178.553681,306.438199
51952.719842,0.000000,-8956.491898,536.266849
51952.720169,0.000000,-9252.574275,229.828649
51952.720497,-148.041188,-9400.615463,689.485948
51952.720824,-222.061783,-9178.553681,536.266849
51952.721152,-148.041188,-9104.533087,459.657299
51952.721479,-444.123565,-8364.327145,689.485948
51952.721807,74.020594,-9030.512492,383.047749
51952.722134,-444.123565,-8882.471304,536.266849
51952.722462,-370.102971,-8956.491898,383.047749
51952.722789,-444.123565,-9252.574275,536.266849
51952.723117,-148.041188,-8956.491898,306.438199
51952.723444,-444.123565,-9104.533087,1072.533697
51952.723772,-148.041188,-8956.491898,842.705048
51952.724099,-296.082377,-9104.533087,612.876398
51952.724427,-370.102971,-9178.553681,612.876398
51952.724754,-296.082377,-9622.677246,919.314598
51952.725082,-296.082377,-8734.430116,995.924147
51952.725409,-370.102971,-9178.553681,612.876398
51952.725737,-222.061783,-9030.512492,689.485948
51952.726064,-222.061783,-9178.553681,689.485948
51952.726392,-518.144159,-9178.553681,536.266849
51952.726719,-370.102971,-8586.388927,1072.533697
51952.727047,0.000000,-9178.553681,612.876398
51952.727374,-222.061783,-9178.553681,459.657299
51952.727702,-370.102971,-8956.491898,383.047749
51952.728029,-222.061783,-9104.533087,383.047749
51952.728357,-592.164754,-8956.491898,689.485948
51952.728684,74.020594,-9252.574275,229.828649
51952.729012,-222.061783,-9178.553681,689.485948
51952.729339,-222.061783,-9326.594869,383.047749
51952.729666,-518.144159,-9030.512492,536.266849
51952.729994,-296.082377,-8808.450710,919.314598
51952.730321,0.000000,-9030.512492,766.095498
51952.730649,-296.082377,-9104.533087,459.657299
51952.730976,-222.061783,-9104.533087,612.876398
51952.731304,-370.102971,-9104.533087,459.657299
51952.731631,0.000000,-9252.574275,612.876398
51952.731959,0.000000,-8808.450710,612.876398
51952.732286,-444.123565,-8956.491898,459.657299
51952.732614,-370.102971,-9178.553681,766.095498
51952.732941,-370.102971,-9178.553681,383.047749
51952.733269,-296.082377,-9030.512492,459.657299
51952.733596,0.000000,-9030.512492,306.438199
51952.733924,0.000000,-9252.574275,689.485948
51952.734251,-222.061783,-9252.574275,459.657299
51952.734579,-222.061783,-9178.553681,459.657299
51952.734906,-148.041188,-9104.533087,536.266849
51952.735234,-222.061783,-9030.512492,689.485948
51952.735561,0.000000,-9030.512492,689.485948
51952.735889,-222.061783,-9178.553681,306.438199
51952.736216,-222.061783,-9104.533087,536.266849
51952.736544,-296.082377,-9178.553681,536.266849
51952.736871,-148.041188,-8808.450710,153.219100
51952.737199,-296.082377,-8956.491898,536.266849
51952.737526,0.000000,-9252.574275,459.657299
51952.737854,-222.061783,-9030.512492,459.657299
51952.738181,0.000000,-9030.512492,536.266849
51952.738509,-296.082377,-9252.574275,612.876398
51952.738836,-222.061783,-8586.388927,919.314598
51952.739164,-222.061783,-9104.533087,689.485948
51952.739491,-370.102971,-9178.553681,536.266849
51952.739819,-296.082377,-9104.533087,766.095498
51952.740146,0.000000,-9178.553681,612.876398
51952.740474,-222.061783,-9252.574275,842.705048
51952.740801,-370.102971,-8660.409521,612.876398
51952.741129,-148.041188,-8956.491898,459.657299
51952.741456,-370.102971,-9178.553681,612.876398
51952.741784,-296.082377,-9030.512492,459.657299
51952.742111,0.000000,-9252.574275,995.924147
51952.742439,0.000000,-9030.512492,1149.143247
51952.742766,-370.102971,-9252.574275,306.438199
51952.743094,-222.061783,-9030.512492,306.438199
51952.743421,-222.061783,-9030.512492,536.266849
51952.743749,0.000000,-9178.553681,229.828649
51952.744076,-296.082377,-8660.409521,536.266849
51952.744404,-222.061783,-9104.533087,612.876398
51952.744731,-222.061783,-9104.533087,383.047749
51952.745059,-222.061783,-9326.594869,306.438199
51952.745386,-222.061783,-9178.553681,76.609550
51952.745714,0.000000,-9548.656652,842.705048
51952.746041,0.000000,-9104.533087,459.657299
51952.746369,-148.041188,-9178.553681,459.657299
51952.746696,-296.082377,-9178.553681,306.438199
51952.747024,-222.061783,-9104.533087,766.095498
51952.747351,-222.061783,-8586.388927,153.219100
51952.747679,-296.082377,-9030.512492,536.266849
51952.748006,-370.102971,-9252.574275,612.876398
51952.748334,-444.123565,-9104.533087,766.095498
51952.748661,-370.102971,-9178.553681,612.876398
51952.748989,0.000000,-8882.471304,459.657299
51952.749316,-148.041188,-9030.512492,612.876398
51952.749644,-222.061783,-9178.553681,842.705048
51952.749971,-370.102971,-9252.574275,612.876398
51952.750299,-148.041188,-9252.574275,536.266849
51952.750626,-222.061783,-8956.491898,459.657299
51952.750954,-148.041188,-8882.471304,612.876398
51952.751281,-148.041188,-9030.512492,842.705048
51952.751609,-296.082377,-9252.574275,766.095498
51952.751936,-296.082377,-8956.491898,612.876398
51952.752264,-296.082377,-9252.574275,536.266849
51952.752591,-296.082377,-8956.491898,842.705048
51952.752919,74.020594,-9178.553681,612.876398
51952.753246,-222.061783,-9178.553681,689.485948
51952.753574,0.000000,-9252.574275,612.876398
51952.753901,-296.082377,-9104.533087,536.266849
51952.754229,-296.082377,-9030.512492,536.266849
51952.754556,-296.082377,-8956.491898,383.047749
51952.754884,-518.144159,-9030.512492,612.876398
51952.755211,-296.082377,-9030.512492,459.657299
51952.755539,-370.102971,-9104.533087,842.705048
51952.755866,0.000000,-8808.450710,689.485948
51952.756194,0.000000,-9178.553681,612.876398
51952.756521,-370.102971,-8956.491898,536.266849
51952.756848,-592.164754,-9178.553681,383.047749
51952.757176,-444.123565,-8882.471304,459.657299
51952.757503,-296.082377,-9178.553681,612.876398
51952.757831,-296.082377,-8660.409521,1072.533697
51952.758158,-296.082377,-9104.533087,612.876398
51952.758486,-148.041188,-9252.574275,229.828649
51952.758813,-148.041188,-9030.512492,306.438199
51952.759141,-222.061783,-9104.533087,383.047749
51952.759468,0.000000,-9178.553681,612.876398
51952.759796,-370.102971,-9104.533087,536.266849
51952.760123,-148.041188,-9252.574275,612.876398
51952.760451,-222.061783,-9104.533087,459.657299
51952.760778,-296.082377,-9104.533087,536.266849
51952.761106,-370.102971,-8586.388927,1072.533697
51952.761433,222.061783,-9326.594869,383.047749
51952.761761,-370.102971,-8882.471304,612.876398
51952.762088,-370.102971,-9030.512492,459.657299
51952.762416,-296.082377,-9252.574275,536.266849
51952.762743,-148.041188,-8808.450710,536.266849
51952.763071,-370.102971,-9030.512492,612.876398
51952.763398,-148.041188,-9030.512492,536.266849
51952.763726,-370.102971,-9030.512492,536.266849
51952.764053,-222.061783,-9104.533087,766.095498
51952.764381,-592.164754,-8956.491898,536.266849
51952.764708,0.000000,-9178.553681,153.219100
51952.765036,0.000000,-9104.533087,536.266849
51952.765363,-296.082377,-9030.512492,459.657299
51952.765691,-296.082377,-9030.512492,536.266849
51952.766018,-370.102971,-8956.491898,612.876398
51952.766346,-296.082377,-8956.491898,153.219100
51952.766673,-296.082377,-8808.450710,459.657299
51952.767001,-444.123565,-9104.533087,612.876398
51952.767328,-370.102971,-9178.553681,459.657299
51952.767656,-148.041188,-9252.574275,459.657299
51952.767983,0.000000,-9326.594869,689.485948
51952.768311,0.000000,-9104.533087,766.095498
51952.768638,-222.061783,-9252.574275,383.047749
51952.768966,-222.061783,-9030.512492,306.438199
51952.769293,-222.061783,-9104.533087,459.657299
51952.769621,-148.041188,-9104.533087,306.438199
51952.769948,0.000000,-8734.430116,612.876398
51952.770276,-370.102971,-9178.553681,383.047749
51952.770603,0.000000,-9252.574275,306.438199
51952.770931,-296.082377,-9178.553681,536.266849
51952.771258,-296.082377,-9104.533087,689.485948
51952.771586,0.000000,-9104.533087,1072.533697
51952.771913,-148.041188,-9104.533087,536.266849
51952.772241,-222.061783,-9252.574275,536.266849
51952.772568,-222.061783,-9252.574275,612.876398
51952.772896,0.000000,-9104.533087,459.657299
51952.773223,0.000000,-8956.491898,689.485948
51952.773551,-370.102971,-9252.574275,459.657299
51952.773878,-296.082377,-9178.553681,459.657299
51952.774206,-370.102971,-9104.533087,536.266849
51952.774533,-222.061783,-9178.553681,536.266849
51952.774861,0.000000,-9104.533087,459.657299
51952.775188,0.000000,-8956.491898,919.314598
51952.775516,-296.082377,-9252.574275,689.485948
51952.775843,-370.102971,-9030.512492,153.219100
51952.776171,-370.102971,-9178.553681,459.657299
51952.776498,-296.082377,-9030.512492,459.657299
51952.776826,0.000000,-9326.594869,536.266849
51952.777153,0.000000,-9252.574275,383.047749
51952.777481,-148.041188,-9326.594869,536.266849
51952.777808,0.000000,-9252.574275,383.047749
51952.778136,0.000000,-9178.553681,536.266849
51952.778463,148.041188,-8956.491898,1072.533697
51952.778791,-148.041188,-9030.512492,229.828649
51952.779118,-222.061783,-9252.574275,306.438199
51952.779446,-222.061783,-9326.594869,612.876398
51952.779773,-370.102971,-9104.533087,612.876398
51952.780101,-518.144159,-8586.388927,153.219100
51952.780428,-222.061783,-8956.491898,919.314598
51952.780756,-296.082377,-9030.512492,766.095498
51952.781083,-296.082377,-8956.491898,612.876398
51952.781411,-444.123565,-8882.471304,766.095498
51952.781738,-444.123565,-9178.553681,229.828649
51952.782066,-518.144159,-8882.471304,766.095498
51952.782393,-370.102971,-8956.491898,612.876398
51952.782721,-370.102971,-9030.512492,459.657299
51952.783048,-444.123565,-8882.471304,536.266849
51952.783376,-222.061783,-9104.533087,536.266849
51952.783703,-296.082377,-8956.491898,459.657299
51952.784030,-296.082377,-9030.512492,766.095498
51952.784358,-222.061783,-8956.491898,459.657299
51952.784685,0.000000,-9178.553681,383.047749
51952.785013,0.000000,-9178.553681,536.266849
51952.785340,148.041188,-9104.533087,1685.410096
51952.785668,0.000000,-9252.574275,229.828649
51952.785995,0.000000,-9178.553681,689.485948
51952.786323,0.000000,-9030.512492,536.266849
51952.786650,0.000000,-9326.594869,306.438199
51952.786978,-592.164754,-8808.450710,919.314598
51952.787305,0.000000,-9178.553681,306.438199
51952.787633,-296.082377,-9178.553681,459.657299
51952.787960,-444.123565,-9104.533087,383.047749
51952.788288,-444.123565,-9030.512492,536.266849
51952.788615,-148.041188,-9030.512492,1149.143247
51952.788943,-74.020594,-8808.450710,612.876398
51952.789270,-222.061783,-9104.533087,459.657299
51952.789598,-444.123565,-9030.512492,536.266849
51952.789925,-370.102971,-9104.533087,536.266849
51952.790253,-370.102971,-9104.533087,383.047749
51952.790580,-296.082377,-9030.512492,766.095498
51952.790908,-222.061783,-8956.491898,766.095498
51952.791235,-148.041188,-9104.533087,689.485948
51952.791563,-296.082377,-9104.533087,612.876398
51952.791890,0.000000,-9326.594869,383.047749
51952.792218,0.000000,-8956.491898,1302.362347
51952.792545,-296.082377,-9178.553681,459.657299
51952.792873,-370.102971,-9030.512492,229.828649
51952.793200,0.000000,-9252.574275,536.266849
51952.793528,-148.041188,-9178.553681,536.266849
51952.793855,-370.102971,-8808.450710,995.924147
51952.794183,0.000000,-9622.677246,383.047749
51952.794510,-296.082377,-9252.574275,612.876398
51952.794838,-222.061783,-9252.574275,383.047749
51952.795165,0.000000,-9104.533087,459.657299
51952.795493,-222.061783,-8586.388927,689.485948
51952.795820,-444.123565,-9030.512492,459.657299
51952.796148,-370.102971,-9104.533087,689.485948
51952.796475,-296.082377,-9178.553681,842.705048
51952.796803,-296.082377,-8956.491898,459.657299
51952.797130,-222.061783,-9104.533087,536.266849
51952.797458,0.000000,-9178.553681,1149.143247
51952.797785,-592.164754,-8956.491898,536.266849
51952.798113,-518.144159,-8956.491898,383.047749
51952.798440,-222.061783,-9104.533087,383.047749
51952.798768,-148.041188,-9178.553681,766.095498
51952.799096,-296.082377,-9178.553681,459.657299
51952.799423,0.000000,-9030.512492,229.828649
51952.799751,0.000000,-9178.553681,689.485948
51952.800078,-296.082377,-9030.512492,536.266849
51952.800406,-370.102971,-9104.533087,612.876398
51952.800733,-370.102971,-9104.533087,612.876398
51952.801061,148.041188,-9030.512492,459.657299
51952.801388,0.000000,-9178.553681,383.047749
51952.801716,-296.082377,-9178.553681,383.047749
51952.802043,-296.082377,-9178.553681,689.485948
51952.802371,-222.061783,-9178.553681,459.657299
51952.802698,0.000000,-9178.553681,536.266849
51952.803026,-222.061783,-9030.512492,766.095498
51952.803353,-296.082377,-9178.553681,689.485948
51952.803681,-296.082377,-9178.553681,536.266849
51952.804008,-370.102971,-9030.512492,536.266849
51952.804336,-222.061783,-9178.553681,76.609550
51952.804663,-296.082377,-8808.450710,689.485948
51952.804991,-518.144159,-9104.533087,459.657299
51952.805319,-370.102971,-8956.491898,689.485948
51952.805646,-296.082377,-9030.512492,612.876398
51952.805974,0.000000,-9178.553681,153.219100
51952.806301,-444.123565,-9030.512492,1378.971896
51952.806629,-370.102971,-9030.512492,689.485948
51952.806956,-518.144159,-9178.553681,612.876398
51952.807284,-296.082377,-9178.553681,612.876398
51952.807611,148.041188,-9474.636058,766.095498
51952.807939,148.041188,-9030.512492,689.485948
51952.808266,-222.061783,-9030.512492,612.876398
51952.808594,0.000000,-9178.553681,459.657299
51952.808921,-222.061783,-9252.574275,612.876398
51952.809249,-370.102971,-9178.553681,459.657299
51952.809576,-370.102971,-8808.450710,766.095498
51952.809904,0.000000,-9030.512492,383.047749
51952.810231,0.000000,-9104.533087,612.876398
51952.810559,-222.061783,-9104.533087,459.657299
51952.810886,-222.061783,-9326.594869,612.876398
51952.811214,-444.123565,-9104.533087,995.924147
51952.811542,0.000000,-9326.594869,612.876398
51952.811869,-296.082377,-9178.553681,536.266849
51952.812197,-148.041188,-9178.553681,383.047749
51952.812524,-148.041188,-9104.533087,612.876398
51952.812852,-222.061783,-8808.450710,1149.143247
51952.813179,0.000000,-8734.430116,612.876398
51952.813507,-370.102971,-9178.553681,766.095498
51952.813834,-296.082377,-9030.512492,689.485948
51952.814162,-296.082377,-9030.512492,612.876398
51952.814489,-222.061783,-9178.553681,383.047749
51952.814817,0.000000,-8734.430116,689.485948
51952.815144,-370.102971,-9104.533087,536.266849
51952.815472,0.000000,-9178.553681,536.266849
51952.815799,-222.061783,-9178.553681,459.657299
51952.816127,-148.041188,-9104.533087,536.266849
51952.816454,0.000000,-8660.409521,536.266849
51952.816782,-296.082377,-9178.553681,536.266849
51952.817109,-296.082377,-9104.533087,383.047749
51952.817437,-296.082377,-9178.553681,306.438199
51952.817765,0.000000,-9178.553681,612.876398
51952.818092,-222.061783,-9474.636058,459.657299
51952.818420,-148.041188,-8586.388927,995.924147
51952.818747,0.000000,-9178.553681,689.485948
51952.819075,-296.082377,-9104.533087,612.876398
51952.819402,-296.082377,-9178.553681,612.876398
51952.819730,-222.061783,-8586.388927,536.266849
51952.820057,-222.061783,-8586.388927,766.095498
51952.820385,-444.123565,-8882.471304,689.485948
51952.820712,-222.061783,-9030.512492,689.485948
51952.821040,-370.102971,-9178.553681,689.485948
51952.821367,-370.102971,-9104.533087,1225.752797
51952.821695,74.020594,-9030.512492,612.876398
51952.822022,-296.082377,-8956.491898,383.047749
51952.822350,-296.082377,-9104.533087,459.657299
51952.822677,-296.082377,-8956.491898,536.266849
51952.823005,-148.041188,-9030.512492,536.266849
51952.823332,-148.041188,-9030.512492,536.266849
51952.823660,-296.082377,-9030.512492,689.485948
51952.823988,-296.082377,-9178.553681,383.047749
51952.824315,-222.061783,-9178.553681,612.876398
51952.824643,0.000000,-9178.553681,229.828649
51952.824970,0.000000,-9326.594869,536.266849
51952.825298,148.041188,-9252.574275,842.705048
51952.825625,-222.061783,-9326.594869,612.876398
51952.825953,-222.061783,-9178.553681,459.657299
51952.826280,-370.102971,-9104.533087,612.876398
51952.826608,-296.082377,-9030.512492,536.266849
51952.826935,0.000000,-8956.491898,919.314598
51952.827263,-296.082377,-9178.553681,536.266849
51952.827590,-296.082377,-9178.553681,459.657299
51952.827918,-148.041188,-9030.512492,229.828649
51952.828245,-370.102971,-9178.553681,612.876398
51952.828573,-592.164754,-9104.533087,1302.362347
51952.828900,-444.123565,-8956.491898,459.657299
51952.829228,-296.082377,-9252.574275,842.705048
51952.829556,0.000000,-9252.574275,919.314598
51952.829883,-296.082377,-8956.491898,689.485948
51952.830211,-222.061783,-8808.450710,689.485948
51952.830538,0.000000,-9104.533087,536.266849
51952.830866,-370.102971,-9178.553681,536.266849
51952.831193,0.000000,-9104.533087,383.047749
51952.831521,-222.061783,-9030.512492,536.266849
51952.831848,0.000000,-8808.450710,919.314598
51952.832176,0.000000,-8956.491898,919.314598
51952.832503,-296.082377,-9030.512492,383.047749
51952.832831,-222.061783,-9326.594869,536.266849
51952.833158,-370.102971,-9252.574275,383.047749
51952.833486,-148.041188,-9030.512492,229.828649
51952.833813,-148.041188,-8882.471304,0.000000
51952.834141,-148.041188,-9030.512492,383.047749
51952.834468,-444.123565,-9178.553681,612.876398
51952.834796,-222.061783,-9178.553681,306.438199
51952.835123,0.000000,-9252.574275,536.266849
51952.835451,0.000000,-8660.409521,612.876398
51952.835779,-222.061783,-9178.553681,766.095498
51952.836106,-370.102971,-9030.512492,383.047749
51952.836434,-296.082377,-9326.594869,536.266849
51952.836761,-296.082377,-9178.553681,689.485948
51952.837089,-370.102971,-8882.471304,766.095498
51952.837416,-222.061783,-9104.533087,306.438199
51952.837744,-444.123565,-9030.512492,612.876398
51952.838071,-444.123565,-9030.512492,612.876398
51952.838399,-370.102971,-9252.574275,459.657299
51952.838726,-444.123565,-9030.512492,766.095498
51952.839054,-370.102971,-9030.512492,153.219100
51952.839381,0.000000,-9252.574275,306.438199
51952.839709,-592.164754,-9178.553681,612.876398
51952.840036,-296.082377,-9104.533087,612.876398
51952.840364,-592.164754,-9178.553681,919.314598
51952.840691,-148.041188,-8808.450710,0.000000
51952.841019,-222.061783,-9030.512492,459.657299
51952.841346,-148.041188,-9252.574275,153.219100
51952.841674,-370.102971,-9104.533087,306.438199
51952.842002,-222.061783,-9252.574275,459.657299
51952.842329,74.020594,-9178.553681,1072.533697
51952.842657,-148.041188,-9104.533087,459.657299
51952.842984,-148.041188,-9252.574275,459.657299
51952.843312,-370.102971,-9178.553681,689.485948
51952.843639,-296.082377,-9104.533087,459.657299
51952.843967,-222.061783,-9030.512492,229.828649
51952.844294,0.000000,-8660.409521,689.485948
51952.844622,-222.061783,-9178.553681,536.266849
51952.844949,-296.082377,-9104.533087,536.266849
51952.845277,-370.102971,-9104.533087,612.876398
51952.845604,0.000000,-8808.450710,1149.143247
51952.845932,-444.123565,-8956.491898,459.657299
51952.846259,-518.144159,-9104.533087,842.705048
51952.846587,-444.123565,-9104.533087,536.266849
51952.846914,-296.082377,-9252.574275,459.657299
51952.847242,-296.082377,-9104.533087,919.314598
51952.847569,0.000000,-8882.471304,689.485948
51952.847897,-518.144159,-9030.512492,766.095498
51952.848225,-444.123565,-9252.574275,383.047749
51952.848552,-296.082377,-9030.512492,383.047749
51952.848880,0.000000,-9326.594869,383.047749
51952.849207,222.061783,-9252.574275,689.485948
51952.849535,0.000000,-9030.512492,536.266849
51952.849862,0.000000,-9178.553681,536.266849
51952.850190,-296.082377,-9178.553681,612.876398
51952.850517,-222.061783,-9178.553681,536.266849
51952.850845,-518.144159,-9030.512492,1225.752797
51952.851172,-222.061783,-9252.574275,383.047749
51952.851500,-296.082377,-9252.574275,612.876398
51952.851827,-296.082377,-9104.533087,383.047749
51952.852155,-148.041188,-8882.471304,536.266849
51952.852482,370.102971,-9104.533087,766.095498
51952.852810,0.000000,-8808.450710,919.314598
51952.853137,-370.102971,-9030.512492,536.266849
51952.853465,-296.082377,-9178.553681,536.266849
51952.853792,-296.082377,-9030.512492,459.657299
51952.854120,-148.041188,-9252.574275,0.000000
51952.854448,-444.123565,-8734.430116,919.314598
51952.854775,-148.041188,-9104.533087,459.657299
51952.855103,-296.082377,-9252.574275,612.876398
51952.855430,-444.123565,-9252.574275,536.266849
51952.855758,-370.102971,-8956.491898,536.266849
51952.856085,-444.123565,-8660.409521,536.266849
51952.856413,-148.041188,-9400.615463,689.485948
51952.856740,-148.041188,-9104.533087,306.438199
51952.857068,0.000000,-9252.574275,383.047749
51952.857395,-148.041188,-9178.553681,536.266849
51952.857723,-370.102971,-8808.450710,1378.971896
51952.858050,0.000000,-9178.553681,229.828649
51952.858378,-296.082377,-9252.574275,383.047749
51952.858705,-444.123565,-9252.574275,229.828649
51952.859033,-444.123565,-9178.553681,612.876398
51952.859360,148.041188,-9252.574275,766.095498
51952.859688,0.000000,-9104.533087,383.047749
51952.860015,-148.041188,-9104.533087,612.876398
51952.860343,-370.102971,-9104.533087,612.876398
51952.860671,-296.082377,-9178.553681,459.657299
51952.860998,-444.123565,-9178.553681,766.095498
51952.861326,-148.041188,-8734.430116,612.876398
51952.861653,-148.041188,-9252.574275,842.705048
51952.861981,-444.123565,-9104.533087,536.266849
51952.862308,0.000000,-9178.553681,459.657299
51952.862636,-296.082377,-9030.512492,612.876398
51952.862963,0.000000,-9104.533087,995.924147
51952.863291,-666.185348,-8956.491898,842.705048
51952.863618,0.000000,-9178.553681,383.047749
51952.863946,0.000000,-8956.491898,689.485948
51952.864273,-222.061783,-8956.491898,459.657299
51952.864601,-222.061783,-8734.430116,153.219100
51952.864928,0.000000,-9178.553681,842.705048
51952.865256,-370.102971,-9104.533087,612.876398
51952.865583,0.000000,-9178.553681,459.657299
51952.865911,-370.102971,-9178.553681,612.876398
51952.866239,-148.041188,-8956.491898,612.876398
51952.866566,0.000000,-8882.471304,612.876398
51952.866894,0.000000,-9400.615463,612.876398
51952.867221,-222.061783,-9326.594869,689.485948
51952.867549,-296.082377,-8882.471304,612.876398
51952.867876,-370.102971,-9326.594869,766.095498
51952.868204,-296.082377,-9030.512492,1072.533697
51952.868531,-296.082377,-9178.553681,612.876398
51952.868859,-370.102971,-8956.491898,612.876398
51952.869186,-370.102971,-9178.553681,459.657299
51952.869514,-148.041188,-9030.512492,689.485948
51952.869841,0.000000,-9326.594869,0.000000
51952.870169,-222.061783,-8882.471304,383.047749
51952.870496,-296.082377,-8956.491898,612.876398
51952.870824,-444.123565,-8956.491898,612.876398
51952.871151,-370.102971,-9252.574275,459.657299
51952.871479,-148.041188,-9252.574275,153.219100
51952.871806,-148.041188,-8734.430116,612.876398
51952.872134,-296.082377,-9178.553681,459.657299
51952.872462,-222.061783,-9252.574275,459.657299
51952.872789,-296.082377,-9252.574275,459.657299
51952.873117,-296.082377,-8956.491898,306.438199
51952.873444,0.000000,-9178.553681,306.438199
51952.873772,-222.061783,-9030.512492,459.657299
51952.874099,-222.061783,-9400.615463,383.047749
51952.874427,-222.061783,-9104.533087,459.657299
51952.874754,0.000000,-9030.512492,536.266849
51952.875082,-148.041188,-8734.430116,1149.143247
51952.875409,0.000000,-8956.491898,536.266849
51952.875737,-222.061783,-9252.574275,383.047749
51952.876064,-444.123565,-9030.512492,536.266849
51952.876392,-296.082377,-9104.533087,536.266849
51952.876719,0.000000,-8734.430116,766.095498
51952.877047,0.000000,-8956.491898,612.876398
51952.877374,-222.061783,-9178.553681,612.876398
51952.877702,-296.082377,-9030.512492,536.266849
51952.878029,-222.061783,-8956.491898,459.657299
51952.878357,0.000000,-9104.533087,766.095498
51952.878685,0.000000,-9104.533087,612.876398
51952.879012,-370.102971,-8882.471304,919.314598
51952.879340,-444.123565,-8882.471304,689.485948
51952.879667,-296.082377,-9030.512492,383.047749
51952.879995,-148.041188,-9104.533087,919.314598
51952.880322,0.000000,-8956.491898,1072.533697
51952.880650,-370.102971,-9030.512492,689.485948
51952.880977,0.000000,-9400.615463,306.438199
51952.881305,-222.061783,-9252.574275,612.876398
51952.881632,-222.061783,-9030.512492,383.047749
51952.881960,0.000000,-9104.533087,766.095498
51952.882287,-148.041188,-9104.533087,536.266849
51952.882615,-444.123565,-8956.491898,612.876398
51952.882942,-296.082377,-9178.553681,383.047749
51952.883270,-296.082377,-9178.553681,459.657299
51952.883597,-444.123565,-8882.471304,1302.362347
51952.883925,0.000000,-9178.553681,689.485948
51952.884252,-518.144159,-9030.512492,612.876398
51952.884580,-518.144159,-9178.553681,459.657299
51952.884908,-296.082377,-9030.512492,689.485948
51952.885235,0.000000,-8956.491898,689.485948
51952.885563,0.000000,-8808.450710,766.095498
51952.885890,-222.061783,-9104.533087,689.485948
51952.886218,-222.061783,-9030.512492,612.876398
51952.886545,-222.061783,-9030.512492,536.266849
51952.886873,0.000000,-9030.512492,0.000000
51952.887200,-444.123565,-9104.533087,919.314598
51952.887528,0.000000,-9178.553681,383.047749
51952.887855,-370.102971,-9030.512492,459.657299
51952.888183,-296.082377,-9252.574275,612.876398
51952.888510,-296.082377,-9326.594869,459.657299
51952.888838,-222.061783,-8660.409521,842.705048
51952.889165,0.000000,-9252.574275,536.266849
51952.889493,0.000000,-9252.574275,459.657299
51952.889820,-296.082377,-9326.594869,536.266849
51952.890148,-148.041188,-9030.512492,536.266849
51952.890475,-296.082377,-8734.430116,1149.143247
51952.890803,0.000000,-9400.615463,536.266849
51952.891131,-296.082377,-9030.512492,383.047749
51952.891458,-148.041188,-9178.553681,689.485948
51952.891786,-370.102971,-9030.512492,766.095498
51952.892113,74.020594,-9178.553681,766.095498
51952.892441,0.000000,-9030.512492,919.314598
51952.892768,-222.061783,-9326.594869,536.266849
51952.893096,-222.061783,-9104.533087,536.266849
51952.893423,-444.123565,-9252.574275,689.485948
51952.893751,-444.123565,-9030.512492,536.266849
51952.894078,0.000000,-9030.512492,919.314598
51952.894406,-148.041188,-8956.491898,842.705048
51952.894733,-148.041188,-9104.533087,689.485948
51952.895061,-222.061783,-9178.553681,536.266849
51952.895388,-222.061783,-9030.512492,536.266849
51952.895716,-148.041188,-9030.512492,1532.190996
51952.896043,-518.144159,-9104.533087,612.876398
51952.896371,0.000000,-9252.574275,459.657299
51952.896698,-222.061783,-9178.553681,383.047749
51952.897026,-222.061783,-9326.594869,536.266849
51952.897354,0.000000,-9104.533087,612.876398
51952.897681,0.000000,-9326.594869,459.657299
51952.898009,-296.082377,-9326.594869,306.438199
51952.898336,-296.082377,-9326.594869,612.876398
51952.898664,-296.082377,-9104.533087,536.266849
51952.898991,0.000000,-8660.409521,689.485948
51952.899319,74.020594,-9178.553681,612.876398
51952.899646,-148.041188,-9104.533087,766.095498
51952.899973,-148.041188,-9252.574275,612.876398
51952.900301,0.000000,-9104.533087,612.876398
51952.900628,-222.061783,-9252.574275,383.047749
51952.900956,222.061783,-9400.615463,459.657299
51952.901283,-296.082377,-8956.491898,536.266849
51952.901611,-370.102971,-9104.533087,689.485948
51952.901938,-296.082377,-9030.512492,536.266849
51952.902266,-296.082377,-9178.553681,612.876398
51952.902593,0.000000,-9030.512492,306.438199
51952.902921,-370.102971,-9030.512492,383.047749
51952.903248,-296.082377,-9104.533087,536.266849
51952.903576,-148.041188,-9030.512492,229.828649
51952.903903,-222.061783,-9178.553681,536.266849
51952.904231,-296.082377,-9326.594869,76.609550
51952.904558,0.000000,-9030.512492,766.095498
51952.904886,-296.082377,-9104.533087,689.485948
51952.905213,-148.041188,-9178.553681,383.047749
51952.905541,-370.102971,-9178.553681,536.266849
51952.905868,-148.041188,-8808.450710,689.485948
51952.906196,0.000000,-8956.491898,842.705048
51952.906523,-148.041188,-9030.512492,153.219100
51952.906851,-296.082377,-9104.533087,383.047749
51952.907178,-296.082377,-9030.512492,383.047749
51952.907506,-222.061783,-9104.533087,383.047749
51952.907833,-370.102971,-8882.471304,612.876398
51952.908161,-296.082377,-9178.553681,536.266849
51952.908488,-222.061783,-9178.553681,689.485948
51952.908816,-222.061783,-9104.533087,612.876398
51952.909143,-370.102971,-8956.491898,536.266849
51952.909471,-222.061783,-8956.491898,919.314598
51952.909798,-148.041188,-9030.512492,842.705048
51952.910126,-296.082377,-9178.553681,536.266849
51952.910453,-444.123565,-9178.553681,383.047749
51952.910781,-222.061783,-9030.512492,536.266849
51952.911108,-370.102971,-8734.430116,842.705048
51952.911436,0.000000,-9104.533087,612.876398
51952.911763,-148.041188,-9178.553681,612.876398
51952.912091,-222.061783,-9252.574275,459.657299
51952.912418,-296.082377,-9104.533087,536.266849
51952.912746,-148.041188,-8882.471304,459.657299
51952.913073,0.000000,-8808.450710,536.266849
51952.913401,0.000000,-9252.574275,383.047749
51952.913728,-148.041188,-9326.594869,612.876398
51952.914056,0.000000,-9252.574275,306.438199
51952.914383,-370.102971,-9178.553681,536.266849
51952.914710,0.000000,-9252.574275,459.657299
51952.915038,-370.102971,-9030.512492,536.266849
51952.915365,-296.082377,-9252.574275,383.047749
51952.915693,-370.102971,-9252.574275,689.485948
51952.916020,-222.061783,-9326.594869,536.266849
51952.916348,-148.041188,-9178.553681,766.095498
51952.916675,0.000000,-8882.471304,306.438199
51952.917003,0.000000,-9178.553681,459.657299
51952.917330,-370.102971,-9178.553681,612.876398
51952.917658,-222.061783,-9178.553681,459.657299
51952.917985,0.000000,-8956.491898,1072.533697
51952.918313,0.000000,-9030.512492,459.657299
51952.918640,0.000000,-9252.574275,536.266849
51952.918968,0.000000,-9178.553681,536.266849
51952.919295,-296.082377,-9104.533087,536.266849
51952.919623,-296.082377,-9178.553681,612.876398
51952.919950,-148.041188,-8734.430116,919.314598
51952.920278,-370.102971,-9030.512492,612.876398
51952.920605,-296.082377,-8956.491898,459.657299
51952.920933,-222.061783,-9030.512492,766.095498
51952.921260,-296.082377,-9104.533087,689.485948
51952.921588,-370.102971,-8956.491898,689.485948
51952.921915,222.061783,-8956.491898,459.657299
51952.922243,-148.041188,-9178.553681,459.657299
51952.922570,-296.082377,-9030.512492,306.438199
51952.922898,-370.102971,-9326.594869,383.047749
51952.923225,-592.164754,-8512.368333,919.314598
51952.923553,0.000000,-9474.636058,459.657299
51952.923880,-148.041188,-9178.553681,536.266849
51952.924208,-148.041188,-9252.574275,536.266849
51952.924535,0.000000,-9178.553681,459.657299
51952.924863,74.020594,-8956.491898,383.047749
51952.925190,-370.102971,-9104.533087,919.314598
51952.925518,-148.041188,-9178.553681,842.705048
51952.925845,-296.082377,-9104.533087,383.047749
51952.926173,-296.082377,-9178.553681,612.876398
51952.926500,0.000000,-9104.533087,383.047749
51952.926828,-222.061783,-8882.471304,536.266849
51952.927155,-370.102971,-9178.553681,689.485948
51952.927483,-222.061783,-9178.553681,842.705048
51952.927810,-370.102971,-9178.553681,536.266849
51952.928138,-296.082377,-9178.553681,383.047749
51952.928465,-444.123565,-8438.347739,459.657299
51952.928793,-296.082377,-8956.491898,995.924147
51952.929120,-296.082377,-9030.512492,536.266849
51952.929447,-296.082377,-9104.533087,459.657299
51952.929775,-148.041188,-9252.574275,459.657299
51952.930102,-296.082377,-9400.615463,612.876398
51952.930430,-148.041188,-9104.533087,306.438199
51952.930757,-148.041188,-9178.553681,536.266849
51952.931085,-296.082377,-9104.533087,383.047749
51952.931412,-148.041188,-9252.574275,766.095498
51952.931740,-148.041188,-8882.471304,995.924147
51952.932067,-148.041188,-9030.512492,766.095498
51952.932395,-222.061783,-9104.533087,383.047749
51952.932722,0.000000,-9326.594869,536.266849
51952.933050,-222.061783,-9178.553681,612.876398
51952.933377,-296.082377,-9178.553681,459.657299
51952.933705,-222.061783,-8734.430116,842.705048
51952.934032,0.000000,-9178.553681,536.266849
51952.934360,0.000000,-9252.574275,536.266849
51952.934687,-296.082377,-9030.512492,842.705048
51952.935015,-296.082377,-9178.553681,459.657299
51952.935342,0.000000,-9252.574275,536.266849
51952.935670,-222.061783,-8956.491898,459.657299
51952.935997,-296.082377,-9030.512492,459.657299
51952.936325,-370.102971,-9326.594869,459.657299
51952.936652,-148.041188,-9178.553681,536.266849
51952.936980,-222.061783,-9252.574275,919.314598
51952.937307,74.020594,-8882.471304,536.266849
51952.937635,-148.041188,-9030.512492,536.266849
51952.937962,0.000000,-8956.491898,536.266849
51952.938290,-296.082377,-9104.533087,689.485948
51952.938617,-370.102971,-8882.471304,766.095498
51952.938945,-296.082377,-8734.430116,689.485948
51952.939272,0.000000,-9030.512492,689.485948
51952.939600,-222.061783,-9104.533087,459.657299
51952.939927,-222.061783,-9030.512492,766.095498
51952.940255,-370.102971,-9104.533087,383.047749
51952.940582,-148.041188,-8956.491898,612.876398
51952.940910,-444.123565,-9252.574275,383.047749
51952.941237,-148.041188,-9178.553681,383.047749
51952.941565,-222.061783,-9252.574275,459.657299
51952.941892,0.000000,-9104.533087,459.657299
51952.942220,-222.061783,-9326.594869,459.657299
51952.942547,0.000000,-9104.533087,153.219100
51952.942875,-296.082377,-9178.553681,383.047749
51952.943202,-296.082377,-9104.533087,459.657299
51952.943529,-222.061783,-9252.574275,612.876398
51952.943857,-148.041188,-8808.450710,1072.533697
51952.944184,0.000000,-8734.430116,766.095498
51952.944512,-222.061783,-9104.533087,612.876398
51952.944839,0.000000,-9252.574275,536.266849
51952.945167,-222.061783,-9252.574275,612.876398
51952.945494,-592.164754,-9030.512492,536.266849
51952.945822,74.020594,-9104.533087,536.266849
51952.946149,-222.061783,-9104.533087,459.657299
51952.946477,-518.144159,-9030.512492,689.485948
51952.946804,-296.082377,-9104.533087,536.266849
51952.947132,-222.061783,-9030.512492,536.266849
51952.947459,0.000000,-9548.656652,766.095498
51952.947787,-296.082377,-8956.491898,383.047749
51952.948114,-296.082377,-9030.512492,612.876398
51952.948442,-296.082377,-9178.553681,689.485948
51952.948769,-370.102971,-9104.533087,459.657299
51952.949097,-222.061783,-8734.430116,306.438199
51952.949424,0.000000,-9178.553681,612.876398
51952.949752,-222.061783,-9104.533087,459.657299
51952.950079,0.000000,-9326.594869,612.876398
51952.950407,-222.061783,-9178.553681,459.657299
51952.950734,0.000000,-9178.553681,995.924147
51952.951062,0.000000,-8734.430116,536.266849
51952.951389,-222.061783,-8956.491898,306.438199
51952.951717,-370.102971,-9030.512492,689.485948
51952.952044,0.000000,-9104.533087,842.705048
51952.952372,-148.041188,-9104.533087,842.705048
51952.952699,0.000000,-8882.471304,459.657299
51952.953027,-296.082377,-9030.512492,536.266849
51952.953354,-370.102971,-9104.533087,459.657299
51952.953682,-296.082377,-9178.553681,536.266849
51952.954009,-296.082377,-9030.512492,459.657299
51952.954337,-74.020594,-8956.491898,842.705048
51952.954664,-222.061783,-9030.512492,612.876398
51952.954992,-370.102971,-9252.574275,536.266849
51952.955319,-296.082377,-9030.512492,459.657299
51952.955647,-296.082377,-9030.512492,842.705048
51952.955974,0.000000,-8882.471304,919.314598
51952.956302,-370.102971,-9030.512492,229.828649
51952.956629,-370.102971,-9104.533087,536.266849
51952.956957,0.000000,-9030.512492,459.657299
51952.957284,-148.041188,-9104.533087,612.876398
51952.957612,74.020594,-9104.533087,766.095498
51952.957939,0.000000,-8956.491898,153.219100
51952.958266,0.000000,-9326.594869,459.657299
51952.958594,0.000000,-9252.574275,459.657299
51952.958921,-296.082377,-9030.512492,536.266849
51952.959249,-222.061783,-9104.533087,536.266849
51952.959576,74.020594,-9178.553681,306.438199
51952.959904,-370.102971,-9104.533087,612.876398
51952.960231,-222.061783,-9104.533087,459.657299
51952.960559,-296.082377,-9178.553681,612.876398
51952.960886,-222.061783,-9252.574275,459.657299
51952.961214,-296.082377,-9030.512492,536.266849
51952.961541,-296.082377,-8808.450710,459.657299
51952.961869,-222.061783,-9104.533087,383.047749
51952.962196,-370.102971,-9178.553681,612.876398
51952.962524,-370.102971,-9178.553681,612.876398
51952.962851,-296.082377,-9104.533087,459.657299
51952.963179,-296.082377,-9400.615463,612.876398
51952.963506,-296.082377,-9252.574275,536.266849
51952.963834,-444.123565,-9104.533087,536.266849
51952.964161,-370.102971,-9178.553681,612.876398
51952.964489,-296.082377,-8734.430116,1149.143247
51952.964816,-148.041188,-8808.450710,689.485948
51952.965144,-370.102971,-9030.512492,612.876398
51952.965471,-296.082377,-9104.533087,459.657299
51952.965799,-370.102971,-8956.491898,459.657299
51952.966126,-222.061783,-9104.533087,383.047749
51952.966454,-518.144159,-8956.491898,919.314598
51952.966781,-444.123565,-9030.512492,459.657299
51952.967109,-296.082377,-9030.512492,536.266849
51952.967436,-296.082377,-9178.553681,383.047749
51952.967764,-222.061783,-9252.574275,459.657299
51952.968091,0.000000,-9252.574275,383.047749
51952.968419,0.000000,-9400.615463,459.657299
51952.968746,0.000000,-9104.533087,459.657299
51952.969074,-370.102971,-9104.533087,612.876398
51952.969401,-296.082377,-9400.615463,536.266849
51952.969729,0.000000,-8956.491898,459.657299
51952.970056,74.020594,-9030.512492,383.047749
51952.970384,-296.082377,-9104.533087,536.266849
51952.970711,-296.082377,-9178.553681,536.266849
51952.971039,-296.082377,-9178.553681,459.657299
51952.971366,-296.082377,-8808.450710,383.047749
51952.971694,-296.082377,-8734.430116,1225.752797
51952.972021,-370.102971,-9178.553681,919.314598
51952.972348,-296.082377,-9178.553681,536.266849
51952.972676,-222.061783,-9030.512492,536.266849
51952.973003,-370.102971,-9030.512492,689.485948
51952.973331,-296.082377,-8882.471304,76.609550
51952.973658,-370.102971,-9252.574275,689.485948
51952.973986,-296.082377,-9178.553681,459.657299
51952.974313,-222.061783,-9252.574275,536.266849
51952.974641,-296.082377,-9178.553681,383.047749
51952.974968,-222.061783,-8882.471304,229.828649
51952.975296,-444.123565,-8956.491898,459.657299
51952.975623,-296.082377,-9104.533087,536.266849
51952.975951,-222.061783,-9252.574275,536.266849
51952.976278,-370.102971,-9326.594869,383.047749
51952.976606,0.000000,-9252.574275,0.000000
51952.976933,-222.061783,-8808.450710,1149.143247
51952.977261,-222.061783,-9178.553681,306.438199
51952.977588,-370.102971,-9030.512492,612.876398
51952.977916,-370.102971,-9030.512492,536.266849
51952.978243,0.000000,-9400.615463,689.485948
51952.978571,0.000000,-8882.471304,612.876398
51952.978898,-296.082377,-8956.491898,689.485948
51952.979226,-296.082377,-9104.533087,536.266849
51952.979553,-222.061783,-9178.553681,612.876398
51952.979881,0.000000,-9104.533087,919.314598
51952.980208,-444.123565,-9030.512492,766.095498
51952.980536,-518.144159,-8808.450710,459.657299
51952.980863,-370.102971,-9030.512492,612.876398
51952.981191,-296.082377,-9178.553681,612.876398
51952.981518,-296.082377,-9178.553681,383.047749
51952.981846,74.020594,-9104.533087,1225.752797
51952.982173,-222.061783,-9104.533087,383.047749
51952.982501,-222.061783,-9104.533087,612.876398
51952.982828,-370.102971,-9178.553681,536.266849
51952.983156,-370.102971,-9030.512492,536.266849
51952.983483,-222.061783,-9030.512492,689.485948
51952.983811,0.000000,-8660.409521,612.876398
51952.984138,0.000000,-9030.512492,536.266849
51952.984466,0.000000,-9104.533087,612.876398
51952.984793,0.000000,-9104.533087,612.876398
51952.985121,-296.082377,-8956.491898,383.047749
51952.985448,0.000000,-9178.553681,766.095498
51952.985776,-148.041188,-9030.512492,459.657299
51952.986103,-222.061783,-9252.574275,459.657299
51952.986431,-444.123565,-9104.533087,459.657299
51952.986758,-222.061783,-9178.553681,612.876398
51952.987085,0.000000,-8956.491898,766.095498
51952.987413,0.000000,-9400.615463,689.485948
51952.987740,-444.123565,-9252.574275,459.657299
51952.988068,-148.041188,-9030.512492,459.657299
51952.988395,-370.102971,-9178.553681,536.266849
51952.988723,148.041188,-9178.553681,766.095498
51952.989050,-148.041188,-8882.471304,536.266849
51952.989378,-148.041188,-9104.533087,689.485948
51952.989705,-222.061783,-9178.553681,536.266849
51952.990033,-370.102971,-9178.553681,612.876398
51952.990360,0.000000,-9030.512492,995.924147
51952.990688,-370.102971,-9178.553681,383.047749
51952.991015,0.000000,-9252.574275,842.705048
51952.991343,-296.082377,-9252.574275,306.438199
51952.991670,-222.061783,-9178.553681,536.266849
51952.991998,0.000000,-9178.553681,689.485948
51952.992325,148.041188,-9104.533087,306.438199
51952.992653,-148.041188,-9104.533087,612.876398
51952.992980,-296.082377,-9030.512492,536.266849
51952.993308,-222.061783,-9178.553681,383.047749
51952.993635,-370.102971,-9178.553681,459.657299
51952.993963,-222.061783,-8956.491898,306.438199
51952.994290,0.000000,-9252.574275,689.485948
51952.994618,-222.061783,-9178.553681,766.095498
51952.994945,-222.061783,-9252.574275,459.657299
51952.995273,-370.102971,-9178.553681,306.438199
51952.995600,-296.082377,-9326.594869,689.485948
51952.995928,0.000000,-9104.533087,919.314598
51952.996255,-296.082377,-8956.491898,842.705048
51952.996583,0.000000,-9178.553681,689.485948
51952.996910,-370.102971,-9178.553681,689.485948
51952.997238,-518.144159,-8808.450710,459.657299
51952.997565,-296.082377,-8734.430116,842.705048
51952.997893,-296.082377,-8956.491898,459.657299
51952.998220,0.000000,-9326.594869,689.485948
51952.998548,-222.061783,-9030.512492,612.876398
51952.998875,-148.041188,-9252.574275,536.266849
51952.999203,-148.041188,-9252.574275,1225.752797
51952.999530,-296.082377,-9030.512492,459.657299
51952.999858,-296.082377,-9104.533087,459.657299
51953.000185,-222.061783,-9252.574275,306.438199
51953.000512,-370.102971,-9104.533087,536.266849
51953.000840,74.020594,-8882.471304,306.438199
51953.001167,0.000000,-8882.471304,612.876398
51953.001495,0.000000,-9104.533087,536.266849
51953.001822,-296.082377,-9030.512492,536.266849
51953.002150,-296.082377,-9104.533087,536.266849
51953.002477,-370.102971,-9104.533087,536.266849
51953.002805,-592.164754,-8512.368333,612.876398
51953.003132,-296.082377,-9252.574275,842.705048
51953.003460,-370.102971,-9104.533087,612.876398
51953.003787,0.000000,-9178.553681,612.876398
51953.004115,-148.041188,-9178.553681,536.266849
51953.004442,0.000000,-9474.636058,1072.533697
51953.004770,-222.061783,-9030.512492,536.266849
51953.005097,-444.123565,-9104.533087,459.657299
51953.005425,-296.082377,-9326.594869,383.047749
51953.005752,-296.082377,-9252.574275,536.266849
51953.006080,0.000000,-8734.430116,766.095498
51953.006407,-296.082377,-9178.553681,459.657299
51953.006735,-222.061783,-9104.533087,459.657299
51953.007062,-592.164754,-9178.553681,459.657299
51953.007389,-296.082377,-9178.553681,229.828649
51953.007717,0.000000,-8882.471304,459.657299
51953.008044,-222.061783,-8808.450710,459.657299
51953.008372,-222.061783,-9178.553681,459.657299
51953.008699,-370.102971,-9178.553681,612.876398
51953.009027,-296.082377,-9030.512492,689.485948
51953.009354,0.000000,-9178.553681,689.485948
51953.009682,74.020594,-9326.594869,536.266849
51953.010009,-296.082377,-9030.512492,306.438199
51953.010337,-148.041188,-9252.574275,689.485948
51953.010664,0.000000,-9030.512492,383.047749
51953.010992,-222.061783,-9178.553681,612.876398
51953.011319,148.041188,-9104.533087,842.705048
51953.011647,-370.102971,-9104.533087,919.314598
51953.011974,-444.123565,-9178.553681,459.657299
51953.012302,-370.102971,-9252.574275,383.047749
51953.012629,-222.061783,-8956.491898,383.047749
51953.012957,74.020594,-8956.491898,612.876398
51953.013284,-148.041188,-9030.512492,459.657299
51953.013612,-296.082377,-9178.553681,459.657299
51953.013939,-296.082377,-9104.533087,459.657299
51953.014267,-148.041188,-9104.533087,383.047749
51953.014594,-592.164754,-9178.553681,1072.533697
51953.014921,-222.061783,-9104.533087,689.485948
51953.015249,-222.061783,-9252.574275,612.876398
51953.015576,0.000000,-9252.574275,459.657299
51953.015904,-296.082377,-9178.553681,459.657299
51953.016231,-296.082377,-9252.574275,306.438199
51953.016559,-666.185348,-8660.409521,612.876398
51953.016886,-222.061783,-8956.491898,689.485948
51953.017214,-370.102971,-9252.574275,459.657299
51953.017541,-296.082377,-9178.553681,536.266849
51953.017869,-222.061783,-9104.533087,612.876398
51953.018196,148.041188,-9252.574275,612.876398
51953.018524,-296.082377,-9326.594869,842.705048
51953.018851,-296.082377,-9178.553681,766.095498
51953.019179,-370.102971,-8956.491898,459.657299
51953.019506,-296.082377,-9030.512492,459.657299
51953.019834,-222.061783,-8882.471304,689.485948
51953.020161,-296.082377,-8882.471304,536.266849
51953.020489,-148.041188,-9178.553681,536.266849
51953.020816,-296.082377,-9030.512492,612.876398
51953.021144,-296.082377,-9326.594869,612.876398
51953.021471,-296.082377,-8808.450710,612.876398
51953.021798,-518.144159,-8734.430116,383.047749
51953.022126,-296.082377,-8956.491898,459.657299
51953.022453,-148.041188,-9178.553681,383.047749
51953.022781,0.000000,-9178.553681,536.266849
51953.023108,-148.041188,-9104.533087,689.485948
51953.023436,-222.061783,-8882.471304,689.485948
51953.023763,0.000000,-9178.553681,383.047749
51953.024091,-296.082377,-9178.553681,536.266849
51953.024418,-444.123565,-9252.574275,536.266849
51953.024746,-518.144159,-9030.512492,612.876398
51953.025073,0.000000,-9030.512492,842.705048
51953.025401,-222.061783,-9104.533087,689.485948
51953.025728,-296.082377,-9252.574275,689.485948
51953.026056,-222.061783,-9030.512492,612.876398
51953.026383,-370.102971,-9104.533087,612.876398
51953.026711,0.000000,-9178.553681,459.657299
51953.027038,-148.041188,-8956.491898,229.828649
51953.027366,-296.082377,-9104.533087,459.657299
51953.027693,-296.082377,-9178.553681,536.266849
51953.028021,0.000000,-9252.574275,459.657299
51953.028348,0.000000,-8882.471304,229.828649
51953.028675,0.000000,-9030.512492,306.438199
51953.029003,-222.061783,-8956.491898,153.219100
51953.029330,-370.102971,-9104.533087,612.876398
51953.029658,-296.082377,-9252.574275,766.095498
51953.029985,0.000000,-9326.594869,612.876398
51953.030313,222.061783,-9326.594869,842.705048
51953.030640,-222.061783,-9178.553681,536.266849
51953.030968,-370.102971,-9178.553681,689.485948
51953.031295,-222.061783,-8956.491898,612.876398
51953.031623,-148.041188,-9252.574275,536.266849
51953.031950,-222.061783,-9326.594869,766.095498
51953.032278,0.000000,-9030.512492,306.438199
51953.032605,-296.082377,-9326.594869,766.095498
51953.032933,0.000000,-9104.533087,766.095498
51953.033260,-296.082377,-9252.574275,689.485948
51953.033588,-296.082377,-8734.430116,766.095498
51953.033915,-222.061783,-9178.553681,919.314598
51953.034243,-370.102971,-9030.512492,459.657299
51953.034570,-370.102971,-9178.553681,536.266849
51953.034898,-222.061783,-9104.533087,459.657299
51953.035225,-444.123565,-8882.471304,689.485948
51953.035553,222.061783,-9178.553681,536.266849
51953.035880,-222.061783,-9178.553681,459.657299
51953.036207,-296.082377,-9178.553681,459.657299
51953.036535,-222.061783,-9178.553681,383.047749
51953.036862,-296.082377,-9178.553681,612.876398
51953.037190,-518.144159,-8734.430116,612.876398
51953.037517,-370.102971,-9178.553681,383.047749
51953.037845,-148.041188,-9252.574275,536.266849
51953.038172,-370.102971,-9104.533087,612.876398
51953.038500,-222.061783,-9030.512492,536.266849
51953.038827,0.000000,-8438.347739,229.828649
51953.039155,-222.061783,-9104.533087,612.876398
51953.039482,-370.102971,-9104.533087,536.266849
51953.039810,-444.123565,-9030.512492,842.705048
51953.040137,-296.082377,-9400.615463,459.657299
51953.040465,-296.082377,-9178.553681,612.876398
51953.040792,74.020594,-8882.471304,612.876398
51953.041120,-296.082377,-9030.512492,383.047749
51953.041447,-296.082377,-9104.533087,459.657299
51953.041775,-444.123565,-9178.553681,689.485948
51953.042102,-370.102971,-8808.450710,536.266849
51953.042430,-518.144159,-8808.450710,689.485948
51953.042757,-222.061783,-9030.512492,612.876398
51953.043084,-222.061783,-9104.533087,689.485948
51953.043412,-222.061783,-9252.574275,766.095498
51953.043739,-296.082377,-9104.533087,383.047749
51953.044067,-666.185348,-8882.471304,689.485948
51953.044394,-370.102971,-9030.512492,383.047749
51953.044722,-296.082377,-9030.512492,459.657299
51953.045049,-444.123565,-9104.533087,383.047749
51953.045377,-222.061783,-9178.553681,766.095498
51953.045704,222.061783,-9030.512492,383.047749
51953.046032,-370.102971,-9030.512492,689.485948
51953.046359,-296.082377,-9030.512492,612.876398
51953.046687,-148.041188,-9252.574275,229.828649
51953.047014,-296.082377,-9178.553681,536.266849
51953.047342,-370.102971,-9030.512492,536.266849
51953.047669,0.000000,-8956.491898,383.047749
51953.047997,0.000000,-8956.491898,459.657299
51953.048324,-370.102971,-9104.533087,689.485948
51953.048652,-518.144159,-8956.491898,766.095498
51953.048979,-444.123565,-9104.533087,766.095498
51953.049307,0.000000,-8808.450710,689.485948
51953.049634,0.000000,-9252.574275,612.876398
51953.049961,-296.082377,-9030.512492,612.876398
51953.050289,-222.061783,-9178.553681,612.876398
51953.050616,-222.061783,-9104.533087,612.876398
51953.050944,-444.123565,-8660.409521,689.485948
51953.051271,-148.041188,-9030.512492,612.876398
51953.051599,-370.102971,-9030.512492,689.485948
51953.051926,-370.102971,-9030.512492,536.266849
51953.052254,-296.082377,-8956.491898,536.266849
51953.052581,-370.102971,-9030.512492,766.095498
51953.052909,-148.041188,-9030.512492,536.266849
51953.053236,-370.102971,-9104.533087,766.095498
51953.053564,-370.102971,-9326.594869,536.266849
51953.053891,-148.041188,-9326.594869,689.485948
51953.054219,0.000000,-8956.491898,842.705048
51953.054546,-370.102971,-9030.512492,689.485948
51953.054874,-444.123565,-9178.553681,612.876398
51953.055201,-296.082377,-9030.512492,536.266849
51953.055529,-296.082377,-9104.533087,612.876398
51953.055856,-296.082377,-9252.574275,1072.533697
51953.056184,0.000000,-9104.533087,612.876398
51953.056511,-222.061783,-8882.471304,766.095498
51953.056839,-222.061783,-9178.553681,689.485948
51953.057166,-518.144159,-9178.553681,306.438199
51953.057493,-296.082377,-9178.553681,459.657299
51953.057821,0.000000,-8882.471304,842.705048
51953.058148,-222.061783,-9030.512492,536.266849
51953.058476,-148.041188,-9178.553681,612.876398
51953.058803,-222.061783,-9104.533087,612.876398
51953.059131,-148.041188,-9326.594869,612.876398
51953.059458,0.000000,-8586.388927,383.047749
51953.059786,-222.061783,-9030.512492,153.219100
51953.060113,-296.082377,-9178.553681,459.657299
51953.060441,-296.082377,-9104.533087,459.657299
51953.060768,0.000000,-9178.553681,689.485948
51953.061096,0.000000,-9104.533087,919.314598
51953.061423,74.020594,-9178.553681,689.485948
51953.061751,-370.102971,-9104.533087,459.657299
51953.062078,-222.061783,-9030.512492,459.657299
51953.062406,-296.082377,-9178.553681,383.047749
51953.062733,0.000000,-9178.553681,459.657299
51953.063061,-296.082377,-9252.574275,842.705048
51953.063388,-370.102971,-9104.533087,689.485948
51953.063716,-222.061783,-9178.553681,459.657299
51953.064043,-148.041188,-9030.512492,842.705048
51953.064370,-370.102971,-9104.533087,766.095498
51953.064698,-296.082377,-8882.471304,1302.362347
51953.065025,-222.061783,-9326.594869,689.485948
51953.065353,-222.061783,-8956.491898,612.876398
51953.065680,-222.061783,-8956.491898,459.657299
51953.066008,-296.082377,-9178.553681,536.266849
51953.066335,-444.123565,-8882.471304,995.924147
51953.066663,-222.061783,-9030.512492,536.266849
51953.066990,-296.082377,-9104.533087,612.876398
51953.067318,-296.082377,-9178.553681,459.657299
51953.067645,-370.102971,-9178.553681,612.876398
51953.067973,0.000000,-9104.533087,612.876398
51953.068300,-222.061783,-9252.574275,612.876398
51953.068628,-148.041188,-9030.512492,536.266849
51953.068955,-370.102971,-9030.512492,383.047749
51953.069283,-296.082377,-9252.574275,689.485948
51953.069610,-296.082377,-9252.574275,459.657299
51953.069938,0.000000,-9178.553681,995.924147
51953.070265,-296.082377,-8734.430116,383.047749
51953.070593,-518.144159,-9178.553681,536.266849
51953.070920,-222.061783,-9030.512492,229.828649
51953.071247,-222.061783,-9104.533087,459.657299
51953.071575,0.000000,-9178.553681,153.219100
51953.071902,-222.061783,-9030.512492,612.876398
51953.072230,-444.123565,-9030.512492,536.266849
51953.072557,-296.082377,-9030.512492,919.314598
51953.072885,-296.082377,-8956.491898,612.876398
51953.073212,-444.123565,-9030.512492,842.705048
51953.073540,-296.082377,-9104.533087,842.705048
51953.073867,-296.082377,-9252.574275,689.485948
51953.074195,-296.082377,-8956.491898,536.266849
51953.074522,-222.061783,-9030.512492,536.266849
51953.074850,-296.082377,-9326.594869,842.705048
51953.075177,0.000000,-9252.574275,459.657299
51953.075505,-148.041188,-9104.533087,536.266849
51953.075832,0.000000,-9178.553681,306.438199
51953.076160,-148.041188,-9178.553681,612.876398
51953.076487,-296.082377,-9252.574275,459.657299
51953.076815,-592.164754,-8586.388927,0.000000
51953.077142,-370.102971,-9252.574275,459.657299
51953.077470,-296.082377,-9178.553681,612.876398
51953.077797,0.000000,-9252.574275,459.657299
51953.078125,0.000000,-9178.553681,842.705048
51953.078452,-370.102971,-8882.471304,1072.533697
51953.078779,0.000000,-9178.553681,383.047749
51953.079107,-444.123565,-9252.574275,766.095498
51953.079434,-296.082377,-9030.512492,536.266849
51953.079762,-296.082377,-9104.533087,459.657299
51953.080089,74.020594,-8660.409521,689.485948
51953.080417,148.041188,-9178.553681,612.876398
51953.080744,-148.041188,-9030.512492,612.876398
51953.081072,-296.082377,-9104.533087,612.876398
51953.081399,-296.082377,-9252.574275,689.485948
51953.081727,-444.123565,-8956.491898,229.828649
51953.082054,-518.144159,-8956.491898,689.485948
51953.082382,-444.123565,-9104.533087,612.876398
51953.082709,-148.041188,-9030.512492,689.485948
51953.083037,0.000000,-9252.574275,842.705048
51953.083364,-222.061783,-9178.553681,689.485948
51953.083692,-444.123565,-8660.409521,536.266849
51953.084019,-296.082377,-9030.512492,383.047749
51953.084347,-370.102971,-8808.450710,383.047749
51953.084674,-222.061783,-9252.574275,383.047749
51953.085002,0.000000,-9178.553681,306.438199
51953.085329,0.000000,-8882.471304,1378.971896
51953.085656,0.000000,-9030.512492,0.000000
51953.085984,-148.041188,-9326.594869,689.485948
51953.086311,-296.082377,-9326.594869,536.266849
51953.086639,-296.082377,-9252.574275,536.266849
51953.086966,0.000000,-8808.450710,612.876398
51953.087294,0.000000,-9030.512492,689.485948
51953.087621,-222.061783,-9030.512492,536.266849
51953.087949,-148.041188,-9252.574275,536.266849
51953.088276,-296.082377,-9030.512492,383.047749
51953.088604,-222.061783,-9030.512492,612.876398
51953.088931,-444.123565,-8438.347739,383.047749
51953.089259,-296.082377,-9104.533087,536.266849
51953.089586,0.000000,-9326.594869,459.657299
51953.089914,-370.102971,-9030.512492,612.876398
51953.090241,-370.102971,-9030.512492,459.657299
51953.090569,0.000000,-9252.574275,459.657299
51953.090896,-370.102971,-8956.491898,383.047749
51953.091224,-370.102971,-9252.574275,612.876398
51953.091551,-296.082377,-9030.512492,459.657299
51953.091879,-370.102971,-9030.512492,459.657299
51953.092206,0.000000,-8808.450710,612.876398
51953.092533,74.020594,-8956.491898,306.438199
51953.092861,-148.041188,-9030.512492,612.876398
51953.093188,0.000000,-9252.574275,536.266849
51953.093516,-148.041188,-9252.574275,306.438199
51953.093843,0.000000,-8956.491898,612.876398
51953.094171,-296.082377,-9030.512492,383.047749
51953.094498,0.000000,-9400.615463,306.438199
51953.094826,0.000000,-9252.574275,459.657299
51953.095153,-370.102971,-9178.553681,612.876398
51953.095481,-222.061783,-9178.553681,459.657299
51953.095808,-222.061783,-9104.533087,689.485948
51953.096136,-296.082377,-8882.471304,306.438199
51953.096463,-148.041188,-9252.574275,689.485948
51953.096791,-444.123565,-9178.553681,612.876398
51953.097118,-370.102971,-9178.553681,689.485948
51953.097446,0.000000,-9178.553681,76.609550
51953.097773,0.000000,-9030.512492,689.485948
51953.098101,-222.061783,-9030.512492,689.485948
51953.098428,-296.082377,-8956.491898,459.657299
51953.098756,-296.082377,-9104.533087,612.876398
51953.099083,0.000000,-9326.594869,0.000000
51953.099410,-148.041188,-8808.450710,612.876398
51953.099738,-296.082377,-9104.533087,536.266849
51953.100065,0.000000,-9178.553681,459.657299
51953.100393,-296.082377,-9030.512492,612.876398
51953.100720,0.000000,-9104.533087,229.828649
51953.101048,0.000000,-9030.512492,842.705048
51953.101375,-148.041188,-9178.553681,383.047749
51953.101703,0.000000,-9326.594869,383.047749
51953.102030,0.000000,-9252.574275,383.047749
51953.102358,0.000000,-9326.594869,612.876398
51953.102685,74.020594,-9252.574275,689.485948
51953.103013,-148.041188,-9030.512492,612.876398
51953.103340,-370.102971,-9178.553681,459.657299
51953.103668,-296.082377,-9252.574275,536.266849
51953.103995,-370.102971,-9178.553681,612.876398
51953.104323,-370.102971,-8660.409521,995.924147
51953.104650,-148.041188,-8882.471304,536.266849
51953.104978,-296.082377,-9030.512492,306.438199
51953.105305,-370.102971,-9030.512492,536.266849
51953.105633,-296.082377,-9252.574275,612.876398
51953.105960,-518.144159,-9030.512492,766.095498
51953.106287,148.041188,-8512.368333,612.876398
51953.106615,-370.102971,-8808.450710,612.876398
51953.106942,-370.102971,-8956.491898,459.657299
51953.107270,-518.144159,-9030.512492,612.876398
51953.107597,-370.102971,-9030.512492,536.266849
51953.107925,-148.041188,-8808.450710,612.876398
51953.108252,-222.061783,-9030.512492,383.047749
51953.108580,-296.082377,-9252.574275,689.485948
51953.108907,-148.041188,-9104.533087,536.266849
51953.109235,-222.061783,-9030.512492,536.266849
51953.109562,-222.061783,-9178.553681,842.705048
51953.109890,0.000000,-8956.491898,612.876398
51953.110217,-148.041188,-9178.553681,536.266849
51953.110545,0.000000,-9252.574275,536.266849
51953.110872,-148.041188,-9030.512492,229.828649
51953.111200,-518.144159,-8882.471304,536.266849
51953.111527,0.000000,-9252.574275,383.047749
51953.111855,0.000000,-9104.533087,612.876398
51953.112182,0.000000,-9178.553681,459.657299
51953.112509,-148.041188,-9178.553681,689.485948
51953.112837,0.000000,-9400.615463,229.828649
51953.113164,-148.041188,-8882.471304,919.314598
51953.113492,-370.102971,-9030.512492,459.657299
51953.113819,-296.082377,-9104.533087,383.047749
51953.114147,-296.082377,-9104.533087,689.485948
51953.114474,0.000000,-9400.615463,842.705048
51953.114802,0.000000,-9030.512492,842.705048
51953.115129,-444.123565,-8734.430116,536.266849
51953.115457,-444.123565,-9178.553681,536.266849
51953.115784,-370.102971,-9104.533087,536.266849
51953.116112,-296.082377,-9030.512492,689.485948
51953.116439,-444.123565,-8734.430116,842.705048
51953.116767,0.000000,-9104.533087,459.657299
51953.117094,-222.061783,-9030.512492,536.266849
51953.117422,-148.041188,-9030.512492,689.485948
51953.117749,-222.061783,-9252.574275,383.047749
51953.118077,-222.061783,-8882.471304,919.314598
51953.118404,-148.041188,-9252.574275,689.485948
51953.118731,-370.102971,-9178.553681,459.657299
51953.119059,-296.082377,-9030.512492,383.047749
51953.119386,-222.061783,-9030.512492,612.876398
51953.119714,0.000000,-8734.430116,536.266849
51953.120041,0.000000,-8808.450710,459.657299
51953.120369,-296.082377,-9178.553681,383.047749
51953.120696,-296.082377,-9104.533087,459.657299
51953.121024,-444.123565,-9030.512492,459.657299
51953.121351,-296.082377,-9104.533087,766.095498
51953.121679,0.000000,-8882.471304,536.266849
51953.122006,-370.102971,-8956.491898,612.876398
51953.122334,-222.061783,-9104.533087,612.876398
51953.122661,-370.102971,-9178.553681,689.485948
51953.122989,-370.102971,-9252.574275,612.876398
51953.123316,0.000000,-9252.574275,383.047749
51953.123644,-148.041188,-9104.533087,536.266849
51953.123971,-222.061783,-9104.533087,612.876398
51953.124299,-296.082377,-9104.533087,536.266849
51953.124626,-222.061783,-9104.533087,536.266849
51953.124954,0.000000,-8882.471304,766.095498
51953.125281,0.000000,-9178.553681,842.705048
51953.125608,-222.061783,-9030.512492,459.657299
51953.125936,-148.041188,-9326.594869,689.485948
51953.126263,-296.082377,-9252.574275,689.485948
51953.126591,-296.082377,-8882.471304,459.657299
51953.126918,0.000000,-9178.553681,76.609550
51953.127246,0.000000,-8956.491898,383.047749
51953.127573,-222.061783,-8882.471304,229.828649
51953.127901,-370.102971,-9178.553681,459.657299
51953.128228,-296.082377,-9326.594869,383.047749
51953.128556,-296.082377,-9252.574275,842.705048
51953.128883,0.000000,-9178.553681,383.047749
51953.129211,-296.082377,-9104.533087,536.266849
51953.129538,-222.061783,-9104.533087,689.485948
51953.129866,-296.082377,-9252.574275,536.266849
51953.130193,-148.041188,-8882.471304,536.266849
51953.130521,-370.102971,-9252.574275,689.485948
51953.130848,-370.102971,-9178.553681,612.876398
51953.131176,-296.082377,-9326.594869,612.876398
51953.131503,-148.041188,-9030.512492,536.266849
51953.131830,0.000000,-9326.594869,1225.752797
51953.132158,0.000000,-8808.450710,919.314598
51953.132485,-222.061783,-9178.553681,612.876398
51953.132813,-222.061783,-9178.553681,536.266849
51953.133140,-296.082377,-9178.553681,383.047749
51953.133468,-370.102971,-9178.553681,536.266849
51953.133795,-370.102971,-8512.368333,842.705048
51953.134123,-222.061783,-9030.512492,536.266849
51953.134450,-296.082377,-9104.533087,766.095498
51953.134778,-370.102971,-9030.512492,536.266849
51953.135105,-370.102971,-9178.553681,536.266849
51953.135433,-222.061783,-9178.553681,1072.533697
51953.135760,-222.061783,-9400.615463,612.876398
51953.136088,-296.082377,-9178.553681,612.876398
51953.136415,-296.082377,-8956.491898,459.657299
51953.136743,0.000000,-8956.491898,306.438199
51953.137070,0.000000,-9104.533087,612.876398
51953.137398,-444.123565,-8956.491898,153.219100
51953.137725,-370.102971,-9326.594869,383.047749
51953.138052,-370.102971,-9030.512492,459.657299
51953.138380,0.000000,-9178.553681,306.438199
51953.138707,-148.041188,-9178.553681,612.876398
51953.139035,0.000000,-8956.491898,536.266849
51953.139362,-222.061783,-9252.574275,689.485948
51953.139690,-518.144159,-9030.512492,612.876398
51953.140017,-370.102971,-9252.574275,612.876398
51953.140345,-296.082377,-9252.574275,842.705048
51953.140672,0.000000,-8956.491898,229.828649
51953.141000,-222.061783,-9178.553681,612.876398
51953.141327,-148.041188,-9178.553681,459.657299
51953.141655,-148.041188,-9252.574275,766.095498
51953.141982,-370.102971,-9104.533087,612.876398
51953.142310,-666.185348,-8660.409521,689.485948
51953.142637,-296.082377,-9104.533087,459.657299
51953.142965,0.000000,-9178.553681,536.266849
51953.143292,-296.082377,-9104.533087,306.438199
51953.143620,-222.061783,-9252.574275,459.657299
51953.143947,-148.041188,-9030.512492,306.438199
51953.144275,-222.061783,-9030.512492,229.828649
51953.144602,-222.061783,-9252.574275,536.266849
51953.144929,-370.102971,-9326.594869,153.219100
51953.145257,-296.082377,-9104.533087,459.657299
51953.145584,0.000000,-9326.594869,536.266849
51953.145912,-296.082377,-8660.409521,689.485948
51953.146239,-296.082377,-9252.574275,459.657299
51953.146567,-444.123565,-9178.553681,536.266849
51953.146894,-518.144159,-9030.512492,536.266849
51953.147222,-296.082377,-8882.471304,842.705048
51953.147549,-370.102971,-8808.450710,766.095498
51953.147877,-444.123565,-9030.512492,536.266849
51953.148204,-222.061783,-8956.491898,459.657299
51953.148532,0.000000,-9104.533087,842.705048
51953.148859,-148.041188,-9104.533087,612.876398
51953.149187,-666.185348,-8512.368333,689.485948
51953.149514,-296.082377,-9178.553681,383.047749
51953.149842,-222.061783,-9252.574275,689.485948
51953.150169,-518.144159,-9030.512492,459.657299
51953.150497,-222.061783,-9252.574275,383.047749
51953.150824,222.061783,-8956.491898,612.876398
51953.151151,0.000000,-9326.594869,459.657299
51953.151479,-222.061783,-9252.574275,536.266849
51953.151806,-518.144159,-9326.594869,383.047749
51953.152134,-222.061783,-9252.574275,383.047749
51953.152461,-370.102971,-8956.491898,612.876398
51953.152789,0.000000,-8882.471304,306.438199
51953.153116,-296.082377,-9104.533087,612.876398
51953.153444,-296.082377,-9178.553681,536.266849
51953.153771,-222.061783,-9252.574275,536.266849
51953.154099,-370.102971,-8734.430116,766.095498
51953.154426,-592.164754,-9104.533087,612.876398
51953.154754,-444.123565,-8956.491898,766.095498
51953.155081,-518.144159,-9104.533087,306.438199
51953.155409,-74.020594,-9104.533087,689.485948
51953.155736,-148.041188,-9104.533087,612.876398
51953.156064,-222.061783,-9252.574275,383.047749
51953.156391,-370.102971,-8956.491898,612.876398
51953.156719,-370.102971,-9178.553681,612.876398
51953.157046,-296.082377,-9178.553681,536.266849
51953.157373,-296.082377,-9104.533087,689.485948
51953.157701,-296.082377,-8808.450710,1225.752797
51953.158028,0.000000,-8882.471304,995.924147
51953.158356,-296.082377,-9252.574275,689.485948
51953.158683,-370.102971,-9252.574275,536.266849
51953.159011,-148.041188,-9252.574275,612.876398
51953.159338,0.000000,-9030.512492,995.924147
51953.159666,-370.102971,-9104.533087,459.657299
51953.159993,-444.123565,-8956.491898,612.876398
51953.160321,-296.082377,-9178.553681,536.266849
51953.160648,-222.061783,-9326.594869,612.876398
51953.160976,-222.061783,-9104.533087,995.924147
51953.161303,0.000000,-9178.553681,306.438199
51953.161631,0.000000,-9178.553681,459.657299
51953.161958,-222.061783,-9178.553681,383.047749
51953.162286,-222.061783,-9178.553681,306.438199
51953.162613,-222.061783,-9178.553681,459.657299
51953.162941,0.000000,-9104.533087,995.924147
51953.163268,-148.041188,-8956.491898,459.657299
51953.163596,-296.082377,-9030.512492,536.266849
51953.163923,-222.061783,-8956.491898,536.266849
51953.164250,-296.082377,-9104.533087,536.266849
51953.164578,74.020594,-8808.450710,689.485948
51953.164905,-370.102971,-8660.409521,459.657299
51953.165233,-370.102971,-9178.553681,536.266849
51953.165560,-222.061783,-9104.533087,459.657299
51953.165888,-370.102971,-8956.491898,536.266849
51953.166215,0.000000,-9030.512492,1072.533697
51953.166543,-148.041188,-9104.533087,689.485948
51953.166870,-296.082377,-9178.553681,536.266849
51953.167198,-370.102971,-9252.574275,383.047749
51953.167525,-296.082377,-9104.533087,612.876398
51953.167853,-222.061783,-9104.533087,383.047749
51953.168180,-148.041188,-9178.553681,1072.533697
51953.168508,-222.061783,-9104.533087,689.485948
51953.168835,-222.061783,-9030.512492,612.876398
51953.169163,-222.061783,-9178.553681,536.266849
51953.169490,-222.061783,-9252.574275,383.047749
51953.169818,0.000000,-9178.553681,1302.362347
51953.170145,-444.123565,-9178.553681,459.657299
51953.170472,-222.061783,-9326.594869,459.657299
51953.170800,-222.061783,-9104.533087,306.438199
51953.171127,0.000000,-9178.553681,536.266849
51953.171455,-148.041188,-9326.594869,306.438199
51953.171782,0.000000,-9474.636058,766.095498
51953.172110,-370.102971,-8956.491898,536.266849
51953.172437,-296.082377,-9104.533087,459.657299
51953.172765,-296.082377,-9030.512492,612.876398
51953.173092,-222.061783,-8882.471304,919.314598
51953.173420,-444.123565,-8734.430116,689.485948
51953.173747,-296.082377,-9030.512492,689.485948
51953.174075,-222.061783,-9104.533087,536.266849
51953.174402,-370.102971,-9178.553681,459.657299
51953.174730,-296.082377,-8956.491898,612.876398
51953.175057,-370.102971,-9030.512492,766.095498
51953.175385,-222.061783,-9252.574275,612.876398
51953.175712,-148.041188,-8956.491898,612.876398
51953.176040,-222.061783,-9104.533087,459.657299
51953.176367,-74.020594,-9104.533087,459.657299
51953.176694,0.000000,-9030.512492,306.438199
51953.177022,-296.082377,-9030.512492,842.705048
51953.177349,-222.061783,-9030.512492,459.657299
51953.177677,-444.123565,-9178.553681,612.876398
51953.178004,-296.082377,-9252.574275,766.095498
51953.178332,-148.041188,-8956.491898,536.266849
51953.178659,0.000000,-8956.491898,536.266849
51953.178987,-222.061783,-9030.512492,306.438199
51953.179314,-518.144159,-9104.533087,459.657299
51953.179642,-370.102971,-9030.512492,459.657299
51953.179969,-296.082377,-8808.450710,689.485948
51953.180297,0.000000,-9178.553681,766.095498
51953.180624,-296.082377,-9252.574275,536.266849
51953.180952,-370.102971,-8882.471304,612.876398
51953.181279,-296.082377,-9030.512492,536.266849
51953.181607,-222.061783,-9104.533087,612.876398
51953.181934,-222.061783,-8808.450710,842.705048
51953.182262,-518.144159,-8956.491898,689.485948
51953.182589,-444.123565,-9104.533087,536.266849
51953.182917,-296.082377,-9030.512492,536.266849
51953.183244,0.000000,-9178.553681,612.876398
51953.183571,-148.041188,-8882.471304,306.438199
51953.183899,148.041188,-9030.512492,689.485948
51953.184226,-148.041188,-9104.533087,536.266849
51953.184554,-222.061783,-9252.574275,383.047749
51953.184881,-296.082377,-9178.553681,536.266849
51953.185209,0.000000,-8808.450710,536.266849
51953.185536,0.000000,-8956.491898,153.219100
51953.185864,0.000000,-9326.594869,459.657299
51953.186191,0.000000,-9252.574275,459.657299
51953.186519,-296.082377,-9326.594869,383.047749
51953.186846,-296.082377,-8734.430116,153.219100
51953.187174,-444.123565,-8956.491898,459.657299
51953.187501,-222.061783,-9030.512492,612.876398
51953.187829,-222.061783,-9178.553681,383.047749
51953.188156,-222.061783,-9030.512492,306.438199
51953.188484,0.000000,-9178.553681,459.657299
51953.188811,-444.123565,-8364.327145,689.485948
51953.189139,-296.082377,-9104.533087,612.876398
51953.189466,-518.144159,-9104.533087,383.047749
51953.189793,-444.123565,-9252.574275,612.876398
51953.190121,-222.061783,-9178.553681,689.485948
51953.190448,-296.082377,-9178.553681,1302.362347
51953.190776,-148.041188,-9104.533087,76.609550
51953.191103,-370.102971,-8956.491898,536.266849
51953.191431,-222.061783,-9400.615463,459.657299
51953.191758,-296.082377,-9178.553681,612.876398
51953.192086,0.000000,-9252.574275,842.705048
51953.192413,-148.041188,-9178.553681,689.485948
51953.192741,-148.041188,-9252.574275,536.266849
51953.193068,-148.041188,-9104.533087,383.047749
51953.193396,-296.082377,-9030.512492,459.657299
51953.193723,-74.020594,-9178.553681,383.047749
51953.194051,-222.061783,-8882.471304,459.657299
51953.194378,0.000000,-9178.553681,306.438199
51953.194706,-296.082377,-9178.553681,306.438199
51953.195033,0.000000,-9030.512492,383.047749
51953.195361,0.000000,-9252.574275,536.266849
51953.195688,-148.041188,-9178.553681,689.485948
51953.196015,-296.082377,-9030.512492,459.657299
51953.196343,-370.102971,-9104.533087,689.485948
51953.196670,-370.102971,-9104.533087,612.876398
51953.196998,-222.061783,-9104.533087,612.876398
51953.197325,-370.102971,-8734.430116,536.266849
51953.197653,0.000000,-8956.491898,536.266849
51953.197980,-296.082377,-9252.574275,766.095498
51953.198308,-370.102971,-9030.512492,459.657299
51953.198635,-296.082377,-9252.574275,536.266849
51953.198963,-370.102971,-8808.450710,766.095498
51953.199290,0.000000,-8956.491898,536.266849
51953.199618,-296.082377,-9104.533087,766.095498
51953.199945,-148.041188,-9252.574275,536.266849
51953.200273,-296.082377,-9252.574275,383.047749
51953.200600,-222.061783,-9104.533087,612.876398
51953.200928,0.000000,-9252.574275,1149.143247
51953.201255,-296.082377,-9252.574275,383.047749
51953.201583,-222.061783,-9178.553681,383.047749
51953.201910,-296.082377,-9178.553681,536.266849
51953.202238,-370.102971,-9252.574275,306.438199
51953.202565,-222.061783,-9030.512492,919.314598
51953.202893,0.000000,-9178.553681,306.438199
51953.203220,-222.061783,-9104.533087,536.266849
51953.203547,-222.061783,-8956.491898,612.876398
51953.203875,-222.061783,-9030.512492,459.657299
51953.204202,-370.102971,-9178.553681,842.705048
51953.204530,-222.061783,-9030.512492,689.485948
51953.204857,0.000000,-9252.574275,459.657299
51953.205185,-222.061783,-9104.533087,689.485948
51953.205512,-370.102971,-9178.553681,689.485948
51953.205840,-518.144159,-8882.471304,689.485948
51953.206167,-296.082377,-9252.574275,383.047749
51953.206495,-296.082377,-9178.553681,306.438199
51953.206822,-296.082377,-9178.553681,459.657299
51953.207150,0.000000,-9252.574275,306.438199
51953.207477,0.000000,-9252.574275,536.266849
51953.207805,-74.020594,-9104.533087,919.314598
51953.208132,-296.082377,-9178.553681,689.485948
51953.208460,-370.102971,-9252.574275,536.266849
51953.208787,-296.082377,-9178.553681,766.095498
51953.209115,-222.061783,-9252.574275,612.876398
51953.209442,-222.061783,-9252.574275,1532.190996
51953.209770,-296.082377,-9326.594869,229.828649
51953.210097,-148.041188,-9252.574275,689.485948
51953.210425,-148.041188,-9030.512492,689.485948
51953.210752,0.000000,-8882.471304,459.657299
51953.211079,0.000000,-9030.512492,1149.143247
51953.211407,-74.020594,-8882.471304,383.047749
51953.211734,-222.061783,-9252.574275,689.485948
51953.212062,-222.061783,-9178.553681,536.266849
51953.212389,-148.041188,-9252.574275,536.266849
51953.212717,0.000000,-9252.574275,1072.533697
51953.213044,0.000000,-9252.574275,536.266849
51953.213372,-296.082377,-9030.512492,612.876398
51953.213699,0.000000,-9030.512492,612.876398
51953.214027,-370.102971,-9178.553681,536.266849
51953.214354,-592.164754,-9104.533087,536.266849
51953.214682,0.000000,-9252.574275,689.485948
51953.215009,-296.082377,-9104.533087,612.876398
51953.215337,-370.102971,-9252.574275,459.657299
51953.215664,-148.041188,-9252.574275,536.266849
51953.215992,0.000000,-9178.553681,459.657299
51953.216319,0.000000,-9104.533087,1532.190996
51953.216647,0.000000,-9400.615463,689.485948
51953.216974,0.000000,-9104.533087,459.657299
51953.217302,-296.082377,-9030.512492,536.266849
51953.217629,-148.041188,-9252.574275,459.657299
51953.217957,74.020594,-8882.471304,306.438199
51953.218284,-148.041188,-9030.512492,612.876398
51953.218612,-148.041188,-9178.553681,536.266849
51953.218939,-296.082377,-9104.533087,536.266849
51953.219266,0.000000,-9326.594869,766.095498
51953.219594,-444.123565,-8956.491898,842.705048
51953.219921,0.000000,-9178.553681,0.000000
51953.220249,-444.123565,-9030.512492,383.047749
51953.220576,-222.061783,-9104.533087,689.485948
51953.220904,-222.061783,-9104.533087,459.657299
51953.221231,-296.082377,-9252.574275,689.485948
51953.221559,0.000000,-9030.512492,536.266849
51953.221886,-370.102971,-9326.594869,612.876398
51953.222214,-444.123565,-9104.533087,459.657299
51953.222541,-296.082377,-8956.491898,536.266849
51953.222869,-222.061783,-9104.533087,612.876398
51953.223196,0.000000,-9252.574275,-229.828649
51953.223524,0.000000,-9030.512492,229.828649
51953.223851,-222.061783,-8956.491898,536.266849
51953.224179,-148.041188,-9178.553681,536.266849
51953.224506,-370.102971,-9104.533087,306.438199
51953.224834,-370.102971,-9474.636058,536.266849
51953.225161,0.000000,-9178.553681,689.485948
51953.225489,0.000000,-8956.491898,459.657299
51953.225816,-222.061783,-9030.512492,612.876398
51953.226144,0.000000,-9252.574275,536.266849
51953.226471,-222.061783,-9178.553681,612.876398
51953.226798,-296.082377,-8586.388927,766.095498
51953.227126,-74.020594,-9400.615463,612.876398
51953.227453,-296.082377,-9178.553681,459.657299
51953.227781,-370.102971,-9178.553681,536.266849
51953.228108,-296.082377,-8808.450710,612.876398
51953.228436,0.000000,-9252.574275,612.876398
51953.228763,-148.041188,-9030.512492,383.047749
51953.229091,-296.082377,-9104.533087,689.485948
51953.229418,-222.061783,-9104.533087,459.657299
51953.229746,-222.061783,-8956.491898,383.047749
51953.230073,0.000000,-9030.512492,612.876398
51953.230401,0.000000,-8660.409521,306.438199
51953.230728,-370.102971,-9178.553681,612.876398
51953.231056,-370.102971,-9104.533087,459.657299
51953.231383,-370.102971,-9178.553681,459.657299
51953.231711,-296.082377,-8882.471304,459.657299
51953.232038,0.000000,-8882.471304,459.657299
51953.232366,0.000000,-9252.574275,536.266849
51953.232693,-296.082377,-9030.512492,306.438199
51953.233021,-222.061783,-9030.512492,689.485948
51953.233348,-518.144159,-9178.553681,459.657299
51953.233676,-296.082377,-9104.533087,536.266849
51953.234003,-370.102971,-9104.533087,459.657299
51953.234331,-148.041188,-9178.553681,536.266849
51953.234658,-148.041188,-9104.533087,459.657299
51953.234985,-222.061783,-9104.533087,536.266849
51953.235313,-222.061783,-9326.594869,0.000000
51953.235640,-370.102971,-8956.491898,842.705048
51953.235968,-222.061783,-9104.533087,459.657299
51953.236295,-370.102971,-9030.512492,536.266849
51953.236623,-370.102971,-9252.574275,612.876398
51953.236950,-148.041188,-9030.512492,536.266849
51953.237278,0.000000,-8808.450710,536.266849
51953.237605,0.000000,-8956.491898,766.095498
51953.237933,0.000000,-9104.533087,459.657299
51953.238260,-296.082377,-9252.574275,306.438199
51953.238588,-592.164754,-9030.512492,459.657299
51953.238915,0.000000,-9030.512492,842.705048
51953.239243,-370.102971,-9178.553681,766.095498
51953.239570,-296.082377,-9104.533087,536.266849
51953.239898,0.000000,-9178.553681,383.047749
51953.240225,-222.061783,-9178.553681,459.657299
51953.240553,-148.041188,-9030.512492,612.876398
51953.240880,-296.082377,-9326.594869,536.266849
51953.241208,-296.082377,-9326.594869,536.266849
51953.241535,-222.061783,-9104.533087,536.266849
51953.241863,-296.082377,-9178.553681,612.876398
51953.242190,-222.061783,-9030.512492,0.000000
51953.242517,-148.041188,-9178.553681,919.314598
51953.242845,-444.123565,-9400.615463,536.266849
51953.243172,-222.061783,-9178.553681,612.876398
51953.243500,-592.164754,-8956.491898,536.266849
51953.243827,-296.082377,-9104.533087,689.485948
51953.244155,-222.061783,-8512.368333,383.047749
51953.244482,-222.061783,-8956.491898,536.266849
51953.244810,-148.041188,-9030.512492,383.047749
51953.245137,-222.061783,-9104.533087,766.095498
51953.245465,-222.061783,-8586.388927,612.876398
51953.245792,-74.020594,-8808.450710,229.828649
51953.246120,-296.082377,-9178.553681,383.047749
51953.246447,-592.164754,-9400.615463,383.047749
51953.246775,-222.061783,-9252.574275,306.438199
51953.247102,0.000000,-9178.553681,536.266849
51953.247430,0.000000,-8734.430116,766.095498
51953.247757,0.000000,-9252.574275,306.438199
51953.248085,0.000000,-9326.594869,536.266849
51953.248412,-296.082377,-9178.553681,459.657299
51953.248740,-222.061783,-9178.553681,536.266849
51953.249067,-222.061783,-9030.512492,-153.219100
51953.249395,-296.082377,-8956.491898,612.876398
51953.249722,-296.082377,-9030.512492,689.485948
51953.250050,0.000000,-9104.533087,383.047749
51953.250377,-222.061783,-9030.512492,459.657299
51953.250704,-148.041188,-9104.533087,919.314598
51953.251032,-148.041188,-8808.450710,459.657299
51953.251359,-444.123565,-8956.491898,689.485948
51953.251687,-370.102971,-8956.491898,612.876398
51953.252014,0.000000,-9104.533087,536.266849
51953.252342,0.000000,-8808.450710,306.438199
51953.252669,0.000000,-8660.409521,536.266849
51953.252997,-518.144159,-8956.491898,459.657299
51953.253324,-222.061783,-9252.574275,689.485948
51953.253652,-148.041188,-9178.553681,459.657299
51953.253979,-296.082377,-9252.574275,612.876398
51953.254307,0.000000,-9252.574275,612.876398
51953.254634,74.020594,-9104.533087,383.047749
51953.254962,0.000000,-9178.553681,459.657299
51953.255289,-148.041188,-9326.594869,766.095498
51953.255617,-222.061783,-9178.553681,383.047749
51953.255944,-592.164754,-8734.430116,689.485948
51953.256272,-370.102971,-8734.430116,689.485948
51953.256599,-296.082377,-9104.533087,536.266849
51953.256927,-222.061783,-9178.553681,766.095498
51953.257254,-148.041188,-9104.533087,536.266849
51953.257582,-222.061783,-8808.450710,459.657299
51953.257909,370.102971,-8660.409521,612.876398
51953.258236,0.000000,-9030.512492,536.266849
51953.258564,-370.102971,-9030.512492,459.657299
51953.258891,-370.102971,-9400.615463,612.876398
51953.259219,-74.020594,-9104.533087,383.047749
51953.259546,-222.061783,-9178.553681,1149.143247
51953.259874,-74.020594,-9030.512492,459.657299
51953.260201,-148.041188,-9252.574275,612.876398
51953.260529,-444.123565,-9252.574275,459.657299
51953.260856,-296.082377,-8956.491898,383.047749
51953.261184,0.000000,-8882.471304,612.876398
51953.261511,0.000000,-9326.594869,306.438199
51953.261839,0.000000,-9252.574275,459.657299
51953.262166,-222.061783,-9104.533087,612.876398
51953.262494,0.000000,-9252.574275,612.876398
51953.262821,0.000000,-9030.512492,383.047749
51953.263149,0.000000,-9178.553681,383.047749
51953.263476,-444.123565,-9326.594869,536.266849
51953.263804,-370.102971,-9104.533087,536.266849
51953.264131,-296.082377,-9178.553681,612.876398
51953.264459,-296.082377,-8882.471304,459.657299
51953.264786,-222.061783,-8734.430116,919.314598
51953.265114,-296.082377,-8956.491898,536.266849
51953.265441,-370.102971,-9030.512492,536.266849
51953.265769,-296.082377,-9104.533087,536.266849
51953.266096,-518.144159,-8956.491898,459.657299
51953.266423,-148.041188,-8882.471304,1149.143247
51953.266751,-296.082377,-8956.491898,842.705048
51953.267078,-222.061783,-9252.574275,383.047749
51953.267406,-296.082377,-9252.574275,612.876398
51953.267733,-370.102971,-9104.533087,306.438199
51953.268061,-370.102971,-8882.471304,842.705048
51953.268388,0.000000,-9178.553681,689.485948
51953.268716,-148.041188,-9326.594869,459.657299
51953.269043,-296.082377,-9252.574275,689.485948
51953.269371,-148.041188,-9252.574275,536.266849
51953.269698,0.000000,-8956.491898,689.485948
51953.270026,-296.082377,-9030.512492,76.609550
51953.270353,-296.082377,-9030.512492,306.438199
51953.270681,-222.061783,-9178.553681,689.485948
51953.271008,-370.102971,-9252.574275,383.047749
51953.271336,-370.102971,-9326.594869,995.924147
51953.271663,0.000000,-9104.533087,536.266849
51953.271991,0.000000,-9326.594869,536.266849
51953.272318,-370.102971,-8956.491898,612.876398
51953.272646,-370.102971,-8956.491898,536.266849
51953.272973,-296.082377,-9326.594869,459.657299
51953.273301,-370.102971,-8734.430116,842.705048
51953.273628,-148.041188,-9030.512492,459.657299
51953.273956,-444.123565,-9030.512492,459.657299
51953.274283,-148.041188,-9252.574275,459.657299
51953.274610,-444.123565,-8882.471304,612.876398
51953.274938,-370.102971,-9030.512492,0.000000
51953.275265,-370.102971,-9030.512492,689.485948
51953.275593,-444.123565,-9030.512492,612.876398
51953.275920,-222.061783,-9326.594869,689.485948
51953.276248,-370.102971,-9178.553681,612.876398
51953.276575,-222.061783,-9400.615463,689.485948
51953.276903,0.000000,-8734.430116,229.828649
51953.277230,-296.082377,-9104.533087,536.266849
51953.277558,-222.061783,-9104.533087,536.266849
51953.277885,0.000000,-9178.553681,459.657299
51953.278213,-222.061783,-8882.471304,919.314598
51953.278540,-296.082377,-9178.553681,229.828649
51953.278868,0.000000,-9178.553681,459.657299
51953.279195,-296.082377,-9030.512492,306.438199
51953.279523,-148.041188,-9104.533087,459.657299
51953.279850,-148.041188,-9178.553681,536.266849
51953.280178,74.020594,-8808.450710,919.314598
51953.280505,-222.061783,-9178.553681,383.047749
51953.280833,-444.123565,-9252.574275,459.657299
51953.281160,-370.102971,-9326.594869,536.266849
51953.281488,-296.082377,-9104.533087,689.485948
51953.281815,-148.041188,-9178.553681,229.828649
51953.282142,0.000000,-9326.594869,229.828649
51953.282470,-296.082377,-9104.533087,383.047749
51953.282797,-296.082377,-9178.553681,459.657299
51953.283125,-296.082377,-9252.574275,459.657299
51953.283452,0.000000,-8808.450710,842.705048
51953.283780,0.000000,-8956.491898,689.485948
51953.284107,0.000000,-9104.533087,383.047749
51953.284435,-148.041188,-9104.533087,306.438199
51953.284762,-222.061783,-9104.533087,306.438199
51953.285090,-222.061783,-8808.450710,459.657299
51953.285417,0.000000,-9252.574275,689.485948
51953.285745,-148.041188,-9030.512492,536.266849
51953.286072,-518.144159,-9030.512492,459.657299
