#time,accel_x,accel_y,accel_z
519.987624,0.000000,-8586.388927,306.438199
519.987952,-148.041188,-9252.574275,536.266849
519.988279,-296.082377,-9326.594869,612.876398
519.988607,-222.061783,-9030.512492,536.266849
519.988935,-222.061783,-8808.450710,306.438199
519.989262,0.000000,-9252.574275,766.095498
519.989590,0.000000,-9252.574275,612.876398
519.989917,-296.082377,-9104.533087,459.657299
519.990245,-148.041188,-9178.553681,459.657299
519.990572,-148.041188,-9030.512492,459.657299
519.990900,0.000000,-8586.388927,612.876398
519.991228,-296.082377,-9030.512492,306.438199
519.991555,-296.082377,-9178.553681,536.266849
519.991883,-148.041188,-9178.553681,612.876398
519.992210,-296.082377,-9252.574275,612.876398
519.992538,-370.102971,-9030.512492,766.095498
519.992865,0.000000,-9104.533087,689.485948
519.993193,-222.061783,-9252.574275,536.266849
519.993521,-222.061783,-9178.553681,459.657299
519.993848,-370.102971,-9030.512492,459.657299
519.994176,-148.041188,-8956.491898,612.876398
519.994503,-296.082377,-9400.615463,842.705048
519.994831,-222.061783,-9030.512492,459.657299
519.995158,-296.082377,-9030.512492,459.657299
519.995486,-444.123565,-9030.512492,689.485948
519.995814,-370.102971,-9104.533087,536.266849
519.996141,-222.061783,-8956.491898,1072.533697
519.996469,-148.041188,-9178.553681,689.485948
519.996796,-518.144159,-9030.512492,306.438199
519.997124,-1184.329507,-9326.594869,76.609550
519.997451,-1406.391290,-9696.697840,0.000000
519.997779,-1480.411884,-9104.533087,0.000000
519.998107,-962.267725,-9030.512492,-842.705048
519.998434,-592.164754,-8956.491898,-689.485948
519.998762,-666.185348,-9030.512492,-689.485948
519.999089,-814.226536,-9252.574275,-612.876398
519.999417,-962.267725,-8956.491898,-1149.143247
519.999744,-740.205942,-9104.533087,-1302.362347
520.000072,-962.267725,-9252.574275,-1225.752797
520.000400,-888.247130,-9400.615463,-1378.971896
520.000727,-592.164754,-9326.594869,-1225.752797
520.001055,-296.082377,-9252.574275,-1455.581446
520.001382,0.000000,-9030.512492,-1608.800546
520.001710,-222.061783,-9030.512492,-1378.971896
520.002037,0.000000,-9252.574275,-1532.190996
520.002365,0.000000,-9178.553681,-1685.410096
520.002693,74.020594,-9474.636058,-1685.410096
520.003020,518.144159,-8956.491898,-1532.190996
520.003348,74.020594,-9326.594869,-1532.190996
520.003675,74.020594,-9104.533087,-1608.800546
520.004003,518.144159,-9104.533087,-1685.410096
520.004330,740.205942,-9178.553681,-1608.800546
520.004658,222.061783,-9252.574275,-1455.581446
520.004986,444.123565,-9326.594869,-1838.629195
520.005313,148.041188,-9474.636058,-1915.238745
520.005641,0.000000,-9178.553681,-1532.190996
520.005968,0.000000,-9104.533087,-1915.238745
520.006296,-148.041188,-9400.615463,-1378.971896
520.006623,-148.041188,-9178.553681,-1532.190996
520.006951,-666.185348,-9104.533087,-2068.457845
520.007279,-814.226536,-9104.533087,-2068.457845
520.007606,-1110.308913,-8956.491898,-2068.457845
520.007934,-1332.370696,-8956.491898,-2451.505594
520.008261,-1406.391290,-8882.471304,-2298.286494
520.008589,-1776.494261,-9104.533087,-2834.553343
520.008916,-1924.535449,-9104.533087,-2757.943793
520.009244,-2146.597232,-9104.533087,-3217.601092
520.009571,-2220.617826,-9030.512492,-3524.039291
520.009899,-2368.659014,-9030.512492,-3294.210641
520.010227,-2072.576638,-8956.491898,-4136.915689
520.010554,-1850.514855,-8808.450710,-4213.525239
520.010882,-1480.411884,-8808.450710,-4290.134789
520.011209,-1036.288319,-8956.491898,-4213.525239
520.011537,-222.061783,-8808.450710,-3677.258390
520.011864,814.226536,-8882.471304,-3600.648841
520.012192,1406.391290,-8660.409521,-3217.601092
520.012520,1924.535449,-8734.430116,-2604.724693
520.012847,1850.514855,-9104.533087,-2298.286494
520.013175,2368.659014,-9104.533087,-1685.410096
520.013502,1998.556043,-9474.636058,-2145.067394
520.013830,1480.411884,-10362.883188,-2374.896044
520.014157,444.123565,-10510.924376,-2528.115143
520.014485,-518.144159,-10436.903782,-3447.429741
520.014813,-1628.453072,-10362.883188,-3907.087040
520.015140,-1554.432478,-10214.842000,-4673.182538
520.015468,-1628.453072,-9696.697840,-4749.792088
520.015795,-888.247130,-8734.430116,-4903.011187
520.016123,740.205942,-8142.265362,-4290.134789
520.016450,2294.638420,-7179.997637,-3600.648841
520.016778,2812.782580,-6883.915261,-2528.115143
520.017106,2886.803174,-7402.059420,-2145.067394
520.017433,1480.411884,-8364.327145,-1915.238745
520.017761,-592.164754,-9622.677246,-2068.457845
520.018088,-2664.741391,-10510.924376,-2221.676944
520.018416,-3849.070898,-11103.089130,-2987.772442
520.018743,-3627.009116,-11251.130318,-2451.505594
520.019071,-1406.391290,-9474.636058,-1532.190996
520.019399,3627.009116,-7105.977043,76.609550
520.019726,8438.347739,-5181.441594,2451.505594
520.020054,11103.089130,-5033.400406,4749.792088
520.020381,9474.636058,-7031.956449,4519.963438
520.020709,4219.173869,-9622.677246,3524.039291
520.021036,-2294.638420,-11843.295072,1838.629195
520.021364,-7624.121203,-13249.686362,-536.266849
520.021692,-11547.212695,-14508.036463,-1915.238745
520.022019,-12213.398043,-13693.809927,-3370.820191
520.022347,-11917.315666,-12583.501014,-3753.867940
520.022674,-6809.894666,-8956.491898,-4596.572988
520.023002,-4515.256246,-6513.812290,-2834.553343
520.023329,-370.102971,-3701.029710,-4596.572988
520.023657,1036.288319,-4293.194464,-3830.477490
520.023985,-2960.823768,-5921.647536,-5439.278036
520.024312,-6069.688724,-7476.080014,-7124.688131
520.024640,-11177.109724,-9178.553681,-8427.050478
520.024967,-11473.192101,-10214.842000,-9039.926876
520.025295,-9252.574275,-9548.656652,-7814.174080
520.025622,-5107.421000,-8142.265362,-6588.421283
520.025950,3182.885551,-7994.224174,-4903.011187
520.026278,6587.832884,-6883.915261,-3447.429741
520.026605,8586.388927,-7550.100608,-3600.648841
520.026933,8808.450710,-9844.739029,-4136.915689
520.027260,4885.359217,-10807.006753,-5515.887586
520.027588,4589.276840,-11769.274478,-6205.373534
520.027915,7031.956449,-11029.068536,-5975.544884
520.028243,9918.759623,-9178.553681,-3600.648841
520.028571,13175.665768,-9326.594869,-1225.752797
520.028898,12805.562797,-9992.780217,0.000000
520.029226,9104.533087,-10510.924376,-1762.019645
520.029553,7550.100608,-11029.068536,-1532.190996
520.029881,7402.059420,-10510.924376,-2068.457845
520.030208,5403.503377,-11621.233289,-1762.019645
520.030536,3108.864956,-11547.212695,-2604.724693
520.030863,-3256.906145,-12435.459826,-4060.306139
520.031191,-10214.842000,-13471.748144,-5745.716235
520.031519,-14211.954086,-10955.047942,-7660.954980
520.031846,-12287.418637,-6069.688724,-7890.783629
520.032174,-7254.018232,-1850.514855,-7507.735880
520.032501,1628.453072,-740.205942,-4749.792088
520.032829,1924.535449,-1184.329507,-2681.334243
520.033156,2886.803174,-1554.432478,-1991.848295
520.033484,592.164754,-4071.132681,-1072.533697
520.033812,-2590.720797,-6069.688724,0.000000
520.034139,-4145.153275,-8068.244768,306.438199
520.034467,-4367.215058,-10510.924376,689.485948
520.034794,-3849.070898,-11399.171507,2374.896044
520.035122,-3034.844362,-12435.459826,4749.792088
520.035449,-1184.329507,-11399.171507,5898.935335
520.035777,1406.391290,-9178.553681,4903.011187
520.036105,2960.823768,-10510.924376,3677.258390
520.036432,1554.432478,-11695.253884,1532.190996
520.036760,-2072.576638,-11917.315666,-306.438199
520.037087,-2664.741391,-10436.903782,-766.095498
520.037415,-814.226536,-8216.285956,-689.485948
520.037742,1332.370696,-7772.162391,459.657299
520.038070,1924.535449,-8142.265362,842.705048
520.038398,-1258.350101,-9326.594869,0.000000
520.038725,-5107.421000,-9696.697840,306.438199
520.039053,-4515.256246,-8734.430116,229.828649
520.039380,-4589.276840,-9992.780217,153.219100
520.039708,-4219.173869,-11029.068536,0.000000
520.040035,-4515.256246,-11843.295072,-1225.752797
520.040363,-5477.523971,-9770.718434,-2451.505594
520.040691,-4515.256246,-7624.121203,-1762.019645
520.041018,-1332.370696,-5255.462188,-689.485948
520.041346,-814.226536,-5625.565159,-2298.286494
520.041673,370.102971,-7031.956449,-3140.991542
520.042001,2072.576638,-8290.306550,-3830.477490
520.042328,3256.906145,-8290.306550,-3370.820191
520.042656,4811.338623,-7698.141797,-2451.505594
520.042983,5033.400406,-10140.821405,-1991.848295
520.043311,4219.173869,-13915.871710,-1302.362347
520.043638,2812.782580,-14730.098246,-1149.143247
520.043965,2220.617826,-13915.871710,-1378.971896
520.044293,1850.514855,-12287.418637,-1378.971896
520.044620,1332.370696,-11843.295072,-1072.533697
520.044948,1184.329507,-12213.398043,-306.438199
520.045275,2664.741391,-10732.986159,-153.219100
520.045603,4737.318029,-8216.285956,306.438199
520.045930,5033.400406,-7550.100608,766.095498
520.046257,1998.556043,-6883.915261,-306.438199
520.046585,-814.226536,-7328.038826,-2374.896044
520.046912,-1628.453072,-7698.141797,-2298.286494
520.047240,-962.267725,-6291.750507,-2451.505594
520.047567,-518.144159,-6365.771101,-1378.971896
520.047894,-1406.391290,-6365.771101,-766.095498
520.048222,-592.164754,-7105.977043,536.266849
520.048549,-148.041188,-7105.977043,1149.143247
520.048877,148.041188,-7994.224174,1378.971896
520.049204,-1036.288319,-9400.615463,1072.533697
520.049531,-3923.091493,-9992.780217,306.438199
520.049859,-4737.318029,-9770.718434,0.000000
520.050186,-4293.194464,-8882.471304,536.266849
520.050514,-2812.782580,-7920.203579,1225.752797
520.050841,-1036.288319,-7624.121203,1685.410096
520.051169,0.000000,-8660.409521,2221.676944
520.051496,222.061783,-8068.244768,1838.629195
520.051823,0.000000,-8660.409521,2145.067394
520.052151,-666.185348,-9252.574275,1072.533697
520.052478,-2960.823768,-10436.903782,0.000000
520.052806,-3552.988522,-10362.883188,-612.876398
520.053133,-2590.720797,-8808.450710,-229.828649
520.053460,-1110.308913,-7402.059420,383.047749
520.053788,0.000000,-6587.832884,1302.362347
520.054115,1628.453072,-7550.100608,1991.848295
520.054443,1850.514855,-7846.182985,1838.629195
520.054770,1258.350101,-6957.935855,1915.238745
520.055097,222.061783,-8142.265362,1149.143247
520.055425,-1036.288319,-9326.594869,153.219100
520.055752,-1850.514855,-9770.718434,0.000000
520.056080,444.123565,-9770.718434,459.657299
520.056407,1850.514855,-8956.491898,612.876398
520.056735,2220.617826,-8586.388927,1302.362347
520.057062,2960.823768,-10214.842000,2145.067394
520.057389,1776.494261,-10881.027347,1991.848295
520.057717,1406.391290,-10288.862594,1991.848295
520.058044,1480.411884,-11177.109724,1838.629195
520.058372,0.000000,-11473.192101,689.485948
520.058699,-1776.494261,-12287.418637,153.219100
520.059026,-1406.391290,-11325.150913,229.828649
520.059354,-2072.576638,-10066.800811,229.828649
520.059681,-888.247130,-9326.594869,459.657299
520.060009,-1554.432478,-8734.430116,229.828649
520.060336,-1776.494261,-8808.450710,306.438199
520.060663,-1184.329507,-7402.059420,229.828649
520.060991,-962.267725,-7105.977043,306.438199
520.061318,-1406.391290,-8660.409521,229.828649
520.061646,-2146.597232,-9474.636058,306.438199
520.061973,-2368.659014,-9844.739029,306.438199
520.062301,-2294.638420,-9178.553681,459.657299
520.062628,-1110.308913,-8808.450710,612.876398
520.062955,-518.144159,-9178.553681,842.705048
520.063283,518.144159,-9326.594869,612.876398
520.063610,1110.308913,-9326.594869,766.095498
520.063938,1480.411884,-9252.574275,1455.581446
520.064265,370.102971,-10140.821405,1149.143247
520.064592,-888.247130,-11769.274478,536.266849
520.064920,-1036.288319,-11251.130318,76.609550
520.065247,-1776.494261,-10436.903782,76.609550
520.065575,-222.061783,-10288.862594,0.000000
520.065902,0.000000,-9104.533087,-536.266849
520.066230,74.020594,-9474.636058,229.828649
520.066557,2220.617826,-8734.430116,689.485948
520.066884,2442.679609,-7550.100608,1455.581446
520.067212,2220.617826,-7920.203579,1072.533697
520.067539,222.061783,-9474.636058,306.438199
520.067867,-814.226536,-9474.636058,-229.828649
520.068194,-1258.350101,-8660.409521,0.000000
520.068521,0.000000,-7402.059420,612.876398
520.068849,0.000000,-7402.059420,459.657299
520.069176,592.164754,-7550.100608,612.876398
520.069504,1110.308913,-7402.059420,1072.533697
520.069831,1258.350101,-6735.874072,1302.362347
520.070158,1776.494261,-7179.997637,919.314598
520.070486,0.000000,-8956.491898,153.219100
520.070813,-1850.514855,-10288.862594,-689.485948
520.071141,-2368.659014,-10140.821405,-612.876398
520.071468,-1628.453072,-9178.553681,-306.438199
520.071796,-814.226536,-8364.327145,-229.828649
520.072123,-962.267725,-9178.553681,76.609550
520.072450,-444.123565,-9252.574275,76.609550
520.072778,296.082377,-7994.224174,459.657299
520.073105,1258.350101,-7476.080014,383.047749
520.073433,296.082377,-8660.409521,229.828649
520.073760,-1332.370696,-9770.718434,536.266849
520.074087,-2146.597232,-10066.800811,153.219100
520.074415,-1036.288319,-8734.430116,612.876398
520.074742,0.000000,-8068.244768,1225.752797
520.075070,444.123565,-8438.347739,1455.581446
520.075397,962.267725,-7772.162391,1838.629195
520.075724,2220.617826,-7772.162391,1915.238745
520.076052,1554.432478,-7994.224174,1915.238745
520.076379,962.267725,-8882.471304,1225.752797
520.076707,-1110.308913,-10807.006753,612.876398
520.077034,-1776.494261,-10955.047942,306.438199
520.077362,-1184.329507,-10140.821405,536.266849
520.077689,-296.082377,-9548.656652,689.485948
520.078016,-222.061783,-9548.656652,383.047749
520.078344,0.000000,-9770.718434,766.095498
520.078671,592.164754,-9474.636058,995.924147
520.078999,444.123565,-8512.368333,1762.019645
520.079326,-518.144159,-9400.615463,689.485948
520.079653,-2442.679609,-11177.109724,0.000000
520.079981,-3923.091493,-11621.233289,-229.828649
520.080308,-3775.050304,-10510.924376,76.609550
520.080636,-2738.761985,-8586.388927,842.705048
520.080963,-1554.432478,-8438.347739,612.876398
520.081290,-666.185348,-9030.512492,919.314598
520.081618,-148.041188,-8216.285956,919.314598
520.081945,592.164754,-7698.141797,1149.143247
520.082273,962.267725,-8290.306550,1225.752797
520.082600,-592.164754,-9252.574275,0.000000
520.082928,-1776.494261,-10732.986159,0.000000
520.083255,-1036.288319,-9918.759623,0.000000
520.083582,-296.082377,-8882.471304,612.876398
520.083910,1554.432478,-8882.471304,1225.752797
520.084237,1776.494261,-9400.615463,1149.143247
520.084565,1924.535449,-9622.677246,1608.800546
520.084892,2960.823768,-9474.636058,1991.848295
520.085219,2590.720797,-9326.594869,1532.190996
520.085547,740.205942,-10362.883188,1532.190996
520.085874,-962.267725,-11325.150913,612.876398
520.086202,-1184.329507,-10807.006753,612.876398
520.086529,-962.267725,-9252.574275,689.485948
520.086856,-222.061783,-8438.347739,689.485948
520.087184,-222.061783,-8068.244768,306.438199
520.087511,74.020594,-7772.162391,153.219100
520.087839,0.000000,-7698.141797,383.047749
520.088166,444.123565,-7328.038826,536.266849
520.088494,-518.144159,-8142.265362,76.609550
520.088821,-1702.473667,-9548.656652,0.000000
520.089148,-2664.741391,-9992.780217,-536.266849
520.089476,-2368.659014,-9104.533087,-306.438199
520.089803,-2146.597232,-8290.306550,0.000000
520.090131,-1332.370696,-8882.471304,153.219100
520.090458,-1184.329507,-9474.636058,306.438199
520.090785,-222.061783,-8364.327145,536.266849
520.091113,1332.370696,-8068.244768,919.314598
520.091440,2146.597232,-8364.327145,995.924147
520.091768,814.226536,-9474.636058,459.657299
520.092095,74.020594,-10732.986159,0.000000
520.092422,74.020594,-10510.924376,306.438199
520.092750,444.123565,-9326.594869,1072.533697
520.093077,0.000000,-9474.636058,229.828649
520.093405,0.000000,-9844.739029,536.266849
520.093732,814.226536,-9326.594869,1072.533697
520.094060,1480.411884,-8364.327145,1225.752797
520.094387,1110.308913,-7994.224174,1532.190996
520.094714,296.082377,-8956.491898,229.828649
520.095042,-1554.432478,-9992.780217,0.000000
520.095369,-1628.453072,-9104.533087,-383.047749
520.095697,-1332.370696,-8290.306550,-153.219100
520.096024,-370.102971,-7105.977043,383.047749
520.096351,-148.041188,-7920.203579,306.438199
520.096679,444.123565,-7846.182985,995.924147
520.097006,1258.350101,-7846.182985,1608.800546
520.097334,814.226536,-8660.409521,1455.581446
520.097661,-1036.288319,-9918.759623,842.705048
520.097988,-2812.782580,-11251.130318,76.609550
520.098316,-3478.967927,-11769.274478,-306.438199
520.098643,-3182.885551,-10510.924376,0.000000
520.098971,-1702.473667,-9252.574275,306.438199
520.099298,-1332.370696,-8808.450710,153.219100
520.099626,-592.164754,-8142.265362,383.047749
520.099953,666.185348,-7624.121203,383.047749
520.100280,1258.350101,-7328.038826,383.047749
520.100608,888.247130,-7772.162391,229.828649
520.100935,-1036.288319,-9474.636058,0.000000
520.101263,-1406.391290,-9844.739029,0.000000
520.101590,-1258.350101,-9548.656652,536.266849
520.101917,0.000000,-9252.574275,1149.143247
520.102245,666.185348,-9474.636058,1762.019645
520.102572,1332.370696,-9474.636058,2145.067394
520.102900,2368.659014,-8882.471304,2374.896044
520.103227,2886.803174,-8882.471304,2451.505594
520.103555,2072.576638,-9326.594869,2451.505594
520.103882,0.000000,-9770.718434,1072.533697
520.104209,-740.205942,-10436.903782,766.095498
520.104537,-592.164754,-9696.697840,919.314598
520.104864,-444.123565,-8956.491898,612.876398
520.105192,-740.205942,-8734.430116,459.657299
520.105519,-888.247130,-8956.491898,0.000000
520.105846,-370.102971,-8734.430116,383.047749
520.106174,222.061783,-7846.182985,459.657299
520.106501,148.041188,-8438.347739,153.219100
520.106829,-1554.432478,-9474.636058,-306.438199
520.107156,-3256.906145,-10288.862594,-612.876398
520.107483,-3330.926739,-9622.677246,-842.705048
520.107811,-2294.638420,-8068.244768,-306.438199
520.108138,-1628.453072,-7994.224174,306.438199
520.108466,-1184.329507,-8142.265362,76.609550
520.108793,-370.102971,-7698.141797,229.828649
520.109121,1702.473667,-7031.956449,1378.971896
520.109448,2442.679609,-6883.915261,1302.362347
520.109775,1628.453072,-7550.100608,1149.143247
520.110103,74.020594,-9474.636058,689.485948
520.110430,-888.247130,-10362.883188,76.609550
520.110758,-740.205942,-9992.780217,383.047749
520.111085,-148.041188,-9326.594869,229.828649
520.111412,0.000000,-9844.739029,536.266849
520.111740,1036.288319,-10510.924376,383.047749
520.112067,1628.453072,-9252.574275,306.438199
520.112395,2368.659014,-8734.430116,1149.143247
520.112722,2294.638420,-9548.656652,919.314598
520.113049,0.000000,-10955.047942,459.657299
520.113377,-1258.350101,-11473.192101,0.000000
520.113704,-1554.432478,-10584.944971,76.609550
520.114032,-962.267725,-9030.512492,536.266849
520.114359,-222.061783,-8956.491898,689.485948
520.114687,518.144159,-9030.512492,1455.581446
520.115014,1332.370696,-7179.997637,1991.848295
520.115341,2590.720797,-8364.327145,2451.505594
520.115669,888.247130,-8734.430116,2145.067394
520.115996,-1406.391290,-9918.759623,995.924147
520.116324,-2812.782580,-11325.150913,536.266849
520.116651,-3182.885551,-10807.006753,153.219100
520.116978,-3182.885551,-9696.697840,-383.047749
520.117306,-1998.556043,-9548.656652,-153.219100
520.117633,-1924.535449,-9474.636058,-536.266849
520.117961,-1110.308913,-8364.327145,-306.438199
520.118288,444.123565,-7550.100608,0.000000
520.118615,0.000000,-8142.265362,-306.438199
520.118943,-1850.514855,-8882.471304,-1378.971896
520.119270,-3034.844362,-10214.842000,-1532.190996
520.119598,-2664.741391,-9474.636058,-1149.143247
520.119925,-1184.329507,-8068.244768,-229.828649
520.120253,1406.391290,-7772.162391,842.705048
520.120580,1998.556043,-8586.388927,1455.581446
520.120907,2886.803174,-7550.100608,2451.505594
520.121235,3923.091493,-7698.141797,3370.820191
520.121562,3478.967927,-8068.244768,3140.991542
520.121890,2072.576638,-8586.388927,2911.162892
520.122217,74.020594,-10584.944971,1762.019645
520.122544,-370.102971,-9992.780217,1225.752797
520.122872,0.000000,-8586.388927,1608.800546
520.123199,370.102971,-8364.327145,1762.019645
520.123527,814.226536,-7994.224174,1532.190996
520.123854,592.164754,-8438.347739,1455.581446
520.124181,814.226536,-7994.224174,842.705048
520.124509,0.000000,-7550.100608,689.485948
520.124836,-1850.514855,-9178.553681,153.219100
520.125164,-4737.318029,-10140.821405,-842.705048
520.125491,-5551.544565,-10362.883188,-1225.752797
520.125819,-4811.338623,-9178.553681,-842.705048
520.126146,-3478.967927,-7698.141797,-229.828649
520.126473,-1776.494261,-7402.059420,459.657299
520.126801,-1332.370696,-7105.977043,229.828649
520.127128,0.000000,-7179.997637,689.485948
520.127456,222.061783,-6439.791695,1149.143247
520.127783,0.000000,-7105.977043,689.485948
520.128110,-1332.370696,-8882.471304,0.000000
520.128438,-2220.617826,-10436.903782,0.000000
520.128765,-1776.494261,-10140.821405,0.000000
520.129093,222.061783,-9178.553681,612.876398
520.129420,1776.494261,-9474.636058,919.314598
520.129747,1850.514855,-10214.842000,612.876398
520.130075,2294.638420,-10436.903782,536.266849
520.130402,2738.761985,-10510.924376,306.438199
520.130730,2442.679609,-10658.965565,76.609550
520.131057,296.082377,-11843.295072,-919.314598
520.131385,-814.226536,-13027.624579,-919.314598
520.131712,-444.123565,-12213.398043,-842.705048
520.132039,0.000000,-10881.027347,0.000000
520.132367,1628.453072,-9548.656652,383.047749
520.132694,1554.432478,-9474.636058,306.438199
520.133022,2220.617826,-9474.636058,1072.533697
520.133349,2442.679609,-9030.512492,1302.362347
520.133676,1850.514855,-9326.594869,1532.190996
520.134004,518.144159,-9844.739029,842.705048
520.134331,-1036.288319,-11029.068536,612.876398
520.134659,-1924.535449,-10362.883188,536.266849
520.134986,-1776.494261,-9844.739029,536.266849
520.135313,-1184.329507,-8956.491898,842.705048
520.135641,-1702.473667,-8882.471304,612.876398
520.135968,-1628.453072,-8808.450710,383.047749
520.136296,-962.267725,-8364.327145,76.609550
520.136623,-666.185348,-8068.244768,0.000000
520.136951,-1184.329507,-9474.636058,229.828649
520.137278,-2368.659014,-10658.965565,0.000000
520.137605,-3404.947333,-11029.068536,-306.438199
520.137933,-2960.823768,-10140.821405,306.438199
520.138260,-1776.494261,-9252.574275,459.657299
520.138588,-962.267725,-9104.533087,919.314598
520.138915,148.041188,-8290.306550,1685.410096
520.139242,1554.432478,-7846.182985,1838.629195
520.139570,2516.700203,-6883.915261,2757.943793
520.139897,2368.659014,-7179.997637,2604.724693
520.140225,1184.329507,-8512.368333,2451.505594
520.140552,814.226536,-9104.533087,2298.286494
520.140879,0.000000,-8290.306550,1915.238745
520.141207,0.000000,-6809.894666,1762.019645
520.141534,-148.041188,-7550.100608,1838.629195
520.141862,0.000000,-7550.100608,1225.752797
520.142189,222.061783,-7031.956449,1149.143247
520.142517,962.267725,-6587.832884,1302.362347
520.142844,962.267725,-7328.038826,1225.752797
520.143171,-1850.514855,-8808.450710,-383.047749
520.143499,-3478.967927,-10288.862594,-842.705048
520.143826,-3330.926739,-9474.636058,-1225.752797
520.144154,-3552.988522,-8290.306550,-459.657299
520.144481,-962.267725,-8216.285956,-995.924147
520.144809,-1258.350101,-8438.347739,-919.314598
520.145136,-518.144159,-7698.141797,-459.657299
520.145464,962.267725,-7179.997637,612.876398
520.145791,1332.370696,-7105.977043,766.095498
520.146119,814.226536,-9252.574275,383.047749
520.146446,-888.247130,-10362.883188,0.000000
520.146774,-814.226536,-10807.006753,153.219100
520.147101,-444.123565,-9400.615463,536.266849
520.147429,666.185348,-9030.512492,612.876398
520.147756,1480.411884,-9178.553681,995.924147
520.148084,1554.432478,-9474.636058,612.876398
520.148411,2220.617826,-8956.491898,76.609550
520.148738,2738.761985,-8734.430116,459.657299
520.149066,1628.453072,-9622.677246,-153.219100
520.149393,-666.185348,-10881.027347,-766.095498
520.149721,-1036.288319,-11843.295072,-1378.971896
520.150048,-592.164754,-10881.027347,-1149.143247
520.150376,-444.123565,-10436.903782,-383.047749
520.150703,296.082377,-10066.800811,0.000000
520.151031,666.185348,-10436.903782,306.438199
520.151358,1406.391290,-10066.800811,1378.971896
520.151686,1776.494261,-9474.636058,1532.190996
520.152013,1332.370696,-9918.759623,1378.971896
520.152341,0.000000,-10881.027347,1378.971896
520.152668,-1332.370696,-11843.295072,1072.533697
520.152996,-1332.370696,-10955.047942,1455.581446
520.153323,-1332.370696,-9252.574275,1378.971896
520.153651,-1110.308913,-9252.574275,1378.971896
520.153978,-1184.329507,-9474.636058,1378.971896
520.154306,-592.164754,-8808.450710,1455.581446
520.154633,-296.082377,-7698.141797,1838.629195
520.154961,-518.144159,-8808.450710,995.924147
520.155288,-2368.659014,-9770.718434,0.000000
520.155616,-4293.194464,-10288.862594,-612.876398
520.155943,-3775.050304,-9696.697840,-459.657299
520.156271,-2516.700203,-8216.285956,229.828649
520.156598,-1110.308913,-7920.203579,383.047749
520.156926,-962.267725,-8808.450710,766.095498
520.157253,-296.082377,-8290.306550,1608.800546
520.157581,888.247130,-7920.203579,2374.896044
520.157908,1036.288319,-7994.224174,2451.505594
520.158236,370.102971,-9252.574275,2451.505594
520.158563,-962.267725,-9992.780217,1455.581446
520.158890,-666.185348,-9474.636058,1149.143247
520.159218,0.000000,-7920.203579,1455.581446
520.159545,1924.535449,-6809.894666,1762.019645
520.159873,1924.535449,-7031.956449,1378.971896
520.160200,1702.473667,-7105.977043,1532.190996
520.160528,2072.576638,-6661.853478,1072.533697
520.160855,1628.453072,-6587.832884,1072.533697
520.161183,-444.123565,-8438.347739,0.000000
520.161510,-3108.864956,-9548.656652,-842.705048
520.161838,-3256.906145,-10732.986159,-1149.143247
520.162165,-2664.741391,-9400.615463,-1072.533697
520.162493,-962.267725,-8290.306550,-842.705048
520.162820,-148.041188,-8142.265362,-536.266849
520.163148,0.000000,-8290.306550,76.609550
520.163475,962.267725,-7550.100608,-459.657299
520.163803,1406.391290,-7698.141797,306.438199
520.164130,1406.391290,-8068.244768,0.000000
520.164458,-148.041188,-9548.656652,0.000000
520.164785,-296.082377,-10584.944971,76.609550
520.165113,-296.082377,-9474.636058,536.266849
520.165440,222.061783,-8660.409521,689.485948
520.165768,1258.350101,-9030.512492,995.924147
520.166095,888.247130,-9474.636058,612.876398
520.166423,1184.329507,-9326.594869,612.876398
520.166750,1998.556043,-8660.409521,919.314598
520.167078,1924.535449,-9030.512492,689.485948
520.167405,0.000000,-10881.027347,459.657299
520.167733,-1480.411884,-11917.315666,76.609550
520.168060,-1924.535449,-11251.130318,-459.657299
520.168388,-1184.329507,-9548.656652,0.000000
520.168715,-888.247130,-9400.615463,-153.219100
520.169042,-962.267725,-9770.718434,0.000000
520.169370,-296.082377,-9474.636058,0.000000
520.169697,888.247130,-8956.491898,1378.971896
520.170025,1702.473667,-8142.265362,1532.190996
520.170352,1184.329507,-9696.697840,1915.238745
520.170680,-888.247130,-11325.150913,1762.019645
520.171007,-2146.597232,-11177.109724,1608.800546
520.171335,-2368.659014,-9992.780217,1532.190996
520.171662,-2146.597232,-9030.512492,1532.190996
520.171990,-1998.556043,-9548.656652,229.828649
520.172317,-1850.514855,-9178.553681,1072.533697
520.172645,-370.102971,-7846.182985,1072.533697
520.172972,74.020594,-7254.018232,842.705048
520.173300,-222.061783,-8512.368333,459.657299
520.173627,-1998.556043,-10288.862594,-689.485948
520.173955,-3256.906145,-10436.903782,-766.095498
520.174282,-3256.906145,-9548.656652,-919.314598
520.174610,-2294.638420,-8660.409521,-766.095498
520.174937,-1628.453072,-8734.430116,-383.047749
520.175265,-814.226536,-8512.368333,0.000000
520.175592,1480.411884,-8216.285956,1149.143247
520.175920,2516.700203,-7402.059420,1608.800546
520.176247,2812.782580,-8068.244768,1991.848295
520.176575,1702.473667,-9548.656652,1378.971896
520.176902,1258.350101,-10066.800811,1302.362347
520.177230,962.267725,-9474.636058,1149.143247
520.177557,1258.350101,-8956.491898,1302.362347
520.177885,1850.514855,-8956.491898,1072.533697
520.178212,1554.432478,-9326.594869,1378.971896
520.178540,2368.659014,-8290.306550,1455.581446
520.178867,3552.988522,-8068.244768,1838.629195
520.179194,2146.597232,-8512.368333,1302.362347
520.179522,0.000000,-9992.780217,0.000000
520.179849,-1998.556043,-10955.047942,-842.705048
520.180177,-3108.864956,-10362.883188,-1455.581446
520.180504,-2738.761985,-9030.512492,-995.924147
520.180832,-1924.535449,-8808.450710,-1072.533697
520.181159,-1480.411884,-8734.430116,-919.314598
520.181487,-962.267725,-7846.182985,-383.047749
520.181814,296.082377,-7402.059420,229.828649
520.182142,740.205942,-7105.977043,919.314598
520.182469,-222.061783,-7994.224174,306.438199
520.182797,-1554.432478,-9844.739029,153.219100
520.183124,-2368.659014,-9918.759623,0.000000
520.183452,-1850.514855,-9030.512492,842.705048
520.183779,0.000000,-9474.636058,1378.971896
520.184107,0.000000,-8956.491898,1532.190996
520.184434,814.226536,-8956.491898,1838.629195
520.184762,2294.638420,-9104.533087,2681.334243
520.185089,2072.576638,-8734.430116,2374.896044
520.185417,74.020594,-9474.636058,1302.362347
520.185744,-1702.473667,-10955.047942,306.438199
520.186072,-2960.823768,-10881.027347,0.000000
520.186399,-2738.761985,-9992.780217,-383.047749
520.186727,-1554.432478,-8956.491898,76.609550
520.187054,-740.205942,-8216.285956,0.000000
520.187382,-740.205942,-7624.121203,612.876398
520.187709,666.185348,-7624.121203,842.705048
520.188037,518.144159,-7105.977043,1149.143247
520.188364,296.082377,-8142.265362,1072.533697
520.188692,-1480.411884,-9252.574275,536.266849
520.189019,-2664.741391,-10436.903782,383.047749
520.189346,-2368.659014,-9474.636058,76.609550
520.189674,-1184.329507,-8586.388927,919.314598
520.190001,0.000000,-8216.285956,1455.581446
520.190329,296.082377,-8660.409521,995.924147
520.190656,1258.350101,-8142.265362,1838.629195
520.190984,1628.453072,-7402.059420,1378.971896
520.191311,1406.391290,-8068.244768,919.314598
520.191639,-370.102971,-9474.636058,-536.266849
520.191966,-1924.535449,-10955.047942,-1302.362347
520.192294,-2220.617826,-10436.903782,-1378.971896
520.192621,-814.226536,-9474.636058,-306.438199
520.192949,0.000000,-9400.615463,-306.438199
520.193276,0.000000,-10066.800811,76.609550
520.193604,666.185348,-9622.677246,383.047749
520.193931,1998.556043,-8734.430116,995.924147
520.194259,2738.761985,-8290.306550,1608.800546
520.194586,1776.494261,-9548.656652,1532.190996
520.194914,0.000000,-10955.047942,1149.143247
520.195241,-1110.308913,-10807.006753,1225.752797
520.195569,-1110.308913,-9844.739029,1225.752797
520.195896,0.000000,-8734.430116,1915.238745
520.196224,296.082377,-8882.471304,1455.581446
520.196551,740.205942,-8660.409521,1455.581446
520.196879,1554.432478,-7624.121203,1762.019645
520.197206,1776.494261,-7624.121203,1532.190996
520.197534,0.000000,-8216.285956,995.924147
520.197861,-1480.411884,-9622.677246,-459.657299
520.198189,-2664.741391,-10584.944971,-919.314598
520.198516,-3034.844362,-9992.780217,-919.314598
520.198844,-2664.741391,-9104.533087,-536.266849
520.199171,-2294.638420,-9326.594869,-459.657299
520.199498,-1998.556043,-9104.533087,-842.705048
520.199826,-148.041188,-8364.327145,459.657299
520.200153,222.061783,-7994.224174,689.485948
520.200481,444.123565,-8364.327145,995.924147
520.200808,-1110.308913,-10436.903782,229.828649
520.201136,-2664.741391,-11177.109724,689.485948
520.201463,-2590.720797,-10214.842000,612.876398
520.201791,-1332.370696,-8882.471304,689.485948
520.202118,148.041188,-8216.285956,842.705048
520.202446,1036.288319,-8290.306550,1455.581446
520.202773,2442.679609,-8290.306550,1685.410096
520.203101,2812.782580,-7254.018232,1685.410096
520.203428,2294.638420,-7698.141797,1608.800546
520.203756,296.082377,-9622.677246,689.485948
520.204083,-1628.453072,-10881.027347,-383.047749
520.204411,-2516.700203,-10955.047942,0.000000
520.204738,-1406.391290,-9400.615463,-536.266849
520.205066,-1480.411884,-9474.636058,-229.828649
520.205393,-370.102971,-9696.697840,76.609550
520.205721,-370.102971,-8586.388927,0.000000
520.206048,1406.391290,-7624.121203,612.876398
520.206376,2294.638420,-7254.018232,1225.752797
520.206703,148.041188,-8364.327145,383.047749
520.207031,-1184.329507,-10436.903782,306.438199
520.207358,-2220.617826,-9918.759623,76.609550
520.207686,-1924.535449,-8882.471304,153.219100
520.208013,-296.082377,-8438.347739,229.828649
520.208341,444.123565,-7772.162391,919.314598
520.208668,592.164754,-8216.285956,919.314598
520.208996,1702.473667,-7698.141797,1378.971896
520.209323,1776.494261,-7476.080014,1685.410096
520.209651,148.041188,-8290.306550,919.314598
520.209978,-1258.350101,-10510.924376,-459.657299
520.210305,-1258.350101,-10881.027347,-306.438199
520.210633,-962.267725,-9770.718434,-383.047749
520.210960,-148.041188,-9326.594869,153.219100
520.211288,1036.288319,-9400.615463,842.705048
520.211615,1258.350101,-9474.636058,612.876398
520.211943,1628.453072,-9474.636058,1455.581446
520.212270,1776.494261,-8734.430116,1378.971896
520.212598,444.123565,-9622.677246,1225.752797
520.212925,-1258.350101,-10881.027347,612.876398
520.213253,-2664.741391,-11103.089130,229.828649
520.213580,-2368.659014,-9992.780217,76.609550
520.213908,-740.205942,-8734.430116,689.485948
520.214235,370.102971,-7550.100608,1378.971896
520.214563,962.267725,-7328.038826,1378.971896
520.214890,1480.411884,-7698.141797,2298.286494
520.215218,1406.391290,-7105.977043,1225.752797
520.215545,148.041188,-7550.100608,1225.752797
520.215873,-2220.617826,-9030.512492,229.828649
520.216200,-3478.967927,-10214.842000,-229.828649
520.216528,-2960.823768,-9770.718434,0.000000
520.216855,-1998.556043,-8956.491898,612.876398
520.217183,-518.144159,-8290.306550,919.314598
520.217510,-740.205942,-9030.512492,1302.362347
520.217838,-370.102971,-8808.450710,995.924147
520.218165,74.020594,-8364.327145,919.314598
520.218493,444.123565,-8290.306550,1532.190996
520.218820,-592.164754,-9104.533087,536.266849
520.219148,-2146.597232,-10436.903782,76.609550
520.219475,-2590.720797,-10362.883188,0.000000
520.219803,-1406.391290,-9104.533087,459.657299
520.220130,0.000000,-7550.100608,919.314598
520.220457,1110.308913,-8068.244768,383.047749
520.220785,1332.370696,-8956.491898,1149.143247
520.221112,1628.453072,-8068.244768,766.095498
520.221440,1258.350101,-8142.265362,1149.143247
520.221767,888.247130,-8216.285956,995.924147
520.222095,0.000000,-10362.883188,76.609550
520.222422,-962.267725,-10955.047942,0.000000
520.222750,-740.205942,-9844.739029,-229.828649
520.223077,-444.123565,-9474.636058,229.828649
520.223405,-148.041188,-9104.533087,-536.266849
520.223732,-888.247130,-9622.677246,-306.438199
520.224060,370.102971,-9252.574275,0.000000
520.224387,1110.308913,-8956.491898,0.000000
520.224715,1258.350101,-9252.574275,0.000000
520.225042,-148.041188,-10436.903782,-383.047749
520.225370,-1258.350101,-10732.986159,-306.438199
520.225697,-1258.350101,-10881.027347,-306.438199
520.226025,-888.247130,-9770.718434,-459.657299
520.226352,-370.102971,-9770.718434,-306.438199
520.226680,0.000000,-9622.677246,0.000000
520.227007,740.205942,-8660.409521,919.314598
520.227335,1406.391290,-8586.388927,842.705048
520.227662,1702.473667,-9178.553681,1302.362347
520.227990,740.205942,-10658.965565,1225.752797
520.228317,-370.102971,-10955.047942,842.705048
520.228645,-444.123565,-10288.862594,919.314598
520.228972,370.102971,-9770.718434,919.314598
520.229300,0.000000,-8956.491898,689.485948
520.229627,148.041188,-8808.450710,766.095498
520.229955,1258.350101,-8586.388927,1455.581446
520.230282,1776.494261,-7920.203579,1455.581446
520.230609,2294.638420,-8364.327145,2145.067394
520.230937,518.144159,-9548.656652,1762.019645
520.231264,-1998.556043,-11473.192101,1378.971896
520.231592,-3034.844362,-11251.130318,1149.143247
520.231919,-3034.844362,-9992.780217,1072.533697
520.232247,-2368.659014,-8512.368333,1149.143247
520.232574,-2294.638420,-8734.430116,1072.533697
520.232902,-1776.494261,-8808.450710,1225.752797
520.233229,-1258.350101,-7550.100608,1302.362347
520.233557,-740.205942,-6957.935855,1532.190996
520.233884,-962.267725,-7254.018232,842.705048
520.234212,-2960.823768,-8512.368333,-229.828649
520.234539,-3478.967927,-8734.430116,-459.657299
520.234867,-2812.782580,-8142.265362,-383.047749
520.235194,-1628.453072,-6883.915261,-153.219100
520.235522,-592.164754,-7179.997637,229.828649
520.235849,148.041188,-7624.121203,459.657299
520.236177,888.247130,-6957.935855,612.876398
520.236504,2220.617826,-7105.977043,1072.533697
520.236832,1554.432478,-8734.430116,919.314598
520.237159,-740.205942,-9548.656652,153.219100
520.237487,-1258.350101,-11251.130318,0.000000
520.237814,-814.226536,-10436.903782,-153.219100
520.238142,444.123565,-8808.450710,0.000000
520.238469,2072.576638,-9104.533087,536.266849
520.238797,2368.659014,-9474.636058,536.266849
520.239124,2442.679609,-7994.224174,919.314598
520.239452,2368.659014,-8364.327145,1302.362347
520.239779,2516.700203,-8142.265362,766.095498
520.240107,518.144159,-9400.615463,-153.219100
520.240434,0.000000,-10584.944971,0.000000
520.240761,-888.247130,-9770.718434,76.609550
520.241089,-1184.329507,-8956.491898,-153.219100
520.241416,370.102971,-7994.224174,536.266849
520.241744,74.020594,-8586.388927,536.266849
520.242071,222.061783,-8734.430116,536.266849
520.242399,518.144159,-7402.059420,919.314598
520.242726,814.226536,-7920.203579,1302.362347
520.243054,-962.267725,-8660.409521,306.438199
520.243381,-2516.700203,-10066.800811,-306.438199
520.243709,-2590.720797,-9918.759623,-383.047749
520.244036,-1850.514855,-8882.471304,229.828649
520.244364,-666.185348,-8660.409521,1072.533697
520.244691,-814.226536,-8882.471304,459.657299
520.245019,-740.205942,-9030.512492,306.438199
520.245346,0.000000,-9178.553681,995.924147
520.245674,0.000000,-8808.450710,995.924147
520.246002,222.061783,-9474.636058,842.705048
520.246329,-1628.453072,-10732.986159,459.657299
520.246657,-1776.494261,-10807.006753,306.438199
520.246985,-1184.329507,-9696.697840,612.876398
520.247312,0.000000,-8808.450710,919.314598
520.247640,592.164754,-8512.368333,1532.190996
520.247968,740.205942,-9252.574275,1302.362347
520.248296,1776.494261,-8290.306550,1608.800546
520.248623,1776.494261,-8438.347739,1991.848295
520.248951,1628.453072,-8956.491898,2068.457845
520.249279,0.000000,-10658.965565,1455.581446
520.249606,-1924.535449,-11325.150913,1608.800546
520.249934,-2368.659014,-10732.986159,995.924147
520.250262,-1776.494261,-9770.718434,995.924147
520.250589,-1258.350101,-9030.512492,306.438199
520.250917,-1628.453072,-9474.636058,306.438199
520.251245,-740.205942,-9400.615463,0.000000
520.251573,-814.226536,-8068.244768,0.000000
520.251900,-444.123565,-8068.244768,-229.828649
520.252228,-1332.370696,-9178.553681,-842.705048
520.252556,-2590.720797,-10214.842000,-1225.752797
520.252883,-2590.720797,-9918.759623,-1225.752797
520.253211,-2442.679609,-8956.491898,-995.924147
520.253539,-1480.411884,-8734.430116,-383.047749
520.253866,-592.164754,-9252.574275,-153.219100
520.254194,740.205942,-8734.430116,536.266849
520.254522,2368.659014,-7846.182985,1225.752797
520.254850,3256.906145,-8068.244768,1991.848295
520.255177,1850.514855,-9252.574275,1532.190996
520.255505,222.061783,-10658.965565,995.924147
520.255833,-296.082377,-10510.924376,766.095498
520.256160,222.061783,-9178.553681,1608.800546
520.256488,1332.370696,-8660.409521,1072.533697
520.256816,1332.370696,-8956.491898,536.266849
520.257143,1184.329507,-8956.491898,995.924147
520.257471,2072.576638,-8364.327145,1072.533697
520.257799,2442.679609,-7994.224174,1532.190996
520.258127,1554.432478,-8956.491898,995.924147
520.258454,148.041188,-10584.944971,459.657299
520.258782,-962.267725,-10362.883188,0.000000
520.259110,-1480.411884,-9622.677246,229.828649
520.259437,-1406.391290,-9252.574275,383.047749
520.259765,-1036.288319,-9326.594869,1532.190996
520.260093,-1184.329507,-8956.491898,1302.362347
520.260420,0.000000,-7920.203579,1685.410096
520.260748,592.164754,-7254.018232,1838.629195
520.261076,370.102971,-8068.244768,1685.410096
520.261404,-1332.370696,-9252.574275,1072.533697
520.261731,-2960.823768,-9622.677246,0.000000
520.262059,-3108.864956,-8808.450710,-306.438199
520.262387,-2294.638420,-8142.265362,0.000000
520.262714,-1480.411884,-7624.121203,0.000000
520.263042,-1036.288319,-8142.265362,536.266849
520.263370,0.000000,-8438.347739,0.000000
520.263698,0.000000,-8142.265362,612.876398
520.264025,0.000000,-8956.491898,612.876398
520.264353,-1406.391290,-10288.862594,-306.438199
520.264681,-2294.638420,-11843.295072,-459.657299
520.265008,-1998.556043,-11103.089130,-766.095498
520.265336,-1332.370696,-9770.718434,0.000000
520.265664,592.164754,-8734.430116,612.876398
520.265991,1406.391290,-8216.285956,842.705048
520.266319,2368.659014,-7698.141797,1225.752797
520.266647,2886.803174,-6439.791695,1915.238745
520.266975,3034.844362,-7105.977043,1915.238745
520.267302,888.247130,-9030.512492,1302.362347
520.267630,-814.226536,-10807.006753,612.876398
520.267958,-1628.453072,-10732.986159,536.266849
520.268285,-888.247130,-9696.697840,612.876398
520.268613,296.082377,-9178.553681,919.314598
520.268941,444.123565,-8734.430116,766.095498
520.269268,296.082377,-8512.368333,766.095498
520.269596,814.226536,-7624.121203,459.657299
520.269924,814.226536,-7179.997637,0.000000
520.270252,-444.123565,-8734.430116,-459.657299
520.270579,-2146.597232,-10140.821405,-1378.971896
520.270907,-2960.823768,-10362.883188,-1608.800546
520.271235,-2738.761985,-9474.636058,-766.095498
520.271562,-1480.411884,-9178.553681,76.609550
520.271890,-444.123565,-8512.368333,612.876398
520.272218,222.061783,-9326.594869,1225.752797
520.272545,1406.391290,-8956.491898,1762.019645
520.272873,1776.494261,-9104.533087,2298.286494
520.273201,1036.288319,-9992.780217,2145.067394
520.273529,-666.185348,-11177.109724,1532.190996
520.273856,-1554.432478,-11325.150913,766.095498
520.274184,-1332.370696,-10214.842000,536.266849
520.274512,148.041188,-9252.574275,842.705048
520.274839,888.247130,-8734.430116,689.485948
520.275167,1036.288319,-8586.388927,1455.581446
520.275495,1406.391290,-8438.347739,459.657299
520.275822,518.144159,-8512.368333,689.485948
520.276150,74.020594,-8438.347739,383.047749
520.276478,-1406.391290,-10288.862594,0.000000
520.276806,-2738.761985,-11621.233289,-229.828649
520.277133,-2812.782580,-10288.862594,-306.438199
520.277461,-1776.494261,-9474.636058,229.828649
520.277789,-296.082377,-8882.471304,612.876398
520.278116,-222.061783,-8364.327145,1072.533697
520.278444,666.185348,-8512.368333,1608.800546
520.278772,1406.391290,-7920.203579,1225.752797
520.279099,814.226536,-7402.059420,1915.238745
520.279427,0.000000,-9030.512492,1225.752797
520.279755,-1628.453072,-9918.759623,612.876398
520.280083,-1850.514855,-9696.697840,153.219100
520.280410,-1406.391290,-8734.430116,383.047749
520.280738,-1258.350101,-8068.244768,0.000000
520.281066,-666.185348,-8438.347739,76.609550
520.281393,0.000000,-8438.347739,306.438199
520.281721,222.061783,-7550.100608,229.828649
520.282049,888.247130,-7624.121203,766.095498
520.282376,518.144159,-8660.409521,612.876398
520.282704,-1554.432478,-9844.739029,-459.657299
520.283032,-1628.453072,-10288.862594,-459.657299
520.283360,-1184.329507,-9770.718434,0.000000
520.283687,-962.267725,-8290.306550,306.438199
520.284015,444.123565,-8364.327145,766.095498
520.284343,1110.308913,-8438.347739,689.485948
520.284670,1776.494261,-8142.265362,1378.971896
520.284998,2664.741391,-7698.141797,2068.457845
520.285326,2442.679609,-8512.368333,1838.629195
520.285653,592.164754,-10066.800811,1225.752797
520.285981,-444.123565,-10584.944971,842.705048
520.286309,-1184.329507,-10288.862594,536.266849
520.286637,-1258.350101,-9622.677246,306.438199
520.286964,-740.205942,-9252.574275,459.657299
520.287292,-740.205942,-9104.533087,76.609550
520.287620,-518.144159,-8586.388927,153.219100
520.287947,-148.041188,-8290.306550,383.047749
520.288275,0.000000,-8364.327145,0.000000
520.288603,-1258.350101,-9030.512492,-459.657299
520.288930,-2738.761985,-9992.780217,-1225.752797
520.289258,-3034.844362,-9474.636058,-995.924147
520.289586,-2960.823768,-9178.553681,-766.095498
520.289914,-1998.556043,-8808.450710,-459.657299
520.290241,-1480.411884,-8882.471304,153.219100
520.290569,222.061783,-8586.388927,1072.533697
520.290897,1406.391290,-7920.203579,2068.457845
520.291224,2220.617826,-8364.327145,2451.505594
520.291552,1332.370696,-9030.512492,1762.019645
520.291880,518.144159,-10436.903782,1532.190996
520.292207,222.061783,-10436.903782,1149.143247
520.292535,0.000000,-9844.739029,1608.800546
520.292863,814.226536,-9474.636058,1302.362347
520.293191,148.041188,-9474.636058,995.924147
520.293518,296.082377,-10066.800811,995.924147
520.293846,444.123565,-9030.512492,612.876398
520.294174,296.082377,-8586.388927,919.314598
520.294501,0.000000,-9474.636058,0.000000
520.294829,-2516.700203,-11029.068536,-689.485948
520.295157,-3552.988522,-10955.047942,-1302.362347
520.295484,-2960.823768,-9770.718434,-1225.752797
520.295812,-1702.473667,-8364.327145,-919.314598
520.296140,-962.267725,-7550.100608,0.000000
520.296468,296.082377,-8586.388927,536.266849
520.296795,962.267725,-7698.141797,1378.971896
520.297123,1776.494261,-8068.244768,1762.019645
520.297451,1036.288319,-8438.347739,1455.581446
520.297778,-444.123565,-9474.636058,689.485948
520.298106,-1036.288319,-10510.924376,689.485948
520.298434,-1110.308913,-10066.800811,919.314598
520.298761,296.082377,-9474.636058,995.924147
520.299089,888.247130,-8808.450710,1685.410096
520.299417,814.226536,-9252.574275,995.924147
520.299745,1110.308913,-8734.430116,1149.143247
520.300072,1036.288319,-8364.327145,689.485948
520.300400,296.082377,-8882.471304,689.485948
520.300728,-1258.350101,-9992.780217,76.609550
520.301055,-2664.741391,-11399.171507,-995.924147
520.301383,-2886.803174,-10510.924376,-383.047749
520.301711,-1924.535449,-9104.533087,0.000000
520.302038,-444.123565,-7920.203579,76.609550
520.302366,0.000000,-7846.182985,383.047749
520.302694,592.164754,-7328.038826,995.924147
520.303022,666.185348,-7550.100608,1608.800546
520.303349,814.226536,-7550.100608,1991.848295
520.303677,-740.205942,-8216.285956,1378.971896
520.304005,-1110.308913,-9696.697840,1302.362347
520.304332,-962.267725,-9474.636058,1455.581446
520.304660,-888.247130,-7846.182985,536.266849
520.304988,296.082377,-7846.182985,1149.143247
520.305315,148.041188,-8068.244768,1149.143247
520.305643,296.082377,-8142.265362,689.485948
520.305971,592.164754,-8290.306550,306.438199
520.306299,814.226536,-8734.430116,0.000000
520.306626,-296.082377,-8734.430116,383.047749
520.306954,-2146.597232,-10362.883188,-842.705048
520.307282,-2886.803174,-10955.047942,-1072.533697
520.307609,-2146.597232,-10288.862594,-995.924147
520.307937,-1184.329507,-9030.512492,-689.485948
520.308265,74.020594,-8364.327145,0.000000
520.308592,444.123565,-8882.471304,76.609550
520.308920,1628.453072,-8956.491898,995.924147
520.309248,1850.514855,-8512.368333,1608.800546
520.309576,1924.535449,-8364.327145,2068.457845
520.309903,444.123565,-9474.636058,1455.581446
520.310231,-518.144159,-10436.903782,995.924147
520.310559,-666.185348,-9918.759623,1149.143247
520.310886,-222.061783,-8660.409521,1225.752797
520.311214,0.000000,-8068.244768,536.266849
520.311542,888.247130,-8956.491898,995.924147
520.311869,222.061783,-9030.512492,536.266849
520.312197,0.000000,-8734.430116,383.047749
520.312525,74.020594,-9104.533087,76.609550
520.312853,-1480.411884,-9844.739029,-689.485948
520.313180,-3034.844362,-10807.006753,-1455.581446
520.313508,-3923.091493,-10436.903782,-1608.800546
520.313836,-2960.823768,-9252.574275,-1762.019645
520.314163,-1184.329507,-8512.368333,-766.095498
520.314491,-444.123565,-8660.409521,-306.438199
520.314819,518.144159,-8364.327145,383.047749
520.315146,1406.391290,-7920.203579,995.924147
520.315474,2146.597232,-7550.100608,1532.190996
520.315802,1702.473667,-8808.450710,1455.581446
520.316130,-222.061783,-10584.944971,1378.971896
520.316457,-740.205942,-10510.924376,1532.190996
520.316785,-814.226536,-9992.780217,1378.971896
520.317113,444.123565,-9030.512492,1302.362347
520.317440,370.102971,-9030.512492,1378.971896
520.317768,888.247130,-9474.636058,766.095498
520.318096,888.247130,-8734.430116,919.314598
520.318424,1554.432478,-7920.203579,76.609550
520.318751,74.020594,-9474.636058,0.000000
520.319079,-1924.535449,-10288.862594,-842.705048
520.319407,-2738.761985,-10881.027347,-1225.752797
520.319734,-2368.659014,-10140.821405,-1532.190996
520.320062,-888.247130,-9104.533087,-229.828649
520.320390,-518.144159,-8882.471304,76.609550
520.320717,0.000000,-9474.636058,995.924147
520.321045,1258.350101,-9252.574275,1838.629195
520.321373,1406.391290,-8586.388927,1991.848295
520.321701,1258.350101,-9474.636058,2221.676944
520.322028,222.061783,-10066.800811,2145.067394
520.322356,-814.226536,-10955.047942,1608.800546
520.322684,-1036.288319,-9844.739029,1532.190996
520.323011,-370.102971,-8660.409521,1608.800546
520.323339,444.123565,-8068.244768,2068.457845
520.323667,444.123565,-8808.450710,1532.190996
520.323994,814.226536,-8882.471304,1225.752797
520.324322,518.144159,-7772.162391,1149.143247
520.324650,444.123565,-9104.533087,1149.143247
520.324978,-1332.370696,-10510.924376,0.000000
520.325305,-3256.906145,-11769.274478,-612.876398
520.325633,-3034.844362,-11029.068536,-1072.533697
520.325961,-2368.659014,-9622.677246,-536.266849
520.326288,-1258.350101,-8882.471304,0.000000
520.326616,-888.247130,-8734.430116,153.219100
520.326944,0.000000,-8068.244768,459.657299
520.327271,1036.288319,-7846.182985,1072.533697
520.327599,1258.350101,-7846.182985,995.924147
520.327927,592.164754,-8882.471304,1072.533697
520.328255,-666.185348,-9992.780217,689.485948
520.328582,-444.123565,-10066.800811,842.705048
520.328910,-296.082377,-8734.430116,1072.533697
520.329238,888.247130,-8290.306550,919.314598
520.329565,1406.391290,-8068.244768,1149.143247
520.329893,1924.535449,-7994.224174,1072.533697
520.330221,2220.617826,-8068.244768,842.705048
520.330548,1850.514855,-7920.203579,995.924147
520.330876,666.185348,-9030.512492,229.828649
520.331204,-1776.494261,-10288.862594,-919.314598
520.331532,-2516.700203,-10140.821405,-1378.971896
520.331859,-2368.659014,-9104.533087,-1378.971896
520.332187,-1332.370696,-8364.327145,-1072.533697
520.332515,-740.205942,-8290.306550,-536.266849
520.332842,-888.247130,-8142.265362,-153.219100
520.333170,74.020594,-7624.121203,229.828649
520.333498,814.226536,-7105.977043,612.876398
520.333825,1184.329507,-7846.182985,995.924147
520.334153,-666.185348,-9178.553681,536.266849
520.334481,-1184.329507,-10066.800811,536.266849
520.334809,-1480.411884,-9178.553681,766.095498
520.335136,-444.123565,-8438.347739,1302.362347
520.335464,148.041188,-8068.244768,1149.143247
520.335792,296.082377,-7698.141797,1302.362347
520.336119,1258.350101,-8438.347739,1378.971896
520.336447,2220.617826,-7476.080014,1532.190996
520.336775,1924.535449,-8290.306550,1225.752797
520.337102,74.020594,-10066.800811,689.485948
520.337430,-1554.432478,-10510.924376,-383.047749
520.337758,-2220.617826,-10362.883188,-383.047749
520.338086,-1924.535449,-9474.636058,-153.219100
520.338413,-1332.370696,-9178.553681,383.047749
520.338741,-1258.350101,-9474.636058,459.657299
520.339069,-222.061783,-8882.471304,995.924147
520.339396,148.041188,-8586.388927,1302.362347
520.339724,370.102971,-8882.471304,1455.581446
520.340052,-518.144159,-9770.718434,1378.971896
520.340379,-2294.638420,-10807.006753,842.705048
520.340707,-2294.638420,-10288.862594,612.876398
520.341035,-2146.597232,-9030.512492,1225.752797
520.341363,-1036.288319,-8290.306550,1072.533697
520.341690,0.000000,-7920.203579,1225.752797
520.342018,370.102971,-7920.203579,1225.752797
520.342346,1110.308913,-7550.100608,1532.190996
520.342673,814.226536,-7254.018232,1225.752797
520.343001,0.000000,-9252.574275,536.266849
520.343329,-2146.597232,-11029.068536,-383.047749
520.343656,-3108.864956,-11399.171507,-995.924147
520.343984,-2590.720797,-10732.986159,-612.876398
520.344312,-1332.370696,-9474.636058,-306.438199
520.344640,-592.164754,-9770.718434,-153.219100
520.344967,0.000000,-9548.656652,76.609550
520.345295,2072.576638,-8882.471304,689.485948
520.345623,2368.659014,-8142.265362,689.485948
520.345950,2368.659014,-8882.471304,1608.800546
520.346278,518.144159,-10584.944971,1072.533697
520.346606,-666.185348,-10807.006753,689.485948
520.346933,-888.247130,-10436.903782,689.485948
520.347261,74.020594,-9178.553681,1302.362347
520.347589,518.144159,-8586.388927,1762.019645
520.347917,1776.494261,-9474.636058,1838.629195
520.348244,1850.514855,-7994.224174,1838.629195
520.348572,1924.535449,-7846.182985,2068.457845
520.348900,1406.391290,-8364.327145,1072.533697
520.349227,-666.185348,-9474.636058,459.657299
520.349555,-2220.617826,-10807.006753,229.828649
520.349883,-2960.823768,-9548.656652,-842.705048
520.350211,-2516.700203,-8956.491898,-689.485948
520.350538,-2368.659014,-8438.347739,-995.924147
520.350866,-1776.494261,-8290.306550,-842.705048
520.351194,-296.082377,-7772.162391,-459.657299
520.351521,222.061783,-7031.956449,0.000000
520.351849,666.185348,-7550.100608,612.876398
520.352177,148.041188,-9178.553681,536.266849
520.352504,-1554.432478,-10288.862594,383.047749
520.352832,-1332.370696,-9548.656652,0.000000
520.353160,-370.102971,-9030.512492,76.609550
520.353488,0.000000,-8586.388927,689.485948
520.353815,1184.329507,-8290.306550,1149.143247
520.354143,1554.432478,-8290.306550,1225.752797
520.354471,2516.700203,-7328.038826,2145.067394
520.354798,2738.761985,-7624.121203,1838.629195
520.355126,1184.329507,-9474.636058,766.095498
520.355454,-888.247130,-10658.965565,0.000000
520.355782,-2072.576638,-10510.924376,-919.314598
520.356109,-1924.535449,-9918.759623,-919.314598
520.356437,-1036.288319,-9400.615463,-842.705048
520.356765,-370.102971,-9252.574275,-689.485948
520.357092,74.020594,-9326.594869,0.000000
520.357420,1036.288319,-8586.388927,459.657299
520.357748,962.267725,-8216.285956,612.876398
520.358075,444.123565,-9178.553681,689.485948
520.358403,-1776.494261,-10658.965565,383.047749
520.358731,-2664.741391,-10288.862594,-383.047749
520.359059,-1850.514855,-9178.553681,-612.876398
520.359386,0.000000,-8586.388927,459.657299
520.359714,666.185348,-7402.059420,995.924147
520.360042,1332.370696,-7624.121203,1149.143247
520.360369,1924.535449,-7846.182985,1685.410096
520.360697,1258.350101,-7846.182985,1532.190996
520.361025,0.000000,-8956.491898,1072.533697
520.361353,-1406.391290,-10362.883188,689.485948
520.361680,-2738.761985,-11177.109724,-229.828649
520.362008,-2368.659014,-10362.883188,-306.438199
520.362336,-1036.288319,-9326.594869,0.000000
520.362663,0.000000,-9474.636058,612.876398
520.362991,444.123565,-9252.574275,689.485948
520.363319,1332.370696,-8512.368333,766.095498
520.363646,1110.308913,-7772.162391,1149.143247
520.363974,666.185348,-9326.594869,1532.190996
520.364302,-740.205942,-10214.842000,919.314598
520.364630,-2294.638420,-11029.068536,536.266849
520.364957,-2072.576638,-10362.883188,689.485948
520.365285,-1184.329507,-9400.615463,1378.971896
520.365613,-222.061783,-9104.533087,1838.629195
520.365940,0.000000,-8956.491898,1532.190996
520.366268,592.164754,-8438.347739,1685.410096
520.366596,1332.370696,-7550.100608,1915.238745
520.366924,1036.288319,-7846.182985,1608.800546
520.367251,444.123565,-9400.615463,1455.581446
520.367579,-962.267725,-10362.883188,612.876398
520.367907,-1332.370696,-9770.718434,536.266849
520.368234,-1480.411884,-8808.450710,383.047749
520.368562,-1036.288319,-8586.388927,0.000000
520.368890,-1184.329507,-8660.409521,153.219100
520.369218,-1332.370696,-8882.471304,0.000000
520.369545,-592.164754,-8142.265362,0.000000
520.369873,74.020594,-7772.162391,306.438199
520.370201,222.061783,-8734.430116,76.609550
520.370528,-1036.288319,-10288.862594,153.219100
520.370856,-1480.411884,-10510.924376,229.828649
520.371184,-1554.432478,-9696.697840,0.000000
520.371511,-1332.370696,-8882.471304,153.219100
520.371839,-370.102971,-9030.512492,0.000000
520.372167,-592.164754,-9178.553681,383.047749
520.372495,888.247130,-7402.059420,536.266849
520.372822,2294.638420,-7031.956449,842.705048
520.373150,2220.617826,-7698.141797,1072.533697
520.373478,444.123565,-8512.368333,842.705048
520.373805,-296.082377,-9770.718434,0.000000
520.374133,-370.102971,-8808.450710,0.000000
520.374461,-888.247130,-8586.388927,0.000000
520.374789,-740.205942,-9104.533087,153.219100
520.375116,-370.102971,-9030.512492,153.219100
520.375444,222.061783,-8364.327145,153.219100
520.375772,1332.370696,-7550.100608,842.705048
520.376099,1554.432478,-8808.450710,995.924147
520.376427,370.102971,-9622.677246,842.705048
520.376755,-1110.308913,-10732.986159,229.828649
520.377082,-2072.576638,-9918.759623,229.828649
520.377410,-1406.391290,-9104.533087,0.000000
520.377738,-1332.370696,-9326.594869,383.047749
520.378066,-666.185348,-9178.553681,306.438199
520.378393,-148.041188,-8660.409521,536.266849
520.378721,814.226536,-7179.997637,1072.533697
520.379049,814.226536,-8068.244768,1378.971896
520.379376,-222.061783,-9252.574275,612.876398
520.379704,-1850.514855,-10214.842000,0.000000
520.380032,-2368.659014,-9696.697840,-383.047749
520.380360,-1184.329507,-8734.430116,-229.828649
520.380687,-370.102971,-7846.182985,-766.095498
520.381015,222.061783,-8364.327145,229.828649
520.381343,814.226536,-8290.306550,842.705048
520.381670,2146.597232,-7772.162391,1302.362347
520.381998,1998.556043,-8142.265362,1608.800546
520.382326,148.041188,-10214.842000,1762.019645
520.382653,-1406.391290,-11695.253884,842.705048
520.382981,-2664.741391,-11843.295072,459.657299
520.383309,-2220.617826,-11177.109724,459.657299
520.383637,-962.267725,-10066.800811,919.314598
520.383964,0.000000,-9104.533087,919.314598
520.384292,0.000000,-9400.615463,842.705048
520.384620,1406.391290,-8142.265362,1072.533697
520.384947,1184.329507,-7179.997637,766.095498
520.385275,962.267725,-8438.347739,766.095498
520.385603,-962.267725,-9696.697840,229.828649
520.385931,-2072.576638,-10362.883188,0.000000
520.386258,-1850.514855,-9918.759623,0.000000
520.386586,-1258.350101,-9474.636058,459.657299
520.386914,-740.205942,-9400.615463,1149.143247
520.387241,-296.082377,-9696.697840,1302.362347
520.387569,0.000000,-8808.450710,1455.581446
520.387897,370.102971,-7698.141797,995.924147
520.388224,592.164754,-8512.368333,1072.533697
520.388552,-888.247130,-9548.656652,306.438199
520.388880,-1924.535449,-10288.862594,0.000000
520.389208,-1850.514855,-8956.491898,-383.047749
520.389535,-888.247130,-8512.368333,0.000000
520.389863,370.102971,-8438.347739,0.000000
520.390191,592.164754,-8660.409521,459.657299
520.390518,740.205942,-8882.471304,612.876398
520.390846,1036.288319,-8586.388927,1149.143247
520.391174,740.205942,-8882.471304,995.924147
520.391502,0.000000,-10362.883188,842.705048
520.391829,-1480.411884,-11473.192101,153.219100
520.392157,-1554.432478,-10807.006753,229.828649
520.392485,-888.247130,-9844.739029,612.876398
520.392812,-370.102971,-8882.471304,229.828649
520.393140,74.020594,-8734.430116,766.095498
520.393468,222.061783,-8512.368333,919.314598
520.393796,1554.432478,-7179.997637,995.924147
520.394123,1850.514855,-6957.935855,1608.800546
520.394451,1554.432478,-8142.265362,1072.533697
520.394779,-518.144159,-9326.594869,76.609550
520.395106,-1184.329507,-9770.718434,153.219100
520.395434,-1332.370696,-9030.512492,0.000000
520.395762,-740.205942,-8956.491898,612.876398
520.396089,-888.247130,-9104.533087,536.266849
520.396417,-1480.411884,-9178.553681,536.266849
520.396745,-592.164754,-8438.347739,612.876398
520.397073,74.020594,-7624.121203,766.095498
520.397400,296.082377,-8364.327145,766.095498
520.397728,-814.226536,-9252.574275,383.047749
520.398056,-1628.453072,-9548.656652,459.657299
520.398383,-1554.432478,-9252.574275,0.000000
520.398711,-1628.453072,-8734.430116,0.000000
520.399039,-1480.411884,-9030.512492,383.047749
520.399367,-888.247130,-8808.450710,1225.752797
520.399694,518.144159,-8586.388927,919.314598
520.400022,1480.411884,-7920.203579,1225.752797
520.400350,1702.473667,-8216.285956,1378.971896
520.400677,962.267725,-9622.677246,1455.581446
520.401005,0.000000,-10510.924376,1225.752797
520.401333,-814.226536,-10066.800811,383.047749
520.401660,-592.164754,-9474.636058,306.438199
520.401988,-444.123565,-9400.615463,459.657299
520.402316,-740.205942,-9326.594869,306.438199
520.402644,-222.061783,-8882.471304,689.485948
520.402971,1036.288319,-7476.080014,995.924147
520.403299,1332.370696,-8142.265362,1072.533697
520.403627,888.247130,-9326.594869,536.266849
520.403954,-1036.288319,-10510.924376,76.609550
520.404282,-1776.494261,-10436.903782,-229.828649
520.404610,-1554.432478,-9252.574275,-153.219100
520.404938,-1406.391290,-9548.656652,-153.219100
520.405265,-1184.329507,-9252.574275,0.000000
520.405593,-666.185348,-8956.491898,306.438199
520.405921,444.123565,-7328.038826,919.314598
520.406248,1702.473667,-7550.100608,1378.971896
520.406576,1258.350101,-8956.491898,1225.752797
520.406904,-740.205942,-10066.800811,306.438199
520.407231,-1628.453072,-10362.883188,153.219100
520.407559,-1850.514855,-9770.718434,0.000000
520.407887,-2146.597232,-9104.533087,0.000000
520.408215,-888.247130,-9400.615463,306.438199
520.408542,-814.226536,-9696.697840,0.000000
520.408870,0.000000,-8142.265362,76.609550
520.409198,1628.453072,-7698.141797,995.924147
520.409525,1332.370696,-8512.368333,842.705048
520.409853,518.144159,-9548.656652,383.047749
520.410181,-666.185348,-10881.027347,306.438199
520.410509,-888.247130,-10066.800811,229.828649
520.410836,-1332.370696,-9474.636058,76.609550
520.411164,0.000000,-9474.636058,995.924147
520.411492,148.041188,-9326.594869,1455.581446
520.411819,1184.329507,-8438.347739,1378.971896
520.412147,2516.700203,-7328.038826,1991.848295
520.412475,2368.659014,-7994.224174,2145.067394
520.412802,1184.329507,-8956.491898,1991.848295
520.413130,-888.247130,-10362.883188,995.924147
520.413458,-1554.432478,-9548.656652,842.705048
520.413786,-1998.556043,-9400.615463,689.485948
520.414113,-1924.535449,-9474.636058,536.266849
520.414441,-1850.514855,-9400.615463,612.876398
520.414769,-1184.329507,-8882.471304,689.485948
520.415096,148.041188,-8068.244768,919.314598
520.415424,222.061783,-7624.121203,612.876398
520.415752,-888.247130,-8808.450710,0.000000
520.416080,-2442.679609,-9844.739029,-612.876398
520.416407,-3256.906145,-9474.636058,-1072.533697
520.416735,-2294.638420,-8734.430116,-995.924147
520.417063,-1258.350101,-8364.327145,-306.438199
520.417390,-518.144159,-7994.224174,229.828649
520.417718,296.082377,-8216.285956,1149.143247
520.418046,1998.556043,-7624.121203,1838.629195
520.418374,1628.453072,-7698.141797,1915.238745
520.418701,1036.288319,-9030.512492,1991.848295
520.419029,-296.082377,-10288.862594,995.924147
520.419357,-1332.370696,-10510.924376,153.219100
520.419684,-1036.288319,-10066.800811,153.219100
520.420012,-296.082377,-9030.512492,0.000000
520.420340,222.061783,-8882.471304,459.657299
520.420667,518.144159,-9030.512492,306.438199
520.420995,1332.370696,-8290.306550,689.485948
520.421323,1628.453072,-7402.059420,383.047749
520.421651,1110.308913,-8512.368333,383.047749
520.421978,0.000000,-10214.842000,-153.219100
520.422306,-1406.391290,-10584.944971,-612.876398
520.422634,-1554.432478,-9844.739029,-383.047749
520.422961,-740.205942,-9326.594869,0.000000
520.423289,0.000000,-9252.574275,766.095498
520.423617,444.123565,-8808.450710,1072.533697
520.423945,1036.288319,-8290.306550,1378.971896
520.424272,1628.453072,-7254.018232,1685.410096
520.424600,1406.391290,-7920.203579,1915.238745
520.424928,222.061783,-9326.594869,1302.362347
520.425255,-370.102971,-9844.739029,766.095498
520.425583,-1110.308913,-9844.739029,536.266849
520.425911,-1110.308913,-9252.574275,459.657299
520.426238,-1406.391290,-9400.615463,612.876398
520.426566,-1258.350101,-9548.656652,0.000000
520.426894,-1184.329507,-9474.636058,612.876398
520.427222,-296.082377,-7994.224174,612.876398
520.427549,-518.144159,-8586.388927,612.876398
520.427877,-962.267725,-9400.615463,0.000000
520.428205,-2294.638420,-10807.006753,-766.095498
520.428532,-2812.782580,-10436.903782,-766.095498
520.428860,-2146.597232,-9622.677246,-459.657299
520.429188,-1332.370696,-9326.594869,153.219100
520.429516,-370.102971,-8882.471304,536.266849
520.429843,222.061783,-8882.471304,1225.752797
520.430171,1628.453072,-7624.121203,1915.238745
520.430499,2886.803174,-8290.306550,1838.629195
520.430826,2220.617826,-8290.306550,2221.676944
520.431154,370.102971,-9622.677246,1455.581446
520.431482,0.000000,-10658.965565,1072.533697
520.431809,-444.123565,-10214.842000,842.705048
520.432137,-740.205942,-10214.842000,459.657299
520.432465,-592.164754,-9474.636058,1072.533697
520.432793,-666.185348,-10066.800811,76.609550
520.433120,370.102971,-9474.636058,689.485948
520.433448,444.123565,-8364.327145,306.438199
520.433776,222.061783,-9030.512492,383.047749
520.434103,-1258.350101,-10510.924376,-229.828649
520.434431,-3108.864956,-10658.965565,-1532.190996
520.434759,-2738.761985,-9548.656652,-1149.143247
520.435087,-2072.576638,-8734.430116,-612.876398
520.435414,-518.144159,-8364.327145,0.000000
520.435742,-296.082377,-8068.244768,459.657299
520.436070,1480.411884,-7698.141797,1302.362347
520.436397,1702.473667,-6587.832884,1685.410096
520.436725,1628.453072,-7772.162391,2221.676944
520.437053,148.041188,-9918.759623,1762.019645
520.437380,-1332.370696,-10955.047942,1685.410096
520.437708,-1332.370696,-10362.883188,995.924147
520.438036,-1110.308913,-9178.553681,1072.533697
520.438364,-444.123565,-8808.450710,995.924147
520.438691,-222.061783,-9178.553681,459.657299
520.439019,444.123565,-8216.285956,689.485948
520.439347,1332.370696,-7550.100608,383.047749
520.439674,814.226536,-7846.182985,0.000000
520.440002,0.000000,-9474.636058,0.000000
520.440330,-2294.638420,-10732.986159,-766.095498
520.440658,-2812.782580,-10214.842000,-766.095498
520.440985,-2220.617826,-9104.533087,0.000000
520.441313,-814.226536,-8512.368333,229.828649
520.441641,0.000000,-8438.347739,612.876398
520.441968,666.185348,-8216.285956,1378.971896
520.442296,1850.514855,-7402.059420,2145.067394
520.442624,1110.308913,-7031.956449,2528.115143
520.442952,962.267725,-8438.347739,2221.676944
520.443279,-1184.329507,-9622.677246,1149.143247
520.443607,-1480.411884,-9992.780217,919.314598
520.443935,-814.226536,-8734.430116,919.314598
520.444262,0.000000,-7179.997637,1072.533697
520.444590,962.267725,-7402.059420,1225.752797
520.444918,592.164754,-8290.306550,919.314598
520.445245,1036.288319,-7624.121203,919.314598
520.445573,1184.329507,-7846.182985,459.657299
520.445901,0.000000,-8882.471304,459.657299
520.446228,-1776.494261,-10881.027347,0.000000
520.446556,-3182.885551,-11843.295072,-536.266849
520.446884,-2738.761985,-10214.842000,-383.047749
520.447211,-1924.535449,-8882.471304,0.000000
520.447539,-74.020594,-8512.368333,153.219100
520.447866,148.041188,-8068.244768,919.314598
520.448194,1184.329507,-7698.141797,1225.752797
520.448522,1776.494261,-6661.853478,1532.190996
520.448849,2368.659014,-7328.038826,2528.115143
520.449177,1480.411884,-9030.512492,2604.724693
520.449505,0.000000,-10436.903782,2757.943793
520.449832,-296.082377,-10436.903782,2528.115143
520.450160,-222.061783,-9252.574275,2604.724693
520.450487,-222.061783,-9030.512492,2604.724693
520.450815,-444.123565,-9622.677246,2451.505594
520.451143,-962.267725,-9622.677246,1685.410096
520.451470,-370.102971,-8734.430116,1915.238745
520.451798,148.041188,-8142.265362,1838.629195
520.452126,666.185348,-8512.368333,1762.019645
520.452453,-666.185348,-10066.800811,1378.971896
520.452781,-1924.535449,-10807.006753,1225.752797
520.453108,-2294.638420,-10214.842000,766.095498
520.453436,-2368.659014,-9474.636058,1225.752797
520.453764,-1776.494261,-9252.574275,1378.971896
520.454091,-1258.350101,-9992.780217,1762.019645
520.454419,-518.144159,-10066.800811,2451.505594
520.454747,-74.020594,-9326.594869,3140.991542
520.455074,1036.288319,-8660.409521,3370.820191
520.455402,1850.514855,-9104.533087,3753.867940
520.455729,1332.370696,-10066.800811,3600.648841
520.456057,222.061783,-10214.842000,3447.429741
520.456385,222.061783,-8808.450710,3064.381992
520.456712,1110.308913,-8290.306550,3294.210641
520.457040,1406.391290,-8290.306550,3983.696590
520.457368,1332.370696,-9252.574275,3753.867940
520.457695,148.041188,-9770.718434,2911.162892
520.458023,518.144159,-9696.697840,3217.601092
520.458350,814.226536,-9548.656652,3983.696590
520.458678,814.226536,-9770.718434,3753.867940
520.459006,444.123565,-11029.068536,3983.696590
520.459333,-1332.370696,-11769.274478,3140.991542
520.459661,-3552.988522,-11029.068536,2757.943793
520.459989,-3256.906145,-9326.594869,2681.334243
520.460316,-1628.453072,-8364.327145,2911.162892
520.460644,-740.205942,-7920.203579,3217.601092
520.460971,-666.185348,-8734.430116,3294.210641
520.461299,-2146.597232,-8956.491898,2604.724693
520.461627,-2146.597232,-7550.100608,3524.039291
520.461954,-370.102971,-6587.832884,3140.991542
520.462282,1258.350101,-6883.915261,3753.867940
520.462610,1628.453072,-7550.100608,4290.134789
520.462937,888.247130,-8660.409521,4213.525239
520.463265,-888.247130,-9252.574275,3524.039291
520.463592,-1406.391290,-8808.450710,4213.525239
520.463920,-518.144159,-8734.430116,3983.696590
520.464248,1110.308913,-9030.512492,3983.696590
520.464575,1924.535449,-9696.697840,3830.477490
520.464903,888.247130,-10732.986159,2911.162892
520.465231,-1036.288319,-10140.821405,3524.039291
520.465558,-962.267725,-9104.533087,2911.162892
520.465886,592.164754,-8290.306550,2834.553343
520.466213,2072.576638,-8290.306550,3677.258390
520.466541,2294.638420,-9104.533087,3907.087040
520.466869,518.144159,-9178.553681,3753.867940
520.467196,-1702.473667,-10140.821405,3447.429741
520.467524,-3997.112087,-9992.780217,2528.115143
520.467852,-3775.050304,-9844.739029,1762.019645
520.468179,-1850.514855,-9474.636058,1838.629195
520.468507,518.144159,-8290.306550,2604.724693
520.468834,1036.288319,-7550.100608,3294.210641
520.469162,370.102971,-7105.977043,3524.039291
520.469490,-962.267725,-7846.182985,2757.943793
520.469817,-2294.638420,-8216.285956,1378.971896
520.470145,-2368.659014,-8586.388927,842.705048
520.470473,-592.164754,-8512.368333,1149.143247
520.470800,1332.370696,-7846.182985,2451.505594
520.471128,3627.009116,-7846.182985,4366.744339
520.471455,4293.194464,-8734.430116,5209.449386
520.471783,3849.070898,-10140.821405,5286.058936
520.472111,1184.329507,-10732.986159,4903.011187
520.472438,-1184.329507,-11547.212695,3217.601092
520.472766,-2738.761985,-12065.356855,3140.991542
520.473094,-2072.576638,-11547.212695,3524.039291
520.473421,518.144159,-10732.986159,4826.401637
520.473749,3627.009116,-9178.553681,5822.325785
520.474076,3552.988522,-9178.553681,6052.154434
520.474404,1406.391290,-9030.512492,5132.839837
520.474732,-2146.597232,-9474.636058,3524.039291
520.475059,-4885.359217,-9474.636058,1915.238745
520.475387,-5181.441594,-9474.636058,1838.629195
520.475715,-3997.112087,-8734.430116,1455.581446
520.476042,-1258.350101,-7846.182985,2604.724693
520.476370,814.226536,-6883.915261,4596.572988
520.476697,1480.411884,-6513.812290,5439.278036
520.477025,444.123565,-7105.977043,5515.887586
520.477353,-962.267725,-8290.306550,4213.525239
520.477680,-3256.906145,-9770.718434,2604.724693
520.478008,-4737.318029,-10288.862594,1532.190996
520.478336,-4219.173869,-10436.903782,1378.971896
520.478663,-2442.679609,-9474.636058,2604.724693
520.478991,740.205942,-8660.409521,3830.477490
520.479318,2886.803174,-8216.285956,4519.963438
520.479646,3478.967927,-8216.285956,3983.696590
520.479974,2664.741391,-8882.471304,3447.429741
520.480301,1110.308913,-9474.636058,2451.505594
520.480629,592.164754,-10732.986159,2068.457845
520.480957,0.000000,-10807.006753,2221.676944
520.481284,296.082377,-10658.965565,2757.943793
520.481612,370.102971,-10066.800811,3217.601092
520.481939,0.000000,-9474.636058,3753.867940
520.482267,370.102971,-8956.491898,3600.648841
520.482595,222.061783,-8882.471304,3140.991542
520.482922,0.000000,-8364.327145,2451.505594
520.483250,0.000000,-8216.285956,1915.238745
520.483578,222.061783,-7550.100608,1838.629195
520.483905,592.164754,-7254.018232,3064.381992
520.484233,1554.432478,-7105.977043,3677.258390
520.484560,1406.391290,-7698.141797,3907.087040
520.484888,1258.350101,-8586.388927,4136.915689
520.485216,296.082377,-8808.450710,3753.867940
520.485543,-444.123565,-9622.677246,3677.258390
520.485871,-1554.432478,-9992.780217,3140.991542
520.486199,-1998.556043,-9770.718434,3140.991542
520.486526,-1480.411884,-10436.903782,3294.210641
520.486854,-814.226536,-9918.759623,3524.039291
520.487181,-444.123565,-9326.594869,3140.991542
520.487509,0.000000,-8882.471304,2757.943793
520.487837,-370.102971,-8364.327145,3217.601092
520.488164,-962.267725,-8586.388927,2911.162892
520.488492,-1332.370696,-8512.368333,2834.553343
520.488820,-1480.411884,-8438.347739,2834.553343
520.489147,-1776.494261,-7698.141797,2987.772442
520.489475,-666.185348,-8512.368333,3524.039291
520.489802,0.000000,-8808.450710,3830.477490
520.490130,518.144159,-8956.491898,4136.915689
520.490458,296.082377,-9400.615463,4213.525239
520.490785,-444.123565,-9252.574275,4136.915689
520.491113,-1184.329507,-9474.636058,3600.648841
520.491441,-1554.432478,-9474.636058,3447.429741
520.491768,-740.205942,-9326.594869,3140.991542
520.492096,0.000000,-9104.533087,2911.162892
520.492423,592.164754,-8586.388927,2604.724693
520.492751,962.267725,-9178.553681,2604.724693
520.493079,592.164754,-9548.656652,2834.553343
520.493406,0.000000,-10066.800811,2528.115143
520.493734,-296.082377,-10436.903782,2374.896044
520.494062,-740.205942,-10362.883188,1915.238745
520.494389,-444.123565,-10066.800811,1915.238745
520.494717,-518.144159,-9844.739029,1915.238745
520.495044,-814.226536,-9548.656652,1838.629195
520.495372,-814.226536,-9696.697840,1838.629195
520.495700,-1332.370696,-9474.636058,1991.848295
520.496027,-1036.288319,-9030.512492,1532.190996
520.496355,-444.123565,-8512.368333,1378.971896
520.496683,-518.144159,-8068.244768,1072.533697
520.497010,0.000000,-8142.265362,1072.533697
520.497338,222.061783,-7846.182985,1072.533697
520.497665,518.144159,-7772.162391,1378.971896
520.497993,518.144159,-8290.306550,1378.971896
520.498321,148.041188,-9178.553681,1302.362347
520.498648,74.020594,-9622.677246,1225.752797
520.498976,444.123565,-10140.821405,1455.581446
520.499304,1110.308913,-10436.903782,1072.533697
520.499631,1480.411884,-10140.821405,995.924147
520.499959,1554.432478,-9918.759623,1838.629195
520.500286,1406.391290,-10140.821405,1838.629195
520.500614,666.185348,-9622.677246,1378.971896
520.500942,222.061783,-9548.656652,1378.971896
520.501269,-148.041188,-9548.656652,1149.143247
520.501597,-666.185348,-9252.574275,842.705048
520.501925,-740.205942,-9030.512492,919.314598
520.502252,-814.226536,-8808.450710,842.705048
520.502580,-888.247130,-8438.347739,612.876398
520.502907,-740.205942,-7994.224174,995.924147
520.503235,-888.247130,-7698.141797,919.314598
520.503563,-814.226536,-7550.100608,612.876398
520.503890,-666.185348,-7846.182985,612.876398
520.504218,-518.144159,-7846.182985,612.876398
520.504546,-888.247130,-8290.306550,995.924147
520.504873,-1110.308913,-8438.347739,383.047749
520.505201,-592.164754,-8956.491898,1149.143247
520.505528,-962.267725,-8882.471304,995.924147
520.505856,-518.144159,-9252.574275,1072.533697
520.506184,-370.102971,-9400.615463,919.314598
520.506511,518.144159,-8734.430116,919.314598
520.506839,296.082377,-9030.512492,766.095498
520.507167,222.061783,-9252.574275,842.705048
520.507494,74.020594,-9474.636058,919.314598
520.507822,0.000000,-9622.677246,1378.971896
520.508149,74.020594,-9474.636058,842.705048
520.508477,-148.041188,-9548.656652,1072.533697
520.508805,0.000000,-9178.553681,842.705048
520.509132,-296.082377,-9326.594869,842.705048
520.509460,-222.061783,-8956.491898,766.095498
520.509788,0.000000,-8882.471304,919.314598
520.510115,-222.061783,-8808.450710,1149.143247
520.510443,-592.164754,-8734.430116,766.095498
520.510770,-740.205942,-8586.388927,842.705048
520.511098,-888.247130,-8660.409521,842.705048
520.511426,-888.247130,-8660.409521,919.314598
520.511753,-1036.288319,-8586.388927,536.266849
520.512081,-888.247130,-9030.512492,229.828649
520.512409,-444.123565,-9252.574275,612.876398
520.512736,-518.144159,-9104.533087,536.266849
520.513064,0.000000,-9400.615463,0.000000
520.513391,-518.144159,-9252.574275,919.314598
520.513719,0.000000,-9918.759623,459.657299
520.514047,-148.041188,-10066.800811,459.657299
520.514374,-296.082377,-9992.780217,612.876398
520.514702,-444.123565,-10066.800811,689.485948
520.515030,0.000000,-9696.697840,1455.581446
520.515357,74.020594,-10066.800811,842.705048
520.515685,0.000000,-9770.718434,689.485948
520.516012,370.102971,-9252.574275,919.314598
520.516340,518.144159,-8956.491898,842.705048
520.516668,518.144159,-8808.450710,995.924147
520.516995,296.082377,-8808.450710,766.095498
520.517323,-148.041188,-8956.491898,919.314598
520.517651,0.000000,-9252.574275,459.657299
520.517978,0.000000,-9030.512492,536.266849
520.518306,148.041188,-9030.512492,306.438199
520.518633,0.000000,-9104.533087,229.828649
520.518961,74.020594,-8734.430116,306.438199
520.519289,222.061783,-8956.491898,306.438199
520.519616,0.000000,-8956.491898,0.000000
520.519944,0.000000,-8882.471304,306.438199
520.520272,-592.164754,-8734.430116,306.438199
520.520599,-592.164754,-9178.553681,76.609550
520.520927,-592.164754,-9252.574275,76.609550
520.521254,-888.247130,-9326.594869,229.828649
520.521582,-666.185348,-9030.512492,153.219100
520.521910,-222.061783,-8882.471304,229.828649
520.522237,-666.185348,-8586.388927,0.000000
520.522565,-518.144159,-8438.347739,229.828649
520.522893,-518.144159,-8586.388927,383.047749
520.523220,-370.102971,-8586.388927,612.876398
520.523548,-592.164754,-9030.512492,383.047749
520.523875,-740.205942,-8882.471304,1149.143247
520.524203,-888.247130,-9252.574275,919.314598
520.524531,-814.226536,-9104.533087,842.705048
520.524858,-666.185348,-9104.533087,766.095498
520.525186,-148.041188,-8660.409521,1149.143247
520.525514,-444.123565,-8660.409521,766.095498
520.525841,148.041188,-8660.409521,536.266849
520.526169,0.000000,-8808.450710,459.657299
520.526496,-296.082377,-9104.533087,612.876398
520.526824,-592.164754,-9474.636058,612.876398
520.527152,-740.205942,-9326.594869,842.705048
520.527479,-518.144159,-9474.636058,689.485948
520.527807,-518.144159,-9548.656652,612.876398
520.528135,-370.102971,-9326.594869,766.095498
520.528462,-296.082377,-9178.553681,459.657299
520.528790,0.000000,-9252.574275,842.705048
520.529117,-296.082377,-8734.430116,612.876398
520.529445,-518.144159,-8956.491898,689.485948
520.529773,-592.164754,-9252.574275,689.485948
520.530100,-518.144159,-9252.574275,689.485948
520.530428,0.000000,-9326.594869,842.705048
520.530756,0.000000,-8512.368333,306.438199
520.531083,-370.102971,-8734.430116,229.828649
520.531411,0.000000,-8956.491898,153.219100
520.531738,-296.082377,-8956.491898,306.438199
520.532066,-296.082377,-9178.553681,612.876398
520.532394,-74.020594,-9178.553681,766.095498
520.532721,-222.061783,-9548.656652,459.657299
520.533049,-666.185348,-9622.677246,383.047749
520.533377,-222.061783,-9622.677246,766.095498
520.533704,-222.061783,-9474.636058,766.095498
520.534032,-518.144159,-8882.471304,536.266849
520.534359,-444.123565,-8956.491898,229.828649
520.534687,-1036.288319,-8734.430116,229.828649
520.535015,-1110.308913,-9030.512492,383.047749
520.535342,-1036.288319,-9104.533087,689.485948
520.535670,-962.267725,-8882.471304,229.828649
520.535998,-888.247130,-9030.512492,612.876398
520.536325,-222.061783,-8808.450710,919.314598
520.536653,0.000000,-8734.430116,612.876398
520.536980,296.082377,-8586.388927,459.657299
520.537308,296.082377,-8734.430116,306.438199
520.537636,74.020594,-9104.533087,1302.362347
520.537963,0.000000,-9474.636058,766.095498
520.538291,-296.082377,-9696.697840,842.705048
520.538619,-296.082377,-9992.780217,1072.533697
520.538946,0.000000,-9474.636058,1302.362347
520.539274,0.000000,-9030.512492,1302.362347
520.539601,222.061783,-8808.450710,536.266849
520.539929,592.164754,-8068.244768,229.828649
520.540257,370.102971,-7846.182985,153.219100
520.540584,148.041188,-8142.265362,306.438199
520.540912,-370.102971,-8290.306550,536.266849
520.541240,-814.226536,-8956.491898,766.095498
520.541567,-666.185348,-9400.615463,766.095498
520.541895,-592.164754,-9252.574275,919.314598
520.542222,-222.061783,-9178.553681,995.924147
520.542550,148.041188,-9030.512492,76.609550
520.542878,296.082377,-8438.347739,766.095498
520.543205,444.123565,-8142.265362,229.828649
520.543533,222.061783,-8438.347739,153.219100
520.543861,0.000000,-8734.430116,536.266849
520.544188,-148.041188,-9252.574275,612.876398
520.544516,-296.082377,-9474.636058,0.000000
520.544843,-518.144159,-9622.677246,612.876398
520.545171,-222.061783,-9474.636058,766.095498
520.545499,-222.061783,-9104.533087,229.828649
520.545826,0.000000,-8512.368333,76.609550
520.546154,222.061783,-8512.368333,0.000000
520.546482,222.061783,-8660.409521,306.438199
520.546809,222.061783,-9252.574275,153.219100
520.547137,0.000000,-9770.718434,612.876398
520.547464,-148.041188,-10288.862594,612.876398
520.547792,-222.061783,-9696.697840,919.314598
520.548119,148.041188,-9918.759623,766.095498
520.548447,0.000000,-9696.697840,612.876398
520.548774,0.000000,-9326.594869,536.266849
520.549102,0.000000,-9104.533087,306.438199
520.549429,-148.041188,-9030.512492,766.095498
520.549757,-222.061783,-9696.697840,229.828649
520.550084,-518.144159,-9696.697840,689.485948
520.550412,-740.205942,-9844.739029,612.876398
520.550739,-370.102971,-9770.718434,766.095498
520.551067,-592.164754,-9474.636058,842.705048
520.551394,-296.082377,-9548.656652,766.095498
520.551722,-592.164754,-9030.512492,76.609550
520.552049,-296.082377,-9104.533087,383.047749
520.552377,-592.164754,-9178.553681,383.047749
520.552704,-740.205942,-9400.615463,689.485948
520.553032,-592.164754,-9696.697840,842.705048
520.553359,-740.205942,-9622.677246,995.924147
520.553687,-592.164754,-9770.718434,1072.533697
520.554014,-666.185348,-9474.636058,459.657299
520.554342,-666.185348,-9104.533087,459.657299
520.554669,-962.267725,-8216.285956,306.438199
520.554997,-740.205942,-8586.388927,689.485948
520.555324,-592.164754,-8586.388927,612.876398
520.555652,-740.205942,-8956.491898,459.657299
520.555979,-666.185348,-8956.491898,536.266849
520.556307,-666.185348,-8734.430116,1149.143247
520.556634,-592.164754,-8882.471304,459.657299
520.556962,-592.164754,-8512.368333,536.266849
520.557289,-148.041188,-8438.347739,306.438199
520.557617,-296.082377,-8216.285956,229.828649
520.557944,-222.061783,-8290.306550,536.266849
520.558272,0.000000,-8216.285956,383.047749
520.558599,-370.102971,-8734.430116,536.266849
520.558927,-592.164754,-8956.491898,612.876398
520.559254,-444.123565,-9178.553681,536.266849
520.559582,-370.102971,-9326.594869,766.095498
520.559909,0.000000,-8660.409521,229.828649
520.560237,148.041188,-8586.388927,612.876398
520.560564,222.061783,-8734.430116,459.657299
520.560892,222.061783,-9030.512492,459.657299
520.561219,148.041188,-9030.512492,689.485948
520.561547,-222.061783,-9178.553681,459.657299
520.561874,0.000000,-9252.574275,842.705048
520.562202,0.000000,-9474.636058,766.095498
520.562530,148.041188,-9474.636058,842.705048
520.562857,0.000000,-9030.512492,766.095498
520.563185,0.000000,-9030.512492,383.047749
520.563512,222.061783,-8586.388927,306.438199
520.563840,-222.061783,-8734.430116,229.828649
520.564167,-296.082377,-8808.450710,229.828649
520.564495,-518.144159,-8808.450710,536.266849
520.564822,-740.205942,-8882.471304,612.876398
520.565150,-444.123565,-9030.512492,459.657299
520.565477,-296.082377,-9400.615463,612.876398
520.565805,0.000000,-9326.594869,383.047749
520.566132,-370.102971,-9252.574275,536.266849
520.566460,0.000000,-9252.574275,383.047749
520.566787,148.041188,-9104.533087,919.314598
520.567115,0.000000,-9400.615463,612.876398
520.567442,-148.041188,-9474.636058,612.876398
520.567770,-222.061783,-9696.697840,689.485948
520.568097,-296.082377,-9696.697840,842.705048
520.568425,-296.082377,-9474.636058,995.924147
520.568752,-666.185348,-9252.574275,766.095498
520.569080,74.020594,-9474.636058,459.657299
520.569407,0.000000,-9178.553681,612.876398
520.569735,0.000000,-8956.491898,612.876398
520.570062,0.000000,-9252.574275,306.438199
520.570390,-148.041188,-9178.553681,229.828649
520.570717,-222.061783,-9474.636058,612.876398
520.571045,0.000000,-9474.636058,536.266849
520.571372,-222.061783,-9400.615463,612.876398
520.571700,0.000000,-9252.574275,689.485948
520.572027,0.000000,-8808.450710,229.828649
520.572355,74.020594,-9252.574275,306.438199
520.572682,148.041188,-9104.533087,459.657299
520.573010,222.061783,-9104.533087,0.000000
520.573337,0.000000,-9474.636058,306.438199
520.573665,-370.102971,-9474.636058,689.485948
520.573992,0.000000,-9474.636058,689.485948
520.574320,-74.020594,-9474.636058,536.266849
520.574647,0.000000,-9104.533087,229.828649
520.574975,0.000000,-9252.574275,536.266849
520.575302,0.000000,-9252.574275,612.876398
520.575630,-296.082377,-8734.430116,153.219100
520.575957,0.000000,-8882.471304,459.657299
520.576285,-370.102971,-8956.491898,612.876398
520.576612,-370.102971,-9252.574275,689.485948
520.576940,-370.102971,-8586.388927,766.095498
520.577267,-370.102971,-8956.491898,689.485948
520.577595,-370.102971,-9326.594869,536.266849
520.577922,-444.123565,-9104.533087,689.485948
520.578250,-296.082377,-9030.512492,459.657299
520.578577,-222.061783,-8956.491898,766.095498
520.578905,-148.041188,-8808.450710,1225.752797
520.579232,-222.061783,-9474.636058,612.876398
520.579560,-444.123565,-8956.491898,612.876398
520.579887,-296.082377,-8956.491898,612.876398
520.580215,-592.164754,-9178.553681,689.485948
520.580542,-666.185348,-9326.594869,1225.752797
520.580870,-148.041188,-9104.533087,383.047749
520.581197,-370.102971,-8808.450710,383.047749
520.581525,-222.061783,-8882.471304,383.047749
520.581852,-444.123565,-9030.512492,689.485948
520.582180,-814.226536,-8586.388927,459.657299
520.582507,0.000000,-8956.491898,612.876398
520.582835,-370.102971,-9030.512492,536.266849
520.583163,-370.102971,-9178.553681,689.485948
520.583490,-296.082377,-9252.574275,689.485948
520.583818,0.000000,-8956.491898,689.485948
520.584145,-296.082377,-8956.491898,995.924147
520.584473,-222.061783,-9104.533087,842.705048
520.584800,-370.102971,-9030.512492,689.485948
520.585128,-222.061783,-9104.533087,612.876398
520.585455,-370.102971,-9030.512492,536.266849
520.585783,-296.082377,-9030.512492,1149.143247
520.586110,-740.205942,-9326.594869,766.095498
520.586438,-814.226536,-9252.574275,536.266849
520.586765,-888.247130,-9326.594869,612.876398
520.587093,-962.267725,-9178.553681,536.266849
520.587420,-740.205942,-8808.450710,536.266849
520.587748,-592.164754,-8882.471304,306.438199
520.588075,-666.185348,-8808.450710,306.438199
520.588403,-666.185348,-8734.430116,689.485948
520.588730,-740.205942,-8808.450710,689.485948
520.589058,-814.226536,-8660.409521,689.485948
520.589385,-740.205942,-9104.533087,229.828649
520.589713,-592.164754,-8956.491898,459.657299
520.590040,-444.123565,-9030.512492,459.657299
520.590368,-148.041188,-8956.491898,536.266849
520.590695,0.000000,-9104.533087,689.485948
520.591023,74.020594,-8956.491898,459.657299
520.591350,0.000000,-8882.471304,459.657299
520.591678,0.000000,-9030.512492,689.485948
520.592005,-222.061783,-9178.553681,612.876398
520.592333,-444.123565,-9178.553681,536.266849
520.592660,-222.061783,-9104.533087,995.924147
520.592988,-444.123565,-9178.553681,536.266849
520.593315,-370.102971,-8956.491898,229.828649
520.593643,-444.123565,-8734.430116,383.047749
520.593970,-444.123565,-8808.450710,229.828649
520.594298,-666.185348,-8808.450710,383.047749
520.594625,-222.061783,-8660.409521,383.047749
520.594953,-444.123565,-8882.471304,383.047749
520.595280,-740.205942,-8734.430116,536.266849
520.595608,-444.123565,-8956.491898,536.266849
520.595935,-592.164754,-8364.327145,459.657299
520.596263,0.000000,-9326.594869,689.485948
520.596590,-296.082377,-8956.491898,306.438199
520.596918,0.000000,-8956.491898,459.657299
520.597245,-148.041188,-8956.491898,153.219100
520.597573,222.061783,-8882.471304,153.219100
520.597900,0.000000,-8808.450710,459.657299
520.598228,0.000000,-9030.512492,612.876398
520.598555,-222.061783,-9030.512492,766.095498
520.598883,-296.082377,-9326.594869,689.485948
520.599210,-296.082377,-9400.615463,612.876398
520.599538,0.000000,-8956.491898,612.876398
520.599865,-148.041188,-9252.574275,612.876398
520.600193,0.000000,-9178.553681,536.266849
520.600520,0.000000,-9104.533087,383.047749
520.600848,0.000000,-9326.594869,459.657299
520.601175,0.000000,-9030.512492,919.314598
520.601503,0.000000,-9400.615463,612.876398
520.601830,-296.082377,-9400.615463,612.876398
520.602158,-296.082377,-9696.697840,842.705048
520.602485,0.000000,-9844.739029,612.876398
520.602813,0.000000,-9252.574275,612.876398
520.603140,370.102971,-9622.677246,306.438199
520.603468,0.000000,-9474.636058,766.095498
520.603795,0.000000,-9252.574275,459.657299
520.604123,0.000000,-9400.615463,689.485948
520.604451,0.000000,-9474.636058,0.000000
520.604778,-296.082377,-9622.677246,536.266849
520.605106,-444.123565,-9696.697840,612.876398
520.605433,-592.164754,-9844.739029,612.876398
520.605761,-444.123565,-9474.636058,842.705048
520.606088,0.000000,-9252.574275,459.657299
520.606416,-666.185348,-8882.471304,766.095498
520.606743,-222.061783,-9030.512492,306.438199
520.607071,-444.123565,-9030.512492,536.266849
520.607398,-370.102971,-9104.533087,383.047749
520.607726,-444.123565,-9178.553681,459.657299
520.608053,-296.082377,-9326.594869,536.266849
520.608381,-592.164754,-9178.553681,536.266849
520.608708,-296.082377,-9400.615463,842.705048
520.609036,-296.082377,-9178.553681,612.876398
520.609363,0.000000,-9030.512492,612.876398
520.609691,0.000000,-8956.491898,306.438199
520.610018,0.000000,-9104.533087,689.485948
520.610346,0.000000,-9030.512492,689.485948
520.610673,-296.082377,-8956.491898,459.657299
520.611001,-592.164754,-8808.450710,612.876398
520.611328,-370.102971,-9104.533087,1225.752797
520.611656,-370.102971,-8734.430116,766.095498
520.611983,-444.123565,-8882.471304,459.657299
520.612311,-296.082377,-8734.430116,306.438199
520.612638,-222.061783,-8660.409521,306.438199
520.612966,-370.102971,-8586.388927,229.828649
520.613293,-222.061783,-8364.327145,229.828649
520.613621,-592.164754,-8512.368333,842.705048
520.613948,-296.082377,-9030.512492,383.047749
520.614276,-666.185348,-8808.450710,383.047749
520.614603,-370.102971,-9030.512492,383.047749
520.614931,-296.082377,-8808.450710,229.828649
520.615258,0.000000,-8660.409521,842.705048
520.615586,0.000000,-8808.450710,306.438199
520.615913,0.000000,-8956.491898,229.828649
520.616241,-370.102971,-8734.430116,306.438199
520.616568,-592.164754,-8956.491898,536.266849
520.616896,-518.144159,-8956.491898,1302.362347
520.617223,-444.123565,-9030.512492,689.485948
520.617551,-592.164754,-8734.430116,766.095498
520.617878,-444.123565,-8734.430116,459.657299
520.618206,-444.123565,-8660.409521,612.876398
520.618533,-444.123565,-8216.285956,383.047749
520.618861,-592.164754,-8808.450710,459.657299
520.619188,-740.205942,-8808.450710,536.266849
520.619516,-740.205942,-8882.471304,766.095498
520.619843,-666.185348,-9252.574275,842.705048
520.620171,-444.123565,-9178.553681,919.314598
520.620498,-370.102971,-9252.574275,459.657299
520.620826,-370.102971,-9326.594869,766.095498
520.621153,-370.102971,-9030.512492,459.657299
520.621481,-222.061783,-9030.512492,383.047749
520.621808,0.000000,-8956.491898,689.485948
520.622136,-222.061783,-9030.512492,689.485948
520.622463,0.000000,-9474.636058,612.876398
520.622791,-370.102971,-9474.636058,459.657299
520.623118,0.000000,-9474.636058,842.705048
520.623446,0.000000,-9474.636058,919.314598
520.623773,-222.061783,-9104.533087,1149.143247
520.624101,0.000000,-9326.594869,689.485948
520.624428,0.000000,-9178.553681,229.828649
520.624756,0.000000,-9030.512492,383.047749
520.625083,-222.061783,-9326.594869,383.047749
520.625411,0.000000,-8882.471304,612.876398
520.625739,-296.082377,-9326.594869,383.047749
520.626066,0.000000,-9474.636058,766.095498
520.626394,0.000000,-9622.677246,383.047749
520.626721,0.000000,-9326.594869,612.876398
520.627049,0.000000,-9400.615463,536.266849
520.627376,74.020594,-9178.553681,306.438199
520.627704,0.000000,-9474.636058,383.047749
520.628031,-370.102971,-9326.594869,383.047749
520.628359,-222.061783,-9548.656652,612.876398
520.628686,-222.061783,-9622.677246,766.095498
520.629014,-370.102971,-9696.697840,995.924147
520.629341,-296.082377,-9474.636058,995.924147
520.629669,0.000000,-9326.594869,689.485948
520.629996,148.041188,-9030.512492,459.657299
520.630324,296.082377,-8956.491898,459.657299
520.630651,-222.061783,-8290.306550,536.266849
520.630979,0.000000,-9030.512492,536.266849
520.631306,-592.164754,-9104.533087,536.266849
520.631634,-370.102971,-9030.512492,689.485948
520.631961,-518.144159,-9326.594869,842.705048
520.632289,-592.164754,-8808.450710,689.485948
520.632616,0.000000,-8882.471304,689.485948
520.632944,0.000000,-8956.491898,612.876398
520.633271,0.000000,-8808.450710,459.657299
520.633599,74.020594,-8956.491898,459.657299
520.633926,0.000000,-9030.512492,919.314598
520.634254,74.020594,-9400.615463,612.876398
520.634581,-148.041188,-9400.615463,306.438199
520.634909,-444.123565,-9326.594869,689.485948
520.635236,-296.082377,-9400.615463,229.828649
520.635564,0.000000,-9400.615463,306.438199
520.635891,148.041188,-8882.471304,229.828649
520.636219,222.061783,-8734.430116,76.609550
520.636546,74.020594,-8660.409521,153.219100
520.636874,0.000000,-8956.491898,153.219100
520.637201,-222.061783,-9030.512492,459.657299
520.637529,-296.082377,-8956.491898,689.485948
520.637856,-518.144159,-9326.594869,536.266849
520.638184,-370.102971,-9400.615463,689.485948
520.638511,-370.102971,-9030.512492,612.876398
520.638839,0.000000,-9104.533087,459.657299
520.639166,0.000000,-8586.388927,459.657299
520.639494,0.000000,-8882.471304,383.047749
520.639821,-222.061783,-9178.553681,459.657299
520.640149,-370.102971,-9400.615463,689.485948
520.640476,-370.102971,-9252.574275,919.314598
520.640804,-740.205942,-9030.512492,1378.971896
520.641131,-444.123565,-9548.656652,842.705048
520.641459,-888.247130,-9252.574275,842.705048
520.641786,-518.144159,-9030.512492,612.876398
520.642114,-444.123565,-8882.471304,612.876398
520.642441,-370.102971,-8438.347739,229.828649
520.642769,-444.123565,-8586.388927,766.095498
520.643096,-814.226536,-8734.430116,766.095498
520.643424,-814.226536,-9030.512492,842.705048
520.643751,-814.226536,-8956.491898,612.876398
520.644079,-740.205942,-8808.450710,383.047749
520.644406,-666.185348,-9030.512492,995.924147
520.644734,-518.144159,-9178.553681,766.095498
520.645061,-296.082377,-8956.491898,459.657299
520.645389,-370.102971,-8808.450710,612.876398
520.645716,0.000000,-9030.512492,383.047749
520.646044,0.000000,-9400.615463,306.438199
520.646372,0.000000,-9252.574275,766.095498
520.646699,-370.102971,-9326.594869,229.828649
520.647027,-148.041188,-9326.594869,536.266849
520.647354,-370.102971,-9252.574275,536.266849
520.647682,0.000000,-9326.594869,-153.219100
520.648009,-222.061783,-8808.450710,536.266849
520.648337,0.000000,-8882.471304,153.219100
520.648664,0.000000,-8956.491898,229.828649
520.648992,-444.123565,-8882.471304,383.047749
520.649319,-222.061783,-9474.636058,919.314598
520.649647,0.000000,-8808.450710,689.485948
520.649975,-370.102971,-9104.533087,153.219100
520.650302,-370.102971,-9178.553681,306.438199
520.650630,-222.061783,-9104.533087,536.266849
520.650957,-148.041188,-8660.409521,689.485948
520.651285,0.000000,-8660.409521,766.095498
520.651612,-222.061783,-8882.471304,612.876398
520.651940,0.000000,-9030.512492,306.438199
520.652267,0.000000,-9326.594869,383.047749
520.652595,-296.082377,-9104.533087,612.876398
520.652922,-370.102971,-9030.512492,1072.533697
520.653250,-518.144159,-9178.553681,842.705048
520.653577,-370.102971,-9178.553681,919.314598
520.653905,-444.123565,-9030.512492,536.266849
520.654232,-518.144159,-8734.430116,459.657299
520.654560,-296.082377,-8808.450710,689.485948
520.654887,-518.144159,-8734.430116,306.438199
520.655215,-444.123565,-9178.553681,459.657299
520.655543,-444.123565,-9030.512492,842.705048
520.655870,-518.144159,-9178.553681,612.876398
520.656198,-296.082377,-8808.450710,1072.533697
520.656525,-296.082377,-8882.471304,766.095498
520.656853,-370.102971,-9178.553681,612.876398
520.657180,-222.061783,-8956.491898,536.266849
520.657508,-148.041188,-9178.553681,536.266849
520.657835,0.000000,-9326.594869,536.266849
520.658163,74.020594,-9400.615463,919.314598
520.658490,-222.061783,-9400.615463,689.485948
520.658818,0.000000,-9400.615463,689.485948
520.659145,0.000000,-9548.656652,689.485948
520.659473,0.000000,-9622.677246,536.266849
520.659800,-74.020594,-9252.574275,536.266849
520.660128,0.000000,-9178.553681,536.266849
520.660456,0.000000,-9252.574275,153.219100
520.660783,74.020594,-9474.636058,306.438199
520.661111,0.000000,-9400.615463,459.657299
520.661438,74.020594,-9326.594869,995.924147
520.661766,0.000000,-9400.615463,383.047749
520.662093,-444.123565,-9400.615463,306.438199
520.662421,-370.102971,-9326.594869,383.047749
520.662748,0.000000,-9326.594869,383.047749
520.663076,0.000000,-9030.512492,842.705048
520.663403,0.000000,-9326.594869,612.876398
520.663731,-222.061783,-9030.512492,459.657299
520.664058,0.000000,-9252.574275,536.266849
520.664386,-148.041188,-9252.574275,612.876398
520.664713,-370.102971,-9326.594869,536.266849
520.665041,-370.102971,-9252.574275,766.095498
520.665369,-370.102971,-9474.636058,766.095498
520.665696,-296.082377,-9326.594869,612.876398
520.666024,-444.123565,-9030.512492,766.095498
520.666351,-148.041188,-9178.553681,689.485948
520.666679,148.041188,-9252.574275,995.924147
520.667006,-444.123565,-8882.471304,536.266849
520.667334,-518.144159,-8882.471304,536.266849
520.667661,-296.082377,-9104.533087,612.876398
520.667989,-592.164754,-8882.471304,919.314598
520.668316,-296.082377,-8956.491898,612.876398
520.668644,-444.123565,-9178.553681,689.485948
520.668971,-370.102971,-8882.471304,536.266849
520.669299,-370.102971,-8882.471304,536.266849
520.669626,-296.082377,-8734.430116,459.657299
520.669954,0.000000,-8586.388927,229.828649
520.670281,0.000000,-8882.471304,536.266849
520.670609,-296.082377,-9030.512492,383.047749
520.670937,-518.144159,-8808.450710,612.876398
520.671264,-222.061783,-9104.533087,229.828649
520.671592,-592.164754,-9178.553681,536.266849
520.671919,-296.082377,-8734.430116,612.876398
520.672247,-370.102971,-8956.491898,383.047749
520.672574,-370.102971,-8660.409521,536.266849
520.672902,0.000000,-8882.471304,76.609550
520.673229,0.000000,-8882.471304,153.219100
520.673557,74.020594,-8660.409521,536.266849
520.673884,-444.123565,-8808.450710,306.438199
520.674212,-296.082377,-9030.512492,229.828649
520.674539,-444.123565,-9030.512492,536.266849
520.674867,-518.144159,-9326.594869,536.266849
520.675194,0.000000,-9030.512492,842.705048
520.675522,-222.061783,-9178.553681,383.047749
520.675850,-222.061783,-8808.450710,766.095498
520.676177,-148.041188,-9030.512492,383.047749
520.676505,-222.061783,-9030.512492,306.438199
520.676832,-814.226536,-8882.471304,459.657299
520.677160,-666.185348,-8512.368333,536.266849
520.677487,-666.185348,-8956.491898,612.876398
520.677815,-666.185348,-9252.574275,689.485948
520.678142,-518.144159,-9474.636058,766.095498
520.678470,-592.164754,-9030.512492,689.485948
520.678797,-296.082377,-8734.430116,689.485948
520.679125,-444.123565,-9104.533087,536.266849
520.679452,-296.082377,-9104.533087,612.876398
520.679780,-296.082377,-9030.512492,459.657299
520.680107,-444.123565,-9030.512492,612.876398
520.680435,-518.144159,-8956.491898,842.705048
520.680762,-370.102971,-9474.636058,536.266849
520.681090,-370.102971,-9474.636058,766.095498
520.681418,-296.082377,-9252.574275,689.485948
520.681745,-222.061783,-9252.574275,306.438199
520.682073,-74.020594,-8956.491898,536.266849
520.682400,0.000000,-9030.512492,1072.533697
520.682728,74.020594,-9178.553681,383.047749
520.683055,0.000000,-9178.553681,383.047749
520.683383,-296.082377,-9326.594869,459.657299
520.683710,-296.082377,-9178.553681,612.876398
520.684038,0.000000,-9326.594869,459.657299
520.684365,-296.082377,-9400.615463,306.438199
520.684693,74.020594,-9326.594869,459.657299
520.685020,0.000000,-9030.512492,306.438199
520.685348,74.020594,-8956.491898,306.438199
520.685675,-296.082377,-8808.450710,76.609550
520.686003,0.000000,-9104.533087,306.438199
520.686331,-148.041188,-9252.574275,536.266849
520.686658,-444.123565,-9326.594869,306.438199
520.686986,-296.082377,-9400.615463,536.266849
520.687313,-222.061783,-9400.615463,766.095498
520.687641,0.000000,-9178.553681,459.657299
520.687968,74.020594,-9030.512492,383.047749
520.688296,0.000000,-9326.594869,612.876398
520.688623,0.000000,-9252.574275,612.876398
520.688951,0.000000,-9400.615463,0.000000
520.689278,0.000000,-9178.553681,919.314598
520.689606,-148.041188,-9400.615463,766.095498
520.689933,0.000000,-9326.594869,612.876398
520.690261,-296.082377,-9252.574275,612.876398
520.690588,-148.041188,-9030.512492,536.266849
520.690916,-518.144159,-8882.471304,689.485948
520.691243,0.000000,-8808.450710,306.438199
520.691571,-370.102971,-8808.450710,306.438199
520.691899,-222.061783,-8808.450710,459.657299
520.692226,-370.102971,-8956.491898,612.876398
520.692554,-222.061783,-8882.471304,842.705048
520.692881,-148.041188,-9252.574275,1072.533697
520.693209,-370.102971,-9030.512492,919.314598
520.693536,-518.144159,-9252.574275,842.705048
520.693864,-222.061783,-8882.471304,612.876398
520.694191,-222.061783,-8734.430116,689.485948
520.694519,74.020594,-9178.553681,536.266849
520.694846,-296.082377,-9178.553681,766.095498
520.695174,-222.061783,-9474.636058,612.876398
520.695501,-666.185348,-9400.615463,536.266849
520.695829,-370.102971,-9548.656652,689.485948
520.696156,0.000000,-8956.491898,612.876398
520.696484,-296.082377,-9178.553681,536.266849
520.696812,0.000000,-8956.491898,229.828649
520.697139,0.000000,-8808.450710,459.657299
520.697467,-222.061783,-8660.409521,153.219100
520.697794,0.000000,-8808.450710,536.266849
520.698122,-444.123565,-8956.491898,306.438199
520.698449,-592.164754,-9326.594869,306.438199
520.698777,-518.144159,-9400.615463,536.266849
520.699104,-296.082377,-9400.615463,612.876398
520.699432,-148.041188,-8660.409521,689.485948
520.699759,0.000000,-9030.512492,459.657299
520.700087,0.000000,-9030.512492,459.657299
520.700414,0.000000,-8808.450710,306.438199
520.700742,-222.061783,-9030.512492,536.266849
520.701069,-222.061783,-9178.553681,612.876398
520.701397,-592.164754,-9178.553681,459.657299
520.701724,-518.144159,-9400.615463,842.705048
520.702052,-370.102971,-9400.615463,766.095498
520.702380,-370.102971,-9178.553681,842.705048
520.702707,0.000000,-9030.512492,536.266849
520.703035,0.000000,-8956.491898,0.000000
520.703362,-370.102971,-8882.471304,612.876398
520.703690,-370.102971,-8808.450710,459.657299
520.704017,-518.144159,-9104.533087,766.095498
520.704345,-444.123565,-9326.594869,766.095498
520.704672,-370.102971,-9030.512492,842.705048
520.705000,-666.185348,-9400.615463,689.485948
520.705327,-592.164754,-9104.533087,536.266849
520.705655,-370.102971,-9030.512492,612.876398
520.705982,-222.061783,-8660.409521,459.657299
520.706310,222.061783,-8808.450710,612.876398
520.706637,-148.041188,-8956.491898,459.657299
520.706965,-296.082377,-9252.574275,612.876398
520.707293,-296.082377,-9400.615463,766.095498
520.707620,-592.164754,-9474.636058,766.095498
520.707948,-148.041188,-9252.574275,689.485948
520.708275,0.000000,-9474.636058,612.876398
520.708603,-370.102971,-9400.615463,689.485948
520.708930,-148.041188,-9252.574275,536.266849
520.709258,-148.041188,-8956.491898,383.047749
520.709585,-592.164754,-9030.512492,383.047749
520.709913,74.020594,-9178.553681,766.095498
520.710240,0.000000,-9400.615463,536.266849
520.710568,-444.123565,-9252.574275,536.266849
520.710895,-370.102971,-9400.615463,459.657299
520.711223,-222.061783,-9252.574275,612.876398
520.711550,296.082377,-8956.491898,689.485948
520.711878,148.041188,-9030.512492,536.266849
520.712205,74.020594,-9030.512492,306.438199
520.712533,0.000000,-9178.553681,612.876398
520.712861,-148.041188,-9326.594869,459.657299
520.713188,-518.144159,-9030.512492,383.047749
520.713516,0.000000,-9474.636058,536.266849
520.713843,-148.041188,-9400.615463,383.047749
520.714171,-296.082377,-9252.574275,383.047749
520.714498,-370.102971,-9030.512492,383.047749
520.714826,148.041188,-8734.430116,919.314598
520.715153,0.000000,-8512.368333,229.828649
520.715481,0.000000,-8882.471304,153.219100
520.715808,-296.082377,-8882.471304,153.219100
520.716136,-148.041188,-9252.574275,919.314598
520.716463,-370.102971,-9030.512492,919.314598
520.716791,-296.082377,-9474.636058,536.266849
520.717118,-444.123565,-9030.512492,842.705048
520.717446,-148.041188,-9326.594869,612.876398
520.717774,-148.041188,-9178.553681,612.876398
520.718101,0.000000,-9030.512492,536.266849
520.718429,-296.082377,-8734.430116,766.095498
520.718756,0.000000,-8882.471304,612.876398
520.719084,0.000000,-9326.594869,689.485948
520.719411,-296.082377,-9104.533087,766.095498
520.719739,-222.061783,-9326.594869,689.485948
520.720066,0.000000,-9104.533087,536.266849
520.720394,-296.082377,-9178.553681,536.266849
520.720721,-296.082377,-9030.512492,536.266849
520.721049,-370.102971,-8734.430116,459.657299
520.721376,-222.061783,-9030.512492,536.266849
520.721704,-444.123565,-8882.471304,612.876398
520.722031,-518.144159,-9104.533087,459.657299
520.722359,-444.123565,-9326.594869,612.876398
520.722686,-444.123565,-9252.574275,536.266849
520.723014,-370.102971,-9178.553681,689.485948
520.723342,-296.082377,-9400.615463,842.705048
520.723669,0.000000,-9104.533087,766.095498
520.723997,0.000000,-9252.574275,536.266849
520.724324,-222.061783,-8956.491898,536.266849
520.724652,0.000000,-9178.553681,536.266849
520.724979,-222.061783,-9178.553681,612.876398
520.725307,-222.061783,-9104.533087,766.095498
520.725634,-444.123565,-9030.512492,919.314598
520.725962,-222.061783,-9252.574275,612.876398
520.726289,-370.102971,-9252.574275,995.924147
520.726617,-296.082377,-8734.430116,536.266849
520.726944,-148.041188,-8512.368333,919.314598
520.727272,-444.123565,-8586.388927,459.657299
520.727599,-592.164754,-8808.450710,383.047749
520.727927,-666.185348,-8956.491898,306.438199
520.728255,-666.185348,-9252.574275,459.657299
520.728582,-444.123565,-8808.450710,1149.143247
520.728910,-592.164754,-9104.533087,306.438199
520.729237,-148.041188,-9178.553681,536.266849
520.729565,0.000000,-9030.512492,612.876398
520.729892,0.000000,-8808.450710,306.438199
520.730220,74.020594,-9104.533087,536.266849
520.730547,222.061783,-9252.574275,0.000000
520.730875,0.000000,-9104.533087,536.266849
520.731202,-222.061783,-9252.574275,383.047749
520.731530,-296.082377,-9326.594869,459.657299
520.731857,-370.102971,-9326.594869,612.876398
520.732185,0.000000,-9252.574275,536.266849
520.732512,0.000000,-8734.430116,536.266849
520.732840,-444.123565,-8734.430116,383.047749
520.733168,-592.164754,-8882.471304,229.828649
520.733495,-740.205942,-8808.450710,229.828649
520.733823,-592.164754,-8586.388927,459.657299
520.734150,-518.144159,-8808.450710,766.095498
520.734478,-666.185348,-9104.533087,229.828649
520.734805,-666.185348,-9104.533087,766.095498
520.735133,-740.205942,-8956.491898,306.438199
520.735460,-444.123565,-8882.471304,689.485948
520.735788,-296.082377,-8882.471304,536.266849
520.736115,-296.082377,-9252.574275,536.266849
520.736443,-370.102971,-9178.553681,459.657299
520.736770,-222.061783,-9252.574275,612.876398
520.737098,-296.082377,-9252.574275,383.047749
520.737425,-444.123565,-9400.615463,995.924147
520.737753,-296.082377,-9326.594869,612.876398
520.738080,-518.144159,-9400.615463,842.705048
520.738408,-370.102971,-9400.615463,459.657299
520.738736,-370.102971,-9326.594869,536.266849
520.739063,-296.082377,-9030.512492,-153.219100
520.739391,0.000000,-8882.471304,383.047749
520.739718,0.000000,-9104.533087,383.047749
520.740046,0.000000,-9104.533087,612.876398
520.740373,0.000000,-9326.594869,612.876398
520.740701,-888.247130,-9252.574275,1149.143247
520.741028,0.000000,-9548.656652,383.047749
520.741356,-148.041188,-9252.574275,459.657299
520.741683,0.000000,-9252.574275,459.657299
520.742011,0.000000,-9252.574275,383.047749
520.742338,0.000000,-9030.512492,153.219100
520.742666,296.082377,-8956.491898,766.095498
520.742993,0.000000,-9104.533087,459.657299
520.743321,0.000000,-9326.594869,459.657299
520.743649,0.000000,-9474.636058,459.657299
520.743976,-222.061783,-9326.594869,459.657299
520.744304,0.000000,-9104.533087,153.219100
520.744631,-518.144159,-9252.574275,689.485948
520.744959,-370.102971,-9104.533087,689.485948
520.745286,-296.082377,-8882.471304,919.314598
520.745614,-296.082377,-9030.512492,612.876398
520.745941,-444.123565,-8882.471304,1072.533697
520.746269,-592.164754,-8734.430116,766.095498
520.746596,-444.123565,-9030.512492,766.095498
520.746924,-444.123565,-9104.533087,766.095498
520.747251,-444.123565,-9178.553681,689.485948
520.747579,-148.041188,-9030.512492,1225.752797
520.747906,-518.144159,-9030.512492,1225.752797
520.748234,-740.205942,-9178.553681,842.705048
520.748561,-370.102971,-9178.553681,766.095498
520.748889,0.000000,-9252.574275,842.705048
520.749217,-222.061783,-9030.512492,919.314598
520.749544,0.000000,-8882.471304,766.095498
520.749872,-444.123565,-9252.574275,766.095498
520.750199,-518.144159,-9326.594869,919.314598
520.750527,-518.144159,-9400.615463,612.876398
520.750854,-444.123565,-9326.594869,383.047749
520.751182,-296.082377,-8882.471304,306.438199
520.751509,0.000000,-8734.430116,766.095498
520.751837,0.000000,-8882.471304,689.485948
520.752165,-222.061783,-8660.409521,536.266849
520.752492,0.000000,-8734.430116,229.828649
520.752820,-296.082377,-8808.450710,536.266849
520.753147,148.041188,-9252.574275,459.657299
520.753475,-296.082377,-9326.594869,229.828649
520.753802,0.000000,-9178.553681,306.438199
520.754130,0.000000,-9178.553681,383.047749
520.754458,370.102971,-9252.574275,459.657299
520.754785,148.041188,-9548.656652,383.047749
520.755113,0.000000,-9178.553681,229.828649
520.755440,-74.020594,-9326.594869,383.047749
520.755768,0.000000,-9400.615463,229.828649
520.756095,-296.082377,-9178.553681,229.828649
520.756423,-148.041188,-8956.491898,612.876398
520.756751,-296.082377,-9178.553681,536.266849
520.757078,-592.164754,-9178.553681,459.657299
520.757406,-592.164754,-8734.430116,383.047749
520.757733,-592.164754,-8734.430116,459.657299
520.758061,-222.061783,-8438.347739,306.438199
520.758388,-740.205942,-8512.368333,383.047749
520.758716,-444.123565,-8808.450710,306.438199
520.759043,-518.144159,-8956.491898,612.876398
520.759371,-666.185348,-9030.512492,689.485948
520.759699,-370.102971,-8882.471304,1149.143247
520.760026,-296.082377,-8808.450710,383.047749
520.760354,-148.041188,-8808.450710,306.438199
520.760681,-148.041188,-8956.491898,536.266849
520.761009,-148.041188,-9178.553681,689.485948
520.761336,148.041188,-9326.594869,383.047749
520.761664,-296.082377,-9474.636058,459.657299
520.761992,-592.164754,-9252.574275,536.266849
520.762319,-518.144159,-9326.594869,842.705048
520.762647,-370.102971,-9252.574275,689.485948
520.762974,0.000000,-9252.574275,612.876398
520.763302,0.000000,-9178.553681,229.828649
520.763629,-296.082377,-8882.471304,536.266849
520.763957,0.000000,-8882.471304,383.047749
520.764285,-222.061783,-8808.450710,383.047749
520.764612,-518.144159,-8956.491898,459.657299
520.764940,-148.041188,-9252.574275,459.657299
520.765267,-518.144159,-8808.450710,766.095498
520.765595,-444.123565,-9400.615463,842.705048
520.765922,-370.102971,-9326.594869,612.876398
520.766250,-296.082377,-9252.574275,689.485948
520.766577,0.000000,-8660.409521,612.876398
520.766905,296.082377,-8734.430116,766.095498
520.767233,0.000000,-9400.615463,766.095498
520.767560,-222.061783,-9326.594869,689.485948
520.767888,-222.061783,-9696.697840,919.314598
520.768215,-222.061783,-9326.594869,766.095498
520.768543,-444.123565,-9400.615463,766.095498
520.768870,-444.123565,-9548.656652,995.924147
520.769198,-222.061783,-9326.594869,689.485948
520.769526,-370.102971,-8956.491898,459.657299
520.769853,0.000000,-9104.533087,536.266849
520.770181,-222.061783,-8882.471304,766.095498
520.770508,-222.061783,-9030.512492,612.876398
520.770836,-222.061783,-9326.594869,689.485948
520.771163,-592.164754,-9178.553681,612.876398
520.771491,-444.123565,-9474.636058,459.657299
520.771819,0.000000,-9326.594869,306.438199
520.772146,0.000000,-9178.553681,689.485948
520.772474,0.000000,-8956.491898,689.485948
520.772801,74.020594,-9030.512492,306.438199
520.773129,-148.041188,-9030.512492,459.657299
520.773456,0.000000,-8808.450710,919.314598
520.773784,0.000000,-8882.471304,306.438199
520.774112,-148.041188,-9400.615463,536.266849
520.774439,-148.041188,-9400.615463,689.485948
520.774767,-222.061783,-9400.615463,459.657299
520.775094,0.000000,-9252.574275,689.485948
520.775422,-222.061783,-9252.574275,919.314598
520.775749,0.000000,-9030.512492,306.438199
520.776077,0.000000,-9030.512492,459.657299
520.776404,-296.082377,-9030.512492,229.828649
520.776732,-222.061783,-9178.553681,306.438199
520.777060,-370.102971,-8438.347739,536.266849
520.777387,0.000000,-9252.574275,842.705048
520.777715,-444.123565,-9104.533087,689.485948
520.778042,-592.164754,-9104.533087,689.485948
520.778370,-370.102971,-9030.512492,612.876398
520.778697,-296.082377,-8734.430116,689.485948
520.779025,-370.102971,-8734.430116,459.657299
520.779353,-296.082377,-8882.471304,383.047749
520.779680,-296.082377,-8882.471304,689.485948
520.780008,-370.102971,-8956.491898,766.095498
520.780335,-148.041188,-9696.697840,612.876398
520.780663,-814.226536,-9252.574275,842.705048
520.780990,-444.123565,-9178.553681,459.657299
520.781318,-222.061783,-9030.512492,689.485948
520.781646,-222.061783,-8882.471304,383.047749
520.781973,-296.082377,-8734.430116,766.095498
520.782301,0.000000,-8956.491898,689.485948
520.782628,-518.144159,-8956.491898,306.438199
520.782956,-518.144159,-8956.491898,612.876398
520.783283,-518.144159,-9030.512492,536.266849
520.783611,-592.164754,-9178.553681,612.876398
520.783939,-222.061783,-8956.491898,689.485948
520.784266,0.000000,-9178.553681,383.047749
520.784594,0.000000,-8882.471304,612.876398
520.784921,0.000000,-8956.491898,536.266849
520.785249,0.000000,-8956.491898,229.828649
520.785576,0.000000,-9104.533087,612.876398
520.785904,-296.082377,-8956.491898,306.438199
520.786231,-222.061783,-9252.574275,612.876398
520.786559,-370.102971,-9252.574275,766.095498
520.786887,-148.041188,-9400.615463,766.095498
520.787214,0.000000,-9326.594869,383.047749
520.787542,74.020594,-9326.594869,459.657299
520.787869,-222.061783,-8882.471304,229.828649
520.788197,-444.123565,-9030.512492,459.657299
520.788524,-370.102971,-9178.553681,459.657299
520.788852,-370.102971,-9474.636058,536.266849
520.789180,-296.082377,-9252.574275,842.705048
520.789507,-444.123565,-9252.574275,612.876398
520.789835,-296.082377,-9400.615463,612.876398
520.790162,-222.061783,-9326.594869,536.266849
520.790490,-148.041188,-9104.533087,459.657299
520.790817,0.000000,-8734.430116,612.876398
520.791145,0.000000,-9400.615463,766.095498
520.791473,-222.061783,-9400.615463,536.266849
520.791800,-518.144159,-9252.574275,612.876398
520.792128,-518.144159,-9474.636058,612.876398
520.792455,-740.205942,-9326.594869,766.095498
520.792783,-148.041188,-9770.718434,612.876398
520.793110,-370.102971,-9400.615463,612.876398
520.793438,74.020594,-9178.553681,383.047749
520.793766,0.000000,-8808.450710,229.828649
520.794093,0.000000,-8512.368333,689.485948
520.794421,0.000000,-9252.574275,383.047749
520.794748,-518.144159,-9030.512492,306.438199
520.795076,-370.102971,-9252.574275,383.047749
520.795403,-296.082377,-9252.574275,536.266849
520.795731,-296.082377,-9252.574275,383.047749
520.796058,74.020594,-9178.553681,612.876398
520.796386,74.020594,-9252.574275,459.657299
520.796714,-148.041188,-9030.512492,612.876398
520.797041,0.000000,-9030.512492,612.876398
520.797369,0.000000,-9252.574275,306.438199
520.797696,-222.061783,-8882.471304,919.314598
520.798024,0.000000,-9474.636058,612.876398
520.798351,0.000000,-9252.574275,766.095498
520.798679,-370.102971,-9252.574275,612.876398
520.799007,-370.102971,-9104.533087,766.095498
520.799334,-296.082377,-8882.471304,1072.533697
520.799662,0.000000,-8882.471304,536.266849
520.799989,-518.144159,-8734.430116,536.266849
520.800317,-444.123565,-8586.388927,612.876398
520.800644,-444.123565,-8956.491898,459.657299
520.800972,-370.102971,-8956.491898,536.266849
520.801300,-296.082377,-9178.553681,459.657299
520.801627,-740.205942,-8956.491898,766.095498
520.801955,-666.185348,-9104.533087,612.876398
520.802282,-444.123565,-9104.533087,536.266849
520.802610,-518.144159,-8808.450710,536.266849
520.802937,0.000000,-9104.533087,919.314598
520.803265,-148.041188,-9104.533087,536.266849
520.803593,-296.082377,-9178.553681,766.095498
520.803920,-222.061783,-9030.512492,306.438199
520.804248,-370.102971,-9104.533087,689.485948
520.804575,0.000000,-9178.553681,842.705048
520.804903,-370.102971,-9030.512492,536.266849
520.805230,-296.082377,-9326.594869,153.219100
520.805558,0.000000,-9252.574275,383.047749
520.805885,-222.061783,-8882.471304,306.438199
520.806213,148.041188,-9030.512492,229.828649
520.806541,74.020594,-9178.553681,383.047749
520.806868,0.000000,-9178.553681,459.657299
520.807196,0.000000,-9178.553681,766.095498
520.807523,0.000000,-8956.491898,536.266849
520.807851,74.020594,-9326.594869,459.657299
520.808178,-370.102971,-9030.512492,459.657299
520.808506,-444.123565,-9252.574275,459.657299
520.808834,-370.102971,-9104.533087,459.657299
520.809161,-296.082377,-9030.512492,459.657299
520.809489,-370.102971,-9326.594869,536.266849
520.809816,0.000000,-9400.615463,459.657299
520.810144,0.000000,-9326.594869,459.657299
520.810471,-370.102971,-9178.553681,229.828649
520.810799,-370.102971,-9178.553681,612.876398
520.811127,-370.102971,-9178.553681,612.876398
520.811454,-296.082377,-8882.471304,842.705048
520.811782,-444.123565,-9030.512492,536.266849
520.812109,-592.164754,-9030.512492,689.485948
520.812437,-370.102971,-9030.512492,536.266849
520.812764,-518.144159,-9104.533087,689.485948
520.813092,-296.082377,-8956.491898,766.095498
520.813420,-518.144159,-8512.368333,766.095498
520.813747,-666.185348,-9030.512492,612.876398
520.814075,-666.185348,-8808.450710,842.705048
520.814402,-296.082377,-9104.533087,689.485948
520.814730,0.000000,-9030.512492,689.485948
520.815057,-148.041188,-9030.512492,689.485948
520.815385,-296.082377,-8956.491898,766.095498
520.815712,-444.123565,-9030.512492,689.485948
520.816040,-296.082377,-9030.512492,612.876398
520.816368,-370.102971,-9030.512492,383.047749
520.816695,-444.123565,-8660.409521,612.876398
520.817023,-148.041188,-9178.553681,689.485948
520.817350,-370.102971,-9178.553681,459.657299
520.817678,-222.061783,-9104.533087,459.657299
520.818005,-444.123565,-8956.491898,612.876398
520.818333,-666.185348,-8956.491898,995.924147
520.818661,222.061783,-8956.491898,306.438199
520.818988,-148.041188,-8882.471304,459.657299
520.819316,0.000000,-9104.533087,536.266849
520.819643,0.000000,-9104.533087,536.266849
520.819971,74.020594,-9400.615463,612.876398
520.820298,0.000000,-9474.636058,1225.752797
520.820626,0.000000,-9326.594869,459.657299
520.820954,74.020594,-9178.553681,689.485948
520.821281,0.000000,-8956.491898,459.657299
520.821609,0.000000,-9104.533087,229.828649
520.821936,0.000000,-9030.512492,612.876398
520.822264,0.000000,-9252.574275,383.047749
