#time,accel_x,accel_y,accel_z
486.073674,0.000000,-8956.491898,1302.362347
486.074001,0.000000,-8882.471304,229.828649
486.074329,-296.082377,-9104.533087,459.657299
486.074657,-222.061783,-9030.512492,306.438199
486.074984,-148.041188,-9178.553681,536.266849
486.075312,-296.082377,-8808.450710,536.266849
486.075640,74.020594,-9104.533087,689.485948
486.075967,-222.061783,-9030.512492,612.876398
486.076295,-370.102971,-9030.512492,459.657299
486.076622,-444.123565,-9030.512492,536.266849
486.076950,-222.061783,-9326.594869,612.876398
486.077278,-370.102971,-8956.491898,612.876398
486.077605,0.000000,-8882.471304,536.266849
486.077933,-444.123565,-8956.491898,306.438199
486.078260,-370.102971,-9252.574275,689.485948
486.078588,-296.082377,-9030.512492,536.266849
486.078916,-222.061783,-8882.471304,689.485948
486.079243,-222.061783,-8808.450710,612.876398
486.079571,-222.061783,-9252.574275,612.876398
486.079899,-444.123565,-9178.553681,383.047749
486.080226,-370.102971,-8956.491898,229.828649
486.080554,74.020594,-9400.615463,459.657299
486.080881,-296.082377,-8586.388927,536.266849
486.081209,-222.061783,-9104.533087,612.876398
486.081537,-370.102971,-9474.636058,536.266849
486.081864,-296.082377,-8956.491898,689.485948
486.082192,-222.061783,-9104.533087,536.266849
486.082519,-444.123565,-9178.553681,536.266849
486.082847,-148.041188,-9178.553681,459.657299
486.083175,-444.123565,-9252.574275,383.047749
486.083502,-740.205942,-9178.553681,0.000000
486.083830,-1480.411884,-9400.615463,-153.219100
486.084158,-1258.350101,-9474.636058,0.000000
486.084485,-888.247130,-9252.574275,-766.095498
486.084813,-592.164754,-9030.512492,-306.438199
486.085140,-370.102971,-9178.553681,-459.657299
486.085468,-444.123565,-9252.574275,-612.876398
486.085796,-666.185348,-9474.636058,-459.657299
486.086123,-1110.308913,-9030.512492,-995.924147
486.086451,-1184.329507,-8956.491898,-1378.971896
486.086778,-814.226536,-9252.574275,-1378.971896
486.087106,-592.164754,-9326.594869,-1532.190996
486.087434,0.000000,-9030.512492,-1302.362347
486.087761,0.000000,-8660.409521,-536.266849
486.088089,0.000000,-8956.491898,-1455.581446
486.088417,0.000000,-9252.574275,-1532.190996
486.088744,0.000000,-9178.553681,-1762.019645
486.089072,74.020594,-9178.553681,-1532.190996
486.089399,74.020594,-8956.491898,-2068.457845
486.089727,148.041188,-9474.636058,-1685.410096
486.090055,370.102971,-9474.636058,-1532.190996
486.090382,592.164754,-9326.594869,-1608.800546
486.090710,518.144159,-9178.553681,-1685.410096
486.091037,444.123565,-9622.677246,-2221.676944
486.091365,0.000000,-9326.594869,-1838.629195
486.091693,0.000000,-9178.553681,-2068.457845
486.092020,0.000000,-9104.533087,-1762.019645
486.092348,-148.041188,-9178.553681,-1762.019645
486.092676,0.000000,-9474.636058,-1915.238745
486.093003,-370.102971,-9030.512492,-2221.676944
486.093331,-666.185348,-9178.553681,-2068.457845
486.093658,-888.247130,-9104.533087,-1991.848295
486.093986,-962.267725,-9252.574275,-2298.286494
486.094314,-1554.432478,-9178.553681,-2068.457845
486.094641,-1480.411884,-9178.553681,-2757.943793
486.094969,-1702.473667,-8882.471304,-2681.334243
486.095297,-1776.494261,-8808.450710,-3064.381992
486.095624,-1924.535449,-9104.533087,-3294.210641
486.095952,-2072.576638,-9030.512492,-3524.039291
486.096279,-1776.494261,-8882.471304,-3294.210641
486.096607,-1998.556043,-8956.491898,-4060.306139
486.096935,-1998.556043,-8882.471304,-3983.696590
486.097262,-1628.453072,-8808.450710,-4213.525239
486.097590,-1036.288319,-9030.512492,-3830.477490
486.097917,0.000000,-9252.574275,-3677.258390
486.098245,296.082377,-8956.491898,-3600.648841
486.098573,1110.308913,-8956.491898,-2987.772442
486.098900,1850.514855,-9104.533087,-2681.334243
486.099228,2072.576638,-8956.491898,-2374.896044
486.099556,2812.782580,-9548.656652,-2068.457845
486.099883,2072.576638,-9252.574275,-2145.067394
486.100211,1258.350101,-9918.759623,-1991.848295
486.100538,222.061783,-10362.883188,-2604.724693
486.100866,-814.226536,-10288.862594,-3294.210641
486.101194,-1332.370696,-10436.903782,-3524.039291
486.101521,-1554.432478,-9844.739029,-4596.572988
486.101849,-1998.556043,-9696.697840,-4903.011187
486.102176,-1332.370696,-8660.409521,-5056.230287
486.102504,518.144159,-7698.141797,-4519.963438
486.102832,2146.597232,-7105.977043,-3677.258390
486.103159,3256.906145,-7031.956449,-3217.601092
486.103487,3330.926739,-7328.038826,-2374.896044
486.103815,1776.494261,-8438.347739,-1378.971896
486.104142,0.000000,-9474.636058,-1838.629195
486.104470,-2516.700203,-10510.924376,-2221.676944
486.104797,-4219.173869,-11029.068536,-2681.334243
486.105125,-4219.173869,-11177.109724,-2987.772442
486.105453,-1998.556043,-9770.718434,-2068.457845
486.105780,2664.741391,-7550.100608,-383.047749
486.106108,8142.265362,-5699.585753,2145.067394
486.106435,10658.965565,-5181.441594,3677.258390
486.106763,9548.656652,-6439.791695,4903.011187
486.107091,5033.400406,-9178.553681,3677.258390
486.107418,-1258.350101,-11547.212695,1762.019645
486.107746,-7105.977043,-13175.665768,-536.266849
486.108074,-10732.986159,-14063.912898,-2068.457845
486.108401,-11843.295072,-13989.892304,-3753.867940
486.108729,-11103.089130,-12657.521608,-3677.258390
486.109056,-7031.956449,-9548.656652,-4443.353888
486.109384,-3923.091493,-7031.956449,-2757.943793
486.109712,-740.205942,-4071.132681,-3907.087040
486.110039,1332.370696,-4071.132681,-3907.087040
486.110367,-2442.679609,-5995.668130,-5056.230287
486.110695,-5329.482782,-7402.059420,-6665.030833
486.111022,-10436.903782,-9548.656652,-8120.612279
486.111350,-12139.377449,-9844.739029,-9499.584175
486.111677,-9400.615463,-9992.780217,-7354.516781
486.112005,-6291.750507,-8956.491898,-6971.469032
486.112333,2072.576638,-7402.059420,-5056.230287
486.112660,6365.771101,-6513.812290,-3524.039291
486.112988,8808.450710,-7179.997637,-3447.429741
486.113315,8290.306550,-9178.553681,-3447.429741
486.113643,4737.318029,-10955.047942,-5132.839837
486.113971,3997.112087,-11399.171507,-6281.983084
486.114298,6143.709319,-11103.089130,-5515.887586
486.114626,9474.636058,-9770.718434,-3447.429741
486.114954,12287.418637,-9252.574275,-1302.362347
486.115281,12953.603985,-9622.677246,153.219100
486.115609,10732.986159,-10066.800811,306.438199
486.115936,8734.430116,-11029.068536,0.000000
486.116264,6883.915261,-10658.965565,-1532.190996
486.116592,5403.503377,-10658.965565,-766.095498
486.116919,4219.173869,-9918.759623,-1225.752797
486.117247,-1036.288319,-12287.418637,-2221.676944
486.117574,-6883.915261,-13175.665768,-3830.477490
486.117902,-11029.068536,-10955.047942,-5745.716235
486.118230,-11547.212695,-6957.935855,-5822.325785
486.118557,-6957.935855,-2886.803174,-5209.449386
486.118885,0.000000,-1776.494261,-4213.525239
486.119213,2072.576638,-2146.597232,-1225.752797
486.119540,1702.473667,-2442.679609,-1225.752797
486.119868,0.000000,-4145.153275,383.047749
486.120195,-3256.906145,-6143.709319,0.000000
486.120523,-3404.947333,-7698.141797,995.924147
486.120851,-4811.338623,-9474.636058,1455.581446
486.121178,-3997.112087,-10658.965565,3600.648841
486.121506,-3923.091493,-11917.315666,5209.449386
486.121833,-3404.947333,-11473.192101,6205.373534
486.122161,-666.185348,-9030.512492,5975.544884
486.122489,1776.494261,-10214.842000,5132.839837
486.122816,1406.391290,-11103.089130,3217.601092
486.123144,-962.267725,-11325.150913,2068.457845
486.123472,-2886.803174,-11103.089130,842.705048
486.123799,-3034.844362,-9474.636058,1225.752797
486.124127,-518.144159,-7920.203579,1455.581446
486.124454,1406.391290,-7328.038826,2298.286494
486.124782,1036.288319,-8068.244768,2757.943793
486.125110,-2146.597232,-9696.697840,2528.115143
486.125437,-7402.059420,-9844.739029,612.876398
486.125765,-5921.647536,-10436.903782,1378.971896
486.126093,-3997.112087,-10362.883188,1378.971896
486.126420,-1554.432478,-9474.636058,1455.581446
486.126748,-814.226536,-9696.697840,842.705048
486.127075,-2146.597232,-9104.533087,0.000000
486.127403,-3701.029710,-8438.347739,383.047749
486.127731,-2072.576638,-6735.874072,-536.266849
486.128058,592.164754,-6809.894666,-1149.143247
486.128386,2442.679609,-7550.100608,-1991.848295
486.128713,3256.906145,-10214.842000,-2221.676944
486.129041,1924.535449,-11177.109724,-1991.848295
486.129369,1184.329507,-10214.842000,-1915.238745
486.129697,4293.194464,-10436.903782,-306.438199
486.130024,6957.935855,-11251.130318,919.314598
486.130352,5847.626942,-12065.356855,229.828649
486.130680,3108.864956,-13397.727550,76.609550
486.131007,-814.226536,-13397.727550,-383.047749
486.131335,-2960.823768,-11325.150913,-995.924147
486.131663,-444.123565,-10510.924376,-229.828649
486.131990,2590.720797,-9918.759623,-153.219100
486.132318,3108.864956,-8956.491898,-383.047749
486.132646,2072.576638,-8734.430116,0.000000
486.132973,370.102971,-6809.894666,-459.657299
486.133301,814.226536,-4811.338623,-383.047749
486.133629,2146.597232,-5255.462188,-536.266849
486.133957,1628.453072,-6291.750507,-306.438199
486.134284,-1036.288319,-7772.162391,-919.314598
486.134612,-4515.256246,-9030.512492,-1072.533697
486.134940,-5181.441594,-8068.244768,-995.924147
486.135267,-3701.029710,-8216.285956,0.000000
486.135595,-1406.391290,-8808.450710,0.000000
486.135923,-888.247130,-9474.636058,-153.219100
486.136250,-2812.782580,-10066.800811,-689.485948
486.136578,-3997.112087,-8438.347739,-536.266849
486.136906,-2812.782580,-6513.812290,229.828649
486.137234,444.123565,-6291.750507,689.485948
486.137561,2738.761985,-7254.018232,1302.362347
486.137889,1924.535449,-9400.615463,1225.752797
486.138217,-370.102971,-10140.821405,1072.533697
486.138544,-1110.308913,-8290.306550,1378.971896
486.138872,222.061783,-7624.121203,1915.238745
486.139200,2442.679609,-8068.244768,2834.553343
486.139527,3404.947333,-9178.553681,2528.115143
486.139855,1554.432478,-9918.759623,2298.286494
486.140183,888.247130,-9030.512492,2604.724693
486.140510,518.144159,-7624.121203,3140.991542
486.140838,1628.453072,-7772.162391,2987.772442
486.141166,1628.453072,-8882.471304,2987.772442
486.141494,-518.144159,-10584.944971,1149.143247
486.141821,-3849.070898,-10362.883188,306.438199
486.142149,-5033.400406,-8808.450710,-153.219100
486.142477,-2516.700203,-7550.100608,-306.438199
486.142804,-1406.391290,-7846.182985,536.266849
486.143132,814.226536,-8882.471304,0.000000
486.143460,-1850.514855,-10807.006753,0.000000
486.143787,-4071.132681,-9992.780217,0.000000
486.144115,-4145.153275,-8882.471304,153.219100
486.144443,-1850.514855,-8660.409521,1302.362347
486.144770,444.123565,-9030.512492,766.095498
486.145098,444.123565,-10881.027347,459.657299
486.145426,-1332.370696,-11325.150913,536.266849
486.145754,-2886.803174,-9474.636058,536.266849
486.146081,-1702.473667,-8216.285956,1608.800546
486.146409,814.226536,-8290.306550,1378.971896
486.146737,2516.700203,-9178.553681,766.095498
486.147064,1702.473667,-10436.903782,153.219100
486.147392,444.123565,-9622.677246,459.657299
486.147720,740.205942,-7920.203579,919.314598
486.148047,3034.844362,-7772.162391,1302.362347
486.148375,4219.173869,-9474.636058,1762.019645
486.148703,2664.741391,-11547.212695,995.924147
486.149031,-962.267725,-12361.439231,229.828649
486.149358,-3627.009116,-11325.150913,0.000000
486.149686,-3775.050304,-10066.800811,-229.828649
486.150014,-1258.350101,-9622.677246,153.219100
486.150341,1554.432478,-10436.903782,-306.438199
486.150669,0.000000,-11251.130318,-689.485948
486.150997,-1776.494261,-9696.697840,-536.266849
486.151324,-2442.679609,-7772.162391,-459.657299
486.151652,-1480.411884,-6735.874072,306.438199
486.151980,814.226536,-7846.182985,76.609550
486.152307,1110.308913,-9696.697840,153.219100
486.152635,-1554.432478,-10288.862594,-229.828649
486.152963,-3108.864956,-9474.636058,153.219100
486.153291,-3108.864956,-7698.141797,689.485948
486.153618,-370.102971,-8068.244768,995.924147
486.153946,2294.638420,-8882.471304,689.485948
486.154274,2368.659014,-9474.636058,459.657299
486.154601,592.164754,-8660.409521,229.828649
486.154929,-296.082377,-6661.853478,-76.609550
486.155257,1184.329507,-6291.750507,1762.019645
486.155584,2664.741391,-7476.080014,1685.410096
486.155912,2960.823768,-9548.656652,1685.410096
486.156240,666.185348,-10510.924376,995.924147
486.156568,-1332.370696,-9918.759623,995.924147
486.156895,-2516.700203,-8216.285956,1072.533697
486.157223,-814.226536,-8808.450710,1532.190996
486.157551,888.247130,-9622.677246,1149.143247
486.157878,370.102971,-10584.944971,383.047749
486.158206,-1554.432478,-10214.842000,842.705048
486.158534,-2072.576638,-7105.977043,383.047749
486.158861,-1184.329507,-6587.832884,1302.362347
486.159189,1184.329507,-7031.956449,1072.533697
486.159517,1406.391290,-8364.327145,536.266849
486.159844,-962.267725,-8882.471304,76.609550
486.160172,-3701.029710,-8438.347739,153.219100
486.160500,-4737.318029,-7624.121203,383.047749
486.160828,-2516.700203,-7624.121203,842.705048
486.161155,444.123565,-8660.409521,612.876398
486.161483,1184.329507,-9474.636058,229.828649
486.161811,0.000000,-8956.491898,0.000000
486.162138,-814.226536,-8068.244768,689.485948
486.162466,148.041188,-7254.018232,1149.143247
486.162794,2442.679609,-8068.244768,1149.143247
486.163121,2664.741391,-9992.780217,689.485948
486.163449,592.164754,-11399.171507,0.000000
486.163777,-2146.597232,-10955.047942,-306.438199
486.164104,-2812.782580,-9548.656652,0.000000
486.164432,-814.226536,-8956.491898,383.047749
486.164760,1702.473667,-9770.718434,383.047749
486.165088,1924.535449,-10955.047942,-383.047749
486.165415,-296.082377,-11029.068536,-536.266849
486.165743,-2220.617826,-9252.574275,-536.266849
486.166071,-814.226536,-7402.059420,-383.047749
486.166398,1924.535449,-7550.100608,306.438199
486.166726,3478.967927,-9104.533087,153.219100
486.167054,1036.288319,-11251.130318,459.657299
486.167381,-2072.576638,-10807.006753,229.828649
486.167709,-3108.864956,-9326.594869,0.000000
486.168037,-1776.494261,-8882.471304,689.485948
486.168365,592.164754,-9918.759623,459.657299
486.168692,1776.494261,-11177.109724,153.219100
486.169020,592.164754,-11251.130318,153.219100
486.169348,-814.226536,-9326.594869,612.876398
486.169675,0.000000,-8290.306550,1455.581446
486.170003,1628.453072,-8438.347739,1762.019645
486.170331,2220.617826,-10066.800811,1378.971896
486.170658,370.102971,-11473.192101,1149.143247
486.170986,-2664.741391,-10955.047942,76.609550
486.171314,-3997.112087,-9474.636058,229.828649
486.171641,-2220.617826,-8364.327145,995.924147
486.171969,296.082377,-8660.409521,1608.800546
486.172297,1480.411884,-9918.759623,842.705048
486.172625,0.000000,-9696.697840,612.876398
486.172952,-1850.514855,-8216.285956,919.314598
486.173280,-1702.473667,-6365.771101,1225.752797
486.173608,296.082377,-6735.874072,1532.190996
486.173935,1998.556043,-8216.285956,1608.800546
486.174263,0.000000,-9992.780217,919.314598
486.174591,-3034.844362,-9992.780217,612.876398
486.174918,-4515.256246,-8290.306550,842.705048
486.175246,-2738.761985,-7179.997637,1302.362347
486.175574,74.020594,-7772.162391,1072.533697
486.175902,1628.453072,-9844.739029,766.095498
486.176229,148.041188,-10066.800811,536.266849
486.176557,-1332.370696,-8512.368333,689.485948
486.176885,-1184.329507,-7105.977043,1455.581446
486.177212,296.082377,-6883.915261,1915.238745
486.177540,2294.638420,-8882.471304,919.314598
486.177868,1184.329507,-10584.944971,536.266849
486.178195,-1332.370696,-10066.800811,0.000000
486.178523,-3256.906145,-8364.327145,76.609550
486.178851,-1776.494261,-7031.956449,612.876398
486.179178,962.267725,-7772.162391,919.314598
486.179506,2664.741391,-9474.636058,689.485948
486.179834,1332.370696,-9844.739029,229.828649
486.180162,-148.041188,-8512.368333,612.876398
486.180489,-666.185348,-7105.977043,919.314598
486.180817,1258.350101,-6809.894666,1072.533697
486.181145,2368.659014,-8660.409521,1072.533697
486.181472,1184.329507,-10510.924376,383.047749
486.181800,-1776.494261,-10881.027347,76.609550
486.182128,-3627.009116,-9178.553681,0.000000
486.182455,-2886.803174,-8142.265362,306.438199
486.182783,-296.082377,-8364.327145,0.000000
486.183111,1998.556043,-9844.739029,0.000000
486.183438,666.185348,-10732.986159,-1225.752797
486.183766,-1480.411884,-9622.677246,-842.705048
486.184094,-2294.638420,-7920.203579,-383.047749
486.184422,-222.061783,-7994.224174,0.000000
486.184749,1702.473667,-9548.656652,76.609550
486.185077,1702.473667,-11547.212695,0.000000
486.185405,-740.205942,-12065.356855,0.000000
486.185732,-3034.844362,-10807.006753,0.000000
486.186060,-2516.700203,-9178.553681,766.095498
486.186388,-148.041188,-9474.636058,459.657299
486.186715,1998.556043,-10436.903782,153.219100
486.187043,1924.535449,-11251.130318,-153.219100
486.187371,74.020594,-10140.821405,0.000000
486.187699,-592.164754,-7476.080014,689.485948
486.188026,1406.391290,-7105.977043,1302.362347
486.188354,3108.864956,-8438.347739,1149.143247
486.188682,2960.823768,-10584.944971,612.876398
486.189009,0.000000,-11029.068536,536.266849
486.189337,-2368.659014,-9844.739029,229.828649
486.189665,-2368.659014,-8808.450710,766.095498
486.189992,-666.185348,-9178.553681,689.485948
486.190320,1332.370696,-10584.944971,995.924147
486.190648,1184.329507,-11251.130318,536.266849
486.190975,-888.247130,-10362.883188,766.095498
486.191303,-2368.659014,-8142.265362,1302.362347
486.191631,-1332.370696,-7402.059420,1532.190996
486.191959,444.123565,-8216.285956,1608.800546
486.192286,1110.308913,-9622.677246,766.095498
486.192614,-962.267725,-9992.780217,536.266849
486.192942,-3404.947333,-8734.430116,229.828649
486.193269,-4071.132681,-7254.018232,766.095498
486.193597,-2146.597232,-6809.894666,1302.362347
486.193925,592.164754,-8068.244768,689.485948
486.194252,962.267725,-8956.491898,459.657299
486.194580,-814.226536,-9030.512492,1225.752797
486.194908,-2146.597232,-7105.977043,842.705048
486.195236,-740.205942,-5995.668130,1378.971896
486.195563,1406.391290,-7254.018232,1838.629195
486.195891,1554.432478,-9548.656652,1072.533697
486.196219,-814.226536,-11177.109724,459.657299
486.196546,-3330.926739,-9918.759623,612.876398
486.196874,-3849.070898,-8142.265362,612.876398
486.197202,-1480.411884,-7402.059420,689.485948
486.197529,1554.432478,-8882.471304,689.485948
486.197857,2664.741391,-10214.842000,-306.438199
486.198185,444.123565,-9770.718434,689.485948
486.198512,-1258.350101,-7254.018232,0.000000
486.198840,-222.061783,-6365.771101,689.485948
486.199168,2294.638420,-7698.141797,995.924147
486.199496,2886.803174,-9918.759623,842.705048
486.199823,1110.308913,-11695.253884,0.000000
486.200151,-2146.597232,-10584.944971,383.047749
486.200479,-2738.761985,-9252.574275,612.876398
486.200806,-962.267725,-8734.430116,1072.533697
486.201134,1628.453072,-9770.718434,842.705048
486.201462,2072.576638,-10955.047942,0.000000
486.201789,666.185348,-10436.903782,76.609550
486.202117,-666.185348,-8216.285956,306.438199
486.202445,148.041188,-6809.894666,995.924147
486.202772,2368.659014,-7476.080014,1378.971896
486.203100,3330.926739,-8734.430116,536.266849
486.203428,888.247130,-10955.047942,229.828649
486.203756,-2664.741391,-10584.944971,-536.266849
486.204083,-4737.318029,-8956.491898,0.000000
486.204411,-3108.864956,-8364.327145,0.000000
486.204739,-666.185348,-9178.553681,0.000000
486.205066,888.247130,-10584.944971,-536.266849
486.205394,-1036.288319,-10807.006753,-766.095498
486.205722,-2738.761985,-8808.450710,-383.047749
486.206049,-2368.659014,-6883.915261,0.000000
486.206377,0.000000,-7179.997637,153.219100
486.206705,1628.453072,-8956.491898,-153.219100
486.207033,370.102971,-10362.883188,-153.219100
486.207360,-2368.659014,-9992.780217,-612.876398
486.207688,-3552.988522,-8216.285956,0.000000
486.208016,-1480.411884,-7698.141797,766.095498
486.208343,1184.329507,-8216.285956,1072.533697
486.208671,3034.844362,-10288.862594,919.314598
486.208999,2220.617826,-10436.903782,612.876398
486.209326,592.164754,-8808.450710,842.705048
486.209654,740.205942,-7476.080014,1685.410096
486.209982,2812.782580,-7698.141797,2681.334243
486.210309,4219.173869,-9696.697840,1838.629195
486.210637,2886.803174,-11473.192101,1762.019645
486.210965,-592.164754,-11029.068536,1455.581446
486.211293,-2960.823768,-9548.656652,1225.752797
486.211620,-2664.741391,-8660.409521,1455.581446
486.211948,-518.144159,-8438.347739,1455.581446
486.212276,1110.308913,-10362.883188,766.095498
486.212603,-518.144159,-10658.965565,0.000000
486.212931,-3034.844362,-8956.491898,0.000000
486.213259,-2886.803174,-6661.853478,536.266849
486.213586,-740.205942,-6661.853478,1149.143247
486.213914,814.226536,-8068.244768,919.314598
486.214242,-444.123565,-9992.780217,0.000000
486.214570,-3627.009116,-10140.821405,0.000000
486.214897,-5625.565159,-8438.347739,0.000000
486.215225,-4071.132681,-7772.162391,612.876398
486.215553,-444.123565,-7920.203579,842.705048
486.215880,1702.473667,-10066.800811,842.705048
486.216208,1554.432478,-10658.965565,766.095498
486.216536,0.000000,-9622.677246,1302.362347
486.216863,-148.041188,-7624.121203,1915.238745
486.217191,1628.453072,-7698.141797,2604.724693
486.217519,3108.864956,-10140.821405,1915.238745
486.217846,2590.720797,-12435.459826,1455.581446
486.218174,-444.123565,-12435.459826,842.705048
486.218502,-2442.679609,-10732.986159,1302.362347
486.218830,-1924.535449,-9178.553681,1225.752797
486.219157,-222.061783,-9770.718434,766.095498
486.219485,1628.453072,-10955.047942,0.000000
486.219813,592.164754,-10732.986159,-229.828649
486.220140,-2146.597232,-9400.615463,-919.314598
486.220468,-2516.700203,-7031.956449,-842.705048
486.220796,-814.226536,-6217.729913,-383.047749
486.221123,1110.308913,-7179.997637,-612.876398
486.221451,1850.514855,-8808.450710,-919.314598
486.221779,-1332.370696,-9400.615463,-1225.752797
486.222106,-4145.153275,-7920.203579,0.000000
486.222434,-3256.906145,-6735.874072,-536.266849
486.222762,-740.205942,-7105.977043,-153.219100
486.223090,2294.638420,-8586.388927,0.000000
486.223417,2590.720797,-9770.718434,0.000000
486.223745,1110.308913,-9474.636058,842.705048
486.224073,740.205942,-6883.915261,1455.581446
486.224400,2146.597232,-6661.853478,2068.457845
486.224728,4071.132681,-8364.327145,1838.629195
486.225056,3775.050304,-10807.006753,1225.752797
486.225383,962.267725,-11695.253884,536.266849
486.225711,-2368.659014,-10140.821405,1072.533697
486.226039,-3034.844362,-8364.327145,842.705048
486.226367,-592.164754,-8734.430116,1608.800546
486.226694,1924.535449,-9696.697840,1149.143247
486.227022,592.164754,-10807.006753,536.266849
486.227350,-888.247130,-9770.718434,459.657299
486.227677,-3404.947333,-7550.100608,919.314598
486.228005,-2368.659014,-6587.832884,1149.143247
486.228333,-666.185348,-7105.977043,689.485948
486.228660,0.000000,-9030.512492,306.438199
486.228988,-2590.720797,-9770.718434,-459.657299
486.229316,-4737.318029,-8364.327145,-383.047749
486.229643,-5551.544565,-6217.729913,153.219100
486.229971,-2368.659014,-6291.750507,153.219100
486.230299,1110.308913,-7550.100608,306.438199
486.230626,1480.411884,-8956.491898,229.828649
486.230954,74.020594,-8734.430116,0.000000
486.231282,-1036.288319,-7698.141797,766.095498
486.231609,-222.061783,-7328.038826,1915.238745
486.231937,2368.659014,-9474.636058,1915.238745
486.232264,2960.823768,-11029.068536,1378.971896
486.232592,1702.473667,-13323.706956,995.924147
486.232919,-1702.473667,-12139.377449,842.705048
486.233247,-2738.761985,-10436.903782,1072.533697
486.233574,-962.267725,-10658.965565,1302.362347
486.233902,1924.535449,-10658.965565,919.314598
486.234230,2442.679609,-12509.480420,383.047749
486.234557,740.205942,-11473.192101,-306.438199
486.234885,-1850.514855,-9326.594869,-383.047749
486.235212,-1036.288319,-7846.182985,306.438199
486.235540,888.247130,-7698.141797,153.219100
486.235867,1036.288319,-9474.636058,-153.219100
486.236195,-592.164754,-11621.233289,-766.095498
486.236522,-3701.029710,-10732.986159,-995.924147
486.236850,-4589.276840,-8216.285956,-842.705048
486.237178,-1924.535449,-7698.141797,-306.438199
486.237505,962.267725,-8956.491898,153.219100
486.237833,2738.761985,-10510.924376,153.219100
486.238160,1110.308913,-10436.903782,0.000000
486.238488,-222.061783,-8734.430116,459.657299
486.238815,222.061783,-7698.141797,1685.410096
486.239143,2220.617826,-8808.450710,2145.067394
486.239470,2960.823768,-10955.047942,1685.410096
486.239798,1776.494261,-12435.459826,995.924147
486.240125,-1332.370696,-11621.233289,995.924147
486.240453,-2368.659014,-9548.656652,1302.362347
486.240781,-1554.432478,-8882.471304,1685.410096
486.241108,814.226536,-9696.697840,1685.410096
486.241436,1628.453072,-10955.047942,995.924147
486.241763,-814.226536,-10807.006753,383.047749
486.242091,-2812.782580,-8216.285956,383.047749
486.242418,-2738.761985,-6439.791695,612.876398
486.242746,-666.185348,-6735.874072,1149.143247
486.243073,592.164754,-7550.100608,383.047749
486.243401,-444.123565,-9104.533087,306.438199
486.243729,-3182.885551,-8808.450710,0.000000
486.244056,-4811.338623,-6957.935855,76.609550
486.244384,-3256.906145,-6365.771101,536.266849
486.244711,-370.102971,-6957.935855,612.876398
486.245039,1628.453072,-8364.327145,306.438199
486.245366,1110.308913,-8956.491898,229.828649
486.245694,-222.061783,-7402.059420,1072.533697
486.246021,296.082377,-5921.647536,1915.238745
486.246349,2368.659014,-6217.729913,3064.381992
486.246677,4515.256246,-9030.512492,1991.848295
486.247004,3330.926739,-10510.924376,1302.362347
486.247332,222.061783,-10288.862594,842.705048
486.247659,-1628.453072,-9030.512492,1455.581446
486.247987,-962.267725,-7994.224174,1915.238745
486.248314,1110.308913,-8512.368333,1685.410096
486.248642,2368.659014,-10140.821405,689.485948
486.248969,296.082377,-10881.027347,-153.219100
486.249297,-1776.494261,-8586.388927,0.000000
486.249625,-2442.679609,-6587.832884,-689.485948
486.249952,-666.185348,-5699.585753,76.609550
486.250280,740.205942,-7994.224174,-229.828649
486.250607,-370.102971,-9844.739029,-842.705048
486.250935,-3404.947333,-9844.739029,-1532.190996
486.251262,-5625.565159,-7994.224174,-1378.971896
486.251590,-4589.276840,-6883.915261,-1072.533697
486.251917,-1628.453072,-7550.100608,-612.876398
486.252245,1332.370696,-9326.594869,-995.924147
486.252573,592.164754,-10066.800811,-1302.362347
486.252900,-666.185348,-9178.553681,-536.266849
486.253228,-444.123565,-7402.059420,919.314598
486.253555,1998.556043,-7994.224174,842.705048
486.253883,3997.112087,-9622.677246,1149.143247
486.254210,4145.153275,-12139.377449,1072.533697
486.254538,1628.453072,-12731.542202,1378.971896
486.254865,-444.123565,-11621.233289,1915.238745
486.255193,-148.041188,-10436.903782,2528.115143
486.255521,1998.556043,-10881.027347,2298.286494
486.255848,3034.844362,-11917.315666,1532.190996
486.256176,1406.391290,-12731.542202,459.657299
486.256503,-814.226536,-11473.192101,383.047749
486.256831,-1924.535449,-8586.388927,229.828649
486.257158,-962.267725,-7698.141797,995.924147
486.257486,1036.288319,-8660.409521,383.047749
486.257813,74.020594,-10214.842000,76.609550
486.258141,-3108.864956,-10955.047942,-842.705048
486.258469,-5995.668130,-8956.491898,-842.705048
486.258796,-6069.688724,-7846.182985,-536.266849
486.259124,-3552.988522,-7994.224174,0.000000
486.259451,-592.164754,-9622.677246,-229.828649
486.259779,-518.144159,-10214.842000,0.000000
486.260106,-2368.659014,-9252.574275,1072.533697
486.260434,-1332.370696,-7476.080014,1149.143247
486.260761,0.000000,-7031.956449,1685.410096
486.261089,2516.700203,-8216.285956,1915.238745
486.261417,3108.864956,-10807.006753,1302.362347
486.261744,1332.370696,-11695.253884,1762.019645
486.262072,-814.226536,-10362.883188,2298.286494
486.262399,-1184.329507,-9252.574275,2451.505594
486.262727,740.205942,-9326.594869,2757.943793
486.263054,2886.803174,-10732.986159,2221.676944
486.263382,2368.659014,-11843.295072,1455.581446
486.263709,74.020594,-10436.903782,1455.581446
486.264037,-2146.597232,-7920.203579,1149.143247
486.264365,-814.226536,-6661.853478,2145.067394
486.264692,1406.391290,-7179.997637,1455.581446
486.265020,814.226536,-9326.594869,459.657299
486.265347,-1628.453072,-9400.615463,0.000000
486.265675,-5181.441594,-7624.121203,-459.657299
486.266002,-5255.462188,-5255.462188,-689.485948
486.266330,-2960.823768,-4959.379811,-153.219100
486.266657,518.144159,-6439.791695,0.000000
486.266985,666.185348,-7920.203579,-229.828649
486.267313,-1258.350101,-7550.100608,-229.828649
486.267640,-1924.535449,-6143.709319,76.609550
486.267968,-888.247130,-5773.606348,689.485948
486.268295,1776.494261,-7254.018232,1378.971896
486.268623,2960.823768,-9696.697840,459.657299
486.268950,1850.514855,-10732.986159,1225.752797
486.269278,-592.164754,-9622.677246,306.438199
486.269605,-1184.329507,-8364.327145,1225.752797
486.269933,814.226536,-8364.327145,1072.533697
486.270260,3108.864956,-9474.636058,459.657299
486.270588,3256.906145,-10732.986159,-306.438199
486.270916,1406.391290,-10436.903782,-689.485948
486.271243,-444.123565,-8364.327145,-383.047749
486.271571,0.000000,-7476.080014,0.000000
486.271898,1776.494261,-8438.347739,229.828649
486.272226,2590.720797,-10288.862594,-459.657299
486.272553,-962.267725,-11547.212695,-1302.362347
486.272881,-4071.132681,-10510.924376,-1991.848295
486.273208,-5255.462188,-8808.450710,-1378.971896
486.273536,-3182.885551,-7920.203579,-1149.143247
486.273864,222.061783,-8956.491898,-919.314598
486.274191,1702.473667,-9696.697840,-919.314598
486.274519,148.041188,-9992.780217,-1149.143247
486.274846,-1554.432478,-8512.368333,-919.314598
486.275174,-740.205942,-7402.059420,153.219100
486.275501,1776.494261,-7698.141797,842.705048
486.275829,3627.009116,-10066.800811,1072.533697
486.276156,2886.803174,-12139.377449,689.485948
486.276484,296.082377,-11621.233289,1225.752797
486.276812,-1628.453072,-10436.903782,2145.067394
486.277139,-740.205942,-10436.903782,2451.505594
486.277467,1406.391290,-11251.130318,2221.676944
486.277794,2146.597232,-12805.562797,1532.190996
486.278122,222.061783,-12583.501014,1225.752797
486.278449,-1998.556043,-10362.883188,1302.362347
486.278777,-1850.514855,-8660.409521,2145.067394
486.279104,296.082377,-8142.265362,2451.505594
486.279432,740.205942,-9696.697840,2145.067394
486.279760,-740.205942,-11029.068536,995.924147
486.280087,-4293.194464,-10214.842000,306.438199
486.280415,-6439.791695,-7920.203579,306.438199
486.280742,-4589.276840,-6439.791695,536.266849
486.281070,-1332.370696,-7031.956449,1072.533697
486.281397,148.041188,-8882.471304,766.095498
486.281725,-1036.288319,-8956.491898,459.657299
486.282052,-2442.679609,-7476.080014,1302.362347
486.282380,-1924.535449,-5699.585753,1838.629195
486.282708,222.061783,-6661.853478,2374.896044
486.283035,2442.679609,-8586.388927,1838.629195
486.283363,2220.617826,-10510.924376,1838.629195
486.283690,-222.061783,-10510.924376,1762.019645
486.284018,-2368.659014,-8956.491898,2221.676944
486.284345,-1184.329507,-8068.244768,2451.505594
486.284673,888.247130,-8808.450710,1762.019645
486.285000,2072.576638,-10214.842000,842.705048
486.285328,888.247130,-10436.903782,76.609550
486.285656,-1924.535449,-8956.491898,0.000000
486.285983,-2072.576638,-6661.853478,-153.219100
486.286311,222.061783,-6661.853478,536.266849
486.286638,1924.535449,-8290.306550,76.609550
486.286966,518.144159,-9770.718434,-383.047749
486.287293,-2590.720797,-9770.718434,-1378.971896
486.287621,-5033.400406,-7476.080014,-1149.143247
486.287948,-4515.256246,-6883.915261,-1072.533697
486.288276,-1480.411884,-7476.080014,-919.314598
486.288604,592.164754,-8808.450710,-1225.752797
486.288931,296.082377,-9474.636058,-1915.238745
486.289259,-888.247130,-7846.182985,-1072.533697
486.289586,-740.205942,-5699.585753,-536.266849
486.289914,2368.659014,-5995.668130,0.000000
486.290241,4885.359217,-7920.203579,306.438199
486.290569,5033.400406,-10214.842000,153.219100
486.290896,2664.741391,-10955.047942,76.609550
486.291224,0.000000,-9844.739029,536.266849
486.291552,-222.061783,-9474.636058,766.095498
486.291879,2072.576638,-10214.842000,1225.752797
486.292207,3775.050304,-11917.315666,766.095498
486.292534,2960.823768,-12953.603985,459.657299
486.292862,666.185348,-11547.212695,306.438199
486.293189,-148.041188,-9474.636058,1302.362347
486.293517,518.144159,-8734.430116,1608.800546
486.293844,1702.473667,-10066.800811,1225.752797
486.294172,666.185348,-11843.295072,0.000000
486.294500,-2812.782580,-11843.295072,-536.266849
486.294827,-5699.585753,-9918.759623,-766.095498
486.295155,-5329.482782,-8142.265362,-766.095498
486.295482,-2886.803174,-8068.244768,0.000000
486.295810,0.000000,-9400.615463,0.000000
486.296137,-370.102971,-9844.739029,-306.438199
486.296465,-2072.576638,-8586.388927,-153.219100
486.296792,-2516.700203,-7105.977043,383.047749
486.297120,-962.267725,-6883.915261,995.924147
486.297448,1702.473667,-8216.285956,1532.190996
486.297775,2738.761985,-10214.842000,1762.019645
486.298103,962.267725,-11251.130318,2221.676944
486.298430,-1850.514855,-10288.862594,2298.286494
486.298758,-2220.617826,-9474.636058,2681.334243
486.299085,-148.041188,-9548.656652,2681.334243
486.299413,1850.514855,-11029.068536,2374.896044
486.299740,1628.453072,-11843.295072,2068.457845
486.300068,0.000000,-10584.944971,1838.629195
486.300396,-740.205942,-8438.347739,2374.896044
486.300723,814.226536,-7105.977043,2834.553343
486.301051,1776.494261,-7920.203579,2681.334243
486.301378,1702.473667,-9696.697840,1915.238745
486.301706,-1776.494261,-10066.800811,689.485948
486.302033,-5477.523971,-8512.368333,229.828649
486.302361,-6217.729913,-6883.915261,229.828649
486.302688,-3701.029710,-6365.771101,459.657299
486.303016,-1776.494261,-7624.121203,383.047749
486.303343,0.000000,-8216.285956,-229.828649
486.303671,-2220.617826,-7920.203579,0.000000
486.303999,-3108.864956,-5403.503377,0.000000
486.304326,-1332.370696,-4293.194464,0.000000
486.304654,1184.329507,-5625.565159,229.828649
486.304981,2886.803174,-7846.182985,306.438199
486.305309,1628.453072,-9548.656652,153.219100
486.305636,-1110.308913,-9326.594869,229.828649
486.305964,-2220.617826,-8216.285956,383.047749
486.306291,-518.144159,-8512.368333,766.095498
486.306619,2368.659014,-10066.800811,919.314598
486.306947,3034.844362,-11399.171507,0.000000
486.307274,1480.411884,-11621.233289,-383.047749
486.307602,518.144159,-9474.636058,0.000000
486.307929,1184.329507,-8216.285956,612.876398
486.308257,3256.906145,-8216.285956,919.314598
486.308584,3627.009116,-10288.862594,0.000000
486.308912,814.226536,-11769.274478,-1378.971896
486.309239,-2664.741391,-10584.944971,-1762.019645
486.309567,-3923.091493,-8512.368333,-1762.019645
486.309895,-2368.659014,-7846.182985,-1378.971896
486.310222,740.205942,-8808.450710,-1455.581446
486.310550,2072.576638,-9770.718434,-1302.362347
486.310877,148.041188,-9770.718434,-1225.752797
486.311205,-1184.329507,-7698.141797,-689.485948
486.311532,-740.205942,-6661.853478,76.609550
486.311860,2146.597232,-7254.018232,459.657299
486.312187,3775.050304,-9400.615463,1149.143247
486.312515,2442.679609,-11547.212695,689.485948
486.312843,-962.267725,-11177.109724,842.705048
486.313170,-2664.741391,-9696.697840,1608.800546
486.313498,-1406.391290,-9474.636058,2068.457845
486.313825,1258.350101,-10436.903782,1455.581446
486.314153,2072.576638,-11917.315666,1149.143247
486.314480,1036.288319,-11991.336260,1072.533697
486.314808,-962.267725,-10436.903782,1608.800546
486.315135,-888.247130,-8364.327145,2298.286494
486.315463,962.267725,-8512.368333,2834.553343
486.315791,1332.370696,-10140.821405,1685.410096
486.316118,-296.082377,-11325.150913,919.314598
486.316446,-4145.153275,-10658.965565,306.438199
486.316773,-6291.750507,-8660.409521,536.266849
486.317101,-4737.318029,-7402.059420,1302.362347
486.317428,-2368.659014,-8068.244768,842.705048
486.317756,-1184.329507,-9178.553681,766.095498
486.318083,-2220.617826,-9548.656652,153.219100
486.318411,-3404.947333,-7476.080014,76.609550
486.318739,-2960.823768,-5329.482782,383.047749
486.319066,148.041188,-5551.544565,1302.362347
486.319394,2368.659014,-7994.224174,1455.581446
486.319721,1998.556043,-10140.821405,1149.143247
486.320049,-1036.288319,-10510.924376,1149.143247
486.320376,-2886.803174,-9400.615463,1455.581446
486.320704,-1924.535449,-8216.285956,2068.457845
486.321031,1110.308913,-9400.615463,1991.848295
486.321359,3256.906145,-11029.068536,1532.190996
486.321687,2664.741391,-11917.315666,1378.971896
486.322014,1110.308913,-9918.759623,1991.848295
486.322342,592.164754,-7994.224174,1915.238745
486.322669,1702.473667,-7994.224174,2298.286494
486.322997,2516.700203,-9770.718434,1685.410096
486.323324,1184.329507,-11029.068536,306.438199
486.323652,-2294.638420,-10807.006753,-153.219100
486.323979,-3923.091493,-8216.285956,-459.657299
486.324307,-3330.926739,-6809.894666,-229.828649
486.324635,-1406.391290,-7624.121203,229.828649
486.324962,962.267725,-8734.430116,-383.047749
486.325290,-666.185348,-8956.491898,-1225.752797
486.325617,-2146.597232,-7105.977043,-1608.800546
486.325945,-2516.700203,-5477.523971,-919.314598
486.326272,-222.061783,-5551.544565,-459.657299
486.326600,1924.535449,-7402.059420,-306.438199
486.326927,1776.494261,-9474.636058,-459.657299
486.327255,-740.205942,-10436.903782,-459.657299
486.327583,-3330.926739,-9178.553681,-536.266849
486.327910,-2886.803174,-8438.347739,-229.828649
486.328238,148.041188,-9030.512492,0.000000
486.328565,3256.906145,-10807.006753,-153.219100
486.328893,3404.947333,-11621.233289,0.000000
486.329220,1480.411884,-10584.944971,306.438199
486.329548,814.226536,-8808.450710,919.314598
486.329875,1776.494261,-8364.327145,1532.190996
486.330203,3330.926739,-9474.636058,689.485948
486.330531,2886.803174,-11177.109724,0.000000
486.330858,148.041188,-11325.150913,-612.876398
486.331186,-2960.823768,-10140.821405,-306.438199
486.331513,-2738.761985,-8364.327145,153.219100
486.331841,0.000000,-8216.285956,459.657299
486.332168,1924.535449,-9548.656652,536.266849
486.332496,1332.370696,-10214.842000,0.000000
486.332824,-888.247130,-9548.656652,0.000000
486.333152,-2072.576638,-7476.080014,459.657299
486.333479,-518.144159,-6291.750507,995.924147
486.333807,1850.514855,-7772.162391,1608.800546
486.334135,1924.535449,-9548.656652,1608.800546
486.334462,0.000000,-10436.903782,919.314598
486.334790,-3478.967927,-9474.636058,919.314598
486.335118,-3923.091493,-8142.265362,1149.143247
486.335446,-2072.576638,-8512.368333,1532.190996
486.335773,296.082377,-9696.697840,1149.143247
486.336101,518.144159,-11103.089130,919.314598
486.336429,-814.226536,-10362.883188,612.876398
486.336756,-1998.556043,-7698.141797,1532.190996
486.337084,-518.144159,-7031.956449,2374.896044
486.337412,1184.329507,-8216.285956,2068.457845
486.337739,1628.453072,-9992.780217,1915.238745
486.338067,-1110.308913,-10807.006753,459.657299
486.338395,-3627.009116,-9622.677246,766.095498
486.338723,-4071.132681,-7920.203579,1378.971896
486.339050,-1924.535449,-7624.121203,1762.019645
486.339378,518.144159,-8882.471304,1991.848295
486.339706,1258.350101,-9992.780217,1532.190996
486.340033,-1258.350101,-9474.636058,919.314598
486.340361,-2368.659014,-7105.977043,1072.533697
486.340689,-1036.288319,-5847.626942,1532.190996
486.341017,2072.576638,-6661.853478,1378.971896
486.341344,2886.803174,-8882.471304,1302.362347
486.341672,814.226536,-10066.800811,842.705048
486.342000,-1998.556043,-9474.636058,536.266849
486.342327,-3256.906145,-7846.182985,536.266849
486.342655,-1554.432478,-7920.203579,766.095498
486.342983,1110.308913,-9326.594869,459.657299
486.343311,1850.514855,-10881.027347,0.000000
486.343638,-296.082377,-10658.965565,-383.047749
486.343966,-1998.556043,-8586.388927,76.609550
486.344294,-1332.370696,-7550.100608,459.657299
486.344621,1036.288319,-8068.244768,306.438199
486.344949,2516.700203,-9474.636058,0.000000
486.345277,518.144159,-10881.027347,-842.705048
486.345604,-2368.659014,-10066.800811,-1225.752797
486.345932,-3552.988522,-8068.244768,-919.314598
486.346260,-1924.535449,-7031.956449,-153.219100
486.346588,1258.350101,-8512.368333,-459.657299
486.346915,1776.494261,-10510.924376,-1302.362347
486.347243,148.041188,-10881.027347,-1608.800546
486.347571,-1554.432478,-9030.512492,-1378.971896
486.347898,-592.164754,-7179.997637,-306.438199
486.348226,2590.720797,-7920.203579,229.828649
486.348554,3997.112087,-10362.883188,76.609550
486.348882,2590.720797,-11991.336260,0.000000
486.349209,-1036.288319,-11769.274478,-306.438199
486.349537,-3034.844362,-10140.821405,-153.219100
486.349865,-1850.514855,-9474.636058,0.000000
486.350192,1998.556043,-10214.842000,229.828649
486.350520,2664.741391,-11695.253884,0.000000
486.350848,2072.576638,-11399.171507,153.219100
486.351176,-222.061783,-9548.656652,919.314598
486.351503,-518.144159,-7846.182985,1378.971896
486.351831,1406.391290,-7846.182985,1762.019645
486.352159,2516.700203,-9992.780217,1225.752797
486.352486,1258.350101,-11325.150913,689.485948
486.352814,-1924.535449,-11177.109724,766.095498
486.353142,-3256.906145,-8734.430116,1532.190996
486.353470,-2294.638420,-7772.162391,2298.286494
486.353797,296.082377,-8808.450710,2145.067394
486.354125,1258.350101,-9992.780217,1608.800546
486.354453,-444.123565,-10436.903782,842.705048
486.354780,-2368.659014,-8586.388927,1072.533697
486.355108,-2516.700203,-6661.853478,1149.143247
486.355436,-370.102971,-6735.874072,2145.067394
486.355763,1258.350101,-8734.430116,2221.676944
486.356091,-148.041188,-10584.944971,1455.581446
486.356419,-3330.926739,-10362.883188,995.924147
486.356747,-5255.462188,-9104.533087,383.047749
486.357074,-4441.235652,-7476.080014,1072.533697
486.357402,-1554.432478,-7846.182985,1378.971896
486.357730,888.247130,-9326.594869,1072.533697
486.358057,296.082377,-9770.718434,383.047749
486.358385,-1258.350101,-8512.368333,229.828649
486.358713,-1480.411884,-6439.791695,1685.410096
486.359041,-148.041188,-6513.812290,1532.190996
486.359368,1332.370696,-8290.306550,1072.533697
486.359696,888.247130,-10362.883188,306.438199
486.360024,-1998.556043,-10140.821405,-459.657299
486.360351,-3034.844362,-7624.121203,0.000000
486.360679,-1702.473667,-6957.935855,995.924147
486.361007,962.267725,-7328.038826,766.095498
486.361335,2664.741391,-9252.574275,536.266849
486.361662,2294.638420,-9252.574275,306.438199
486.361990,296.082377,-8438.347739,-612.876398
486.362318,222.061783,-6883.915261,0.000000
486.362645,1850.514855,-6439.791695,612.876398
486.362973,3256.906145,-8438.347739,766.095498
486.363301,2812.782580,-10955.047942,229.828649
486.363628,-592.164754,-11103.089130,-536.266849
486.363956,-3256.906145,-9548.656652,-306.438199
486.364284,-2738.761985,-8512.368333,0.000000
486.364612,-296.082377,-8882.471304,0.000000
486.364939,1480.411884,-10214.842000,-536.266849
486.365267,888.247130,-10214.842000,-153.219100
486.365595,-1036.288319,-9474.636058,-919.314598
486.365922,-1998.556043,-7550.100608,-383.047749
486.366250,-444.123565,-6735.874072,229.828649
486.366578,1776.494261,-7994.224174,0.000000
486.366906,2294.638420,-9918.759623,0.000000
486.367233,-518.144159,-10881.027347,-842.705048
486.367561,-2812.782580,-9474.636058,0.000000
486.367889,-3182.885551,-8364.327145,536.266849
486.368216,0.000000,-8808.450710,1072.533697
486.368544,1480.411884,-9696.697840,1072.533697
486.368872,1480.411884,-11103.089130,383.047749
486.369200,-444.123565,-10288.862594,306.438199
486.369527,-962.267725,-7994.224174,1225.752797
486.369855,740.205942,-7328.038826,1991.848295
486.370183,2516.700203,-8586.388927,2145.067394
486.370510,2442.679609,-10510.924376,2374.896044
486.370838,370.102971,-10881.027347,1072.533697
486.371166,-2960.823768,-10066.800811,995.924147
486.371493,-3108.864956,-8586.388927,1149.143247
486.371821,-1184.329507,-8512.368333,1455.581446
486.372149,148.041188,-9696.697840,1608.800546
486.372477,148.041188,-11103.089130,1072.533697
486.372804,-2072.576638,-10436.903782,689.485948
486.373132,-3478.967927,-7994.224174,689.485948
486.373460,-2072.576638,-6957.935855,1072.533697
486.373787,74.020594,-7328.038826,1608.800546
486.374115,370.102971,-9178.553681,536.266849
486.374443,-1480.411884,-10362.883188,-306.438199
486.374771,-3849.070898,-8882.471304,-306.438199
486.375098,-3923.091493,-7031.956449,383.047749
486.375426,-814.226536,-7105.977043,1378.971896
486.375754,1480.411884,-7994.224174,612.876398
486.376081,2368.659014,-9992.780217,842.705048
486.376409,370.102971,-9696.697840,459.657299
486.376737,-592.164754,-7920.203579,995.924147
486.377065,888.247130,-7105.977043,1685.410096
486.377392,3330.926739,-8438.347739,2604.724693
486.377720,3627.009116,-11029.068536,1915.238745
486.378048,1110.308913,-12213.398043,1225.752797
486.378375,-2220.617826,-11177.109724,766.095498
486.378703,-3034.844362,-9104.533087,459.657299
486.379031,-1406.391290,-8438.347739,995.924147
486.379358,1110.308913,-9326.594869,0.000000
486.379686,1406.391290,-10658.965565,-383.047749
486.380014,-888.247130,-9918.759623,-766.095498
486.380342,-2664.741391,-7994.224174,-612.876398
486.380669,-1628.453072,-6365.771101,0.000000
486.380997,74.020594,-7402.059420,-153.219100
486.381325,1110.308913,-8586.388927,-612.876398
486.381652,-370.102971,-9992.780217,-1378.971896
486.381980,-3330.926739,-9400.615463,-1455.581446
486.382308,-4219.173869,-7920.203579,-536.266849
486.382636,-2220.617826,-7772.162391,383.047749
486.382963,222.061783,-8660.409521,-306.438199
486.383291,1554.432478,-10288.862594,-919.314598
486.383619,592.164754,-10214.842000,-536.266849
486.383946,0.000000,-8364.327145,-229.828649
486.384274,1110.308913,-6735.874072,919.314598
486.384602,3552.988522,-7698.141797,1685.410096
486.384930,4885.359217,-9622.677246,1455.581446
486.385257,3182.885551,-11325.150913,766.095498
486.385585,74.020594,-11473.192101,842.705048
486.385913,-1850.514855,-9844.739029,1072.533697
486.386240,-592.164754,-9400.615463,1072.533697
486.386568,1480.411884,-10214.842000,1455.581446
486.386896,2590.720797,-11843.295072,1072.533697
486.387224,518.144159,-11843.295072,459.657299
486.387551,-1480.411884,-9326.594869,842.705048
486.387879,-1554.432478,-7476.080014,1225.752797
486.388207,-222.061783,-7550.100608,1225.752797
486.388534,1036.288319,-8586.388927,1072.533697
486.388862,296.082377,-9918.759623,612.876398
486.389190,-2738.761985,-9696.697840,76.609550
486.389517,-3849.070898,-7772.162391,1149.143247
486.389845,-2960.823768,-6809.894666,1378.971896
486.390173,-518.144159,-7624.121203,1378.971896
486.390501,740.205942,-9844.739029,1455.581446
486.390828,-370.102971,-10362.883188,766.095498
486.391156,-1628.453072,-8882.471304,2221.676944
486.391484,-1258.350101,-7254.018232,1915.238745
486.391811,962.267725,-7698.141797,2528.115143
486.392139,2146.597232,-9696.697840,2451.505594
486.392467,1184.329507,-11547.212695,1378.971896
486.392795,-2220.617826,-11473.192101,689.485948
486.393122,-3478.967927,-9178.553681,766.095498
486.393450,-2812.782580,-8216.285956,766.095498
486.393778,0.000000,-8660.409521,612.876398
486.394105,1332.370696,-10362.883188,383.047749
486.394433,296.082377,-10214.842000,383.047749
486.394761,-1924.535449,-8956.491898,76.609550
486.395089,-2294.638420,-7105.977043,153.219100
486.395416,-814.226536,-7179.997637,766.095498
486.395744,814.226536,-8734.430116,383.047749
486.396072,666.185348,-10140.821405,-536.266849
486.396399,-1554.432478,-9844.739029,-612.876398
486.396727,-2960.823768,-8290.306550,-536.266849
486.397055,-2146.597232,-7179.997637,153.219100
486.397382,148.041188,-7402.059420,383.047749
486.397710,2738.761985,-8660.409521,-306.438199
486.398038,2072.576638,-9252.574275,-1225.752797
486.398366,740.205942,-8216.285956,-766.095498
486.398693,1110.308913,-6439.791695,153.219100
486.399021,2738.761985,-6217.729913,1378.971896
486.399349,4145.153275,-8142.265362,1532.190996
486.399676,3034.844362,-11029.068536,383.047749
486.400004,-518.144159,-12213.398043,383.047749
486.400332,-3404.947333,-10658.965565,0.000000
486.400660,-2960.823768,-9252.574275,229.828649
486.400987,-1036.288319,-9030.512492,306.438199
486.401315,1924.535449,-9844.739029,459.657299
486.401643,962.267725,-10584.944971,0.000000
486.401970,-1332.370696,-8734.430116,-459.657299
486.402298,-2516.700203,-6291.750507,-536.266849
486.402626,-1036.288319,-5477.523971,-76.609550
486.402954,222.061783,-7105.977043,-383.047749
486.403281,296.082377,-8438.347739,-1072.533697
486.403609,-2368.659014,-9844.739029,-1225.752797
486.403937,-4441.235652,-8808.450710,-612.876398
486.404264,-3775.050304,-7402.059420,383.047749
486.404592,-888.247130,-8216.285956,919.314598
486.404920,1776.494261,-9844.739029,1072.533697
486.405247,1480.411884,-11177.109724,612.876398
486.405575,370.102971,-10584.944971,1072.533697
486.405903,0.000000,-8438.347739,2145.067394
486.406231,2072.576638,-8142.265362,3064.381992
486.406558,4071.132681,-9474.636058,3294.210641
486.406886,4145.153275,-11251.130318,1838.629195
486.407214,1554.432478,-12213.398043,1685.410096
486.407541,-1184.329507,-11103.089130,1838.629195
486.407869,-1850.514855,-9400.615463,1838.629195
486.408197,-592.164754,-9622.677246,2298.286494
486.408525,1184.329507,-10658.965565,1991.848295
486.408852,148.041188,-11991.336260,919.314598
486.409180,-2368.659014,-10732.986159,536.266849
486.409508,-3849.070898,-8364.327145,766.095498
486.409835,-3256.906145,-7476.080014,995.924147
486.410163,-962.267725,-7846.182985,1378.971896
486.410491,-666.185348,-9104.533087,-153.219100
486.410819,-2960.823768,-9844.739029,-612.876398
486.411146,-5107.421000,-8512.368333,-842.705048
486.411474,-5181.441594,-6809.894666,-383.047749
486.411802,-2368.659014,-6069.688724,153.219100
486.412129,666.185348,-7550.100608,459.657299
486.412457,1406.391290,-9548.656652,76.609550
486.412785,296.082377,-9474.636058,383.047749
486.413113,-370.102971,-7994.224174,1072.533697
486.413440,1036.288319,-7179.997637,2298.286494
486.413768,3256.906145,-8438.347739,2451.505594
486.414096,4145.153275,-11103.089130,1838.629195
486.414423,2368.659014,-12435.459826,995.924147
486.414751,-222.061783,-11325.150913,766.095498
486.415079,-1184.329507,-9548.656652,1149.143247
486.415406,74.020594,-9104.533087,1072.533697
486.415734,2368.659014,-9844.739029,766.095498
486.416062,2590.720797,-10510.924376,0.000000
486.416390,-592.164754,-10140.821405,-842.705048
486.416717,-1924.535449,-7476.080014,-612.876398
486.417045,-1776.494261,-6587.832884,-689.485948
486.417373,-296.082377,-6513.812290,0.000000
486.417700,592.164754,-8364.327145,-766.095498
486.418028,-1554.432478,-9696.697840,-1225.752797
486.418356,-4293.194464,-8956.491898,-1455.581446
486.418684,-5181.441594,-6587.832884,-919.314598
486.419011,-2664.741391,-6365.771101,0.000000
486.419339,518.144159,-7179.997637,-612.876398
486.419667,2442.679609,-8586.388927,-383.047749
486.419994,1628.453072,-9104.533087,-689.485948
486.420322,666.185348,-7994.224174,536.266849
486.420650,1332.370696,-6587.832884,1762.019645
486.420978,2812.782580,-7994.224174,1915.238745
486.421305,3849.070898,-10881.027347,1608.800546
486.421633,2146.597232,-13027.624579,1302.362347
486.421961,-1184.329507,-12361.439231,995.924147
486.422288,-2664.741391,-10362.883188,1149.143247
486.422616,-1110.308913,-9844.739029,1685.410096
486.422944,1036.288319,-10140.821405,1302.362347
486.423271,1924.535449,-11325.150913,612.876398
486.423599,0.000000,-11177.109724,76.609550
486.423927,-2442.679609,-9104.533087,76.609550
486.424255,-2368.659014,-6439.791695,306.438199
486.424582,-888.247130,-6365.771101,612.876398
486.424910,666.185348,-7698.141797,459.657299
486.425238,-592.164754,-9252.574275,-306.438199
486.425565,-3182.885551,-9178.553681,0.000000
486.425893,-4663.297435,-7179.997637,153.219100
486.426221,-4071.132681,-6957.935855,766.095498
486.426549,-1480.411884,-8142.265362,612.876398
486.426876,296.082377,-9844.739029,306.438199
486.427204,74.020594,-10732.986159,383.047749
486.427532,-814.226536,-8956.491898,766.095498
486.427859,0.000000,-7624.121203,1838.629195
486.428187,2072.576638,-7624.121203,2221.676944
486.428515,3997.112087,-9474.636058,1915.238745
486.428843,2886.803174,-11917.315666,1532.190996
486.429170,0.000000,-11473.192101,1072.533697
486.429498,-2220.617826,-10584.944971,1225.752797
486.429826,-1110.308913,-9622.677246,1838.629195
486.430153,666.185348,-10066.800811,1762.019645
486.430481,2072.576638,-11473.192101,1532.190996
486.430809,1036.288319,-12435.459826,1149.143247
486.431136,-1702.473667,-10140.821405,612.876398
486.431464,-2590.720797,-7550.100608,612.876398
486.431792,-1110.308913,-7105.977043,842.705048
486.432120,444.123565,-7920.203579,536.266849
486.432447,74.020594,-9326.594869,-383.047749
486.432775,-2664.741391,-9696.697840,-1302.362347
486.433103,-4737.318029,-7772.162391,-919.314598
486.433430,-3775.050304,-6587.832884,-306.438199
486.433758,-962.267725,-7105.977043,-306.438199
486.434086,1184.329507,-8068.244768,-995.924147
486.434413,814.226536,-9252.574275,-842.705048
486.434741,-222.061783,-9030.512492,0.000000
486.435069,-148.041188,-7476.080014,383.047749
486.435396,1554.432478,-7846.182985,1608.800546
486.435724,3478.967927,-9622.677246,1915.238745
486.436052,2960.823768,-11547.212695,1225.752797
486.436379,592.164754,-12361.439231,536.266849
486.436707,-1850.514855,-10584.944971,689.485948
486.437035,-740.205942,-9030.512492,1608.800546
486.437362,1480.411884,-9252.574275,1685.410096
486.437690,3034.844362,-10214.842000,1378.971896
486.438018,1702.473667,-11621.233289,383.047749
486.438345,-444.123565,-9548.656652,153.219100
486.438673,-2220.617826,-7624.121203,306.438199
486.439001,-814.226536,-6735.874072,842.705048
486.439328,592.164754,-7328.038826,842.705048
486.439656,0.000000,-9474.636058,-153.219100
486.439984,-2886.803174,-10066.800811,-842.705048
486.440311,-5403.503377,-8364.327145,-689.485948
486.440639,-5107.421000,-6735.874072,-383.047749
486.440967,-2146.597232,-6513.812290,0.000000
486.441294,444.123565,-7772.162391,76.609550
486.441622,814.226536,-8882.471304,-383.047749
486.441950,-296.082377,-8438.347739,0.000000
486.442277,-1036.288319,-6513.812290,459.657299
486.442605,740.205942,-6439.791695,1685.410096
486.442932,2516.700203,-7772.162391,2221.676944
486.443260,3552.988522,-10436.903782,1762.019645
486.443588,1332.370696,-11547.212695,1532.190996
486.443915,-666.185348,-10732.986159,1762.019645
486.444243,-888.247130,-9474.636058,2451.505594
486.444571,518.144159,-9030.512492,2528.115143
486.444898,2664.741391,-10584.944971,2068.457845
486.445226,1702.473667,-11769.274478,1378.971896
486.445554,-814.226536,-10807.006753,459.657299
486.445881,-2368.659014,-8438.347739,919.314598
486.446209,-1406.391290,-6957.935855,919.314598
486.446537,-222.061783,-7402.059420,383.047749
486.446864,148.041188,-9326.594869,-306.438199
486.447192,-2294.638420,-10066.800811,-766.095498
486.447520,-5181.441594,-9178.553681,-1455.581446
486.447847,-5255.462188,-7624.121203,-766.095498
486.448175,-3108.864956,-7031.956449,-612.876398
486.448503,0.000000,-8438.347739,0.000000
486.448830,1776.494261,-9992.780217,-229.828649
486.449158,0.000000,-10214.842000,-229.828649
486.449486,-740.205942,-8438.347739,536.266849
486.449813,740.205942,-7624.121203,1762.019645
486.450141,2812.782580,-8808.450710,1991.848295
486.450469,3775.050304,-10881.027347,1608.800546
486.450796,2368.659014,-12435.459826,1302.362347
486.451124,-296.082377,-11399.171507,1225.752797
486.451452,-740.205942,-9696.697840,2145.067394
486.451779,666.185348,-8808.450710,2221.676944
486.452107,2294.638420,-10140.821405,1608.800546
486.452434,1924.535449,-11769.274478,536.266849
486.452762,-296.082377,-11621.233289,153.219100
486.453090,-2516.700203,-9104.533087,153.219100
486.453417,-1406.391290,-6957.935855,229.828649
486.453745,-296.082377,-7624.121203,842.705048
486.454073,296.082377,-9252.574275,153.219100
486.454400,-2146.597232,-10362.883188,-689.485948
486.454728,-4885.359217,-8956.491898,-1072.533697
486.455056,-6143.709319,-6587.832884,-1532.190996
486.455383,-4589.276840,-6143.709319,-689.485948
486.455711,-1258.350101,-6957.935855,-842.705048
486.456039,0.000000,-8512.368333,-766.095498
486.456366,-370.102971,-8438.347739,-842.705048
486.456694,-1332.370696,-6661.853478,0.000000
486.457022,296.082377,-5699.585753,1072.533697
486.457349,2664.741391,-6661.853478,1302.362347
486.457677,4219.173869,-9326.594869,1608.800546
486.458005,3256.906145,-11029.068536,995.924147
486.458332,148.041188,-11325.150913,1532.190996
486.458660,-666.185348,-9992.780217,1149.143247
486.458988,444.123565,-9400.615463,2068.457845
486.459315,2738.761985,-10140.821405,1762.019645
486.459643,3256.906145,-11695.253884,1072.533697
486.459971,1702.473667,-11473.192101,689.485948
486.460298,-370.102971,-9104.533087,306.438199
486.460626,-1406.391290,-7550.100608,689.485948
486.460954,666.185348,-7476.080014,766.095498
486.461281,1110.308913,-9030.512492,459.657299
486.461609,-740.205942,-10288.862594,-383.047749
486.461937,-3627.009116,-9474.636058,-995.924147
486.462264,-5329.482782,-7772.162391,-612.876398
486.462592,-4145.153275,-7031.956449,-153.219100
486.462919,-814.226536,-7772.162391,0.000000
486.463247,666.185348,-9326.594869,-229.828649
486.463575,0.000000,-9992.780217,-153.219100
486.463902,-1184.329507,-8734.430116,383.047749
486.464230,-814.226536,-7179.997637,995.924147
486.464558,1184.329507,-7402.059420,2068.457845
486.464885,2886.803174,-9474.636058,1991.848295
486.465213,2220.617826,-11695.253884,1455.581446
486.465541,74.020594,-12435.459826,995.924147
486.465868,-1628.453072,-10658.965565,1455.581446
486.466196,-666.185348,-9400.615463,2145.067394
486.466524,1480.411884,-10140.821405,1838.629195
486.466851,2664.741391,-11843.295072,1762.019645
486.467179,1258.350101,-12509.480420,766.095498
486.467507,-1184.329507,-10807.006753,459.657299
486.467834,-1628.453072,-8882.471304,1302.362347
486.468162,-148.041188,-8586.388927,1225.752797
486.468490,74.020594,-9918.759623,766.095498
486.468817,-592.164754,-11177.109724,0.000000
486.469145,-3330.926739,-11325.150913,-536.266849
486.469473,-5625.565159,-8808.450710,-689.485948
486.469800,-4219.173869,-7328.038826,-306.438199
486.470128,-1480.411884,-7698.141797,0.000000
486.470456,962.267725,-8142.265362,-306.438199
486.470783,814.226536,-8956.491898,-536.266849
486.471111,-296.082377,-7624.121203,-306.438199
486.471439,-370.102971,-5773.606348,536.266849
486.471766,1554.432478,-5921.647536,1225.752797
486.472094,3997.112087,-8364.327145,1685.410096
486.472422,3775.050304,-10362.883188,1225.752797
486.472749,1480.411884,-11177.109724,1149.143247
486.473077,-888.247130,-9844.739029,1455.581446
486.473404,-740.205942,-9326.594869,1991.848295
486.473732,962.267725,-9252.574275,1991.848295
486.474060,1924.535449,-10584.944971,1072.533697
486.474387,1628.453072,-11103.089130,459.657299
486.474715,-296.082377,-9474.636058,0.000000
486.475043,-1110.308913,-6957.935855,306.438199
486.475370,-222.061783,-6291.750507,766.095498
486.475698,1184.329507,-7402.059420,919.314598
486.476026,370.102971,-9326.594869,-229.828649
486.476353,-2886.803174,-9548.656652,-995.924147
486.476681,-5181.441594,-8216.285956,-1149.143247
486.477009,-5181.441594,-6365.771101,-766.095498
486.477336,-2146.597232,-6439.791695,-689.485948
486.477664,0.000000,-7624.121203,-919.314598
486.477992,148.041188,-8882.471304,-612.876398
486.478319,-1184.329507,-8142.265362,-383.047749
486.478647,-1554.432478,-6217.729913,0.000000
486.478975,296.082377,-5773.606348,1378.971896
486.479302,2886.803174,-7476.080014,1225.752797
486.479630,3330.926739,-9770.718434,919.314598
486.479958,1998.556043,-10658.965565,919.314598
486.480285,-222.061783,-9622.677246,1378.971896
486.480613,0.000000,-8808.450710,1915.238745
486.480941,1332.370696,-9252.574275,1838.629195
486.481268,2664.741391,-10807.006753,1302.362347
486.481596,2294.638420,-11843.295072,1072.533697
486.481924,148.041188,-11251.130318,383.047749
486.482251,-1184.329507,-9104.533087,1225.752797
486.482579,666.185348,-7772.162391,1685.410096
486.482907,1628.453072,-9030.512492,1685.410096
486.483234,1036.288319,-10510.924376,1072.533697
486.483562,-1480.411884,-11399.171507,0.000000
486.483889,-4737.318029,-9770.718434,-459.657299
486.484217,-5921.647536,-7994.224174,-153.219100
486.484545,-3923.091493,-7624.121203,0.000000
486.484872,-2072.576638,-8660.409521,-229.828649
486.485200,-1332.370696,-9918.759623,-766.095498
486.485528,-2442.679609,-9178.553681,-689.485948
486.485855,-2664.741391,-7179.997637,-383.047749
486.486183,-1258.350101,-6143.709319,766.095498
486.486511,1184.329507,-7772.162391,995.924147
486.486838,1998.556043,-10140.821405,766.095498
486.487166,444.123565,-11843.295072,459.657299
486.487494,-1628.453072,-11177.109724,536.266849
486.487821,-2368.659014,-9770.718434,1072.533697
486.488149,0.000000,-9696.697840,1685.410096
486.488477,2368.659014,-10658.965565,1838.629195
486.488804,3034.844362,-11695.253884,1378.971896
486.489132,1850.514855,-11473.192101,995.924147
486.489460,444.123565,-9252.574275,1225.752797
486.489787,592.164754,-7846.182985,2068.457845
486.490115,1850.514855,-8512.368333,2068.457845
486.490443,1332.370696,-10140.821405,1072.533697
486.490770,-740.205942,-11251.130318,306.438199
486.491098,-3404.947333,-9548.656652,76.609550
486.491426,-4663.297435,-7772.162391,0.000000
486.491753,-3034.844362,-7476.080014,76.609550
486.492081,-666.185348,-8290.306550,0.000000
486.492409,0.000000,-9178.553681,-383.047749
486.492736,-740.205942,-8586.388927,-689.485948
486.493064,-2368.659014,-7105.977043,-1302.362347
486.493392,-888.247130,-6291.750507,229.828649
486.493719,1332.370696,-6957.935855,689.485948
486.494047,2812.782580,-8956.491898,689.485948
486.494374,1702.473667,-10362.883188,612.876398
486.494702,-666.185348,-10140.821405,689.485948
486.495030,-2220.617826,-9030.512492,1225.752797
486.495357,-962.267725,-8734.430116,1455.581446
486.495685,1110.308913,-9622.677246,1225.752797
486.496013,2368.659014,-10955.047942,1072.533697
486.496340,2220.617826,-10955.047942,1225.752797
486.496668,444.123565,-9400.615463,1072.533697
486.496996,148.041188,-7476.080014,1378.971896
486.497323,1332.370696,-7624.121203,1685.410096
486.497651,1480.411884,-9326.594869,1149.143247
486.497979,0.000000,-11251.130318,689.485948
486.498306,-2812.782580,-9770.718434,-689.485948
486.498634,-4737.318029,-8216.285956,-612.876398
486.498962,-3627.009116,-7328.038826,-229.828649
486.499289,-962.267725,-7624.121203,0.000000
486.499617,296.082377,-8734.430116,-612.876398
486.499945,-296.082377,-8734.430116,-919.314598
486.500272,-1702.473667,-7328.038826,-766.095498
486.500600,-1554.432478,-6143.709319,0.000000
486.500928,222.061783,-6735.874072,842.705048
486.501255,2294.638420,-8734.430116,919.314598
486.501583,2368.659014,-9918.759623,1072.533697
486.501911,74.020594,-10732.986159,383.047749
486.502238,-1332.370696,-9548.656652,995.924147
486.502566,-740.205942,-9252.574275,1608.800546
486.502894,1258.350101,-9918.759623,1685.410096
486.503221,2738.761985,-10955.047942,229.828649
486.503549,1702.473667,-11399.171507,766.095498
486.503876,74.020594,-10140.821405,536.266849
486.504204,-148.041188,-8734.430116,1225.752797
486.504532,1184.329507,-8364.327145,1608.800546
486.504859,1184.329507,-9326.594869,536.266849
486.505187,0.000000,-11251.130318,229.828649
486.505515,-2960.823768,-11399.171507,-612.876398
486.505842,-5107.421000,-9548.656652,-766.095498
486.506170,-4515.256246,-8438.347739,-229.828649
486.506498,-2368.659014,-8660.409521,153.219100
486.506825,0.000000,-9548.656652,-153.219100
486.507153,-222.061783,-9770.718434,-842.705048
486.507481,-1628.453072,-8512.368333,-766.095498
486.507808,-1480.411884,-6735.874072,229.828649
486.508136,-222.061783,-7105.977043,459.657299
486.508464,1776.494261,-8216.285956,1072.533697
486.508791,2146.597232,-10510.924376,612.876398
486.509119,0.000000,-10807.006753,153.219100
486.509447,-1258.350101,-9992.780217,766.095498
486.509774,-740.205942,-8808.450710,1149.143247
486.510102,1998.556043,-8808.450710,919.314598
486.510430,3256.906145,-10214.842000,1225.752797
486.510757,2590.720797,-11029.068536,459.657299
486.511085,962.267725,-9992.780217,612.876398
486.511413,0.000000,-8734.430116,1302.362347
486.511740,740.205942,-8512.368333,1762.019645
486.512068,1184.329507,-9252.574275,1838.629195
486.512396,1258.350101,-10510.924376,919.314598
486.512723,-1184.329507,-11103.089130,76.609550
486.513051,-3627.009116,-9474.636058,153.219100
486.513379,-3849.070898,-7846.182985,229.828649
486.513706,-2220.617826,-7698.141797,612.876398
486.514034,-296.082377,-8142.265362,0.000000
486.514361,-148.041188,-9178.553681,-459.657299
486.514689,-1850.514855,-7920.203579,-459.657299
486.515017,-2072.576638,-6217.729913,229.828649
486.515344,0.000000,-5403.503377,919.314598
486.515672,888.247130,-7105.977043,1225.752797
486.516000,888.247130,-9104.533087,612.876398
486.516327,-962.267725,-10584.944971,306.438199
486.516655,-3108.864956,-9548.656652,459.657299
486.516983,-2516.700203,-8734.430116,612.876398
486.517310,-444.123565,-8660.409521,1302.362347
486.517638,2072.576638,-9770.718434,1532.190996
486.517966,2442.679609,-10584.944971,995.924147
486.518293,962.267725,-9770.718434,842.705048
486.518621,0.000000,-7920.203579,1225.752797
486.518949,518.144159,-7624.121203,1762.019645
486.519276,1628.453072,-8956.491898,1532.190996
486.519604,1110.308913,-10658.965565,995.924147
486.519932,-888.247130,-11399.171507,459.657299
486.520259,-2664.741391,-9844.739029,153.219100
486.520587,-3108.864956,-7550.100608,536.266849
486.520915,-962.267725,-7994.224174,919.314598
486.521242,740.205942,-8512.368333,612.876398
486.521570,518.144159,-9548.656652,0.000000
486.521898,-1184.329507,-9104.533087,-306.438199
486.522225,-2146.597232,-7105.977043,689.485948
486.522553,-962.267725,-6735.874072,306.438199
486.522881,814.226536,-7772.162391,689.485948
486.523208,1258.350101,-9474.636058,383.047749
486.523536,0.000000,-10584.944971,0.000000
486.523864,-2220.617826,-10732.986159,0.000000
486.524191,-2590.720797,-9030.512492,459.657299
486.524519,-1554.432478,-8808.450710,306.438199
486.524846,592.164754,-9844.739029,612.876398
486.525174,1776.494261,-10881.027347,0.000000
486.525502,814.226536,-10658.965565,76.609550
486.525829,222.061783,-8364.327145,612.876398
486.526157,444.123565,-7846.182985,1149.143247
486.526485,1998.556043,-8734.430116,1225.752797
486.526812,2220.617826,-9918.759623,306.438199
486.527140,518.144159,-11177.109724,0.000000
486.527468,-2368.659014,-10436.903782,459.657299
486.527795,-3034.844362,-8586.388927,459.657299
486.528123,-1110.308913,-8290.306550,919.314598
486.528451,518.144159,-8956.491898,1455.581446
486.528778,1554.432478,-9548.656652,766.095498
486.529106,74.020594,-9622.677246,153.219100
486.529434,-1554.432478,-7698.141797,76.609550
486.529761,-1184.329507,-6809.894666,919.314598
486.530089,370.102971,-7476.080014,1225.752797
486.530417,1406.391290,-8808.450710,842.705048
486.530744,518.144159,-10214.842000,1149.143247
486.531072,-1924.535449,-9770.718434,0.000000
486.531400,-3108.864956,-8364.327145,536.266849
486.531727,-1850.514855,-8068.244768,612.876398
486.532055,0.000000,-8956.491898,536.266849
486.532383,1184.329507,-9918.759623,459.657299
486.532710,0.000000,-10140.821405,842.705048
486.533038,-1480.411884,-8734.430116,612.876398
486.533365,-1036.288319,-7550.100608,1149.143247
486.533693,592.164754,-8068.244768,1302.362347
486.534021,1628.453072,-9474.636058,995.924147
486.534348,666.185348,-10732.986159,306.438199
486.534676,-1776.494261,-10214.842000,0.000000
486.535004,-3108.864956,-8438.347739,229.828649
486.535331,-1628.453072,-7994.224174,919.314598
486.535659,0.000000,-8142.265362,536.266849
486.535987,1554.432478,-9178.553681,766.095498
486.536314,370.102971,-9696.697840,229.828649
486.536642,-1110.308913,-8216.285956,76.609550
486.536969,-962.267725,-7031.956449,766.095498
486.537297,1036.288319,-7550.100608,1455.581446
486.537625,2146.597232,-9326.594869,1762.019645
486.537952,1406.391290,-10288.862594,995.924147
486.538280,-1406.391290,-10881.027347,689.485948
486.538608,-2886.803174,-9844.739029,536.266849
486.538935,-2220.617826,-9252.574275,919.314598
486.539263,74.020594,-9178.553681,1225.752797
486.539591,1406.391290,-9992.780217,459.657299
486.539918,814.226536,-10510.924376,76.609550
486.540246,-962.267725,-9252.574275,0.000000
486.540573,-1184.329507,-7402.059420,459.657299
486.540901,0.000000,-7550.100608,689.485948
486.541229,1406.391290,-8808.450710,1302.362347
486.541556,666.185348,-10436.903782,0.000000
486.541884,-1480.411884,-10510.924376,0.000000
486.542212,-3330.926739,-9178.553681,0.000000
486.542539,-2590.720797,-8438.347739,306.438199
486.542867,-518.144159,-8734.430116,842.705048
486.543195,1332.370696,-9918.759623,76.609550
486.543522,518.144159,-10510.924376,0.000000
486.543850,-814.226536,-9400.615463,0.000000
486.544177,-888.247130,-7698.141797,306.438199
486.544505,1184.329507,-7476.080014,842.705048
486.544833,2812.782580,-9178.553681,1072.533697
486.545160,1702.473667,-10510.924376,459.657299
486.545488,-370.102971,-10807.006753,76.609550
486.545816,-2664.741391,-9474.636058,0.000000
486.546143,-2442.679609,-8438.347739,842.705048
486.546471,74.020594,-8808.450710,229.828649
486.546799,1998.556043,-9992.780217,459.657299
486.547126,1406.391290,-10288.862594,153.219100
486.547454,-296.082377,-9622.677246,536.266849
486.547781,-1184.329507,-7920.203579,995.924147
486.548109,0.000000,-7254.018232,1685.410096
486.548437,1332.370696,-8438.347739,1149.143247
486.548764,962.267725,-10362.883188,536.266849
486.549092,-1110.308913,-10584.944971,383.047749
486.549420,-3256.906145,-9030.512492,459.657299
486.549747,-3182.885551,-7698.141797,1455.581446
486.550075,0.000000,-7846.182985,1225.752797
486.550403,888.247130,-9030.512492,689.485948
486.550730,888.247130,-10140.821405,153.219100
486.551058,-592.164754,-9326.594869,536.266849
486.551385,-962.267725,-7328.038826,919.314598
486.551713,296.082377,-7476.080014,1378.971896
486.552041,1628.453072,-8734.430116,1762.019645
486.552368,1184.329507,-10362.883188,842.705048
486.552696,-296.082377,-10732.986159,842.705048
486.553024,-2590.720797,-9622.677246,689.485948
486.553351,-2664.741391,-8364.327145,995.924147
486.553679,-1036.288319,-8734.430116,1455.581446
486.554007,740.205942,-9400.615463,766.095498
486.554334,1406.391290,-9918.759623,383.047749
486.554662,-592.164754,-9326.594869,153.219100
486.554989,-1110.308913,-7550.100608,1608.800546
486.555317,-666.185348,-7105.977043,919.314598
486.555645,1184.329507,-8142.265362,1149.143247
486.555972,1480.411884,-9252.574275,536.266849
486.556300,0.000000,-10214.842000,229.828649
486.556628,-2590.720797,-9326.594869,0.000000
486.556955,-2442.679609,-8290.306550,0.000000
486.557283,-1184.329507,-8512.368333,766.095498
486.557611,666.185348,-9474.636058,766.095498
486.557938,1110.308913,-10584.944971,383.047749
486.558266,0.000000,-9770.718434,766.095498
486.558593,-740.205942,-8586.388927,536.266849
486.558921,148.041188,-7846.182985,1302.362347
486.559249,1776.494261,-8512.368333,1225.752797
486.559576,2590.720797,-9844.739029,919.314598
486.559904,1036.288319,-10510.924376,229.828649
486.560232,-1258.350101,-9844.739029,459.657299
486.560559,-2516.700203,-8882.471304,229.828649
486.560887,-1184.329507,-8512.368333,459.657299
486.561215,444.123565,-9400.615463,612.876398
486.561542,666.185348,-10066.800811,153.219100
486.561870,-1036.288319,-9548.656652,-1225.752797
486.562197,-2072.576638,-8216.285956,-153.219100
486.562525,-1406.391290,-7254.018232,153.219100
486.562853,296.082377,-7846.182985,689.485948
486.563180,1406.391290,-9104.533087,229.828649
486.563508,148.041188,-10288.862594,0.000000
486.563836,-1850.514855,-9844.739029,-383.047749
486.564163,-3330.926739,-8808.450710,-383.047749
486.564491,-1850.514855,-8734.430116,459.657299
486.564819,518.144159,-9326.594869,229.828649
486.565146,1406.391290,-9770.718434,459.657299
486.565474,1110.308913,-9844.739029,76.609550
486.565802,0.000000,-8734.430116,229.828649
486.566129,296.082377,-7550.100608,919.314598
486.566457,1554.432478,-7846.182985,1455.581446
486.566784,2368.659014,-9400.615463,1302.362347
486.567112,1258.350101,-10732.986159,306.438199
486.567440,-1554.432478,-10658.965565,459.657299
486.567767,-3256.906145,-9178.553681,306.438199
486.568095,-1924.535449,-8660.409521,919.314598
486.568423,222.061783,-9104.533087,766.095498
486.568750,740.205942,-9622.677246,536.266849
486.569078,148.041188,-10436.903782,0.000000
486.569406,-1924.535449,-8808.450710,0.000000
486.569733,-1776.494261,-7254.018232,229.828649
486.570061,74.020594,-7698.141797,612.876398
486.570388,1480.411884,-8290.306550,1225.752797
486.570716,888.247130,-10066.800811,306.438199
486.571044,-1184.329507,-9992.780217,459.657299
486.571371,-3182.885551,-9030.512492,536.266849
486.571699,-2220.617826,-8660.409521,1149.143247
486.572027,-444.123565,-9326.594869,1072.533697
486.572354,1036.288319,-10066.800811,1072.533697
486.572682,740.205942,-10362.883188,459.657299
486.573010,-370.102971,-9030.512492,766.095498
486.573337,222.061783,-7105.977043,1455.581446
486.573665,2368.659014,-7105.977043,1915.238745
486.573992,3552.988522,-8586.388927,2298.286494
486.574320,1406.391290,-9918.759623,1378.971896
486.574648,-1480.411884,-10436.903782,536.266849
486.574975,-3552.988522,-9252.574275,536.266849
486.575303,-3108.864956,-8586.388927,612.876398
486.575631,-814.226536,-8882.471304,1072.533697
486.575958,592.164754,-9474.636058,689.485948
486.576286,-444.123565,-10140.821405,306.438199
486.576614,-2146.597232,-9252.574275,76.609550
486.576941,-2368.659014,-7328.038826,229.828649
486.577269,-962.267725,-6883.915261,612.876398
486.577596,814.226536,-7994.224174,153.219100
486.577924,370.102971,-9474.636058,-459.657299
486.578252,-1554.432478,-10066.800811,-383.047749
486.578579,-3108.864956,-8734.430116,0.000000
486.578907,-2368.659014,-7920.203579,689.485948
486.579235,148.041188,-8438.347739,459.657299
486.579562,1554.432478,-9844.739029,306.438199
486.579890,1332.370696,-10436.903782,-229.828649
486.580218,148.041188,-9474.636058,459.657299
486.580545,148.041188,-8216.285956,919.314598
486.580873,1702.473667,-7920.203579,1455.581446
486.581200,3182.885551,-9252.574275,1762.019645
486.581528,2442.679609,-10658.965565,919.314598
486.581856,0.000000,-10955.047942,306.438199
486.582183,-2368.659014,-9548.656652,153.219100
486.582511,-2368.659014,-8438.347739,842.705048
486.582839,-518.144159,-8734.430116,842.705048
486.583166,1480.411884,-9548.656652,306.438199
486.583494,592.164754,-10362.883188,0.000000
486.583822,-1258.350101,-9622.677246,-153.219100
486.584149,-1924.535449,-7920.203579,229.828649
486.584477,-1110.308913,-7402.059420,766.095498
486.584804,666.185348,-8290.306550,153.219100
486.585132,444.123565,-9844.739029,76.609550
486.585460,-1628.453072,-10510.924376,-536.266849
486.585787,-3627.009116,-9400.615463,-995.924147
486.586115,-3330.926739,-7624.121203,383.047749
486.586443,-740.205942,-7772.162391,76.609550
486.586770,1702.473667,-8586.388927,306.438199
486.587098,1998.556043,-9548.656652,306.438199
486.587426,962.267725,-8956.491898,536.266849
486.587753,518.144159,-7846.182985,1762.019645
486.588081,1332.370696,-7402.059420,2068.457845
486.588408,2664.741391,-8586.388927,2298.286494
486.588736,2812.782580,-10436.903782,2068.457845
486.589064,1110.308913,-11399.171507,1532.190996
486.589391,-1110.308913,-10362.883188,1762.019645
486.589719,-1776.494261,-8734.430116,1455.581446
486.590047,-1036.288319,-9326.594869,1838.629195
486.590374,888.247130,-10066.800811,1149.143247
486.590702,148.041188,-10658.965565,229.828649
486.591030,-1628.453072,-9474.636058,0.000000
486.591357,-2368.659014,-7772.162391,383.047749
486.591685,-1850.514855,-6957.935855,459.657299
486.592012,-444.123565,-7772.162391,689.485948
486.592340,74.020594,-8882.471304,0.000000
486.592668,-2146.597232,-9770.718434,-612.876398
486.592995,-4145.153275,-8956.491898,-612.876398
486.593323,-4737.318029,-7846.182985,-612.876398
486.593651,-2516.700203,-7698.141797,153.219100
486.593978,370.102971,-8734.430116,306.438199
486.594306,1554.432478,-9622.677246,536.266849
486.594634,1036.288319,-9252.574275,842.705048
486.594961,296.082377,-8142.265362,1225.752797
486.595289,1258.350101,-7476.080014,1685.410096
486.595616,2812.782580,-8956.491898,1991.848295
486.595944,3552.988522,-10288.862594,1378.971896
486.596272,2442.679609,-11917.315666,689.485948
486.596599,0.000000,-11029.068536,1225.752797
486.596927,-1332.370696,-9548.656652,1378.971896
486.597255,-592.164754,-9770.718434,1302.362347
486.597582,962.267725,-10436.903782,1149.143247
486.597910,1480.411884,-11547.212695,1149.143247
486.598238,-888.247130,-11029.068536,-306.438199
486.598565,-2294.638420,-9326.594869,0.000000
486.598893,-2072.576638,-7994.224174,229.828649
486.599220,-148.041188,-7920.203579,0.000000
486.599548,296.082377,-9030.512492,0.000000
486.599876,-592.164754,-9696.697840,0.000000
486.600203,-3404.947333,-9400.615463,-766.095498
486.600531,-4515.256246,-7698.141797,-612.876398
486.600859,-3108.864956,-7031.956449,-229.828649
486.601186,-740.205942,-7920.203579,-459.657299
486.601514,814.226536,-8438.347739,-306.438199
486.601842,370.102971,-9696.697840,-306.438199
486.602169,-296.082377,-7920.203579,612.876398
486.602497,518.144159,-6883.915261,1455.581446
486.602824,2368.659014,-7920.203579,1685.410096
486.603152,3182.885551,-9770.718434,1838.629195
486.603480,2146.597232,-11547.212695,1072.533697
486.603807,-296.082377,-11473.192101,1072.533697
486.604135,-1776.494261,-9918.759623,995.924147
486.604463,-592.164754,-9326.594869,1608.800546
486.604790,1332.370696,-9918.759623,1838.629195
486.605118,2294.638420,-10881.027347,1072.533697
486.605446,444.123565,-10658.965565,383.047749
486.605773,-1480.411884,-8882.471304,229.828649
486.606101,-1924.535449,-7328.038826,153.219100
486.606428,-296.082377,-7179.997637,536.266849
486.606756,666.185348,-8512.368333,459.657299
486.607084,-518.144159,-9548.656652,-153.219100
486.607411,-3330.926739,-9474.636058,-612.876398
486.607739,-4663.297435,-7624.121203,-383.047749
486.608067,-3627.009116,-6957.935855,76.609550
486.608394,-592.164754,-7031.956449,689.485948
486.608722,1110.308913,-8290.306550,306.438199
486.609050,666.185348,-8882.471304,536.266849
486.609377,-444.123565,-7698.141797,612.876398
486.609705,-370.102971,-6661.853478,1455.581446
486.610032,1628.453072,-7105.977043,2451.505594
486.610360,3108.864956,-9178.553681,1991.848295
486.610688,2220.617826,-11103.089130,1455.581446
486.611015,222.061783,-10955.047942,1608.800546
486.611343,-1702.473667,-9548.656652,1532.190996
486.611671,-962.267725,-8734.430116,2145.067394
486.611998,888.247130,-9992.780217,1762.019645
486.612326,1702.473667,-10881.027347,1225.752797
486.612654,222.061783,-11103.089130,459.657299
486.612981,-1924.535449,-9326.594869,229.828649
486.613309,-2368.659014,-7624.121203,459.657299
486.613637,-740.205942,-7179.997637,842.705048
486.613964,814.226536,-8512.368333,689.485948
486.614292,-148.041188,-9770.718434,229.828649
486.614619,-2738.761985,-9992.780217,-459.657299
486.614947,-4811.338623,-7994.224174,-459.657299
486.615275,-4219.173869,-6661.853478,0.000000
486.615602,-1332.370696,-7402.059420,0.000000
486.615930,888.247130,-8586.388927,229.828649
486.616258,370.102971,-9030.512492,76.609550
486.616585,-518.144159,-8290.306550,0.000000
486.616913,-666.185348,-6587.832884,995.924147
486.617241,888.247130,-6883.915261,1149.143247
486.617568,2664.741391,-9030.512492,1532.190996
486.617896,2960.823768,-11399.171507,995.924147
486.618223,592.164754,-12065.356855,1072.533697
486.618551,-1406.391290,-11029.068536,1455.581446
486.618879,-1258.350101,-9622.677246,1532.190996
486.619206,740.205942,-10584.944971,1455.581446
486.619534,1776.494261,-11769.274478,1072.533697
486.619862,1184.329507,-12065.356855,153.219100
486.620189,-1702.473667,-10658.965565,-383.047749
486.620517,-2368.659014,-8216.285956,229.828649
486.620845,-1776.494261,-7402.059420,-383.047749
486.621172,296.082377,-7994.224174,0.000000
486.621500,222.061783,-9104.533087,-766.095498
486.621827,-2368.659014,-9844.739029,-1378.971896
486.622155,-4811.338623,-8512.368333,-1455.581446
486.622483,-4515.256246,-7328.038826,-1532.190996
486.622810,-1776.494261,-7476.080014,-842.705048
486.623138,1406.391290,-8512.368333,-229.828649
486.623466,1998.556043,-9622.677246,0.000000
486.623793,1332.370696,-9400.615463,842.705048
486.624121,518.144159,-7772.162391,1149.143247
486.624449,2146.597232,-7920.203579,1915.238745
486.624776,4071.132681,-8808.450710,1991.848295
486.625104,5033.400406,-11103.089130,2374.896044
486.625431,3256.906145,-11843.295072,2451.505594
486.625759,1776.494261,-10955.047942,2374.896044
486.626087,148.041188,-9474.636058,2604.724693
486.626414,1998.556043,-9474.636058,3140.991542
486.626742,3552.988522,-10658.965565,2834.553343
486.627070,2220.617826,-11991.336260,2068.457845
486.627397,-370.102971,-11399.171507,1532.190996
486.627725,-2886.803174,-8882.471304,1378.971896
486.628053,-1998.556043,-7550.100608,2451.505594
486.628380,0.000000,-7476.080014,2451.505594
486.628708,1036.288319,-8734.430116,2757.943793
486.629035,-1628.453072,-9178.553681,2451.505594
486.629363,-5181.441594,-8660.409521,1378.971896
486.629691,-7328.038826,-7328.038826,1149.143247
486.630018,-5921.647536,-6957.935855,1455.581446
486.630346,-2812.782580,-7179.997637,1302.362347
486.630674,-666.185348,-7698.141797,995.924147
486.631001,-1554.432478,-7920.203579,2221.676944
486.631329,-3256.906145,-7105.977043,1762.019645
486.631657,-3182.885551,-6587.832884,2068.457845
486.631984,-370.102971,-7402.059420,2374.896044
486.632312,2886.803174,-8956.491898,2528.115143
486.632639,3849.070898,-9918.759623,2681.334243
486.632967,2220.617826,-10881.027347,3370.820191
486.633295,0.000000,-10807.006753,3830.477490
486.633623,222.061783,-10510.924376,4213.525239
486.633950,2368.659014,-10732.986159,4136.915689
486.634278,4589.276840,-11177.109724,3907.087040
486.634605,4663.297435,-10955.047942,4443.353888
486.634933,1998.556043,-10510.924376,4060.306139
486.635260,-444.123565,-9622.677246,4136.915689
486.635588,-666.185348,-9474.636058,3140.991542
486.635915,222.061783,-9030.512492,3294.210641
486.636243,2960.823768,-8364.327145,2834.553343
486.636570,2072.576638,-7624.121203,3600.648841
486.636898,0.000000,-7772.162391,4213.525239
486.637225,-2886.803174,-8290.306550,3600.648841
486.637553,-4885.359217,-9918.759623,2068.457845
486.637880,-5033.400406,-9696.697840,842.705048
486.638208,-4145.153275,-9252.574275,766.095498
486.638535,-2368.659014,-8216.285956,1532.190996
486.638863,-1480.411884,-7105.977043,2757.943793
486.639190,-888.247130,-7846.182985,3370.820191
486.639518,-1184.329507,-9178.553681,3217.601092
486.639845,-1924.535449,-9992.780217,1762.019645
486.640173,-3330.926739,-9770.718434,842.705048
486.640500,-3256.906145,-9326.594869,842.705048
486.640828,-814.226536,-8660.409521,2451.505594
486.641155,2516.700203,-8216.285956,4596.572988
486.641483,5329.482782,-9474.636058,5745.716235
486.641810,5477.523971,-9992.780217,5898.935335
486.642138,3108.864956,-10140.821405,5286.058936
486.642465,-148.041188,-10807.006753,4290.134789
486.642793,-1628.453072,-10955.047942,3677.258390
486.643120,-1036.288319,-10807.006753,3217.601092
486.643448,1776.494261,-10214.842000,4290.134789
486.643775,4737.318029,-8660.409521,5898.935335
486.644103,4515.256246,-7698.141797,6435.202183
486.644430,3256.906145,-8142.265362,6665.030833
486.644758,-592.164754,-8808.450710,4673.182538
486.645085,-4145.153275,-10066.800811,2604.724693
486.645413,-5329.482782,-10140.821405,1149.143247
486.645740,-5033.400406,-9400.615463,995.924147
486.646068,-3478.967927,-8216.285956,2374.896044
486.646395,148.041188,-7105.977043,4136.915689
486.646723,1628.453072,-7179.997637,5132.839837
486.647050,1184.329507,-7624.121203,4979.620737
486.647378,-962.267725,-7994.224174,4290.134789
486.647705,-3923.091493,-9030.512492,2681.334243
486.648033,-5625.565159,-9918.759623,1608.800546
486.648360,-5847.626942,-10140.821405,919.314598
486.648688,-3997.112087,-9844.739029,1455.581446
486.649015,-592.164754,-8512.368333,2757.943793
486.649343,1702.473667,-7328.038826,3983.696590
486.649671,3330.926739,-6587.832884,4903.011187
486.649998,3108.864956,-7179.997637,3907.087040
486.650326,1998.556043,-8808.450710,2911.162892
486.650653,740.205942,-9992.780217,2145.067394
486.650981,0.000000,-10214.842000,1991.848295
486.651308,592.164754,-10436.903782,2757.943793
486.651636,1036.288319,-9844.739029,3064.381992
486.651963,1332.370696,-10288.862594,3983.696590
486.652291,1924.535449,-10066.800811,3907.087040
486.652618,2072.576638,-9622.677246,3907.087040
486.652946,592.164754,-9400.615463,2834.553343
486.653273,518.144159,-8438.347739,2451.505594
486.653601,962.267725,-8290.306550,2451.505594
486.653928,740.205942,-8882.471304,2604.724693
486.654256,1850.514855,-8734.430116,3447.429741
486.654583,1924.535449,-8512.368333,3830.477490
486.654911,814.226536,-8364.327145,4366.744339
486.655238,962.267725,-9104.533087,3907.087040
486.655566,-1258.350101,-9548.656652,3830.477490
486.655893,-2368.659014,-9844.739029,3140.991542
486.656221,-2664.741391,-9622.677246,2911.162892
486.656548,-2220.617826,-9696.697840,3217.601092
486.656876,-1628.453072,-8586.388927,2911.162892
486.657203,-962.267725,-8364.327145,3370.820191
486.657531,-444.123565,-8512.368333,3370.820191
486.657858,0.000000,-8512.368333,3064.381992
486.658186,-1184.329507,-8068.244768,2681.334243
486.658513,-1924.535449,-8438.347739,2681.334243
486.658841,-2294.638420,-8438.347739,2911.162892
486.659168,-2072.576638,-8882.471304,2757.943793
486.659496,-888.247130,-9474.636058,3294.210641
486.659823,296.082377,-9622.677246,3830.477490
486.660151,1110.308913,-9474.636058,4366.744339
486.660478,1036.288319,-9770.718434,4443.353888
486.660806,222.061783,-10066.800811,4290.134789
486.661133,-518.144159,-10214.842000,3907.087040
486.661461,-888.247130,-9992.780217,3294.210641
486.661788,-592.164754,-9178.553681,3524.039291
486.662116,518.144159,-8512.368333,3294.210641
486.662443,518.144159,-8290.306550,3294.210641
486.662771,1258.350101,-8660.409521,3140.991542
486.663098,888.247130,-9104.533087,2987.772442
486.663426,-222.061783,-9696.697840,2681.334243
486.663753,-296.082377,-9696.697840,2451.505594
486.664081,-1184.329507,-9326.594869,2221.676944
486.664408,-1332.370696,-9474.636058,2068.457845
486.664736,-518.144159,-9474.636058,2298.286494
486.665063,-666.185348,-8882.471304,2145.067394
486.665391,-592.164754,-9474.636058,2145.067394
486.665718,-666.185348,-9252.574275,1915.238745
486.666046,-1480.411884,-9104.533087,1455.581446
486.666373,-1036.288319,-8882.471304,1685.410096
486.666701,-666.185348,-8586.388927,1225.752797
486.667028,0.000000,-7846.182985,1072.533697
486.667356,222.061783,-8142.265362,842.705048
486.667683,296.082377,-8216.285956,1378.971896
486.668011,0.000000,-8364.327145,1149.143247
486.668338,0.000000,-9326.594869,1378.971896
486.668666,0.000000,-9622.677246,1608.800546
486.668993,0.000000,-9844.739029,1225.752797
486.669321,370.102971,-9992.780217,1378.971896
486.669649,888.247130,-9622.677246,1608.800546
486.669976,1258.350101,-9474.636058,1455.581446
486.670304,1554.432478,-9474.636058,1838.629195
486.670631,1110.308913,-9252.574275,1608.800546
486.670959,444.123565,-9252.574275,1608.800546
486.671286,-370.102971,-9104.533087,842.705048
486.671614,-962.267725,-9178.553681,842.705048
486.671941,-518.144159,-8882.471304,689.485948
486.672269,-444.123565,-9104.533087,1455.581446
486.672596,-370.102971,-9030.512492,689.485948
486.672924,-370.102971,-8734.430116,612.876398
486.673251,-888.247130,-8364.327145,919.314598
486.673579,-592.164754,-8068.244768,459.657299
486.673906,-444.123565,-8068.244768,229.828649
486.674234,-148.041188,-8808.450710,459.657299
486.674561,-518.144159,-8882.471304,306.438199
486.674889,-518.144159,-8882.471304,842.705048
486.675216,-814.226536,-8734.430116,1149.143247
486.675544,-740.205942,-8660.409521,1455.581446
486.675871,-296.082377,-9030.512492,689.485948
486.676199,0.000000,-8956.491898,842.705048
486.676526,74.020594,-8660.409521,689.485948
486.676854,0.000000,-8660.409521,995.924147
486.677181,-148.041188,-8882.471304,995.924147
486.677509,-222.061783,-9400.615463,919.314598
486.677836,-296.082377,-9770.718434,842.705048
486.678164,-222.061783,-9770.718434,1225.752797
486.678491,-296.082377,-9548.656652,1149.143247
486.678819,-222.061783,-9474.636058,1072.533697
486.679146,74.020594,-9474.636058,536.266849
486.679474,0.000000,-9326.594869,766.095498
486.679801,0.000000,-9326.594869,612.876398
486.680129,-740.205942,-9030.512492,1072.533697
486.680456,-518.144159,-8660.409521,689.485948
486.680784,-1258.350101,-8512.368333,1455.581446
486.681111,-1110.308913,-8882.471304,689.485948
486.681439,-962.267725,-9030.512492,536.266849
486.681766,-888.247130,-9030.512492,383.047749
486.682094,-518.144159,-8808.450710,536.266849
486.682421,-666.185348,-8734.430116,689.485948
486.682749,-148.041188,-9030.512492,459.657299
486.683076,74.020594,-8956.491898,459.657299
486.683404,148.041188,-9178.553681,689.485948
486.683731,0.000000,-9178.553681,306.438199
486.684059,-148.041188,-8956.491898,766.095498
486.684386,74.020594,-9696.697840,612.876398
486.684714,-370.102971,-9844.739029,612.876398
486.685041,-222.061783,-9844.739029,536.266849
486.685369,-222.061783,-9918.759623,536.266849
486.685696,0.000000,-9622.677246,536.266849
486.686024,296.082377,-9326.594869,536.266849
486.686351,222.061783,-9252.574275,612.876398
486.686679,148.041188,-9326.594869,383.047749
486.687006,74.020594,-9252.574275,383.047749
486.687334,0.000000,-9400.615463,536.266849
486.687661,-222.061783,-9104.533087,459.657299
486.687989,-148.041188,-9178.553681,612.876398
486.688316,74.020594,-9178.553681,153.219100
486.688644,0.000000,-9326.594869,536.266849
486.688971,0.000000,-8882.471304,306.438199
486.689299,0.000000,-8068.244768,153.219100
486.689627,74.020594,-8586.388927,76.609550
486.689954,-222.061783,-8438.347739,306.438199
486.690282,-592.164754,-8660.409521,306.438199
486.690609,-666.185348,-8882.471304,153.219100
486.690937,-592.164754,-8734.430116,0.000000
486.691264,-666.185348,-8882.471304,383.047749
486.691592,-814.226536,-8956.491898,76.609550
486.691919,-592.164754,-8956.491898,459.657299
486.692247,-444.123565,-8660.409521,153.219100
486.692574,-444.123565,-8734.430116,383.047749
486.692902,0.000000,-8438.347739,459.657299
486.693229,-666.185348,-8882.471304,383.047749
486.693557,-740.205942,-9104.533087,306.438199
486.693884,-1036.288319,-9252.574275,536.266849
486.694212,-888.247130,-9474.636058,842.705048
486.694539,-888.247130,-9326.594869,1072.533697
486.694867,-740.205942,-9178.553681,612.876398
486.695194,-592.164754,-8956.491898,766.095498
486.695522,-370.102971,-8808.450710,612.876398
486.695849,-296.082377,-8734.430116,383.047749
486.696177,-444.123565,-8586.388927,383.047749
486.696504,-370.102971,-8956.491898,842.705048
486.696832,-518.144159,-9252.574275,842.705048
486.697159,-814.226536,-9474.636058,842.705048
486.697487,-592.164754,-9474.636058,612.876398
486.697814,-296.082377,-9400.615463,1149.143247
486.698142,0.000000,-9178.553681,842.705048
486.698469,0.000000,-9252.574275,536.266849
486.698797,-444.123565,-9030.512492,306.438199
486.699124,-444.123565,-9326.594869,766.095498
486.699452,-592.164754,-9326.594869,612.876398
486.699779,-222.061783,-9548.656652,842.705048
486.700107,-666.185348,-9474.636058,306.438199
486.700434,-666.185348,-9252.574275,689.485948
486.700762,-666.185348,-9252.574275,536.266849
486.701089,-444.123565,-9104.533087,229.828649
486.701417,-148.041188,-8586.388927,766.095498
486.701744,-148.041188,-8734.430116,612.876398
486.702072,-222.061783,-8882.471304,383.047749
486.702399,-296.082377,-9178.553681,383.047749
486.702727,-370.102971,-9326.594869,459.657299
486.703054,-296.082377,-9474.636058,766.095498
486.703382,-296.082377,-9548.656652,689.485948
486.703709,-444.123565,-9474.636058,766.095498
486.704037,-222.061783,-8882.471304,766.095498
486.704364,-296.082377,-8956.491898,536.266849
486.704692,-296.082377,-8734.430116,383.047749
486.705019,-592.164754,-8290.306550,536.266849
486.705347,-518.144159,-8660.409521,306.438199
486.705674,-814.226536,-8882.471304,383.047749
486.706002,-814.226536,-9030.512492,459.657299
486.706329,-814.226536,-8956.491898,459.657299
486.706657,-518.144159,-8734.430116,689.485948
486.706984,74.020594,-8734.430116,229.828649
486.707312,148.041188,-8660.409521,229.828649
486.707639,222.061783,-8586.388927,459.657299
486.707967,148.041188,-8660.409521,383.047749
486.708294,-296.082377,-8882.471304,995.924147
486.708622,0.000000,-9474.636058,612.876398
486.708949,0.000000,-9770.718434,689.485948
486.709277,0.000000,-9548.656652,995.924147
486.709605,370.102971,-9548.656652,766.095498
486.709932,740.205942,-8956.491898,842.705048
486.710260,962.267725,-8808.450710,306.438199
486.710587,370.102971,-8290.306550,306.438199
486.710915,370.102971,-8586.388927,0.000000
486.711242,0.000000,-8660.409521,306.438199
486.711570,0.000000,-9104.533087,383.047749
486.711897,0.000000,-8956.491898,995.924147
486.712225,-222.061783,-9400.615463,689.485948
486.712552,0.000000,-9400.615463,229.828649
486.712880,222.061783,-9252.574275,459.657299
486.713207,296.082377,-8808.450710,306.438199
486.713535,592.164754,-8808.450710,689.485948
486.713862,444.123565,-8956.491898,306.438199
486.714190,222.061783,-9030.512492,536.266849
486.714517,-148.041188,-9400.615463,612.876398
486.714845,-222.061783,-9474.636058,689.485948
486.715172,-296.082377,-9474.636058,766.095498
486.715500,-296.082377,-9400.615463,459.657299
486.715827,-296.082377,-9400.615463,306.438199
486.716155,0.000000,-9252.574275,306.438199
486.716482,0.000000,-8808.450710,229.828649
486.716810,0.000000,-8956.491898,153.219100
486.717137,0.000000,-9178.553681,1149.143247
486.717465,-296.082377,-9474.636058,536.266849
486.717792,-296.082377,-9770.718434,689.485948
486.718120,-296.082377,-9918.759623,919.314598
486.718447,-370.102971,-9918.759623,689.485948
486.718775,-444.123565,-9326.594869,919.314598
486.719102,-518.144159,-9474.636058,306.438199
486.719430,-518.144159,-9252.574275,536.266849
486.719757,-296.082377,-9400.615463,459.657299
486.720085,-518.144159,-9326.594869,459.657299
486.720412,-370.102971,-9178.553681,919.314598
486.720740,-592.164754,-9474.636058,842.705048
486.721067,-370.102971,-9770.718434,919.314598
486.721395,-666.185348,-9474.636058,536.266849
486.721722,-518.144159,-9400.615463,842.705048
486.722050,-222.061783,-9030.512492,919.314598
486.722377,0.000000,-9178.553681,383.047749
486.722705,-444.123565,-9178.553681,459.657299
486.723032,-518.144159,-9252.574275,383.047749
486.723360,-888.247130,-9474.636058,919.314598
486.723687,-370.102971,-9178.553681,229.828649
486.724015,-370.102971,-9252.574275,1455.581446
486.724342,-888.247130,-9030.512492,612.876398
486.724670,-962.267725,-8956.491898,536.266849
486.724997,-592.164754,-8956.491898,306.438199
486.725325,-814.226536,-8808.450710,842.705048
486.725652,-518.144159,-8364.327145,76.609550
486.725980,-666.185348,-8734.430116,536.266849
486.726307,-814.226536,-8808.450710,842.705048
486.726635,-666.185348,-9178.553681,689.485948
486.726962,-592.164754,-8734.430116,459.657299
486.727290,-370.102971,-8364.327145,995.924147
486.727617,-222.061783,-8586.388927,536.266849
486.727945,-518.144159,-8882.471304,612.876398
486.728272,-222.061783,-8808.450710,612.876398
486.728600,-296.082377,-8808.450710,689.485948
486.728927,74.020594,-8734.430116,919.314598
486.729255,-518.144159,-8660.409521,459.657299
486.729583,-222.061783,-8956.491898,612.876398
486.729910,-222.061783,-8882.471304,612.876398
486.730238,-296.082377,-8512.368333,383.047749
486.730565,0.000000,-8586.388927,536.266849
486.730893,0.000000,-8586.388927,689.485948
486.731220,0.000000,-8734.430116,383.047749
486.731548,0.000000,-8660.409521,229.828649
486.731875,0.000000,-8956.491898,536.266849
486.732203,-148.041188,-9030.512492,306.438199
486.732530,74.020594,-8808.450710,919.314598
486.732858,0.000000,-8808.450710,459.657299
486.733185,148.041188,-9030.512492,612.876398
486.733513,0.000000,-8882.471304,383.047749
486.733840,296.082377,-9178.553681,306.438199
486.734168,296.082377,-8882.471304,153.219100
486.734495,370.102971,-9326.594869,536.266849
486.734823,148.041188,-9474.636058,536.266849
486.735151,74.020594,-9400.615463,612.876398
486.735478,74.020594,-9474.636058,459.657299
486.735806,444.123565,-9474.636058,842.705048
486.736133,148.041188,-9400.615463,612.876398
486.736461,222.061783,-9326.594869,536.266849
486.736788,0.000000,-9400.615463,306.438199
486.737116,0.000000,-9178.553681,536.266849
486.737443,0.000000,-9252.574275,536.266849
486.737771,0.000000,-9178.553681,766.095498
486.738098,-148.041188,-9252.574275,459.657299
486.738426,-296.082377,-9178.553681,612.876398
486.738754,-444.123565,-9178.553681,383.047749
486.739081,-444.123565,-9252.574275,612.876398
486.739409,-222.061783,-9104.533087,766.095498
486.739736,-296.082377,-9178.553681,689.485948
486.740064,-444.123565,-9474.636058,612.876398
486.740391,-592.164754,-9474.636058,536.266849
486.740719,-148.041188,-9696.697840,612.876398
486.741046,-222.061783,-9178.553681,766.095498
486.741374,0.000000,-9178.553681,919.314598
486.741701,-222.061783,-9474.636058,689.485948
486.742029,-222.061783,-9622.677246,612.876398
486.742357,0.000000,-9474.636058,689.485948
486.742684,-296.082377,-8956.491898,306.438199
486.743012,0.000000,-9178.553681,1378.971896
486.743339,-296.082377,-9326.594869,689.485948
486.743667,-222.061783,-9326.594869,766.095498
486.743994,-148.041188,-9030.512492,536.266849
486.744322,-148.041188,-8956.491898,536.266849
486.744649,-444.123565,-8586.388927,689.485948
486.744977,-296.082377,-8956.491898,612.876398
486.745304,-592.164754,-8882.471304,612.876398
486.745632,-370.102971,-9030.512492,612.876398
486.745960,-592.164754,-9030.512492,536.266849
486.746287,-518.144159,-9400.615463,0.000000
486.746615,-592.164754,-9104.533087,306.438199
486.746942,-222.061783,-9104.533087,689.485948
486.747270,-296.082377,-8956.491898,459.657299
486.747597,-370.102971,-9326.594869,536.266849
486.747925,-296.082377,-9326.594869,536.266849
486.748252,0.000000,-8956.491898,766.095498
486.748580,0.000000,-9252.574275,229.828649
486.748907,-222.061783,-9252.574275,536.266849
486.749235,0.000000,-9400.615463,383.047749
486.749562,0.000000,-8956.491898,766.095498
486.749890,222.061783,-9326.594869,1149.143247
486.750218,-296.082377,-9030.512492,536.266849
486.750545,0.000000,-8956.491898,459.657299
486.750873,-148.041188,-8956.491898,612.876398
486.751200,-222.061783,-8808.450710,383.047749
486.751528,-370.102971,-8438.347739,766.095498
486.751855,-296.082377,-8660.409521,459.657299
486.752183,-296.082377,-9030.512492,459.657299
486.752510,-296.082377,-9178.553681,459.657299
486.752838,-444.123565,-9030.512492,459.657299
486.753165,-592.164754,-8734.430116,689.485948
486.753493,-444.123565,-8734.430116,612.876398
486.753821,-444.123565,-9104.533087,459.657299
486.754148,-518.144159,-9104.533087,306.438199
486.754476,-518.144159,-9252.574275,536.266849
486.754803,-148.041188,-8808.450710,536.266849
486.755131,-444.123565,-8438.347739,612.876398
486.755458,-296.082377,-9252.574275,689.485948
486.755786,-444.123565,-8956.491898,689.485948
486.756113,-444.123565,-9030.512492,689.485948
486.756441,-518.144159,-8660.409521,153.219100
486.756768,-296.082377,-8882.471304,612.876398
486.757096,-740.205942,-8882.471304,766.095498
486.757424,-666.185348,-9030.512492,612.876398
486.757751,-518.144159,-9030.512492,689.485948
486.758079,-370.102971,-8956.491898,842.705048
486.758406,-518.144159,-8882.471304,612.876398
486.758734,-518.144159,-8586.388927,842.705048
486.759061,-518.144159,-8660.409521,459.657299
486.759389,-444.123565,-8808.450710,766.095498
486.759716,-592.164754,-8808.450710,536.266849
486.760044,-1036.288319,-8364.327145,842.705048
486.760371,0.000000,-9252.574275,536.266849
486.760699,-370.102971,-9178.553681,612.876398
486.761027,-518.144159,-8956.491898,612.876398
486.761354,-370.102971,-9178.553681,612.876398
486.761682,-296.082377,-8660.409521,229.828649
486.762009,-296.082377,-8956.491898,383.047749
486.762337,-518.144159,-9030.512492,459.657299
486.762664,-444.123565,-9104.533087,536.266849
486.762992,-296.082377,-9104.533087,306.438199
486.763319,-296.082377,-9030.512492,689.485948
486.763647,-370.102971,-9030.512492,766.095498
486.763974,-222.061783,-9104.533087,459.657299
486.764302,-148.041188,-8956.491898,612.876398
486.764630,-370.102971,-8808.450710,689.485948
486.764957,-222.061783,-8956.491898,306.438199
486.765285,0.000000,-9030.512492,689.485948
486.765612,-148.041188,-8808.450710,536.266849
486.765940,-148.041188,-9030.512492,766.095498
486.766267,-148.041188,-9030.512492,459.657299
486.766595,0.000000,-9104.533087,612.876398
486.766922,-222.061783,-8734.430116,459.657299
486.767250,-296.082377,-9326.594869,536.266849
486.767577,-296.082377,-9030.512492,383.047749
486.767905,-148.041188,-9104.533087,766.095498
486.768233,-370.102971,-9104.533087,383.047749
486.768560,-148.041188,-8956.491898,76.609550
486.768888,-222.061783,-9030.512492,995.924147
486.769215,-222.061783,-9252.574275,766.095498
486.769543,0.000000,-9326.594869,459.657299
486.769870,-296.082377,-9326.594869,766.095498
486.770198,0.000000,-9252.574275,306.438199
486.770525,222.061783,-9030.512492,383.047749
486.770853,74.020594,-9326.594869,459.657299
486.771180,74.020594,-9326.594869,536.266849
486.771508,74.020594,-9104.533087,612.876398
486.771836,0.000000,-9104.533087,612.876398
486.772163,370.102971,-10066.800811,383.047749
486.772491,0.000000,-9474.636058,383.047749
486.772818,74.020594,-9548.656652,612.876398
486.773146,0.000000,-9474.636058,536.266849
486.773473,74.020594,-9326.594869,536.266849
486.773801,74.020594,-9474.636058,229.828649
486.774128,-222.061783,-9252.574275,689.485948
486.774456,-222.061783,-9474.636058,536.266849
486.774783,-222.061783,-9474.636058,383.047749
486.775111,-370.102971,-9400.615463,306.438199
486.775438,-370.102971,-9622.677246,229.828649
486.775766,-222.061783,-9104.533087,1225.752797
486.776094,0.000000,-9474.636058,306.438199
486.776421,-222.061783,-9326.594869,459.657299
486.776749,-370.102971,-9252.574275,459.657299
486.777076,-370.102971,-9400.615463,612.876398
486.777404,-370.102971,-9178.553681,1072.533697
486.777731,-296.082377,-9326.594869,536.266849
486.778059,-370.102971,-9252.574275,383.047749
486.778386,-444.123565,-9178.553681,919.314598
486.778714,-444.123565,-9178.553681,612.876398
486.779041,-444.123565,-8882.471304,995.924147
486.779369,-296.082377,-9252.574275,919.314598
486.779697,-370.102971,-9178.553681,995.924147
486.780024,-666.185348,-8956.491898,536.266849
486.780352,-444.123565,-8882.471304,842.705048
486.780679,-296.082377,-8808.450710,1302.362347
486.781007,-444.123565,-8808.450710,229.828649
486.781334,-666.185348,-8956.491898,536.266849
486.781662,-666.185348,-9030.512492,689.485948
486.781989,-962.267725,-8956.491898,842.705048
486.782317,-1406.391290,-8808.450710,612.876398
486.782644,-740.205942,-8364.327145,459.657299
486.782972,-666.185348,-8660.409521,459.657299
486.783300,-740.205942,-8512.368333,536.266849
486.783627,-888.247130,-8438.347739,536.266849
486.783955,-888.247130,-8512.368333,612.876398
486.784282,-296.082377,-8882.471304,919.314598
486.784610,-592.164754,-8808.450710,383.047749
486.784937,-518.144159,-8882.471304,689.485948
486.785265,-370.102971,-8956.491898,612.876398
486.785592,-222.061783,-8882.471304,689.485948
486.785920,-222.061783,-8586.388927,536.266849
486.786247,296.082377,-8660.409521,689.485948
486.786575,-148.041188,-9030.512492,459.657299
486.786903,0.000000,-8956.491898,536.266849
486.787230,0.000000,-8882.471304,383.047749
486.787558,-296.082377,-8882.471304,383.047749
486.787885,0.000000,-8882.471304,995.924147
486.788213,-148.041188,-8956.491898,383.047749
486.788540,-296.082377,-8956.491898,229.828649
486.788868,-296.082377,-8956.491898,306.438199
486.789195,-444.123565,-8808.450710,229.828649
486.789523,-222.061783,-8586.388927,383.047749
486.789850,-222.061783,-8882.471304,229.828649
486.790178,-370.102971,-8882.471304,306.438199
486.790506,-370.102971,-8956.491898,459.657299
486.790833,-370.102971,-9252.574275,612.876398
486.791161,-222.061783,-9474.636058,153.219100
486.791488,-518.144159,-9178.553681,536.266849
486.791816,-148.041188,-9400.615463,536.266849
486.792143,0.000000,-9400.615463,306.438199
486.792471,0.000000,-9326.594869,306.438199
486.792798,148.041188,-9326.594869,842.705048
486.793126,222.061783,-9252.574275,459.657299
486.793453,222.061783,-9474.636058,689.485948
486.793781,148.041188,-9400.615463,842.705048
486.794109,222.061783,-9548.656652,536.266849
486.794436,74.020594,-9326.594869,842.705048
486.794764,74.020594,-9400.615463,612.876398
486.795091,0.000000,-9622.677246,612.876398
486.795419,0.000000,-9474.636058,612.876398
486.795746,-148.041188,-9400.615463,689.485948
486.796074,-148.041188,-9252.574275,689.485948
486.796401,-222.061783,-9178.553681,689.485948
486.796729,-222.061783,-9178.553681,612.876398
486.797056,0.000000,-9252.574275,459.657299
486.797384,-296.082377,-9400.615463,459.657299
486.797712,-296.082377,-9178.553681,536.266849
486.798039,-296.082377,-9326.594869,842.705048
486.798367,-148.041188,-9474.636058,842.705048
486.798694,-148.041188,-9474.636058,689.485948
486.799022,-222.061783,-9474.636058,612.876398
486.799349,0.000000,-9474.636058,536.266849
486.799677,0.000000,-9474.636058,689.485948
486.800004,-148.041188,-9252.574275,459.657299
486.800332,0.000000,-9400.615463,612.876398
486.800659,0.000000,-9474.636058,612.876398
486.800987,0.000000,-9326.594869,612.876398
486.801314,-444.123565,-9474.636058,766.095498
486.801642,0.000000,-9400.615463,459.657299
486.801970,0.000000,-9252.574275,612.876398
486.802297,-370.102971,-9030.512492,612.876398
486.802625,-444.123565,-9326.594869,612.876398
486.802952,-518.144159,-9104.533087,689.485948
486.803280,0.000000,-8956.491898,842.705048
486.803607,-296.082377,-8660.409521,459.657299
486.803935,-370.102971,-8882.471304,689.485948
486.804262,-518.144159,-9104.533087,612.876398
486.804590,-518.144159,-8882.471304,459.657299
486.804917,-370.102971,-8438.347739,459.657299
486.805245,-296.082377,-8586.388927,766.095498
486.805573,-666.185348,-8956.491898,383.047749
486.805900,-592.164754,-9104.533087,459.657299
486.806228,-592.164754,-9104.533087,689.485948
486.806555,-444.123565,-8808.450710,689.485948
486.806883,-666.185348,-8586.388927,459.657299
486.807210,-444.123565,-9252.574275,612.876398
486.807538,-444.123565,-9252.574275,612.876398
486.807865,-296.082377,-9030.512492,689.485948
486.808193,-370.102971,-9104.533087,689.485948
486.808520,-222.061783,-9178.553681,536.266849
486.808848,-222.061783,-9104.533087,766.095498
486.809176,0.000000,-9104.533087,229.828649
486.809503,-296.082377,-8808.450710,383.047749
486.809831,0.000000,-8956.491898,306.438199
486.810158,-222.061783,-9030.512492,76.609550
486.810486,-370.102971,-8882.471304,612.876398
486.810813,-370.102971,-8660.409521,383.047749
486.811141,-296.082377,-8808.450710,383.047749
486.811468,-444.123565,-8882.471304,153.219100
486.811796,0.000000,-8956.491898,0.000000
486.812123,-518.144159,-8808.450710,306.438199
486.812451,-518.144159,-9178.553681,306.438199
486.812779,-444.123565,-9104.533087,306.438199
486.813106,-296.082377,-8956.491898,612.876398
486.813434,0.000000,-9400.615463,383.047749
486.813761,-222.061783,-8882.471304,459.657299
486.814089,-370.102971,-8808.450710,459.657299
486.814416,-222.061783,-9030.512492,612.876398
486.814744,-296.082377,-8808.450710,536.266849
486.815071,-148.041188,-9474.636058,1225.752797
486.815399,-1036.288319,-9104.533087,612.876398
486.815726,-370.102971,-8956.491898,459.657299
486.816054,-518.144159,-9326.594869,689.485948
486.816382,-518.144159,-9252.574275,766.095498
486.816709,-370.102971,-8956.491898,612.876398
486.817037,-296.082377,-8364.327145,1225.752797
486.817364,-222.061783,-8882.471304,612.876398
486.817692,-518.144159,-8882.471304,766.095498
486.818019,-444.123565,-8956.491898,612.876398
486.818347,-222.061783,-9252.574275,842.705048
486.818674,0.000000,-8882.471304,689.485948
486.819002,-444.123565,-8586.388927,766.095498
486.819329,-666.185348,-8882.471304,536.266849
486.819657,-518.144159,-9030.512492,536.266849
486.819985,-518.144159,-9030.512492,459.657299
486.820312,0.000000,-9104.533087,1149.143247
486.820640,-148.041188,-8956.491898,689.485948
486.820967,-296.082377,-9178.553681,766.095498
486.821295,0.000000,-9400.615463,536.266849
486.821622,0.000000,-9400.615463,689.485948
486.821950,0.000000,-9252.574275,766.095498
486.822277,0.000000,-8808.450710,689.485948
486.822605,-148.041188,-9178.553681,689.485948
486.822932,0.000000,-9474.636058,612.876398
486.823260,0.000000,-9474.636058,612.876398
486.823588,74.020594,-9326.594869,689.485948
486.823915,370.102971,-9548.656652,536.266849
486.824243,-296.082377,-9400.615463,612.876398
486.824570,0.000000,-9474.636058,383.047749
486.824898,0.000000,-9400.615463,383.047749
486.825225,-222.061783,-8956.491898,229.828649
486.825553,-296.082377,-8882.471304,842.705048
486.825880,74.020594,-9474.636058,153.219100
486.826208,-222.061783,-9252.574275,612.876398
486.826535,0.000000,-9252.574275,536.266849
486.826863,-370.102971,-9326.594869,459.657299
486.827190,-592.164754,-9030.512492,-153.219100
486.827518,-740.205942,-8660.409521,536.266849
486.827846,-370.102971,-9252.574275,689.485948
486.828173,0.000000,-9326.594869,612.876398
486.828501,0.000000,-9252.574275,459.657299
486.828828,0.000000,-9252.574275,689.485948
486.829156,0.000000,-9104.533087,612.876398
486.829483,0.000000,-9326.594869,536.266849
486.829811,-222.061783,-9326.594869,536.266849
486.830138,-148.041188,-9400.615463,612.876398
486.830466,0.000000,-9474.636058,689.485948
486.830793,-296.082377,-9400.615463,766.095498
486.831121,-74.020594,-9252.574275,459.657299
486.831449,0.000000,-9400.615463,536.266849
486.831776,0.000000,-9252.574275,383.047749
486.832104,-222.061783,-9252.574275,612.876398
486.832431,-296.082377,-9326.594869,383.047749
486.832759,-222.061783,-8660.409521,612.876398
486.833086,-370.102971,-9252.574275,536.266849
486.833414,-370.102971,-9178.553681,612.876398
486.833741,-518.144159,-8956.491898,459.657299
486.834069,-592.164754,-8734.430116,76.609550
486.834396,0.000000,-8956.491898,306.438199
486.834724,-296.082377,-8956.491898,536.266849
486.835051,-222.061783,-8882.471304,306.438199
486.835379,-222.061783,-8808.450710,612.876398
486.835706,0.000000,-9030.512492,459.657299
486.836034,-370.102971,-9252.574275,995.924147
486.836361,-222.061783,-9104.533087,612.876398
486.836689,-370.102971,-9104.533087,459.657299
486.837016,-518.144159,-9178.553681,459.657299
486.837344,-370.102971,-9252.574275,689.485948
486.837671,-296.082377,-8882.471304,919.314598
486.837999,0.000000,-8956.491898,689.485948
486.838326,-296.082377,-9104.533087,536.266849
486.838654,-444.123565,-8882.471304,689.485948
486.838981,-592.164754,-8808.450710,459.657299
486.839308,-296.082377,-8660.409521,842.705048
486.839636,-222.061783,-8512.368333,459.657299
486.839963,-444.123565,-8882.471304,536.266849
486.840291,-666.185348,-8882.471304,689.485948
486.840618,-740.205942,-8734.430116,536.266849
486.840946,-740.205942,-8512.368333,536.266849
486.841273,-370.102971,-8586.388927,1072.533697
486.841601,-888.247130,-8734.430116,612.876398
486.841928,-518.144159,-8956.491898,536.266849
486.842256,-444.123565,-8660.409521,459.657299
486.842583,-592.164754,-8808.450710,536.266849
486.842911,-666.185348,-8882.471304,919.314598
486.843238,-296.082377,-8956.491898,689.485948
486.843566,-222.061783,-9104.533087,612.876398
486.843893,-370.102971,-9104.533087,766.095498
486.844221,-296.082377,-9252.574275,612.876398
486.844548,0.000000,-9178.553681,536.266849
486.844876,-296.082377,-8956.491898,383.047749
486.845203,-222.061783,-9030.512492,689.485948
486.845531,-296.082377,-9104.533087,536.266849
486.845858,-148.041188,-9252.574275,766.095498
486.846186,0.000000,-9104.533087,0.000000
486.846513,-296.082377,-8438.347739,536.266849
486.846841,-296.082377,-9178.553681,383.047749
486.847168,-444.123565,-9326.594869,612.876398
486.847496,-666.185348,-9178.553681,536.266849
486.847823,-518.144159,-8808.450710,919.314598
486.848151,-296.082377,-9030.512492,842.705048
486.848478,-370.102971,-9400.615463,383.047749
486.848806,-592.164754,-9030.512492,689.485948
486.849133,-370.102971,-9104.533087,536.266849
486.849460,-444.123565,-9252.574275,306.438199
486.849788,-370.102971,-9030.512492,689.485948
486.850115,-444.123565,-9252.574275,459.657299
486.850443,0.000000,-9474.636058,306.438199
486.850770,0.000000,-9326.594869,612.876398
486.851098,0.000000,-9400.615463,459.657299
486.851425,0.000000,-9326.594869,689.485948
486.851753,222.061783,-9474.636058,766.095498
486.852080,0.000000,-9400.615463,536.266849
486.852408,0.000000,-9252.574275,536.266849
486.852735,0.000000,-9400.615463,459.657299
486.853063,148.041188,-8956.491898,383.047749
486.853390,0.000000,-9326.594869,766.095498
486.853718,0.000000,-9252.574275,459.657299
486.854045,0.000000,-9252.574275,536.266849
486.854373,-222.061783,-9252.574275,383.047749
486.854700,-296.082377,-9104.533087,536.266849
486.855028,-148.041188,-8956.491898,536.266849
486.855355,74.020594,-9030.512492,306.438199
486.855683,0.000000,-9030.512492,459.657299
486.856010,0.000000,-9252.574275,306.438199
486.856338,-296.082377,-9326.594869,459.657299
486.856665,-296.082377,-8660.409521,689.485948
486.856993,0.000000,-9400.615463,459.657299
486.857320,-222.061783,-9252.574275,766.095498
486.857648,0.000000,-9400.615463,459.657299
486.857975,74.020594,-9400.615463,766.095498
486.858303,148.041188,-9104.533087,995.924147
486.858630,74.020594,-9030.512492,919.314598
486.858958,0.000000,-9104.533087,689.485948
486.859285,0.000000,-9178.553681,689.485948
486.859612,-222.061783,-9252.574275,536.266849
486.859940,0.000000,-8882.471304,306.438199
486.860267,148.041188,-9400.615463,689.485948
486.860595,-296.082377,-9178.553681,459.657299
486.860922,-444.123565,-9178.553681,689.485948
486.861250,-444.123565,-9030.512492,766.095498
486.861577,-222.061783,-8808.450710,766.095498
486.861905,-148.041188,-8882.471304,612.876398
486.862232,-370.102971,-9178.553681,842.705048
486.862560,-444.123565,-9104.533087,306.438199
486.862887,-370.102971,-9030.512492,612.876398
486.863215,-296.082377,-8882.471304,459.657299
486.863542,-296.082377,-8808.450710,995.924147
486.863870,-444.123565,-9252.574275,383.047749
486.864197,-444.123565,-9326.594869,536.266849
486.864525,-222.061783,-9178.553681,612.876398
486.864852,-296.082377,-9104.533087,459.657299
486.865180,-148.041188,-9178.553681,766.095498
486.865507,0.000000,-9326.594869,459.657299
486.865835,-222.061783,-9178.553681,459.657299
486.866162,-148.041188,-9104.533087,536.266849
486.866490,-370.102971,-9104.533087,612.876398
486.866817,0.000000,-9104.533087,842.705048
486.867145,-222.061783,-9178.553681,306.438199
486.867472,-222.061783,-9252.574275,766.095498
486.867800,-370.102971,-9030.512492,612.876398
486.868127,-370.102971,-9252.574275,383.047749
486.868455,-740.205942,-9030.512492,459.657299
486.868782,-370.102971,-8882.471304,689.485948
486.869109,-592.164754,-9178.553681,459.657299
486.869437,-518.144159,-9030.512492,536.266849
486.869764,-444.123565,-9104.533087,383.047749
486.870092,-592.164754,-8956.491898,612.876398
486.870419,-740.205942,-8512.368333,842.705048
486.870747,-666.185348,-8512.368333,612.876398
486.871074,-518.144159,-8956.491898,383.047749
486.871402,-592.164754,-9030.512492,766.095498
486.871729,-444.123565,-9104.533087,689.485948
486.872057,-814.226536,-8734.430116,689.485948
486.872384,-222.061783,-9104.533087,919.314598
486.872712,-222.061783,-9178.553681,995.924147
486.873039,-296.082377,-9178.553681,689.485948
486.873367,-370.102971,-8882.471304,689.485948
486.873694,-296.082377,-8808.450710,919.314598
486.874022,-444.123565,-9178.553681,1225.752797
486.874349,-296.082377,-8956.491898,536.266849
486.874677,-370.102971,-8882.471304,766.095498
486.875004,-222.061783,-8956.491898,459.657299
486.875332,-296.082377,-9104.533087,612.876398
486.875659,0.000000,-8882.471304,612.876398
486.875987,-444.123565,-9030.512492,383.047749
486.876314,-444.123565,-8882.471304,536.266849
486.876642,-296.082377,-8808.450710,612.876398
486.876969,-444.123565,-9178.553681,306.438199
486.877297,0.000000,-9252.574275,536.266849
486.877624,0.000000,-8808.450710,536.266849
486.877952,0.000000,-8882.471304,383.047749
486.878279,-148.041188,-9104.533087,229.828649
486.878607,0.000000,-9252.574275,306.438199
486.878934,0.000000,-9030.512492,306.438199
486.879261,74.020594,-9252.574275,306.438199
486.879589,74.020594,-9178.553681,383.047749
486.879916,74.020594,-9474.636058,612.876398
486.880244,296.082377,-9474.636058,306.438199
486.880571,296.082377,-9474.636058,536.266849
486.880899,148.041188,-9400.615463,919.314598
486.881226,296.082377,-9770.718434,612.876398
486.881554,0.000000,-9548.656652,459.657299
486.881881,0.000000,-9548.656652,229.828649
486.882209,74.020594,-9400.615463,306.438199
486.882536,814.226536,-9622.677246,459.657299
486.882864,0.000000,-9474.636058,229.828649
486.883191,0.000000,-9400.615463,459.657299
486.883519,0.000000,-9326.594869,612.876398
486.883846,0.000000,-9252.574275,536.266849
486.884174,0.000000,-9326.594869,76.609550
486.884501,-444.123565,-8956.491898,459.657299
486.884829,-296.082377,-9474.636058,766.095498
486.885156,-444.123565,-9104.533087,612.876398
486.885484,-370.102971,-9178.553681,612.876398
486.885811,0.000000,-9030.512492,612.876398
486.886139,370.102971,-9252.574275,459.657299
486.886466,-148.041188,-9326.594869,689.485948
486.886794,-222.061783,-9030.512492,766.095498
486.887121,-444.123565,-9104.533087,689.485948
486.887449,-148.041188,-9104.533087,842.705048
486.887776,-222.061783,-9474.636058,1072.533697
486.888104,-222.061783,-9474.636058,919.314598
486.888431,-222.061783,-9178.553681,842.705048
486.888759,-370.102971,-9252.574275,919.314598
486.889086,-444.123565,-9474.636058,612.876398
486.889413,-370.102971,-8808.450710,842.705048
486.889741,-370.102971,-8882.471304,689.485948
486.890068,-370.102971,-8956.491898,459.657299
486.890396,-592.164754,-9252.574275,689.485948
486.890723,-592.164754,-8956.491898,459.657299
486.891051,-518.144159,-8882.471304,76.609550
486.891378,-666.185348,-8364.327145,612.876398
486.891706,-296.082377,-8882.471304,306.438199
486.892033,-296.082377,-8808.450710,306.438199
486.892361,-444.123565,-8808.450710,612.876398
486.892688,-592.164754,-8438.347739,766.095498
486.893016,0.000000,-8512.368333,536.266849
486.893343,-518.144159,-8882.471304,536.266849
486.893671,-370.102971,-9104.533087,536.266849
486.893998,-148.041188,-8956.491898,689.485948
486.894326,0.000000,-9178.553681,919.314598
486.894653,0.000000,-8734.430116,383.047749
486.894981,0.000000,-9030.512492,689.485948
486.895308,-148.041188,-9030.512492,459.657299
486.895636,-296.082377,-9030.512492,689.485948
486.895963,-148.041188,-9178.553681,383.047749
486.896291,-222.061783,-8808.450710,459.657299
486.896618,-222.061783,-8956.491898,612.876398
486.896946,0.000000,-8956.491898,842.705048
486.897273,-370.102971,-8956.491898,536.266849
486.897601,-296.082377,-8882.471304,612.876398
486.897928,-592.164754,-8808.450710,1149.143247
486.898256,74.020594,-8956.491898,689.485948
486.898583,-370.102971,-8660.409521,383.047749
486.898910,-296.082377,-8956.491898,536.266849
486.899238,-444.123565,-8956.491898,383.047749
486.899565,-222.061783,-8882.471304,842.705048
486.899893,-518.144159,-8882.471304,689.485948
486.900220,-592.164754,-8882.471304,612.876398
486.900548,-592.164754,-9030.512492,459.657299
486.900875,-518.144159,-9252.574275,536.266849
486.901203,-296.082377,-8956.491898,536.266849
486.901530,74.020594,-8882.471304,536.266849
486.901858,-148.041188,-9178.553681,536.266849
486.902185,-222.061783,-9326.594869,536.266849
486.902513,-296.082377,-9252.574275,766.095498
486.902840,0.000000,-9400.615463,383.047749
486.903168,-296.082377,-9252.574275,1149.143247
