#time,accel_x,accel_y,accel_z
553.463418,-296.082377,-9104.533087,919.314598
553.463746,-222.061783,-8660.409521,995.924147
553.464074,-370.102971,-8956.491898,842.705048
553.464402,-296.082377,-9104.533087,612.876398
553.464730,-296.082377,-9104.533087,689.485948
553.465058,-296.082377,-8882.471304,689.485948
553.465386,-148.041188,-8882.471304,383.047749
553.465713,-296.082377,-8956.491898,536.266849
553.466041,-296.082377,-9178.553681,612.876398
553.466369,-296.082377,-9252.574275,689.485948
553.466697,-370.102971,-8882.471304,536.266849
553.467025,0.000000,-8956.491898,459.657299
553.467353,-444.123565,-9104.533087,383.047749
553.467680,-296.082377,-9104.533087,459.657299
553.468008,-444.123565,-9030.512492,383.047749
553.468336,-296.082377,-9104.533087,459.657299
553.468664,-370.102971,-9030.512492,306.438199
553.468992,-296.082377,-9104.533087,766.095498
553.469320,-296.082377,-9178.553681,306.438199
553.469648,-148.041188,-9104.533087,459.657299
553.469975,-222.061783,-9326.594869,536.266849
553.470303,-74.020594,-8956.491898,459.657299
553.470631,-222.061783,-8956.491898,689.485948
553.470959,0.000000,-9326.594869,76.609550
553.471287,0.000000,-9400.615463,383.047749
553.471615,-222.061783,-9326.594869,536.266849
553.471943,-370.102971,-9104.533087,459.657299
553.472270,0.000000,-8956.491898,536.266849
553.472598,-444.123565,-9030.512492,689.485948
553.472926,-370.102971,-9178.553681,306.438199
553.473254,-148.041188,-9030.512492,612.876398
553.473582,-370.102971,-9030.512492,459.657299
553.473910,-444.123565,-9104.533087,459.657299
553.474238,-592.164754,-9326.594869,0.000000
553.474565,-1258.350101,-9400.615463,0.000000
553.474893,-1332.370696,-9326.594869,-229.828649
553.475221,-1184.329507,-9178.553681,-612.876398
553.475549,-370.102971,-8660.409521,-536.266849
553.475877,-592.164754,-8734.430116,-153.219100
553.476205,-666.185348,-9178.553681,-459.657299
553.476533,-1258.350101,-9030.512492,-919.314598
553.476860,-1110.308913,-9326.594869,-1072.533697
553.477188,-1258.350101,-9104.533087,-1532.190996
553.477516,-814.226536,-9178.553681,-1532.190996
553.477844,-296.082377,-9326.594869,-1532.190996
553.478172,-296.082377,-9252.574275,-1225.752797
553.478500,-370.102971,-9252.574275,-1378.971896
553.478828,-296.082377,-9030.512492,-1455.581446
553.479155,74.020594,-9326.594869,-1915.238745
553.479483,0.000000,-9104.533087,-1608.800546
553.479811,148.041188,-9400.615463,-1762.019645
553.480139,74.020594,-9400.615463,-1838.629195
553.480467,222.061783,-9400.615463,-1378.971896
553.480795,814.226536,-9474.636058,-1302.362347
553.481123,296.082377,-8364.327145,-1378.971896
553.481450,518.144159,-9252.574275,-1915.238745
553.481778,370.102971,-9622.677246,-1608.800546
553.482106,222.061783,-9474.636058,-2068.457845
553.482434,0.000000,-9030.512492,-1685.410096
553.482762,370.102971,-8956.491898,-1685.410096
553.483090,0.000000,-9400.615463,-1991.848295
553.483418,0.000000,-9178.553681,-1685.410096
553.483745,-296.082377,-9326.594869,-1915.238745
553.484073,-592.164754,-9326.594869,-1762.019645
553.484401,-666.185348,-9030.512492,-1991.848295
553.484729,-1036.288319,-9030.512492,-2298.286494
553.485057,-1332.370696,-9178.553681,-2451.505594
553.485385,-1406.391290,-9252.574275,-2528.115143
553.485713,-1776.494261,-9104.533087,-2681.334243
553.486040,-1702.473667,-9104.533087,-3217.601092
553.486368,-2072.576638,-9104.533087,-2987.772442
553.486696,-2072.576638,-9178.553681,-3677.258390
553.487024,-2220.617826,-8956.491898,-3830.477490
553.487352,-2146.597232,-9030.512492,-4060.306139
553.487680,-1480.411884,-8882.471304,-3830.477490
553.488007,-1184.329507,-8808.450710,-4060.306139
553.488335,-1110.308913,-8882.471304,-3907.087040
553.488663,-444.123565,-8956.491898,-4060.306139
553.488991,222.061783,-9326.594869,-3600.648841
553.489319,888.247130,-8882.471304,-3600.648841
553.489647,1480.411884,-8660.409521,-2451.505594
553.489975,2294.638420,-9104.533087,-2451.505594
553.490302,2368.659014,-9252.574275,-2068.457845
553.490630,2146.597232,-9474.636058,-1838.629195
553.490958,1554.432478,-10066.800811,-1991.848295
553.491286,148.041188,-9992.780217,-2068.457845
553.491614,-666.185348,-10584.944971,-3524.039291
553.491942,-1628.453072,-10584.944971,-4060.306139
553.492270,-1924.535449,-10436.903782,-4366.744339
553.492597,-1776.494261,-9918.759623,-4749.792088
553.492925,-1110.308913,-8216.285956,-3907.087040
553.493253,740.205942,-7772.162391,-4443.353888
553.493581,2146.597232,-7254.018232,-3447.429741
553.493909,3034.844362,-7105.977043,-2604.724693
553.494237,2812.782580,-7550.100608,-2374.896044
553.494565,1776.494261,-8586.388927,-1838.629195
553.494892,0.000000,-9326.594869,-1762.019645
553.495220,-2368.659014,-10436.903782,-2221.676944
553.495548,-3627.009116,-11177.109724,-2298.286494
553.495876,-2442.679609,-10362.883188,-1532.190996
553.496204,1554.432478,-8734.430116,0.000000
553.496532,6143.709319,-6513.812290,1915.238745
553.496860,8956.491898,-6143.709319,3907.087040
553.497187,8586.388927,-7550.100608,4596.572988
553.497515,4885.359217,-9030.512492,3830.477490
553.497843,0.000000,-10658.965565,2298.286494
553.498171,-4367.215058,-11991.336260,1302.362347
553.498499,-7920.203579,-12361.439231,-1149.143247
553.498827,-10214.842000,-13323.706956,-2451.505594
553.499155,-10658.965565,-12879.583391,-3600.648841
553.499482,-10955.047942,-11251.130318,-3907.087040
553.499810,-7328.038826,-8216.285956,-5362.668486
553.500138,-6069.688724,-5995.668130,-4596.572988
553.500466,-2368.659014,-4589.276840,-6052.154434
553.500794,-1702.473667,-5329.482782,-5362.668486
553.501122,-3997.112087,-5773.606348,-6128.763984
553.501450,-4959.379811,-7254.018232,-5592.497135
553.501777,-9030.512492,-8734.430116,-7354.516781
553.502105,-9548.656652,-9770.718434,-7967.393179
553.502433,-7550.100608,-10288.862594,-7584.345430
553.502761,-3923.091493,-8068.244768,-6894.859482
553.503089,3182.885551,-7476.080014,-5286.058936
553.503417,8512.368333,-7476.080014,-2834.553343
553.503745,9030.512492,-7402.059420,-3677.258390
553.504072,9770.718434,-10066.800811,-3600.648841
553.504400,7328.038826,-11103.089130,-4903.011187
553.504728,6291.750507,-11029.068536,-5822.325785
553.505056,8734.430116,-11325.150913,-5132.839837
553.505384,11473.192101,-9844.739029,-2911.162892
553.505712,12657.521608,-9622.677246,-1532.190996
553.506040,11695.253884,-11547.212695,-689.485948
553.506367,9326.594869,-12065.356855,0.000000
553.506695,5699.585753,-10214.842000,-1991.848295
553.507023,3627.009116,-11103.089130,-1685.410096
553.507351,4663.297435,-11029.068536,-1915.238745
553.507679,1628.453072,-10510.924376,-2221.676944
553.508007,-2960.823768,-11843.295072,-2834.553343
553.508334,-10066.800811,-11843.295072,-5898.935335
553.508662,-15396.283594,-9178.553681,-8120.612279
553.508990,-14285.974681,-5995.668130,-8656.879127
553.509318,-8882.471304,-2516.700203,-8350.440928
553.509646,0.000000,0.000000,-5286.058936
553.509974,2960.823768,-518.144159,-3064.381992
553.510302,3775.050304,-1998.556043,-1072.533697
553.510629,370.102971,-4071.132681,-536.266849
553.510957,-2664.741391,-6069.688724,-383.047749
553.511285,-4515.256246,-8512.368333,-536.266849
553.511613,-4293.194464,-11029.068536,459.657299
553.511941,-3849.070898,-12509.480420,3064.381992
553.512269,-2960.823768,-12805.562797,4136.915689
553.512597,296.082377,-11251.130318,5745.716235
553.512924,3182.885551,-10362.883188,6128.763984
553.513252,3997.112087,-10658.965565,4903.011187
553.513580,2146.597232,-10732.986159,1149.143247
553.513908,-666.185348,-12139.377449,-612.876398
553.514236,-2664.741391,-10436.903782,-1532.190996
553.514564,-1332.370696,-8586.388927,-1072.533697
553.514892,518.144159,-7476.080014,-766.095498
553.515219,296.082377,-7772.162391,-1072.533697
553.515547,-1258.350101,-10510.924376,612.876398
553.515875,-3923.091493,-9548.656652,-229.828649
553.516203,-7105.977043,-8956.491898,-1532.190996
553.516531,-5699.585753,-9400.615463,-1608.800546
553.516859,-5329.482782,-11547.212695,-1685.410096
553.517187,-6883.915261,-10584.944971,-3140.991542
553.517514,-6217.729913,-9844.739029,-3907.087040
553.517842,-4071.132681,-7328.038826,-3753.867940
553.518170,-2886.803174,-4959.379811,-3907.087040
553.518498,-296.082377,-6291.750507,-3753.867940
553.518826,518.144159,-6809.894666,-5209.449386
553.519154,2368.659014,-7698.141797,-5822.325785
553.519481,4811.338623,-8586.388927,-5056.230287
553.519809,4737.318029,-8734.430116,-4519.963438
553.520137,4737.318029,-10732.986159,-3677.258390
553.520464,4515.256246,-14063.912898,-2757.943793
553.520792,3775.050304,-13989.892304,-3753.867940
553.521120,4219.173869,-14211.954086,-2681.334243
553.521448,4737.318029,-12879.583391,-1915.238745
553.521775,3478.967927,-11843.295072,-2221.676944
553.522103,4367.215058,-11325.150913,-1072.533697
553.522431,5033.400406,-10658.965565,-306.438199
553.522758,4219.173869,-9326.594869,-1378.971896
553.523086,1628.453072,-8142.265362,-2757.943793
553.523414,0.000000,-8068.244768,-3753.867940
553.523742,-444.123565,-7476.080014,-3064.381992
553.524069,370.102971,-5699.585753,-3294.210641
553.524397,-666.185348,-5921.647536,-3294.210641
553.524725,1332.370696,-5255.462188,-2528.115143
553.525052,592.164754,-5329.482782,-689.485948
553.525380,-296.082377,-6069.688724,-306.438199
553.525708,-2072.576638,-7698.141797,383.047749
553.526035,-4885.359217,-9992.780217,-612.876398
553.526363,-4885.359217,-10066.800811,-1072.533697
553.526691,-4885.359217,-9622.677246,-995.924147
553.527019,-5033.400406,-8882.471304,-536.266849
553.527346,-3108.864956,-8808.450710,766.095498
553.527674,-1258.350101,-7476.080014,459.657299
553.528002,-1184.329507,-7105.977043,459.657299
553.528329,-1628.453072,-7920.203579,0.000000
553.528657,-3997.112087,-8882.471304,-1762.019645
553.528985,-4515.256246,-8660.409521,-2757.943793
553.529313,-3701.029710,-9104.533087,-2834.553343
553.529640,-2146.597232,-8882.471304,-1991.848295
553.529968,0.000000,-8142.265362,-612.876398
553.530296,2294.638420,-6809.894666,689.485948
553.530623,3997.112087,-6291.750507,2068.457845
553.530951,3404.947333,-7105.977043,2374.896044
553.531279,1406.391290,-8956.491898,1378.971896
553.531607,370.102971,-9400.615463,536.266849
553.531934,222.061783,-9622.677246,842.705048
553.532262,592.164754,-9918.759623,1608.800546
553.532590,1850.514855,-9474.636058,2834.553343
553.532917,5181.441594,-9030.512492,3907.087040
553.533245,5773.606348,-7920.203579,3140.991542
553.533573,3034.844362,-9400.615463,2987.772442
553.533901,1184.329507,-10436.903782,919.314598
553.534228,-2368.659014,-11695.253884,-306.438199
553.534556,-3478.967927,-10510.924376,-766.095498
553.534884,-2886.803174,-11843.295072,-383.047749
553.535211,-1184.329507,-11177.109724,612.876398
553.535539,222.061783,-10584.944971,1608.800546
553.535867,1628.453072,-9474.636058,2834.553343
553.536195,-2516.700203,-10288.862594,1838.629195
553.536522,-5107.421000,-10732.986159,0.000000
553.536850,-6957.935855,-10214.842000,-766.095498
553.537178,-7105.977043,-9326.594869,-1608.800546
553.537505,-5477.523971,-8512.368333,-1225.752797
553.537833,-2368.659014,-6513.812290,153.219100
553.538161,1332.370696,-6069.688724,1838.629195
553.538489,2146.597232,-6809.894666,2451.505594
553.538816,-444.123565,-8586.388927,1378.971896
553.539144,-2664.741391,-9622.677246,0.000000
553.539472,-3849.070898,-9252.574275,-1378.971896
553.539799,-3182.885551,-10140.821405,-1072.533697
553.540127,-1406.391290,-10881.027347,-689.485948
553.540455,2368.659014,-10584.944971,995.924147
553.540782,5699.585753,-10140.821405,2834.553343
553.541110,6291.750507,-10658.965565,3217.601092
553.541438,3182.885551,-11695.253884,2528.115143
553.541766,222.061783,-12583.501014,383.047749
553.542093,-962.267725,-11843.295072,-1072.533697
553.542421,-2294.638420,-10881.027347,-2757.943793
553.542749,-1776.494261,-9770.718434,-1608.800546
553.543076,2960.823768,-7994.224174,-306.438199
553.543404,4441.235652,-7846.182985,1149.143247
553.543732,3997.112087,-7328.038826,2068.457845
553.544060,1776.494261,-8512.368333,612.876398
553.544387,-888.247130,-7994.224174,-1072.533697
553.544715,-1998.556043,-8068.244768,-1685.410096
553.545043,-2368.659014,-8216.285956,-1991.848295
553.545370,-2146.597232,-7476.080014,-1378.971896
553.545698,1628.453072,-6661.853478,0.000000
553.546026,3552.988522,-6069.688724,1838.629195
553.546354,2368.659014,-7105.977043,2145.067394
553.546681,-148.041188,-7846.182985,1149.143247
553.547009,-1998.556043,-8068.244768,-383.047749
553.547337,-2220.617826,-8364.327145,-1225.752797
553.547664,-2442.679609,-9400.615463,-1455.581446
553.547992,-1332.370696,-8586.388927,-612.876398
553.548320,1924.535449,-7624.121203,995.924147
553.548648,2812.782580,-8068.244768,2834.553343
553.548975,1850.514855,-9326.594869,3217.601092
553.549303,-1332.370696,-9918.759623,2221.676944
553.549631,-2220.617826,-10140.821405,1762.019645
553.549958,-3330.926739,-10658.965565,842.705048
553.550286,-4145.153275,-10140.821405,76.609550
553.550614,-2738.761985,-8734.430116,536.266849
553.550942,1110.308913,-7254.018232,1762.019645
553.551269,3404.947333,-6661.853478,3370.820191
553.551597,1924.535449,-7179.997637,3370.820191
553.551925,-518.144159,-7994.224174,2451.505594
553.552252,-2072.576638,-7920.203579,919.314598
553.552580,-3627.009116,-8882.471304,459.657299
553.552908,-5329.482782,-8660.409521,-689.485948
553.553236,-2738.761985,-8734.430116,0.000000
553.553563,296.082377,-7402.059420,766.095498
553.553891,1998.556043,-8290.306550,2221.676944
553.554219,666.185348,-9178.553681,1838.629195
553.554546,-296.082377,-9918.759623,1225.752797
553.554874,-1036.288319,-9992.780217,-536.266849
553.555202,-2146.597232,-10732.986159,-459.657299
553.555529,-2738.761985,-11103.089130,-1072.533697
553.555857,-444.123565,-10732.986159,0.000000
553.556185,2072.576638,-9844.739029,995.924147
553.556513,3108.864956,-10436.903782,2221.676944
553.556840,1036.288319,-10807.006753,1838.629195
553.557168,-148.041188,-10584.944971,459.657299
553.557496,-888.247130,-10140.821405,-766.095498
553.557823,-1998.556043,-10584.944971,-995.924147
553.558151,-2960.823768,-10066.800811,-1378.971896
553.558479,0.000000,-8586.388927,0.000000
553.558807,3330.926739,-8290.306550,842.705048
553.559134,3330.926739,-9030.512492,1991.848295
553.559462,1924.535449,-10066.800811,1608.800546
553.559790,518.144159,-10214.842000,153.219100
553.560117,-888.247130,-10436.903782,0.000000
553.560445,-1480.411884,-11325.150913,-766.095498
553.560773,-2294.638420,-11473.192101,-306.438199
553.561101,814.226536,-9696.697840,536.266849
553.561428,3182.885551,-9104.533087,1608.800546
553.561756,2812.782580,-9844.739029,2451.505594
553.562084,444.123565,-9992.780217,766.095498
553.562411,-740.205942,-10214.842000,459.657299
553.562739,-1480.411884,-9992.780217,-766.095498
553.563067,-2590.720797,-10066.800811,-689.485948
553.563395,-2072.576638,-9474.636058,-536.266849
553.563722,148.041188,-8438.347739,766.095498
553.564050,2072.576638,-8068.244768,1532.190996
553.564378,296.082377,-8734.430116,1608.800546
553.564705,-1406.391290,-8734.430116,766.095498
553.565033,-1776.494261,-8364.327145,0.000000
553.565361,-2368.659014,-8068.244768,76.609550
553.565689,-2664.741391,-8586.388927,-383.047749
553.566016,-1184.329507,-7698.141797,153.219100
553.566344,2220.617826,-6587.832884,1685.410096
553.566672,3478.967927,-6957.935855,2604.724693
553.566999,1480.411884,-8660.409521,2681.334243
553.567327,-1480.411884,-8882.471304,1685.410096
553.567655,-2368.659014,-9252.574275,383.047749
553.567983,-3627.009116,-9622.677246,-306.438199
553.568310,-4737.318029,-9474.636058,-995.924147
553.568638,-2220.617826,-8882.471304,-383.047749
553.568966,1480.411884,-7179.997637,995.924147
553.569293,3330.926739,-6587.832884,1532.190996
553.569621,2812.782580,-7402.059420,1378.971896
553.569949,1332.370696,-8068.244768,766.095498
553.570277,222.061783,-8438.347739,0.000000
553.570604,-1110.308913,-9252.574275,0.000000
553.570932,-2368.659014,-9178.553681,229.828649
553.571260,148.041188,-8512.368333,1149.143247
553.571587,2886.803174,-7772.162391,2298.286494
553.571915,3034.844362,-8290.306550,3524.039291
553.572243,740.205942,-9252.574275,3064.381992
553.572570,-888.247130,-9474.636058,1685.410096
553.572898,-1998.556043,-8586.388927,0.000000
553.573226,-3108.864956,-9252.574275,-766.095498
553.573554,-3701.029710,-9252.574275,-1302.362347
553.573881,-1110.308913,-7550.100608,-689.485948
553.574209,1406.391290,-7254.018232,-306.438199
553.574537,1924.535449,-7550.100608,1149.143247
553.574864,0.000000,-8586.388927,76.609550
553.575192,-740.205942,-9474.636058,-153.219100
553.575520,-2146.597232,-9770.718434,-1149.143247
553.575848,-3182.885551,-11325.150913,-1302.362347
553.576175,-3775.050304,-11399.171507,-766.095498
553.576503,-1258.350101,-10288.862594,459.657299
553.576831,1998.556043,-9252.574275,2068.457845
553.577158,1998.556043,-9770.718434,2681.334243
553.577486,666.185348,-10288.862594,2604.724693
553.577814,-1036.288319,-9696.697840,842.705048
553.578142,-1998.556043,-9400.615463,-229.828649
553.578469,-3701.029710,-10066.800811,-1378.971896
553.578797,-2812.782580,-9178.553681,-1838.629195
553.579125,1628.453072,-7476.080014,-995.924147
553.579452,4145.153275,-7105.977043,383.047749
553.579780,4515.256246,-8068.244768,1685.410096
553.580108,2960.823768,-9030.512492,1532.190996
553.580436,1480.411884,-9622.677246,689.485948
553.580763,518.144159,-11547.212695,459.657299
553.581091,-1850.514855,-11843.295072,-229.828649
553.581419,-1332.370696,-11695.253884,459.657299
553.581746,1480.411884,-10584.944971,2221.676944
553.582074,2590.720797,-10658.965565,3370.820191
553.582402,1406.391290,-11547.212695,3677.258390
553.582730,-444.123565,-11399.171507,2298.286494
553.583057,-1332.370696,-10214.842000,1225.752797
553.583385,-2886.803174,-10214.842000,-306.438199
553.583713,-4293.194464,-9992.780217,-1378.971896
553.584040,-3108.864956,-8512.368333,-1685.410096
553.584368,74.020594,-6291.750507,-1225.752797
553.584696,1628.453072,-6513.812290,306.438199
553.585024,222.061783,-7402.059420,153.219100
553.585351,-592.164754,-7476.080014,0.000000
553.585679,-518.144159,-7105.977043,-383.047749
553.586007,-814.226536,-8512.368333,0.000000
553.586334,-1924.535449,-8882.471304,536.266849
553.586662,0.000000,-8068.244768,1532.190996
553.586990,2294.638420,-7698.141797,3064.381992
553.587317,2442.679609,-8290.306550,3983.696590
553.587645,222.061783,-9474.636058,3370.820191
553.587973,-1258.350101,-8882.471304,2221.676944
553.588301,-1924.535449,-9252.574275,1302.362347
553.588628,-2960.823768,-9622.677246,306.438199
553.588956,-3256.906145,-8734.430116,-153.219100
553.589284,-1184.329507,-7254.018232,76.609550
553.589611,2220.617826,-5995.668130,229.828649
553.589939,2072.576638,-7031.956449,1072.533697
553.590267,-222.061783,-7994.224174,0.000000
553.590595,-1924.535449,-8216.285956,-459.657299
553.590922,-2368.659014,-8512.368333,-919.314598
553.591250,-2738.761985,-8586.388927,-689.485948
553.591578,-2368.659014,-8290.306550,-229.828649
553.591905,-370.102971,-7846.182985,766.095498
553.592233,1332.370696,-7402.059420,2298.286494
553.592561,370.102971,-7846.182985,2451.505594
553.592889,-1406.391290,-8660.409521,1225.752797
553.593216,-1924.535449,-9030.512492,306.438199
553.593544,-2072.576638,-9918.759623,-689.485948
553.593872,-3256.906145,-9548.656652,-1455.581446
553.594199,-1702.473667,-8882.471304,-1225.752797
553.594527,1258.350101,-7698.141797,-766.095498
553.594855,2886.803174,-7920.203579,229.828649
553.595183,2516.700203,-9474.636058,0.000000
553.595510,1036.288319,-10066.800811,-1455.581446
553.595838,666.185348,-10436.903782,-1991.848295
553.596166,444.123565,-11251.130318,-1838.629195
553.596493,74.020594,-11547.212695,-995.924147
553.596821,1702.473667,-11251.130318,229.828649
553.597149,4367.215058,-10732.986159,2068.457845
553.597477,5033.400406,-10955.047942,3217.601092
553.597804,2886.803174,-11843.295072,3140.991542
553.598132,1110.308913,-11547.212695,1532.190996
553.598460,-1110.308913,-11177.109724,995.924147
553.598787,-2368.659014,-11695.253884,76.609550
553.599115,-3552.988522,-11769.274478,-153.219100
553.599443,-1776.494261,-10066.800811,0.000000
553.599771,962.267725,-8438.347739,1149.143247
553.600098,2294.638420,-8438.347739,1149.143247
553.600426,518.144159,-9104.533087,766.095498
553.600754,-814.226536,-9326.594869,0.000000
553.601081,-1480.411884,-8956.491898,-842.705048
553.601409,-2368.659014,-9622.677246,-995.924147
553.601737,-3775.050304,-10584.944971,229.828649
553.602064,-1184.329507,-9178.553681,1302.362347
553.602392,1776.494261,-8216.285956,2757.943793
553.602720,2072.576638,-8660.409521,4060.306139
553.603048,0.000000,-9622.677246,3830.477490
553.603375,-1110.308913,-9326.594869,2911.162892
553.603703,-2590.720797,-9178.553681,1685.410096
553.604031,-3627.009116,-9474.636058,842.705048
553.604358,-4219.173869,-9178.553681,153.219100
553.604686,-1184.329507,-7550.100608,536.266849
553.605014,1628.453072,-6661.853478,1302.362347
553.605342,1628.453072,-6957.935855,1915.238745
553.605669,0.000000,-7846.182985,919.314598
553.605997,-592.164754,-7772.162391,229.828649
553.606325,-1924.535449,-7698.141797,-766.095498
553.606652,-2738.761985,-8438.347739,-1149.143247
553.606980,-2738.761985,-7698.141797,-612.876398
553.607308,518.144159,-7105.977043,689.485948
553.607636,2442.679609,-6957.935855,2221.676944
553.607963,2886.803174,-7624.121203,3064.381992
553.608291,888.247130,-9178.553681,2987.772442
553.608619,-296.082377,-8808.450710,1762.019645
553.608946,-1702.473667,-9696.697840,383.047749
553.609274,-3330.926739,-9918.759623,-766.095498
553.609602,-2960.823768,-9252.574275,-1302.362347
553.609930,0.000000,-7994.224174,-842.705048
553.610257,2294.638420,-6883.915261,-153.219100
553.610585,1406.391290,-8068.244768,-536.266849
553.610913,740.205942,-8216.285956,-1225.752797
553.611240,296.082377,-8216.285956,-1838.629195
553.611568,74.020594,-8586.388927,-1991.848295
553.611896,-370.102971,-9400.615463,-2298.286494
553.612224,888.247130,-8956.491898,-1072.533697
553.612551,3182.885551,-8438.347739,612.876398
553.612879,3330.926739,-9030.512492,1991.848295
553.613207,1776.494261,-10436.903782,2757.943793
553.613534,518.144159,-10881.027347,2068.457845
553.613862,-222.061783,-10584.944971,1302.362347
553.614190,-1924.535449,-11103.089130,842.705048
553.614518,-2886.803174,-11103.089130,0.000000
553.614845,-740.205942,-9696.697840,0.000000
553.615173,2220.617826,-8364.327145,612.876398
553.615501,2368.659014,-8586.388927,1072.533697
553.615828,444.123565,-9474.636058,76.609550
553.616156,-1258.350101,-9770.718434,-612.876398
553.616484,-2072.576638,-9548.656652,-1225.752797
553.616812,-3034.844362,-9918.759623,-1225.752797
553.617139,-2664.741391,-9844.739029,-536.266849
553.617467,-888.247130,-9548.656652,536.266849
553.617795,1332.370696,-9252.574275,2068.457845
553.618122,666.185348,-9844.739029,2911.162892
553.618450,-1184.329507,-10214.842000,2757.943793
553.618778,-2368.659014,-9844.739029,1762.019645
553.619105,-2590.720797,-9696.697840,612.876398
553.619433,-3404.947333,-10140.821405,536.266849
553.619761,-2886.803174,-8808.450710,229.828649
553.620089,-296.082377,-7550.100608,612.876398
553.620416,1850.514855,-6809.894666,1685.410096
553.620743,1036.288319,-7994.224174,1608.800546
553.621070,-1184.329507,-9104.533087,-153.219100
553.621398,-1258.350101,-8808.450710,-995.924147
553.621726,-1406.391290,-9326.594869,-1225.752797
553.622053,-888.247130,-9844.739029,-306.438199
553.622381,0.000000,-9696.697840,229.828649
553.622708,2960.823768,-8586.388927,1685.410096
553.623036,4589.276840,-8660.409521,3140.991542
553.623363,3552.988522,-10066.800811,3370.820191
553.623691,888.247130,-10288.862594,2834.553343
553.624018,74.020594,-9548.656652,2145.067394
553.624346,-1702.473667,-10288.862594,995.924147
553.624673,-2960.823768,-10510.924376,919.314598
553.625001,-2220.617826,-9326.594869,689.485948
553.625328,592.164754,-7772.162391,1149.143247
553.625656,2072.576638,-7328.038826,1762.019645
553.625983,666.185348,-7476.080014,1225.752797
553.626311,-1036.288319,-8438.347739,0.000000
553.626638,-1258.350101,-7920.203579,-1149.143247
553.626966,-1998.556043,-8216.285956,-1838.629195
553.627294,-3108.864956,-8364.327145,-1915.238745
553.627621,-888.247130,-7994.224174,-842.705048
553.627949,1554.432478,-7772.162391,919.314598
553.628276,2516.700203,-7550.100608,2451.505594
553.628604,962.267725,-9104.533087,2834.553343
553.628931,-296.082377,-9844.739029,2068.457845
553.629259,-2368.659014,-9474.636058,1762.019645
553.629586,-3627.009116,-10066.800811,76.609550
553.629914,-4737.318029,-10140.821405,-536.266849
553.630241,-2368.659014,-8956.491898,0.000000
553.630569,444.123565,-7550.100608,536.266849
553.630896,1702.473667,-7772.162391,766.095498
553.631224,518.144159,-9474.636058,0.000000
553.631551,-962.267725,-9400.615463,-1378.971896
553.631879,-1850.514855,-8734.430116,-2374.896044
553.632207,-2442.679609,-9400.615463,-2604.724693
553.632534,-1776.494261,-9400.615463,-2757.943793
553.632862,1110.308913,-8438.347739,-1302.362347
553.633189,3997.112087,-8438.347739,919.314598
553.633517,3775.050304,-8882.471304,1991.848295
553.633844,1776.494261,-10066.800811,1762.019645
553.634172,888.247130,-9770.718434,919.314598
553.634499,0.000000,-9622.677246,383.047749
553.634827,-1480.411884,-10807.006753,0.000000
553.635154,-1184.329507,-10214.842000,-229.828649
553.635482,1406.391290,-9178.553681,842.705048
553.635809,3627.009116,-8512.368333,1838.629195
553.636137,3330.926739,-8438.347739,1685.410096
553.636464,1480.411884,-10288.862594,842.705048
553.636792,0.000000,-10066.800811,-459.657299
553.637120,-1110.308913,-9548.656652,-1685.410096
553.637447,-1924.535449,-9992.780217,-1685.410096
553.637775,-888.247130,-8882.471304,-536.266849
553.638102,2072.576638,-8364.327145,153.219100
553.638430,3330.926739,-8438.347739,2374.896044
553.638757,1702.473667,-9400.615463,2681.334243
553.639085,-1036.288319,-10140.821405,2528.115143
553.639412,-2368.659014,-9696.697840,2451.505594
553.639740,-4293.194464,-11029.068536,919.314598
553.640067,-5551.544565,-11547.212695,842.705048
553.640395,-4219.173869,-9696.697840,919.314598
553.640722,-740.205942,-8216.285956,2451.505594
553.641050,962.267725,-7105.977043,2681.334243
553.641377,0.000000,-7624.121203,2451.505594
553.641705,-740.205942,-8660.409521,1378.971896
553.642033,-2516.700203,-8586.388927,306.438199
553.642360,-3849.070898,-8956.491898,-995.924147
553.642688,-4441.235652,-8438.347739,-1378.971896
553.643015,-1924.535449,-7846.182985,-919.314598
553.643343,1702.473667,-7254.018232,1149.143247
553.643670,2516.700203,-7179.997637,2145.067394
553.643998,1702.473667,-8142.265362,2528.115143
553.644325,0.000000,-8956.491898,2221.676944
553.644653,-1184.329507,-9252.574275,1378.971896
553.644980,-2590.720797,-10436.903782,76.609550
553.645308,-3404.947333,-10436.903782,0.000000
553.645635,-1036.288319,-9030.512492,766.095498
553.645963,2146.597232,-7920.203579,1532.190996
553.646290,2368.659014,-7624.121203,1838.629195
553.646618,1406.391290,-7402.059420,919.314598
553.646946,888.247130,-8068.244768,-153.219100
553.647273,222.061783,-8216.285956,-1532.190996
553.647601,-1628.453072,-8956.491898,-2298.286494
553.647928,-1184.329507,-9326.594869,-2145.067394
553.648256,1406.391290,-7920.203579,-842.705048
553.648583,4219.173869,-7920.203579,766.095498
553.648911,4737.318029,-8586.388927,1762.019645
553.649238,2146.597232,-10066.800811,1225.752797
553.649566,74.020594,-10881.027347,1149.143247
553.649893,-1702.473667,-10955.047942,76.609550
553.650221,-2960.823768,-10955.047942,0.000000
553.650548,-2516.700203,-10510.924376,-229.828649
553.650876,444.123565,-9548.656652,536.266849
553.651203,1998.556043,-8808.450710,1225.752797
553.651531,1258.350101,-8586.388927,1762.019645
553.651858,-444.123565,-8438.347739,0.000000
553.652186,-1258.350101,-8586.388927,-842.705048
553.652514,-2516.700203,-8660.409521,-2298.286494
553.652841,-3034.844362,-9474.636058,-2451.505594
553.653169,-1998.556043,-8364.327145,-1762.019645
553.653496,1036.288319,-7402.059420,153.219100
553.653824,2886.803174,-8216.285956,1838.629195
553.654151,2072.576638,-9474.636058,2451.505594
553.654479,0.000000,-10510.924376,2298.286494
553.654806,-1850.514855,-10436.903782,1225.752797
553.655134,-3330.926739,-10436.903782,536.266849
553.655461,-4219.173869,-11473.192101,76.609550
553.655789,-2738.761985,-10436.903782,689.485948
553.656116,592.164754,-9030.512492,1991.848295
553.656444,2516.700203,-8438.347739,2451.505594
553.656771,2368.659014,-9030.512492,2528.115143
553.657099,296.082377,-9178.553681,766.095498
553.657427,-1036.288319,-9104.533087,0.000000
553.657754,-1998.556043,-9770.718434,-1225.752797
553.658082,-2812.782580,-10140.821405,-1225.752797
553.658409,-962.267725,-9178.553681,-612.876398
553.658737,2220.617826,-8068.244768,842.705048
553.659064,3182.885551,-8068.244768,2221.676944
553.659392,2072.576638,-9326.594869,2681.334243
553.659719,444.123565,-9474.636058,2298.286494
553.660047,-1258.350101,-9696.697840,995.924147
553.660374,-2812.782580,-10436.903782,306.438199
553.660702,-3627.009116,-9844.739029,-306.438199
553.661029,-1036.288319,-7994.224174,383.047749
553.661357,1850.514855,-7031.956449,1532.190996
553.661684,2960.823768,-7698.141797,1838.629195
553.662012,1776.494261,-8438.347739,1915.238745
553.662340,296.082377,-8068.244768,766.095498
553.662667,-740.205942,-8586.388927,-459.657299
553.662995,-1628.453072,-9992.780217,-1072.533697
553.663322,-2220.617826,-9992.780217,-1072.533697
553.663650,74.020594,-9178.553681,76.609550
553.663977,2072.576638,-9030.512492,1838.629195
553.664305,2368.659014,-8660.409521,2298.286494
553.664632,1184.329507,-9252.574275,2451.505594
553.664960,0.000000,-9252.574275,1378.971896
553.665287,-1850.514855,-9992.780217,689.485948
553.665615,-3997.112087,-9474.636058,0.000000
553.665942,-3849.070898,-8808.450710,0.000000
553.666270,-1184.329507,-7105.977043,229.828649
553.666597,1406.391290,-7031.956449,1455.581446
553.666925,1480.411884,-7698.141797,1532.190996
553.667253,444.123565,-7698.141797,1225.752797
553.667580,-518.144159,-8142.265362,306.438199
553.667908,-1998.556043,-8734.430116,-306.438199
553.668235,-2960.823768,-10066.800811,-689.485948
553.668563,-3627.009116,-9696.697840,0.000000
553.668890,0.000000,-8586.388927,229.828649
553.669218,1554.432478,-8142.265362,842.705048
553.669545,1406.391290,-8216.285956,1532.190996
553.669873,222.061783,-8586.388927,1072.533697
553.670200,-888.247130,-9030.512492,153.219100
553.670528,-1924.535449,-9326.594869,0.000000
553.670855,-1850.514855,-9252.574275,-842.705048
553.671183,-888.247130,-8216.285956,-383.047749
553.671510,1554.432478,-7994.224174,612.876398
553.671838,2220.617826,-8364.327145,1072.533697
553.672165,1184.329507,-9030.512492,1608.800546
553.672493,0.000000,-9622.677246,536.266849
553.672821,-592.164754,-9844.739029,-229.828649
553.673148,-1776.494261,-10807.006753,-995.924147
553.673476,-2442.679609,-10732.986159,-1302.362347
553.673803,0.000000,-9548.656652,-459.657299
553.674131,2368.659014,-8586.388927,0.000000
553.674458,3108.864956,-8660.409521,1225.752797
553.674786,1184.329507,-9992.780217,689.485948
553.675113,-296.082377,-9918.759623,0.000000
553.675441,-1184.329507,-10140.821405,-689.485948
553.675768,-1480.411884,-10140.821405,-689.485948
553.676096,-1850.514855,-10881.027347,-459.657299
553.676423,74.020594,-9622.677246,229.828649
553.676751,2368.659014,-8734.430116,995.924147
553.677078,2442.679609,-9844.739029,1455.581446
553.677406,1406.391290,-10362.883188,2374.896044
553.677734,-296.082377,-9474.636058,1225.752797
553.678061,-518.144159,-9770.718434,383.047749
553.678389,-814.226536,-10436.903782,0.000000
553.678716,-1184.329507,-10362.883188,459.657299
553.679044,1184.329507,-9326.594869,1532.190996
553.679371,2590.720797,-7698.141797,2451.505594
553.679699,1924.535449,-8808.450710,2604.724693
553.680026,-888.247130,-9844.739029,2068.457845
553.680354,-2590.720797,-9992.780217,1072.533697
553.680681,-3182.885551,-9770.718434,1072.533697
553.681009,-3182.885551,-9474.636058,689.485948
553.681336,-2812.782580,-9030.512492,1072.533697
553.681664,-1110.308913,-8586.388927,1532.190996
553.681991,222.061783,-8216.285956,2451.505594
553.682319,-888.247130,-8660.409521,2068.457845
553.682647,-2590.720797,-8142.265362,842.705048
553.682974,-3034.844362,-8364.327145,0.000000
553.683302,-2960.823768,-8882.471304,-536.266849
553.683629,-2886.803174,-9178.553681,0.000000
553.683957,-1628.453072,-7994.224174,459.657299
553.684284,1480.411884,-6883.915261,2298.286494
553.684612,2960.823768,-6735.874072,2911.162892
553.684939,1480.411884,-8586.388927,2374.896044
553.685267,-1036.288319,-9178.553681,1225.752797
553.685594,-1924.535449,-9326.594869,229.828649
553.685922,-2960.823768,-9030.512492,-76.609550
553.686249,-2368.659014,-9548.656652,-229.828649
553.686577,-962.267725,-9030.512492,0.000000
553.686904,2072.576638,-7476.080014,919.314598
553.687232,4145.153275,-7105.977043,1991.848295
553.687560,3182.885551,-7328.038826,995.924147
553.687887,1184.329507,-8364.327145,919.314598
553.688215,222.061783,-8364.327145,-995.924147
553.688542,-962.267725,-9104.533087,-1072.533697
553.688870,-1850.514855,-8956.491898,-995.924147
553.689197,0.000000,-8882.471304,0.000000
553.689525,2220.617826,-8142.265362,1532.190996
553.689852,2664.741391,-8290.306550,2451.505594
553.690180,1406.391290,-9400.615463,1838.629195
553.690507,-148.041188,-9252.574275,919.314598
553.690835,-1480.411884,-9326.594869,-383.047749
553.691162,-2590.720797,-10066.800811,-766.095498
553.691490,-3330.926739,-9622.677246,-1915.238745
553.691817,-1110.308913,-8364.327145,-919.314598
553.692145,1406.391290,-7550.100608,76.609550
553.692472,2738.761985,-7179.997637,842.705048
553.692800,1480.411884,-7698.141797,536.266849
553.693128,592.164754,-8216.285956,0.000000
553.693455,-740.205942,-8956.491898,-842.705048
553.693783,-2368.659014,-10140.821405,-919.314598
553.694110,-2960.823768,-9918.759623,-919.314598
553.694438,-370.102971,-9474.636058,0.000000
553.694765,2220.617826,-8808.450710,1762.019645
553.695093,2368.659014,-9918.759623,2911.162892
553.695420,814.226536,-10658.965565,2298.286494
553.695748,-666.185348,-10807.006753,1302.362347
553.696075,-2516.700203,-11251.130318,0.000000
553.696403,-3849.070898,-11177.109724,0.000000
553.696730,-3552.988522,-10510.924376,-1532.190996
553.697058,-1406.391290,-9474.636058,-1072.533697
553.697385,962.267725,-8660.409521,76.609550
553.697713,1110.308913,-8734.430116,229.828649
553.698041,518.144159,-8586.388927,0.000000
553.698368,74.020594,-8290.306550,-459.657299
553.698696,-814.226536,-9474.636058,-1072.533697
553.699023,-2516.700203,-10288.862594,-1378.971896
553.699351,-1628.453072,-10066.800811,-229.828649
553.699678,888.247130,-8512.368333,1072.533697
553.700006,2812.782580,-8882.471304,2911.162892
553.700333,2220.617826,-10436.903782,3064.381992
553.700661,0.000000,-11029.068536,2374.896044
553.700988,-518.144159,-10288.862594,1532.190996
553.701316,-1702.473667,-10362.883188,766.095498
553.701643,-1850.514855,-10510.924376,229.828649
553.701971,-814.226536,-9030.512492,0.000000
553.702298,1998.556043,-8216.285956,919.314598
553.702626,3256.906145,-7254.018232,1302.362347
553.702954,2960.823768,-8512.368333,2298.286494
553.703281,2294.638420,-8438.347739,2145.067394
553.703609,444.123565,-8586.388927,1225.752797
553.703936,-740.205942,-10436.903782,1225.752797
553.704264,-2590.720797,-10658.965565,919.314598
553.704591,-1184.329507,-9696.697840,2221.676944
553.704919,518.144159,-9178.553681,3677.258390
553.705246,1184.329507,-8660.409521,3983.696590
553.705574,-1258.350101,-9474.636058,2987.772442
553.705901,-3182.885551,-9178.553681,2145.067394
553.706229,-3701.029710,-8808.450710,459.657299
553.706556,-5033.400406,-8068.244768,-612.876398
553.706884,-4885.359217,-7920.203579,-1302.362347
553.707211,-2516.700203,-7179.997637,-842.705048
553.707539,0.000000,-6735.874072,0.000000
553.707867,-222.061783,-7179.997637,153.219100
553.708194,-1184.329507,-7994.224174,0.000000
553.708522,-1998.556043,-8142.265362,-995.924147
553.708849,-1554.432478,-8956.491898,-1149.143247
553.709177,-1998.556043,-9696.697840,-1072.533697
553.709504,-814.226536,-9474.636058,-383.047749
553.709832,2146.597232,-8290.306550,1072.533697
553.710159,4515.256246,-7920.203579,2451.505594
553.710487,3775.050304,-9030.512492,3370.820191
553.710814,1776.494261,-10066.800811,2374.896044
553.711142,0.000000,-10214.842000,1149.143247
553.711469,-1258.350101,-10140.821405,-383.047749
553.711797,-2146.597232,-9992.780217,-1685.410096
553.712124,-1110.308913,-8882.471304,-1532.190996
553.712452,1554.432478,-7698.141797,-842.705048
553.712779,3701.029710,-6809.894666,-229.828649
553.713107,3701.029710,-6661.853478,-153.219100
553.713435,2294.638420,-7476.080014,-229.828649
553.713762,518.144159,-7550.100608,-995.924147
553.714090,-518.144159,-8882.471304,-1532.190996
553.714417,-2516.700203,-10584.944971,-1149.143247
553.714745,-1850.514855,-10436.903782,0.000000
553.715072,888.247130,-9844.739029,1838.629195
553.715400,1702.473667,-8808.450710,3294.210641
553.715727,1110.308913,-10436.903782,3064.381992
553.716055,-888.247130,-10807.006753,1915.238745
553.716382,-2146.597232,-10362.883188,612.876398
553.716710,-2664.741391,-10288.862594,-459.657299
553.717037,-3330.926739,-10140.821405,-1455.581446
553.717365,-2664.741391,-8956.491898,-842.705048
553.717692,592.164754,-8216.285956,0.000000
553.718020,1554.432478,-7920.203579,306.438199
553.718348,1628.453072,-8364.327145,766.095498
553.718675,518.144159,-8734.430116,306.438199
553.719003,-666.185348,-8882.471304,0.000000
553.719330,-2590.720797,-11029.068536,-383.047749
553.719658,-3404.947333,-11399.171507,-153.219100
553.719985,-1554.432478,-10140.821405,1072.533697
553.720313,1258.350101,-9252.574275,2987.772442
553.720640,2368.659014,-9474.636058,3983.696590
553.720968,1110.308913,-9992.780217,2987.772442
553.721295,-370.102971,-9548.656652,2451.505594
553.721623,-1554.432478,-9252.574275,766.095498
553.721950,-3034.844362,-9400.615463,-306.438199
553.722278,-2442.679609,-9252.574275,-766.095498
553.722605,-370.102971,-7994.224174,-919.314598
553.722933,1776.494261,-7476.080014,76.609550
553.723260,2886.803174,-7994.224174,842.705048
553.723587,1924.535449,-8512.368333,612.876398
553.723915,444.123565,-9252.574275,842.705048
553.724242,-370.102971,-8956.491898,459.657299
553.724570,-2220.617826,-10436.903782,-459.657299
553.724897,-2294.638420,-10214.842000,0.000000
553.725224,148.041188,-9474.636058,1378.971896
553.725552,1850.514855,-8808.450710,2604.724693
553.725879,1998.556043,-7846.182985,3217.601092
553.726207,518.144159,-9104.533087,2911.162892
553.726534,-518.144159,-8956.491898,1838.629195
553.726861,-2220.617826,-9326.594869,383.047749
553.727189,-3404.947333,-8734.430116,-459.657299
553.727516,-2812.782580,-7476.080014,-689.485948
553.727844,222.061783,-6809.894666,0.000000
553.728171,888.247130,-6735.874072,229.828649
553.728498,1110.308913,-7402.059420,383.047749
553.728826,0.000000,-7920.203579,0.000000
553.729153,-814.226536,-7772.162391,-1149.143247
553.729481,-1998.556043,-9030.512492,-842.705048
553.729808,-2960.823768,-10362.883188,-689.485948
553.730135,-1924.535449,-9400.615463,153.219100
553.730463,888.247130,-8586.388927,1455.581446
553.730790,2442.679609,-8882.471304,2834.553343
553.731118,1702.473667,-9252.574275,2834.553343
553.731445,0.000000,-9992.780217,2068.457845
553.731772,-740.205942,-9918.759623,766.095498
553.732100,-1702.473667,-9992.780217,459.657299
553.732427,-2368.659014,-9770.718434,-383.047749
553.732755,-444.123565,-9104.533087,-229.828649
553.733082,1184.329507,-8364.327145,229.828649
553.733409,1776.494261,-8512.368333,459.657299
553.733737,592.164754,-9178.553681,-306.438199
553.734064,-370.102971,-9178.553681,-995.924147
553.734392,-666.185348,-9696.697840,-1455.581446
553.734719,-1554.432478,-9474.636058,-1608.800546
553.735047,-888.247130,-9770.718434,-1225.752797
553.735374,1258.350101,-8956.491898,0.000000
553.735701,2664.741391,-8660.409521,1685.410096
553.736029,2294.638420,-9326.594869,2604.724693
553.736356,148.041188,-9548.656652,2298.286494
553.736684,-962.267725,-10436.903782,1302.362347
553.737011,-1776.494261,-10140.821405,306.438199
553.737338,-2442.679609,-11177.109724,0.000000
553.737666,-2220.617826,-10362.883188,-306.438199
553.737993,222.061783,-9104.533087,919.314598
553.738321,1702.473667,-8216.285956,919.314598
553.738648,1184.329507,-9030.512492,612.876398
553.738975,0.000000,-9548.656652,-153.219100
553.739303,-962.267725,-9770.718434,-766.095498
553.739630,-1924.535449,-9400.615463,-1302.362347
553.739958,-1924.535449,-9400.615463,-766.095498
553.740285,-370.102971,-9030.512492,306.438199
553.740612,2368.659014,-8438.347739,2221.676944
553.740940,3034.844362,-7994.224174,3294.210641
553.741267,2590.720797,-9104.533087,4290.134789
553.741595,0.000000,-9622.677246,3294.210641
553.741922,-1258.350101,-9918.759623,2604.724693
553.742249,-2738.761985,-10362.883188,1455.581446
553.742577,-3849.070898,-10140.821405,689.485948
553.742904,-3478.967927,-8956.491898,76.609550
553.743232,-962.267725,-7624.121203,919.314598
553.743559,814.226536,-6957.935855,995.924147
553.743886,1258.350101,-6883.915261,842.705048
553.744214,0.000000,-6957.935855,-383.047749
553.744541,-666.185348,-7624.121203,-995.924147
553.744869,-1776.494261,-8216.285956,-1149.143247
553.745196,-2368.659014,-9252.574275,-1302.362347
553.745523,-962.267725,-8734.430116,0.000000
553.745851,1776.494261,-8512.368333,1915.238745
553.746178,2664.741391,-9252.574275,2987.772442
553.746506,1258.350101,-9696.697840,3370.820191
553.746833,0.000000,-9992.780217,2604.724693
553.747160,-1628.453072,-9400.615463,1378.971896
553.747488,-2442.679609,-9548.656652,383.047749
553.747815,-2960.823768,-10066.800811,-689.485948
553.748143,-1036.288319,-8808.450710,-612.876398
553.748470,1110.308913,-7624.121203,76.609550
553.748797,2368.659014,-7179.997637,229.828649
553.749125,1406.391290,-7772.162391,76.609550
553.749452,222.061783,-8512.368333,-1149.143247
553.749780,-814.226536,-8808.450710,-1302.362347
553.750107,-2368.659014,-9474.636058,-1838.629195
553.750434,-2886.803174,-9770.718434,-1915.238745
553.750762,-740.205942,-9104.533087,-459.657299
553.751089,1924.535449,-8808.450710,995.924147
553.751417,2590.720797,-8364.327145,2221.676944
553.751744,1406.391290,-9622.677246,2451.505594
553.752071,-370.102971,-9548.656652,1149.143247
553.752399,-1776.494261,-9696.697840,612.876398
553.752726,-3034.844362,-10140.821405,-383.047749
553.753054,-2516.700203,-9696.697840,-919.314598
553.753381,-148.041188,-8438.347739,-459.657299
553.753708,2368.659014,-8290.306550,383.047749
553.754036,2368.659014,-8660.409521,536.266849
553.754363,1406.391290,-9252.574275,229.828649
553.754691,296.082377,-9474.636058,-459.657299
553.755018,-370.102971,-9992.780217,-842.705048
553.755345,-1702.473667,-11325.150913,-1149.143247
553.755673,-1332.370696,-10658.965565,-842.705048
553.756000,1184.329507,-9548.656652,689.485948
553.756328,2664.741391,-9548.656652,2528.115143
553.756655,2738.761985,-9992.780217,3064.381992
553.756982,1110.308913,-11029.068536,2757.943793
553.757310,-444.123565,-10288.862594,2145.067394
553.757637,-2442.679609,-10288.862594,1149.143247
553.757965,-3478.967927,-10955.047942,459.657299
553.758292,-2738.761985,-9622.677246,459.657299
553.758619,0.000000,-8586.388927,1302.362347
553.758947,1332.370696,-9178.553681,1685.410096
553.759274,370.102971,-9474.636058,1455.581446
553.759602,-1406.391290,-9622.677246,306.438199
553.759929,-2072.576638,-9474.636058,-536.266849
553.760257,-2812.782580,-9474.636058,-995.924147
553.760584,-2072.576638,-9548.656652,-1608.800546
553.760911,-222.061783,-8660.409521,0.000000
553.761239,2146.597232,-7846.182985,1532.190996
553.761566,2886.803174,-7846.182985,2911.162892
553.761894,1850.514855,-9030.512492,3140.991542
553.762221,-296.082377,-9696.697840,2911.162892
553.762548,-1776.494261,-10066.800811,1608.800546
553.762876,-3552.988522,-10881.027347,842.705048
553.763203,-4071.132681,-10288.862594,229.828649
553.763531,-2368.659014,-8734.430116,383.047749
553.763858,814.226536,-7328.038826,1302.362347
553.764185,2368.659014,-7550.100608,1685.410096
553.764513,1924.535449,-7550.100608,612.876398
553.764840,1184.329507,-7328.038826,0.000000
553.765168,74.020594,-7105.977043,-612.876398
553.765495,-1258.350101,-8290.306550,-1838.629195
553.765822,-2294.638420,-8734.430116,-1685.410096
553.766150,0.000000,-8512.368333,-383.047749
553.766477,2146.597232,-7846.182985,1378.971896
553.766805,2738.761985,-7402.059420,2298.286494
553.767132,1850.514855,-9104.533087,2757.943793
553.767459,-222.061783,-8882.471304,2221.676944
553.767787,-1480.411884,-9178.553681,1149.143247
553.768114,-2812.782580,-9770.718434,0.000000
553.768442,-2738.761985,-8734.430116,-459.657299
553.768769,-666.185348,-7698.141797,1072.533697
553.769096,2368.659014,-6735.874072,1225.752797
553.769424,2516.700203,-7179.997637,1072.533697
553.769751,1554.432478,-7624.121203,689.485948
553.770079,74.020594,-7550.100608,-383.047749
553.770406,-1184.329507,-8290.306550,-1378.971896
553.770733,-3034.844362,-9326.594869,-1915.238745
553.771061,-3034.844362,-9770.718434,-1685.410096
553.771388,-1036.288319,-9252.574275,0.000000
553.771716,888.247130,-9104.533087,1455.581446
553.772043,1480.411884,-9104.533087,2298.286494
553.772370,444.123565,-9400.615463,2145.067394
553.772698,-666.185348,-9918.759623,1762.019645
553.773025,-2368.659014,-10066.800811,459.657299
553.773353,-3552.988522,-9992.780217,-153.219100
553.773680,-2516.700203,-9252.574275,-306.438199
553.774007,0.000000,-8660.409521,766.095498
553.774335,1850.514855,-8142.265362,1225.752797
553.774662,1850.514855,-8438.347739,1072.533697
553.774990,1036.288319,-8956.491898,689.485948
553.775317,0.000000,-9474.636058,-229.828649
553.775644,-1628.453072,-10510.924376,-1608.800546
553.775972,-3182.885551,-11177.109724,-1608.800546
553.776299,-1702.473667,-10362.883188,-995.924147
553.776627,1480.411884,-9326.594869,459.657299
553.776954,2886.803174,-9178.553681,1915.238745
553.777281,2516.700203,-9770.718434,1838.629195
553.777609,1480.411884,-9622.677246,3064.381992
553.777936,0.000000,-9918.759623,1762.019645
553.778264,-2072.576638,-10732.986159,842.705048
553.778591,-2442.679609,-11325.150913,612.876398
553.778918,-1776.494261,-9992.780217,1072.533697
553.779246,962.267725,-9474.636058,1762.019645
553.779573,1850.514855,-9474.636058,2068.457845
553.779901,666.185348,-9622.677246,1455.581446
553.780228,-370.102971,-9918.759623,1072.533697
553.780555,-1628.453072,-9548.656652,-153.219100
553.780883,-2590.720797,-9400.615463,-1455.581446
553.781210,-2442.679609,-9252.574275,-1149.143247
553.781538,-444.123565,-7920.203579,-536.266849
553.781865,2294.638420,-7476.080014,1072.533697
553.782192,2664.741391,-7920.203579,2221.676944
553.782520,1110.308913,-7846.182985,1991.848295
553.782847,74.020594,-8808.450710,2374.896044
553.783175,-1702.473667,-9548.656652,1225.752797
553.783502,-3256.906145,-10288.862594,536.266849
553.783830,-3330.926739,-10214.842000,383.047749
553.784157,-592.164754,-8808.450710,1225.752797
553.784484,1406.391290,-8068.244768,2221.676944
553.784812,1554.432478,-8142.265362,2068.457845
553.785139,1036.288319,-8364.327145,1225.752797
553.785467,-518.144159,-8734.430116,0.000000
553.785794,-1776.494261,-9030.512492,-1149.143247
553.786121,-3182.885551,-8808.450710,-2451.505594
553.786449,-1776.494261,-9178.553681,-1915.238745
553.786776,592.164754,-8290.306550,-612.876398
553.787104,2812.782580,-8364.327145,689.485948
553.787431,2368.659014,-9030.512492,1378.971896
553.787758,666.185348,-9474.636058,2145.067394
553.788086,-222.061783,-9252.574275,153.219100
553.788413,-1702.473667,-9548.656652,-459.657299
553.788741,-2590.720797,-9548.656652,-919.314598
553.789068,-962.267725,-9178.553681,-306.438199
553.789395,1332.370696,-8216.285956,995.924147
553.789723,2072.576638,-7476.080014,842.705048
553.790050,1110.308913,-8882.471304,919.314598
553.790378,0.000000,-8734.430116,76.609550
553.790705,-222.061783,-8068.244768,-689.485948
553.791032,-1110.308913,-8808.450710,-1608.800546
553.791360,-1036.288319,-8586.388927,-1149.143247
553.791687,592.164754,-8438.347739,-306.438199
553.792015,2960.823768,-7402.059420,1225.752797
553.792342,4219.173869,-7994.224174,2221.676944
553.792669,2442.679609,-9326.594869,2145.067394
553.792997,222.061783,-9992.780217,2068.457845
553.793324,-1776.494261,-10288.862594,1149.143247
553.793652,-3849.070898,-11399.171507,76.609550
553.793979,-4589.276840,-11029.068536,0.000000
553.794306,-2146.597232,-9696.697840,766.095498
553.794634,888.247130,-8660.409521,1915.238745
553.794961,1850.514855,-8142.265362,1991.848295
553.795289,1110.308913,-8660.409521,2145.067394
553.795616,-666.185348,-8734.430116,995.924147
553.795943,-1998.556043,-7920.203579,-229.828649
553.796271,-2516.700203,-9326.594869,-842.705048
553.796598,-3478.967927,-9178.553681,-1532.190996
553.796926,-1554.432478,-8512.368333,-306.438199
553.797253,518.144159,-7772.162391,842.705048
553.797580,1036.288319,-8364.327145,2145.067394
553.797908,814.226536,-8956.491898,1762.019645
553.798235,-518.144159,-9400.615463,1532.190996
553.798563,-1924.535449,-9992.780217,459.657299
553.798890,-3404.947333,-11399.171507,0.000000
553.799217,-3108.864956,-10658.965565,-76.609550
553.799545,-296.082377,-9252.574275,842.705048
553.799872,2590.720797,-7846.182985,1762.019645
553.800200,3034.844362,-8290.306550,1991.848295
553.800527,1776.494261,-9178.553681,1455.581446
553.800854,592.164754,-8734.430116,919.314598
553.801182,-888.247130,-9178.553681,0.000000
553.801509,-1924.535449,-10362.883188,-842.705048
553.801837,-2146.597232,-9992.780217,-689.485948
553.802164,518.144159,-9252.574275,612.876398
553.802491,1850.514855,-8290.306550,1225.752797
553.802819,1480.411884,-8808.450710,1915.238745
553.803146,740.205942,-9104.533087,1915.238745
553.803474,-666.185348,-9030.512492,766.095498
553.803801,-1998.556043,-9400.615463,76.609550
553.804128,-3034.844362,-9474.636058,-536.266849
553.804456,-2442.679609,-9030.512492,-689.485948
553.804783,0.000000,-7994.224174,459.657299
553.805111,1480.411884,-7105.977043,1378.971896
553.805438,1998.556043,-7550.100608,1838.629195
553.805765,962.267725,-8068.244768,995.924147
553.806093,222.061783,-8512.368333,536.266849
553.806420,-2072.576638,-9474.636058,-306.438199
553.806748,-3849.070898,-9696.697840,-995.924147
553.807075,-2368.659014,-9474.636058,-612.876398
553.807402,0.000000,-8808.450710,459.657299
553.807730,1776.494261,-8882.471304,1762.019645
553.808057,1332.370696,-9326.594869,1685.410096
553.808385,592.164754,-9622.677246,1685.410096
553.808712,-814.226536,-9104.533087,536.266849
553.809040,-2072.576638,-9474.636058,-229.828649
553.809367,-2960.823768,-9992.780217,-842.705048
553.809694,-888.247130,-8734.430116,-306.438199
553.810022,740.205942,-7920.203579,383.047749
553.810349,2146.597232,-7772.162391,995.924147
553.810677,1554.432478,-8586.388927,1302.362347
553.811004,740.205942,-8956.491898,1225.752797
553.811331,-296.082377,-9474.636058,612.876398
553.811659,-1406.391290,-10807.006753,153.219100
553.811986,-2590.720797,-10436.903782,-459.657299
553.812314,-962.267725,-9844.739029,536.266849
553.812641,1184.329507,-9474.636058,919.314598
553.812968,1480.411884,-9622.677246,1302.362347
553.813296,740.205942,-9474.636058,1302.362347
553.813623,0.000000,-9178.553681,612.876398
553.813951,-962.267725,-9252.574275,-229.828649
553.814278,-2072.576638,-9548.656652,-766.095498
553.814605,-2146.597232,-9474.636058,-842.705048
553.814933,-148.041188,-8882.471304,0.000000
553.815260,1332.370696,-8512.368333,689.485948
553.815588,1628.453072,-9178.553681,1455.581446
553.815915,0.000000,-9474.636058,1302.362347
553.816242,-370.102971,-9474.636058,842.705048
553.816570,-1776.494261,-9844.739029,153.219100
553.816897,-2220.617826,-10436.903782,153.219100
553.817225,-1998.556043,-9770.718434,0.000000
553.817552,518.144159,-8660.409521,1149.143247
553.817879,2072.576638,-8216.285956,1608.800546
553.818207,1924.535449,-8586.388927,2145.067394
553.818534,1036.288319,-8734.430116,1532.190996
553.818862,592.164754,-8364.327145,459.657299
553.819189,-962.267725,-9030.512492,229.828649
553.819516,-2146.597232,-9918.759623,0.000000
553.819844,-1480.411884,-9104.533087,0.000000
553.820171,814.226536,-8808.450710,842.705048
553.820499,1258.350101,-8512.368333,2145.067394
553.820826,592.164754,-9030.512492,1455.581446
553.821153,-814.226536,-9474.636058,1072.533697
553.821481,-1332.370696,-9548.656652,766.095498
553.821808,-1998.556043,-9992.780217,0.000000
553.822135,-2442.679609,-9622.677246,-153.219100
553.822463,222.061783,-8808.450710,536.266849
553.822790,1628.453072,-7772.162391,1762.019645
553.823117,2368.659014,-7994.224174,2451.505594
553.823444,962.267725,-8734.430116,2221.676944
553.823772,0.000000,-8660.409521,1915.238745
553.824099,-1184.329507,-8660.409521,383.047749
553.824426,-3108.864956,-10066.800811,-689.485948
553.824754,-3627.009116,-10436.903782,-995.924147
553.825081,-1850.514855,-8882.471304,-229.828649
553.825408,1036.288319,-7624.121203,306.438199
553.825736,2072.576638,-7994.224174,995.924147
553.826063,1258.350101,-9030.512492,995.924147
553.826390,0.000000,-8808.450710,306.438199
553.826718,-740.205942,-9030.512492,-383.047749
553.827045,-2368.659014,-9844.739029,-1149.143247
553.827372,-2368.659014,-9918.759623,-1072.533697
553.827700,-148.041188,-8882.471304,0.000000
553.828027,2368.659014,-7994.224174,1072.533697
553.828354,2220.617826,-8512.368333,2068.457845
553.828682,1258.350101,-9252.574275,1838.629195
553.829009,74.020594,-9030.512492,1378.971896
553.829336,-962.267725,-9548.656652,0.000000
553.829664,-2960.823768,-10510.924376,-1302.362347
553.829991,-3108.864956,-10288.862594,-1149.143247
553.830318,-1110.308913,-9104.533087,-689.485948
553.830646,1628.453072,-7846.182985,383.047749
553.830973,2294.638420,-8364.327145,1072.533697
553.831300,2072.576638,-9030.512492,1072.533697
553.831628,1110.308913,-8734.430116,459.657299
553.831955,74.020594,-9104.533087,-306.438199
553.832282,-1924.535449,-9918.759623,-1225.752797
553.832610,-962.267725,-9178.553681,306.438199
553.832937,1480.411884,-8438.347739,1225.752797
553.833264,3108.864956,-8364.327145,2451.505594
553.833592,2590.720797,-9030.512492,3217.601092
553.833919,518.144159,-9622.677246,2834.553343
553.834246,-666.185348,-9622.677246,2451.505594
553.834574,-3256.906145,-10362.883188,0.000000
553.834901,-4663.297435,-10955.047942,-842.705048
553.835228,-4071.132681,-9770.718434,-842.705048
553.835556,-1258.350101,-8364.327145,-306.438199
553.835883,518.144159,-7920.203579,0.000000
553.836210,518.144159,-7994.224174,229.828649
553.836538,-148.041188,-8290.306550,76.609550
553.836865,-444.123565,-8216.285956,-383.047749
553.837192,-1776.494261,-8512.368333,-689.485948
553.837520,-2664.741391,-9178.553681,-995.924147
553.837847,-666.185348,-8660.409521,0.000000
553.838174,1406.391290,-8364.327145,1838.629195
553.838502,2072.576638,-8808.450710,2681.334243
553.838829,1036.288319,-9622.677246,2911.162892
553.839156,-444.123565,-9844.739029,2528.115143
553.839484,-1628.453072,-9770.718434,1225.752797
553.839811,-2960.823768,-10362.883188,0.000000
553.840138,-3330.926739,-10066.800811,-766.095498
553.840466,-740.205942,-8438.347739,-689.485948
553.840793,2146.597232,-7179.997637,0.000000
553.841120,3108.864956,-7698.141797,1302.362347
553.841448,2516.700203,-8142.265362,842.705048
553.841775,1702.473667,-8290.306550,536.266849
553.842102,74.020594,-8586.388927,-153.219100
553.842430,-888.247130,-10066.800811,-153.219100
553.842757,-1258.350101,-9696.697840,842.705048
553.843084,814.226536,-9326.594869,1532.190996
553.843412,2072.576638,-9104.533087,2681.334243
553.843739,814.226536,-9844.739029,3294.210641
553.844066,-666.185348,-10436.903782,2911.162892
553.844394,-2294.638420,-9400.615463,1225.752797
553.844721,-2738.761985,-9474.636058,0.000000
553.845048,-4145.153275,-9548.656652,-842.705048
553.845376,-3182.885551,-8808.450710,-995.924147
553.845703,-518.144159,-7179.997637,-383.047749
553.846030,1554.432478,-6365.771101,229.828649
553.846358,2442.679609,-7105.977043,766.095498
553.846685,1184.329507,-7994.224174,306.438199
553.847012,-592.164754,-8882.471304,0.000000
553.847340,-1776.494261,-10140.821405,-229.828649
553.847667,-3182.885551,-11103.089130,-306.438199
553.847994,-2886.803174,-9992.780217,383.047749
553.848322,666.185348,-9622.677246,1915.238745
553.848649,2072.576638,-9400.615463,2681.334243
553.848976,1184.329507,-9400.615463,2911.162892
553.849304,518.144159,-9622.677246,2298.286494
553.849631,-740.205942,-8956.491898,1532.190996
553.849958,-1776.494261,-10066.800811,-536.266849
553.850286,-3627.009116,-10732.986159,-1225.752797
553.850613,-1998.556043,-9696.697840,-1378.971896
553.850940,666.185348,-8660.409521,0.000000
553.851268,2664.741391,-8216.285956,995.924147
553.851595,2368.659014,-8586.388927,689.485948
553.851922,1406.391290,-9178.553681,76.609550
553.852250,0.000000,-9326.594869,-459.657299
553.852577,-1480.411884,-10584.944971,-689.485948
553.852904,-2664.741391,-10732.986159,-842.705048
553.853232,-962.267725,-9474.636058,153.219100
553.853559,1480.411884,-8882.471304,1532.190996
553.853886,2294.638420,-9104.533087,2604.724693
553.854214,1702.473667,-9474.636058,3140.991542
553.854541,222.061783,-8882.471304,2068.457845
553.854868,-814.226536,-9104.533087,1838.629195
553.855196,-2368.659014,-9474.636058,76.609550
553.855523,-3034.844362,-9918.759623,-383.047749
553.855850,-740.205942,-8734.430116,0.000000
553.856177,1850.514855,-7402.059420,842.705048
553.856505,2664.741391,-8142.265362,1838.629195
553.856832,666.185348,-8438.347739,1838.629195
553.857159,222.061783,-8808.450710,1532.190996
553.857487,0.000000,-8364.327145,842.705048
553.857814,-518.144159,-9030.512492,1149.143247
553.858141,-814.226536,-8956.491898,1838.629195
553.858469,1036.288319,-8660.409521,3447.429741
553.858796,2220.617826,-8734.430116,4903.011187
553.859123,1406.391290,-8734.430116,5515.887586
553.859451,-444.123565,-9252.574275,4749.792088
553.859778,-1628.453072,-9104.533087,3983.696590
553.860105,-2664.741391,-8882.471304,3753.867940
553.860433,-3330.926739,-9252.574275,2221.676944
553.860760,-3701.029710,-8808.450710,2068.457845
553.861087,-1554.432478,-7624.121203,2221.676944
553.861415,666.185348,-6883.915261,2681.334243
553.861742,1258.350101,-6735.874072,3217.601092
553.862069,-148.041188,-8142.265362,2221.676944
553.862397,-1998.556043,-8586.388927,1225.752797
553.862724,-2442.679609,-8586.388927,919.314598
553.863051,-3256.906145,-8734.430116,689.485948
553.863379,-2368.659014,-8364.327145,1378.971896
553.863706,148.041188,-7920.203579,2451.505594
553.864033,1998.556043,-7476.080014,4290.134789
553.864361,3182.885551,-7624.121203,5362.668486
553.864688,2738.761985,-8734.430116,5669.106685
553.865015,592.164754,-9844.739029,4749.792088
553.865343,-518.144159,-10362.883188,3983.696590
553.865670,-1554.432478,-10732.986159,3370.820191
553.865997,-1110.308913,-10510.924376,3140.991542
553.866325,-296.082377,-10436.903782,2987.772442
553.866652,592.164754,-9622.677246,3370.820191
553.866979,1924.535449,-8438.347739,3830.477490
553.867307,2886.803174,-7994.224174,3677.258390
553.867634,1554.432478,-9252.574275,2987.772442
553.867961,-1702.473667,-10732.986159,1455.581446
553.868289,-3627.009116,-11621.233289,842.705048
553.868616,-4219.173869,-11251.130318,919.314598
553.868943,-3108.864956,-10214.842000,1149.143247
553.869271,-1480.411884,-9992.780217,2374.896044
553.869598,74.020594,-9992.780217,3447.429741
553.869925,814.226536,-9474.636058,4060.306139
553.870253,1554.432478,-8660.409521,4903.011187
553.870580,962.267725,-8882.471304,3983.696590
553.870907,296.082377,-9770.718434,3830.477490
553.871235,-518.144159,-10881.027347,3294.210641
553.871562,148.041188,-10362.883188,3524.039291
553.871889,1332.370696,-9400.615463,3907.087040
553.872217,3182.885551,-9178.553681,4979.620737
553.872544,2516.700203,-9844.739029,4826.401637
553.872871,1258.350101,-10807.006753,4366.744339
553.873199,222.061783,-10362.883188,3830.477490
553.873526,0.000000,-9548.656652,3370.820191
553.873853,740.205942,-9474.636058,3753.867940
553.874181,222.061783,-10881.027347,3907.087040
553.874508,-1406.391290,-11473.192101,3294.210641
553.874835,-2368.659014,-10955.047942,3217.601092
553.875163,-2368.659014,-9400.615463,2987.772442
553.875490,-2220.617826,-8068.244768,3217.601092
553.875817,-1554.432478,-8290.306550,3370.820191
553.876145,-2220.617826,-8068.244768,2528.115143
553.876472,-2960.823768,-8438.347739,2145.067394
553.876799,-2664.741391,-7550.100608,2451.505594
553.877127,-666.185348,-6439.791695,2834.553343
553.877454,1406.391290,-7402.059420,3830.477490
553.877781,2664.741391,-7476.080014,4519.963438
553.878109,1628.453072,-8808.450710,4519.963438
553.878436,-444.123565,-9474.636058,4060.306139
553.878763,-1406.391290,-9474.636058,3447.429741
553.879091,-296.082377,-8808.450710,3677.258390
553.879418,1554.432478,-8512.368333,3907.087040
553.879745,2516.700203,-9104.533087,3830.477490
553.880073,1924.535449,-9696.697840,3983.696590
553.880400,148.041188,-9844.739029,3677.258390
553.880727,-370.102971,-9178.553681,2528.115143
553.881055,0.000000,-8216.285956,2681.334243
553.881382,1702.473667,-7772.162391,2757.943793
553.881709,2146.597232,-7994.224174,3217.601092
553.882037,740.205942,-8734.430116,3370.820191
553.882364,-1480.411884,-8808.450710,4060.306139
553.882691,-3404.947333,-8734.430116,2757.943793
553.883019,-3849.070898,-9030.512492,2145.067394
553.883346,-2886.803174,-8808.450710,1838.629195
553.883673,-1036.288319,-8512.368333,2528.115143
553.884001,296.082377,-7550.100608,3140.991542
553.884328,0.000000,-7179.997637,3524.039291
553.884655,-814.226536,-7920.203579,3140.991542
553.884983,-1554.432478,-8438.347739,2068.457845
553.885310,-2220.617826,-8660.409521,919.314598
553.885637,-888.247130,-8586.388927,995.924147
553.885965,1702.473667,-8290.306550,2604.724693
553.886292,2812.782580,-8068.244768,4136.915689
553.886619,4145.153275,-9178.553681,5209.449386
553.886947,3849.070898,-10584.944971,5515.887586
553.887274,2072.576638,-11473.192101,4443.353888
553.887601,-296.082377,-11843.295072,3907.087040
553.887928,-1998.556043,-12065.356855,3447.429741
553.888256,-1998.556043,-11769.274478,3447.429741
553.888583,222.061783,-10807.006753,4596.572988
553.888910,2516.700203,-9770.718434,5209.449386
553.889238,3627.009116,-9474.636058,5362.668486
553.889565,1554.432478,-9400.615463,5132.839837
553.889892,-1776.494261,-9400.615463,3907.087040
553.890220,-4737.318029,-9548.656652,2221.676944
553.890547,-5181.441594,-9622.677246,1378.971896
553.890874,-4367.215058,-9030.512492,1532.190996
553.891202,-1628.453072,-7402.059420,2374.896044
553.891529,518.144159,-7179.997637,3907.087040
553.891856,1184.329507,-7105.977043,4903.011187
553.892184,222.061783,-7994.224174,5209.449386
553.892511,-1258.350101,-9178.553681,4213.525239
553.892838,-3330.926739,-10214.842000,2374.896044
553.893166,-4441.235652,-10658.965565,1762.019645
553.893493,-3923.091493,-10807.006753,1762.019645
553.893820,-2220.617826,-10140.821405,2604.724693
553.894148,740.205942,-9326.594869,3753.867940
553.894475,2368.659014,-8586.388927,5056.230287
553.894802,3404.947333,-8216.285956,4366.744339
553.895130,2738.761985,-8882.471304,4136.915689
553.895457,1332.370696,-9474.636058,3217.601092
553.895784,148.041188,-10066.800811,2451.505594
553.896112,148.041188,-10140.821405,2757.943793
553.896439,370.102971,-10066.800811,2911.162892
553.896766,0.000000,-9622.677246,3600.648841
553.897094,518.144159,-9178.553681,4213.525239
553.897421,296.082377,-8660.409521,3753.867940
553.897748,-296.082377,-8364.327145,3753.867940
553.898076,148.041188,-8142.265362,2604.724693
553.898403,-370.102971,-7772.162391,2221.676944
553.898730,-148.041188,-7624.121203,2451.505594
553.899058,296.082377,-7328.038826,2834.553343
553.899385,888.247130,-7179.997637,3370.820191
553.899712,1184.329507,-7476.080014,3677.258390
553.900040,1258.350101,-7994.224174,4060.306139
553.900367,370.102971,-8586.388927,3983.696590
553.900694,-592.164754,-9104.533087,3524.039291
553.901022,-1258.350101,-9474.636058,3524.039291
553.901349,-2072.576638,-9474.636058,3294.210641
553.901676,-1036.288319,-9918.759623,2987.772442
553.902004,-888.247130,-9696.697840,2911.162892
553.902331,-518.144159,-9104.533087,3064.381992
553.902658,0.000000,-8882.471304,2987.772442
553.902986,370.102971,-8438.347739,3064.381992
553.903313,-518.144159,-8216.285956,2834.553343
553.903640,-1036.288319,-8142.265362,2451.505594
553.903968,-1480.411884,-8364.327145,2451.505594
553.904295,-1406.391290,-8438.347739,2681.334243
553.904622,-592.164754,-8660.409521,3294.210641
553.904950,148.041188,-8364.327145,3217.601092
553.905277,666.185348,-9326.594869,3830.477490
553.905604,444.123565,-9474.636058,3830.477490
553.905932,0.000000,-9844.739029,3830.477490
553.906259,-888.247130,-9844.739029,3447.429741
553.906586,-1184.329507,-9474.636058,3753.867940
553.906914,-518.144159,-9252.574275,2757.943793
553.907241,0.000000,-9178.553681,2604.724693
553.907568,888.247130,-9104.533087,2911.162892
553.907896,888.247130,-9474.636058,2681.334243
553.908223,370.102971,-9474.636058,2757.943793
553.908550,0.000000,-9992.780217,2451.505594
553.908878,-814.226536,-10362.883188,2451.505594
553.909205,-1110.308913,-10658.965565,2298.286494
553.909532,-740.205942,-10362.883188,2298.286494
553.909860,-962.267725,-9696.697840,1762.019645
553.910187,-518.144159,-10066.800811,2374.896044
553.910514,-962.267725,-9696.697840,1991.848295
553.910842,-1184.329507,-9474.636058,2068.457845
553.911169,-1110.308913,-9474.636058,2068.457845
553.911496,-1036.288319,-8882.471304,1685.410096
553.911824,-222.061783,-8660.409521,1838.629195
553.912151,0.000000,-8364.327145,1378.971896
553.912478,296.082377,-8142.265362,1302.362347
553.912806,666.185348,-8216.285956,1302.362347
553.913133,296.082377,-8660.409521,1455.581446
553.913460,148.041188,-8808.450710,1378.971896
553.913788,-444.123565,-9252.574275,995.924147
553.914115,296.082377,-9918.759623,1532.190996
553.914442,666.185348,-9844.739029,1685.410096
553.914770,1332.370696,-9844.739029,1685.410096
553.915097,1554.432478,-9548.656652,1838.629195
553.915424,1184.329507,-9474.636058,1455.581446
553.915752,1036.288319,-9474.636058,1838.629195
553.916079,0.000000,-9400.615463,1225.752797
553.916406,-370.102971,-9474.636058,1072.533697
553.916734,-740.205942,-9104.533087,995.924147
553.917061,-666.185348,-9030.512492,995.924147
553.917388,-666.185348,-8660.409521,766.095498
553.917716,-518.144159,-8586.388927,842.705048
553.918043,-444.123565,-8586.388927,766.095498
553.918370,-518.144159,-8068.244768,612.876398
553.918698,-444.123565,-7550.100608,612.876398
553.919025,-666.185348,-7402.059420,689.485948
553.919352,-518.144159,-7772.162391,536.266849
553.919680,-666.185348,-8216.285956,689.485948
553.920007,-666.185348,-8364.327145,612.876398
553.920334,-814.226536,-8216.285956,612.876398
553.920661,-666.185348,-8586.388927,1608.800546
553.920989,-666.185348,-8882.471304,1378.971896
553.921316,0.000000,-8882.471304,995.924147
553.921643,148.041188,-8734.430116,612.876398
553.921971,296.082377,-8586.388927,919.314598
553.922298,0.000000,-8956.491898,383.047749
553.922625,-148.041188,-9326.594869,919.314598
553.922953,-222.061783,-9474.636058,1225.752797
553.923280,-296.082377,-9474.636058,1072.533697
553.923607,74.020594,-9474.636058,1302.362347
553.923935,-444.123565,-9400.615463,995.924147
553.924262,-148.041188,-9400.615463,919.314598
553.924589,-222.061783,-8956.491898,766.095498
553.924917,-370.102971,-9252.574275,766.095498
553.925244,-444.123565,-9178.553681,919.314598
553.925571,-444.123565,-9104.533087,1225.752797
553.925899,-814.226536,-9104.533087,1072.533697
553.926226,-888.247130,-8956.491898,689.485948
553.926553,-888.247130,-9252.574275,536.266849
553.926881,-888.247130,-9326.594869,536.266849
553.927208,-962.267725,-8956.491898,766.095498
553.927535,0.000000,-9474.636058,612.876398
553.927863,-296.082377,-9252.574275,383.047749
553.928190,0.000000,-9400.615463,612.876398
553.928517,-222.061783,-9622.677246,383.047749
553.928845,0.000000,-9622.677246,689.485948
553.929172,74.020594,-9548.656652,689.485948
553.929499,-444.123565,-9844.739029,459.657299
553.929827,-296.082377,-10362.883188,689.485948
553.930154,-296.082377,-10362.883188,689.485948
553.930481,-296.082377,-10066.800811,76.609550
553.930809,-222.061783,-9400.615463,919.314598
553.931136,148.041188,-9400.615463,766.095498
553.931463,296.082377,-9326.594869,689.485948
553.931791,444.123565,-9178.553681,689.485948
553.932118,222.061783,-9178.553681,459.657299
553.932445,0.000000,-8586.388927,1072.533697
553.932773,0.000000,-8882.471304,919.314598
553.933100,-148.041188,-9030.512492,383.047749
553.933427,0.000000,-9252.574275,612.876398
553.933755,222.061783,-8956.491898,536.266849
553.934082,74.020594,-8808.450710,612.876398
553.934409,148.041188,-8290.306550,306.438199
553.934736,0.000000,-8660.409521,153.219100
553.935064,-444.123565,-8808.450710,76.609550
553.935391,-444.123565,-8586.388927,76.609550
553.935718,-296.082377,-8660.409521,76.609550
553.936046,-740.205942,-8734.430116,229.828649
553.936373,-666.185348,-9178.553681,459.657299
553.936700,-592.164754,-8956.491898,153.219100
553.937028,-518.144159,-8438.347739,383.047749
553.937355,-296.082377,-8586.388927,229.828649
553.937682,0.000000,-8512.368333,459.657299
553.938010,-444.123565,-8438.347739,306.438199
553.938337,-444.123565,-8438.347739,459.657299
553.938664,-666.185348,-8734.430116,612.876398
553.938992,-814.226536,-8882.471304,842.705048
553.939319,-888.247130,-9104.533087,995.924147
553.939646,-740.205942,-9104.533087,842.705048
553.939974,-592.164754,-8808.450710,1072.533697
553.940301,-592.164754,-8956.491898,842.705048
553.940628,-148.041188,-8660.409521,689.485948
553.940956,0.000000,-8438.347739,919.314598
553.941283,0.000000,-8660.409521,536.266849
553.941610,-444.123565,-8956.491898,919.314598
553.941938,-518.144159,-9400.615463,842.705048
553.942265,-592.164754,-9474.636058,766.095498
553.942592,-518.144159,-9474.636058,766.095498
553.942920,-222.061783,-9474.636058,766.095498
553.943247,-444.123565,-9400.615463,842.705048
553.943574,-370.102971,-9326.594869,536.266849
553.943902,-296.082377,-9252.574275,536.266849
553.944229,-518.144159,-9252.574275,536.266849
553.944556,-592.164754,-9548.656652,536.266849
553.944884,-296.082377,-9400.615463,459.657299
553.945211,-518.144159,-9178.553681,383.047749
553.945538,-296.082377,-9104.533087,459.657299
553.945866,-444.123565,-9400.615463,229.828649
553.946193,-592.164754,-8808.450710,842.705048
553.946520,0.000000,-8956.491898,536.266849
553.946847,0.000000,-8956.491898,383.047749
553.947175,-296.082377,-9400.615463,229.828649
553.947502,-296.082377,-9326.594869,306.438199
553.947829,-296.082377,-9252.574275,1225.752797
553.948157,370.102971,-9474.636058,612.876398
553.948484,-296.082377,-9844.739029,536.266849
553.948811,-222.061783,-9992.780217,995.924147
553.949139,0.000000,-9622.677246,689.485948
553.949466,222.061783,-9030.512492,842.705048
553.949793,-370.102971,-8808.450710,536.266849
553.950121,-518.144159,-9178.553681,153.219100
553.950448,-1036.288319,-9178.553681,459.657299
553.950775,-1110.308913,-8882.471304,383.047749
553.951103,-888.247130,-9030.512492,689.485948
553.951430,-518.144159,-8882.471304,1072.533697
553.951757,-518.144159,-8734.430116,919.314598
553.952085,0.000000,-8660.409521,766.095498
553.952412,222.061783,-8438.347739,612.876398
553.952739,592.164754,-8438.347739,383.047749
553.953067,370.102971,-8586.388927,536.266849
553.953394,-148.041188,-8882.471304,689.485948
553.953721,-444.123565,-9400.615463,1072.533697
553.954049,-666.185348,-9770.718434,919.314598
553.954376,-444.123565,-9770.718434,1072.533697
553.954703,0.000000,-9400.615463,842.705048
553.955031,740.205942,-9030.512492,612.876398
553.955358,666.185348,-8586.388927,229.828649
553.955685,518.144159,-7994.224174,229.828649
553.956013,296.082377,-8068.244768,76.609550
553.956340,0.000000,-7772.162391,459.657299
553.956667,-296.082377,-8660.409521,766.095498
553.956995,-592.164754,-9400.615463,383.047749
553.957322,-740.205942,-9400.615463,612.876398
553.957649,-518.144159,-9548.656652,536.266849
553.957977,-296.082377,-9252.574275,229.828649
553.958304,370.102971,-8882.471304,919.314598
553.958631,222.061783,-8734.430116,0.000000
553.958959,296.082377,-8364.327145,153.219100
553.959286,222.061783,-8512.368333,229.828649
553.959613,0.000000,-8956.491898,76.609550
553.959940,-296.082377,-9178.553681,459.657299
553.960268,-888.247130,-9696.697840,766.095498
553.960595,-962.267725,-9770.718434,383.047749
553.960922,-740.205942,-9400.615463,306.438199
553.961250,-444.123565,-9252.574275,306.438199
553.961577,370.102971,-8660.409521,919.314598
553.961904,814.226536,-8512.368333,0.000000
553.962232,370.102971,-8956.491898,229.828649
553.962559,296.082377,-9474.636058,766.095498
553.962886,0.000000,-9548.656652,612.876398
553.963214,-296.082377,-9918.759623,919.314598
553.963541,-666.185348,-9992.780217,1225.752797
553.963868,-814.226536,-10066.800811,995.924147
553.964196,-444.123565,-9844.739029,842.705048
553.964523,-148.041188,-9252.574275,612.876398
553.964850,-296.082377,-8956.491898,383.047749
553.965178,-222.061783,-8586.388927,612.876398
553.965505,-666.185348,-9178.553681,459.657299
553.965832,-962.267725,-9030.512492,766.095498
553.966160,-888.247130,-9474.636058,842.705048
553.966487,-962.267725,-9474.636058,919.314598
553.966814,-666.185348,-9474.636058,919.314598
553.967142,-592.164754,-9252.574275,229.828649
553.967469,-444.123565,-9326.594869,536.266849
553.967796,-370.102971,-9030.512492,612.876398
553.968124,-296.082377,-9104.533087,612.876398
553.968451,0.000000,-9104.533087,536.266849
553.968778,-518.144159,-9696.697840,689.485948
553.969106,-370.102971,-9770.718434,689.485948
553.969433,-518.144159,-9770.718434,919.314598
553.969760,-518.144159,-9696.697840,536.266849
553.970088,-518.144159,-9474.636058,766.095498
553.970415,0.000000,-8660.409521,76.609550
553.970742,-222.061783,-8290.306550,229.828649
553.971070,-296.082377,-8364.327145,229.828649
553.971397,-148.041188,-8512.368333,153.219100
553.971724,-592.164754,-8512.368333,306.438199
553.972051,-518.144159,-8364.327145,1225.752797
553.972379,-370.102971,-8734.430116,766.095498
553.972706,-370.102971,-9104.533087,536.266849
553.973033,-296.082377,-9030.512492,459.657299
553.973361,74.020594,-8956.491898,229.828649
553.973688,74.020594,-8364.327145,612.876398
553.974015,592.164754,-8808.450710,459.657299
553.974343,0.000000,-8882.471304,459.657299
553.974670,-444.123565,-8882.471304,536.266849
553.974997,-222.061783,-9104.533087,459.657299
553.975325,-148.041188,-8956.491898,1149.143247
553.975652,-222.061783,-9326.594869,536.266849
553.975979,-296.082377,-8882.471304,536.266849
553.976307,148.041188,-8734.430116,459.657299
553.976634,0.000000,-8364.327145,383.047749
553.976961,0.000000,-8364.327145,383.047749
553.977289,74.020594,-8290.306550,383.047749
553.977616,0.000000,-8808.450710,536.266849
553.977943,0.000000,-9252.574275,842.705048
553.978271,-370.102971,-9326.594869,842.705048
553.978598,0.000000,-9400.615463,766.095498
553.978925,0.000000,-9400.615463,689.485948
553.979253,-296.082377,-9104.533087,536.266849
553.979580,0.000000,-9178.553681,459.657299
553.979907,-222.061783,-9104.533087,689.485948
553.980235,0.000000,-8882.471304,383.047749
553.980562,148.041188,-9030.512492,459.657299
553.980889,-518.144159,-8734.430116,612.876398
553.981217,-518.144159,-9252.574275,459.657299
553.981544,-666.185348,-9474.636058,612.876398
553.981871,-296.082377,-9474.636058,612.876398
553.982199,-518.144159,-9178.553681,995.924147
553.982526,0.000000,-9400.615463,612.876398
553.982853,0.000000,-9400.615463,459.657299
553.983181,0.000000,-9474.636058,689.485948
553.983508,0.000000,-9474.636058,459.657299
553.983835,0.000000,-9770.718434,766.095498
553.984163,0.000000,-9622.677246,536.266849
553.984490,222.061783,-9474.636058,689.485948
553.984817,0.000000,-9474.636058,612.876398
553.985144,0.000000,-9474.636058,536.266849
553.985472,-148.041188,-9400.615463,459.657299
553.985799,-592.164754,-9104.533087,383.047749
553.986126,-222.061783,-9178.553681,459.657299
553.986454,-444.123565,-9030.512492,536.266849
553.986781,-518.144159,-9030.512492,536.266849
553.987108,-296.082377,-9178.553681,459.657299
553.987436,0.000000,-9030.512492,766.095498
553.987763,0.000000,-8808.450710,689.485948
553.988090,-296.082377,-8956.491898,689.485948
553.988418,0.000000,-9104.533087,536.266849
553.988745,-444.123565,-9252.574275,536.266849
553.989072,-296.082377,-9104.533087,766.095498
553.989400,0.000000,-8956.491898,612.876398
553.989727,-666.185348,-9474.636058,689.485948
553.990054,-666.185348,-9252.574275,842.705048
553.990382,-740.205942,-9326.594869,612.876398
553.990709,-666.185348,-9178.553681,612.876398
553.991036,-296.082377,-8882.471304,612.876398
553.991364,-222.061783,-8882.471304,766.095498
553.991691,-296.082377,-8808.450710,153.219100
553.992018,-296.082377,-8734.430116,383.047749
553.992346,0.000000,-8882.471304,612.876398
553.992673,-444.123565,-8808.450710,536.266849
553.993000,222.061783,-8956.491898,689.485948
553.993328,0.000000,-9104.533087,536.266849
553.993655,0.000000,-9178.553681,536.266849
553.993982,0.000000,-9030.512492,612.876398
553.994310,370.102971,-9400.615463,612.876398
553.994637,444.123565,-8808.450710,689.485948
553.994964,0.000000,-9178.553681,229.828649
553.995292,0.000000,-9326.594869,612.876398
553.995619,-148.041188,-9252.574275,536.266849
553.995946,-370.102971,-9178.553681,0.000000
553.996274,0.000000,-8438.347739,536.266849
553.996601,-222.061783,-8882.471304,459.657299
553.996928,-444.123565,-8956.491898,229.828649
553.997255,-148.041188,-8956.491898,229.828649
553.997583,-222.061783,-9030.512492,306.438199
553.997910,-222.061783,-9030.512492,1072.533697
553.998237,0.000000,-9400.615463,536.266849
553.998565,-518.144159,-9252.574275,536.266849
553.998892,-518.144159,-9474.636058,766.095498
553.999219,-296.082377,-9474.636058,689.485948
553.999547,0.000000,-9548.656652,766.095498
553.999874,0.000000,-9178.553681,842.705048
554.000201,-444.123565,-9252.574275,612.876398
554.000529,-666.185348,-9104.533087,612.876398
554.000856,-518.144159,-9104.533087,459.657299
554.001183,-814.226536,-8734.430116,995.924147
554.001511,-814.226536,-9104.533087,459.657299
554.001838,-888.247130,-9252.574275,459.657299
554.002165,-740.205942,-9030.512492,766.095498
554.002493,-814.226536,-8882.471304,383.047749
554.002820,-666.185348,-8734.430116,306.438199
554.003147,-740.205942,-8660.409521,766.095498
554.003475,-518.144159,-8808.450710,306.438199
554.003802,-592.164754,-9178.553681,689.485948
554.004129,-370.102971,-9104.533087,689.485948
554.004457,-444.123565,-9030.512492,689.485948
554.004784,-296.082377,-9326.594869,153.219100
554.005111,-296.082377,-9030.512492,612.876398
554.005439,-444.123565,-8956.491898,306.438199
554.005766,-444.123565,-9104.533087,536.266849
554.006093,-444.123565,-8956.491898,689.485948
554.006421,-296.082377,-8734.430116,612.876398
554.006748,-370.102971,-8882.471304,383.047749
554.007075,-370.102971,-9252.574275,383.047749
554.007403,-222.061783,-9030.512492,612.876398
554.007730,-370.102971,-8808.450710,383.047749
554.008057,-222.061783,-8734.430116,306.438199
554.008385,-296.082377,-8734.430116,383.047749
554.008712,-296.082377,-8808.450710,536.266849
554.009039,0.000000,-8734.430116,229.828649
554.009367,0.000000,-9104.533087,383.047749
554.009694,-296.082377,-9030.512492,536.266849
554.010021,-962.267725,-9178.553681,689.485948
554.010348,-296.082377,-9178.553681,536.266849
554.010676,-370.102971,-8956.491898,536.266849
554.011003,0.000000,-8660.409521,689.485948
554.011330,-296.082377,-8808.450710,766.095498
554.011658,-444.123565,-8068.244768,766.095498
554.011985,-518.144159,-8882.471304,536.266849
554.012312,-296.082377,-9030.512492,383.047749
554.012640,-370.102971,-9030.512492,766.095498
554.012967,-370.102971,-8660.409521,612.876398
554.013294,0.000000,-9104.533087,1072.533697
554.013622,74.020594,-8660.409521,459.657299
554.013949,0.000000,-9178.553681,766.095498
554.014276,74.020594,-9400.615463,919.314598
554.014604,222.061783,-9474.636058,766.095498
554.014931,222.061783,-9696.697840,1378.971896
554.015258,370.102971,-9622.677246,536.266849
554.015586,-148.041188,-9474.636058,612.876398
554.015913,0.000000,-9474.636058,766.095498
554.016240,-296.082377,-9400.615463,612.876398
554.016568,0.000000,-9474.636058,383.047749
554.016895,0.000000,-9622.677246,919.314598
554.017222,-148.041188,-9252.574275,76.609550
554.017550,0.000000,-9104.533087,229.828649
554.017877,0.000000,-9104.533087,383.047749
554.018204,0.000000,-9400.615463,306.438199
554.018532,0.000000,-9178.553681,76.609550
554.018859,0.000000,-9326.594869,0.000000
554.019186,0.000000,-9400.615463,383.047749
554.019514,0.000000,-9474.636058,689.485948
554.019841,74.020594,-9844.739029,612.876398
554.020168,148.041188,-9474.636058,1225.752797
554.020496,296.082377,-9474.636058,153.219100
554.020823,0.000000,-9548.656652,536.266849
554.021150,-370.102971,-9474.636058,459.657299
554.021478,-444.123565,-9400.615463,612.876398
554.021805,-592.164754,-8882.471304,689.485948
554.022132,0.000000,-9178.553681,229.828649
554.022459,-296.082377,-9252.574275,689.485948
554.022787,-518.144159,-9178.553681,536.266849
554.023114,-592.164754,-8882.471304,306.438199
554.023442,-814.226536,-8882.471304,383.047749
554.023769,-666.185348,-9104.533087,536.266849
554.024097,-666.185348,-8956.491898,612.876398
554.024424,-370.102971,-9030.512492,612.876398
554.024751,-592.164754,-8882.471304,919.314598
554.025079,-666.185348,-9178.553681,842.705048
554.025406,-444.123565,-8882.471304,766.095498
554.025734,-592.164754,-9030.512492,612.876398
554.026061,-444.123565,-8882.471304,689.485948
554.026389,-666.185348,-8808.450710,536.266849
554.026716,-666.185348,-8882.471304,689.485948
554.027044,-592.164754,-8734.430116,689.485948
554.027371,-148.041188,-8660.409521,536.266849
554.027699,-444.123565,-8660.409521,383.047749
554.028026,-444.123565,-8660.409521,459.657299
554.028353,-222.061783,-8956.491898,459.657299
554.028681,-444.123565,-8512.368333,536.266849
554.029008,74.020594,-8734.430116,536.266849
554.029336,-370.102971,-8956.491898,689.485948
554.029663,-148.041188,-8956.491898,612.876398
554.029991,0.000000,-8956.491898,536.266849
554.030318,-148.041188,-8882.471304,536.266849
554.030646,296.082377,-8956.491898,919.314598
554.030973,-370.102971,-8956.491898,842.705048
554.031301,-518.144159,-9104.533087,459.657299
554.031628,-518.144159,-8956.491898,689.485948
554.031955,-592.164754,-9030.512492,306.438199
554.032283,-222.061783,-8882.471304,536.266849
554.032610,-222.061783,-9178.553681,612.876398
554.032938,-296.082377,-9030.512492,766.095498
554.033265,-296.082377,-9030.512492,842.705048
554.033593,-518.144159,-8808.450710,459.657299
554.033920,0.000000,-8734.430116,1302.362347
554.034248,-370.102971,-9104.533087,766.095498
554.034575,-296.082377,-9104.533087,612.876398
554.034903,-296.082377,-9104.533087,689.485948
554.035230,-148.041188,-9326.594869,842.705048
554.035557,-444.123565,-9400.615463,612.876398
554.035885,0.000000,-9770.718434,1225.752797
554.036212,-370.102971,-9104.533087,766.095498
554.036540,-444.123565,-9104.533087,689.485948
554.036867,-444.123565,-9326.594869,689.485948
554.037195,-370.102971,-9474.636058,612.876398
554.037522,0.000000,-9474.636058,612.876398
554.037850,0.000000,-9178.553681,689.485948
554.038177,-222.061783,-9252.574275,612.876398
554.038505,0.000000,-9178.553681,383.047749
554.038832,0.000000,-9400.615463,383.047749
554.039159,0.000000,-9326.594869,0.000000
554.039487,74.020594,-8956.491898,536.266849
554.039814,74.020594,-9474.636058,689.485948
554.040142,222.061783,-9548.656652,229.828649
554.040469,0.000000,-9548.656652,459.657299
554.040797,0.000000,-9696.697840,536.266849
554.041124,148.041188,-9474.636058,766.095498
554.041452,74.020594,-9770.718434,306.438199
554.041779,0.000000,-9548.656652,306.438199
554.042107,0.000000,-9474.636058,229.828649
554.042434,222.061783,-9252.574275,459.657299
554.042761,0.000000,-8660.409521,306.438199
554.043089,0.000000,-9030.512492,229.828649
554.043416,0.000000,-9030.512492,153.219100
554.043744,0.000000,-8882.471304,536.266849
554.044071,-74.020594,-8956.491898,306.438199
554.044399,0.000000,-8956.491898,76.609550
554.044726,0.000000,-8882.471304,612.876398
554.045054,-222.061783,-9104.533087,612.876398
554.045381,0.000000,-9326.594869,536.266849
554.045709,0.000000,-9326.594869,536.266849
554.046036,0.000000,-9030.512492,383.047749
554.046363,-222.061783,-9104.533087,842.705048
554.046691,-444.123565,-9178.553681,689.485948
554.047018,-370.102971,-9104.533087,689.485948
554.047346,-444.123565,-8956.491898,766.095498
554.047673,-296.082377,-8808.450710,1072.533697
554.048001,-222.061783,-8808.450710,995.924147
554.048328,-518.144159,-9030.512492,689.485948
554.048656,-592.164754,-9030.512492,689.485948
554.048983,-814.226536,-9178.553681,689.485948
554.049311,-592.164754,-9252.574275,766.095498
554.049638,-370.102971,-8734.430116,1072.533697
554.049965,-444.123565,-9104.533087,536.266849
554.050293,-370.102971,-8882.471304,842.705048
554.050620,0.000000,-9104.533087,612.876398
554.050948,-148.041188,-9326.594869,612.876398
554.051275,0.000000,-9400.615463,306.438199
554.051603,-222.061783,-9252.574275,842.705048
554.051930,-370.102971,-9252.574275,306.438199
554.052258,-370.102971,-9474.636058,536.266849
554.052585,-148.041188,-9178.553681,306.438199
554.052913,-370.102971,-9252.574275,76.609550
554.053240,-296.082377,-8660.409521,612.876398
554.053567,-370.102971,-9104.533087,536.266849
554.053895,0.000000,-9326.594869,153.219100
554.054222,-296.082377,-9178.553681,536.266849
554.054550,0.000000,-8956.491898,842.705048
554.054877,148.041188,-9326.594869,995.924147
554.055205,0.000000,-9474.636058,459.657299
554.055532,0.000000,-9252.574275,536.266849
554.055860,74.020594,-9252.574275,612.876398
554.056187,0.000000,-9252.574275,536.266849
554.056515,0.000000,-9474.636058,919.314598
554.056842,-296.082377,-9326.594869,459.657299
554.057169,-148.041188,-9252.574275,612.876398
554.057497,-370.102971,-9178.553681,766.095498
554.057824,-370.102971,-9104.533087,766.095498
554.058152,-518.144159,-8808.450710,766.095498
554.058479,-296.082377,-8734.430116,919.314598
554.058807,-740.205942,-8660.409521,536.266849
554.059134,-444.123565,-8660.409521,536.266849
554.059462,-296.082377,-8660.409521,536.266849
554.059789,-370.102971,-8660.409521,0.000000
554.060117,-444.123565,-8512.368333,919.314598
554.060444,-148.041188,-9030.512492,612.876398
554.060771,-518.144159,-8956.491898,612.876398
554.061099,-296.082377,-9104.533087,612.876398
554.061426,-296.082377,-9104.533087,919.314598
554.061754,0.000000,-9104.533087,612.876398
554.062081,-222.061783,-8956.491898,842.705048
554.062409,-148.041188,-9104.533087,689.485948
554.062736,-444.123565,-8956.491898,766.095498
554.063064,-444.123565,-8808.450710,536.266849
554.063391,0.000000,-8808.450710,383.047749
554.063719,-296.082377,-8882.471304,383.047749
554.064046,-370.102971,-8956.491898,612.876398
554.064373,-370.102971,-9104.533087,536.266849
554.064701,-444.123565,-8956.491898,689.485948
554.065028,148.041188,-9252.574275,306.438199
554.065356,0.000000,-8660.409521,766.095498
554.065683,0.000000,-9104.533087,766.095498
554.066011,0.000000,-9252.574275,536.266849
554.066338,-148.041188,-9030.512492,536.266849
554.066666,-666.185348,-9104.533087,383.047749
554.066993,-518.144159,-9030.512492,766.095498
554.067321,-370.102971,-9030.512492,383.047749
554.067648,-518.144159,-9030.512492,536.266849
554.067975,-518.144159,-9104.533087,612.876398
554.068303,-444.123565,-9030.512492,536.266849
554.068630,-518.144159,-8586.388927,766.095498
554.068958,-518.144159,-9030.512492,306.438199
554.069285,-296.082377,-9030.512492,383.047749
554.069613,-444.123565,-9178.553681,383.047749
554.069940,-296.082377,-9326.594869,612.876398
554.070268,222.061783,-9474.636058,919.314598
554.070595,0.000000,-9400.615463,689.485948
554.070923,0.000000,-9474.636058,536.266849
554.071250,0.000000,-9474.636058,459.657299
554.071577,0.000000,-9252.574275,383.047749
554.071905,-148.041188,-9104.533087,536.266849
554.072232,-222.061783,-9400.615463,612.876398
554.072560,-148.041188,-9474.636058,306.438199
554.072887,-296.082377,-9400.615463,459.657299
554.073215,-148.041188,-9326.594869,459.657299
554.073542,0.000000,-9030.512492,306.438199
554.073870,0.000000,-8956.491898,1149.143247
554.074197,-222.061783,-9178.553681,536.266849
554.074525,-148.041188,-9030.512492,536.266849
554.074852,-222.061783,-9400.615463,229.828649
554.075179,-296.082377,-9326.594869,459.657299
554.075507,74.020594,-9104.533087,612.876398
554.075834,296.082377,-9474.636058,536.266849
554.076162,222.061783,-9400.615463,612.876398
554.076489,0.000000,-9474.636058,612.876398
554.076817,0.000000,-9326.594869,306.438199
554.077144,-296.082377,-9178.553681,229.828649
554.077472,-148.041188,-9252.574275,229.828649
554.077799,0.000000,-9326.594869,689.485948
554.078127,0.000000,-9252.574275,306.438199
554.078454,0.000000,-9030.512492,766.095498
554.078781,0.000000,-8586.388927,536.266849
554.079109,0.000000,-8734.430116,766.095498
554.079436,-222.061783,-8808.450710,459.657299
554.079764,-370.102971,-8808.450710,842.705048
554.080091,-222.061783,-8882.471304,536.266849
554.080419,0.000000,-8882.471304,0.000000
554.080746,0.000000,-8956.491898,689.485948
554.081074,-222.061783,-9252.574275,919.314598
554.081401,-370.102971,-9104.533087,689.485948
554.081729,-444.123565,-9252.574275,612.876398
554.082056,-148.041188,-9400.615463,536.266849
554.082384,-370.102971,-8512.368333,536.266849
554.082711,-296.082377,-9178.553681,536.266849
554.083038,-444.123565,-9104.533087,766.095498
554.083366,-370.102971,-8956.491898,689.485948
554.083693,-370.102971,-8956.491898,766.095498
554.084021,-370.102971,-8586.388927,1149.143247
554.084348,-148.041188,-8882.471304,459.657299
554.084676,-740.205942,-8882.471304,306.438199
554.085003,-666.185348,-8956.491898,536.266849
554.085331,-518.144159,-8882.471304,459.657299
554.085658,-592.164754,-8660.409521,842.705048
554.085986,-296.082377,-8956.491898,919.314598
554.086313,-518.144159,-9104.533087,842.705048
554.086640,-444.123565,-9104.533087,459.657299
554.086968,-592.164754,-9030.512492,612.876398
554.087295,-666.185348,-8882.471304,306.438199
554.087623,-296.082377,-8956.491898,612.876398
554.087950,-592.164754,-9030.512492,306.438199
554.088278,-592.164754,-9104.533087,306.438199
554.088605,-740.205942,-9030.512492,536.266849
554.088933,-666.185348,-8956.491898,306.438199
554.089260,-444.123565,-8512.368333,229.828649
554.089588,-444.123565,-8956.491898,383.047749
554.089915,-370.102971,-8882.471304,229.828649
554.090242,-222.061783,-9104.533087,306.438199
554.090570,-222.061783,-9104.533087,153.219100
554.090897,-148.041188,-8808.450710,689.485948
554.091225,-444.123565,-9104.533087,536.266849
554.091552,-148.041188,-9178.553681,612.876398
554.091880,0.000000,-9326.594869,306.438199
554.092207,-222.061783,-9252.574275,536.266849
554.092535,0.000000,-9474.636058,306.438199
554.092862,-444.123565,-9252.574275,766.095498
554.093190,-518.144159,-9030.512492,459.657299
554.093517,-296.082377,-8956.491898,229.828649
554.093844,0.000000,-9030.512492,76.609550
554.094172,-222.061783,-8660.409521,229.828649
554.094499,0.000000,-8660.409521,0.000000
554.094827,-296.082377,-8956.491898,383.047749
554.095154,-148.041188,-8882.471304,383.047749
554.095482,-444.123565,-9178.553681,459.657299
554.095809,-296.082377,-9104.533087,306.438199
554.096137,0.000000,-8956.491898,536.266849
554.096464,148.041188,-9030.512492,383.047749
554.096792,296.082377,-9252.574275,612.876398
554.097119,222.061783,-9030.512492,536.266849
554.097446,-148.041188,-9252.574275,612.876398
554.097774,0.000000,-9474.636058,536.266849
554.098101,-222.061783,-9252.574275,459.657299
554.098429,-370.102971,-9400.615463,536.266849
554.098756,-370.102971,-9030.512492,536.266849
554.099084,-222.061783,-8956.491898,536.266849
554.099411,0.000000,-8882.471304,842.705048
554.099739,-222.061783,-8808.450710,383.047749
554.100066,0.000000,-8956.491898,536.266849
554.100394,0.000000,-9104.533087,536.266849
554.100721,-222.061783,-9104.533087,612.876398
554.101048,-222.061783,-9326.594869,459.657299
554.101376,0.000000,-9252.574275,229.828649
554.101703,0.000000,-9474.636058,766.095498
554.102031,0.000000,-9252.574275,842.705048
554.102358,0.000000,-9400.615463,766.095498
554.102686,-370.102971,-9400.615463,766.095498
554.103013,0.000000,-9696.697840,1149.143247
554.103341,-592.164754,-9030.512492,919.314598
554.103668,-518.144159,-9178.553681,766.095498
554.103996,-370.102971,-9252.574275,459.657299
554.104323,-444.123565,-9326.594869,842.705048
554.104650,-370.102971,-9400.615463,842.705048
554.104978,0.000000,-9104.533087,383.047749
554.105305,-296.082377,-9178.553681,612.876398
554.105633,-222.061783,-9104.533087,459.657299
554.105960,0.000000,-9252.574275,229.828649
554.106288,0.000000,-8956.491898,383.047749
554.106615,0.000000,-8956.491898,842.705048
554.106943,-148.041188,-9326.594869,766.095498
554.107270,-296.082377,-9474.636058,689.485948
554.107598,-296.082377,-9474.636058,842.705048
554.107925,-296.082377,-9400.615463,536.266849
554.108252,-296.082377,-8956.491898,306.438199
554.108580,-444.123565,-9030.512492,536.266849
554.108907,-370.102971,-8956.491898,459.657299
554.109235,-370.102971,-9030.512492,459.657299
554.109562,-444.123565,-9104.533087,459.657299
554.109890,-222.061783,-9178.553681,153.219100
554.110217,-518.144159,-8956.491898,459.657299
554.110545,-296.082377,-9252.574275,459.657299
554.110872,-222.061783,-9104.533087,383.047749
554.111200,0.000000,-9252.574275,536.266849
554.111527,0.000000,-9178.553681,229.828649
554.111854,0.000000,-9030.512492,1072.533697
554.112182,-296.082377,-9104.533087,766.095498
554.112509,-370.102971,-9104.533087,306.438199
554.112837,-444.123565,-9030.512492,612.876398
554.113164,0.000000,-9030.512492,842.705048
554.113492,-518.144159,-8734.430116,1072.533697
554.113819,-518.144159,-8586.388927,612.876398
554.114147,-814.226536,-8512.368333,689.485948
554.114474,-740.205942,-8660.409521,459.657299
554.114802,-888.247130,-8290.306550,612.876398
554.115129,-888.247130,-8438.347739,842.705048
554.115456,-370.102971,-8956.491898,689.485948
554.115784,-666.185348,-8882.471304,612.876398
554.116111,-592.164754,-8882.471304,536.266849
554.116439,-296.082377,-9178.553681,612.876398
554.116766,-444.123565,-9030.512492,612.876398
554.117094,370.102971,-9622.677246,919.314598
554.117421,-148.041188,-9178.553681,689.485948
554.117749,0.000000,-9178.553681,383.047749
554.118076,-296.082377,-9178.553681,459.657299
554.118404,74.020594,-9548.656652,383.047749
554.118731,0.000000,-8956.491898,383.047749
554.119058,-222.061783,-9178.553681,612.876398
554.119386,0.000000,-8956.491898,383.047749
554.119713,0.000000,-9030.512492,153.219100
554.120041,0.000000,-8438.347739,383.047749
554.120368,74.020594,-8808.450710,536.266849
554.120696,-148.041188,-9030.512492,383.047749
554.121023,-148.041188,-9326.594869,766.095498
554.121351,0.000000,-9104.533087,306.438199
554.121678,0.000000,-9400.615463,383.047749
554.122006,0.000000,-9030.512492,1225.752797
554.122333,0.000000,-9252.574275,306.438199
554.122661,0.000000,-9400.615463,689.485948
554.122988,-222.061783,-9400.615463,689.485948
554.123316,0.000000,-9400.615463,612.876398
554.123644,74.020594,-9326.594869,919.314598
554.123971,-296.082377,-9474.636058,842.705048
554.124299,-518.144159,-9326.594869,689.485948
554.124626,-518.144159,-9400.615463,842.705048
554.124954,-444.123565,-9178.553681,612.876398
554.125281,-370.102971,-9252.574275,1302.362347
554.125609,-740.205942,-8956.491898,689.485948
554.125936,-666.185348,-8956.491898,536.266849
554.126264,-444.123565,-9252.574275,536.266849
554.126591,-370.102971,-9178.553681,689.485948
554.126919,-370.102971,-9326.594869,919.314598
554.127247,-222.061783,-9252.574275,995.924147
554.127574,-296.082377,-9326.594869,842.705048
554.127902,-222.061783,-9252.574275,689.485948
554.128229,-222.061783,-9104.533087,612.876398
554.128557,-296.082377,-9104.533087,306.438199
554.128884,-296.082377,-8956.491898,459.657299
554.129212,-148.041188,-8734.430116,0.000000
554.129539,-222.061783,-9252.574275,306.438199
554.129867,0.000000,-9252.574275,383.047749
554.130195,-148.041188,-9178.553681,536.266849
554.130522,-222.061783,-8956.491898,612.876398
554.130850,0.000000,-9252.574275,383.047749
554.131177,0.000000,-9178.553681,306.438199
554.131505,74.020594,-9104.533087,229.828649
554.131832,222.061783,-9178.553681,306.438199
554.132160,222.061783,-9400.615463,536.266849
554.132487,296.082377,-9104.533087,383.047749
554.132815,74.020594,-9326.594869,919.314598
554.133142,0.000000,-9252.574275,536.266849
554.133470,-148.041188,-9178.553681,459.657299
554.133798,0.000000,-9104.533087,536.266849
554.134125,0.000000,-9104.533087,153.219100
554.134453,0.000000,-8808.450710,689.485948
554.134780,-296.082377,-8882.471304,536.266849
554.135108,-518.144159,-8882.471304,536.266849
554.135435,-444.123565,-9030.512492,383.047749
554.135763,-666.185348,-8586.388927,689.485948
554.136090,-444.123565,-8808.450710,766.095498
554.136418,-444.123565,-8956.491898,766.095498
554.136746,-444.123565,-8956.491898,612.876398
554.137073,-444.123565,-9178.553681,612.876398
554.137401,-222.061783,-9178.553681,919.314598
554.137728,0.000000,-9474.636058,766.095498
554.138056,-296.082377,-9178.553681,919.314598
554.138383,-222.061783,-9252.574275,842.705048
554.138711,-148.041188,-9326.594869,919.314598
554.139038,-518.144159,-9252.574275,995.924147
554.139366,-148.041188,-9178.553681,766.095498
554.139693,-296.082377,-9178.553681,612.876398
554.140021,-740.205942,-9104.533087,689.485948
554.140349,-592.164754,-8956.491898,536.266849
554.140676,-444.123565,-9030.512492,612.876398
554.141004,0.000000,-8586.388927,536.266849
554.141331,-148.041188,-9030.512492,306.438199
554.141659,-444.123565,-8734.430116,612.876398
554.141986,-370.102971,-9252.574275,306.438199
554.142314,-444.123565,-9178.553681,459.657299
554.142641,-222.061783,-9252.574275,612.876398
554.142969,-148.041188,-9178.553681,383.047749
554.143297,-518.144159,-9326.594869,536.266849
554.143624,-370.102971,-9178.553681,459.657299
554.143952,-444.123565,-9252.574275,459.657299
554.144279,-370.102971,-9252.574275,689.485948
554.144607,-444.123565,-9104.533087,459.657299
554.144934,-444.123565,-9030.512492,306.438199
554.145262,-518.144159,-9030.512492,306.438199
554.145589,-370.102971,-8808.450710,383.047749
554.145917,-370.102971,-8956.491898,459.657299
554.146245,0.000000,-8734.430116,689.485948
554.146572,-370.102971,-9178.553681,306.438199
554.146900,-222.061783,-9030.512492,459.657299
554.147227,0.000000,-8956.491898,536.266849
554.147555,0.000000,-9104.533087,689.485948
554.147882,0.000000,-9178.553681,383.047749
554.148210,-148.041188,-9326.594869,842.705048
554.148537,-222.061783,-9326.594869,612.876398
554.148865,-370.102971,-9252.574275,766.095498
554.149192,-518.144159,-9474.636058,383.047749
554.149520,-518.144159,-9252.574275,306.438199
554.149848,-592.164754,-9104.533087,1149.143247
554.150175,-370.102971,-8808.450710,229.828649
554.150503,-296.082377,-8734.430116,536.266849
554.150830,-518.144159,-8734.430116,153.219100
554.151158,-296.082377,-9400.615463,689.485948
554.151485,-370.102971,-8586.388927,459.657299
554.151813,-444.123565,-8734.430116,383.047749
554.152140,-518.144159,-8956.491898,383.047749
554.152468,-222.061783,-9252.574275,612.876398
554.152796,0.000000,-9104.533087,612.876398
554.153123,370.102971,-9252.574275,306.438199
554.153451,222.061783,-8956.491898,842.705048
554.153778,0.000000,-9252.574275,536.266849
554.154106,-148.041188,-9400.615463,766.095498
554.154433,-370.102971,-9104.533087,536.266849
554.154761,0.000000,-8956.491898,383.047749
554.155088,-222.061783,-9400.615463,689.485948
554.155416,-370.102971,-9178.553681,689.485948
554.155743,-370.102971,-9104.533087,459.657299
554.156071,-296.082377,-9104.533087,766.095498
554.156399,-222.061783,-8734.430116,842.705048
554.156726,-370.102971,-8882.471304,612.876398
554.157054,-592.164754,-9178.553681,612.876398
554.157381,-296.082377,-9326.594869,536.266849
554.157709,-370.102971,-9474.636058,766.095498
554.158036,-148.041188,-9178.553681,1149.143247
554.158364,-518.144159,-9252.574275,689.485948
554.158691,-148.041188,-9400.615463,766.095498
554.159019,-444.123565,-9178.553681,842.705048
554.159347,-148.041188,-9326.594869,689.485948
554.159674,-370.102971,-9400.615463,536.266849
554.160002,-222.061783,-9178.553681,536.266849
554.160329,-370.102971,-9178.553681,612.876398
554.160657,0.000000,-9178.553681,459.657299
554.160984,-222.061783,-9326.594869,612.876398
554.161312,-296.082377,-9252.574275,459.657299
554.161639,-666.185348,-8808.450710,1225.752797
554.161967,0.000000,-9178.553681,536.266849
554.162294,0.000000,-9252.574275,383.047749
554.162622,0.000000,-9400.615463,383.047749
554.162950,0.000000,-9548.656652,229.828649
554.163277,296.082377,-9400.615463,766.095498
554.163605,0.000000,-9474.636058,459.657299
554.163932,0.000000,-9178.553681,383.047749
554.164260,0.000000,-9252.574275,306.438199
554.164587,-148.041188,-9030.512492,536.266849
554.164915,0.000000,-9178.553681,459.657299
554.165242,-222.061783,-9030.512492,229.828649
554.165570,-296.082377,-9030.512492,536.266849
554.165898,-296.082377,-9252.574275,612.876398
554.166225,-444.123565,-9030.512492,612.876398
554.166553,-444.123565,-8808.450710,536.266849
554.166880,370.102971,-8956.491898,459.657299
554.167208,0.000000,-8660.409521,536.266849
554.167535,0.000000,-8734.430116,459.657299
554.167863,-148.041188,-8956.491898,536.266849
554.168190,-222.061783,-9030.512492,459.657299
554.168518,-370.102971,-8586.388927,1072.533697
554.168846,0.000000,-9178.553681,919.314598
554.169173,-444.123565,-8882.471304,612.876398
554.169501,-370.102971,-9030.512492,612.876398
554.169828,-592.164754,-8882.471304,536.266849
554.170156,-592.164754,-8734.430116,919.314598
554.170483,-740.205942,-8586.388927,306.438199
554.170811,-814.226536,-8734.430116,536.266849
554.171138,-666.185348,-8734.430116,459.657299
554.171466,-888.247130,-8956.491898,383.047749
554.171793,-666.185348,-8882.471304,306.438199
554.172121,-370.102971,-8808.450710,383.047749
554.172449,-296.082377,-8956.491898,229.828649
554.172776,-518.144159,-9178.553681,459.657299
554.173104,-370.102971,-9104.533087,612.876398
554.173431,-222.061783,-9104.533087,612.876398
554.173759,148.041188,-9400.615463,0.000000
554.174086,-296.082377,-8808.450710,612.876398
554.174414,-296.082377,-9548.656652,536.266849
554.174741,-370.102971,-9474.636058,689.485948
554.175069,-444.123565,-9474.636058,612.876398
554.175397,-296.082377,-9104.533087,153.219100
554.175724,-592.164754,-9252.574275,536.266849
554.176052,-444.123565,-9030.512492,459.657299
554.176379,-444.123565,-9030.512492,229.828649
554.176707,-148.041188,-9030.512492,229.828649
554.177034,0.000000,-9178.553681,766.095498
554.177362,-444.123565,-8734.430116,459.657299
554.177689,-296.082377,-9178.553681,383.047749
554.178017,-296.082377,-9252.574275,689.485948
554.178344,0.000000,-9326.594869,612.876398
554.178672,0.000000,-9400.615463,612.876398
554.179000,-222.061783,-8882.471304,766.095498
554.179327,0.000000,-9474.636058,536.266849
554.179655,-222.061783,-9252.574275,766.095498
554.179982,-148.041188,-9326.594869,689.485948
554.180310,-148.041188,-9252.574275,612.876398
554.180637,-518.144159,-8882.471304,842.705048
554.180965,-74.020594,-8956.491898,459.657299
554.181292,-370.102971,-9030.512492,459.657299
554.181620,-296.082377,-8956.491898,536.266849
554.181948,0.000000,-9252.574275,383.047749
554.182275,0.000000,-9030.512492,383.047749
554.182603,0.000000,-9104.533087,536.266849
554.182930,0.000000,-9400.615463,459.657299
554.183258,0.000000,-9474.636058,459.657299
554.183585,0.000000,-9400.615463,766.095498
554.183913,222.061783,-9326.594869,612.876398
554.184240,74.020594,-9252.574275,1302.362347
554.184568,-370.102971,-9326.594869,536.266849
554.184896,-370.102971,-9548.656652,612.876398
554.185223,-370.102971,-9178.553681,383.047749
554.185551,-444.123565,-9252.574275,536.266849
554.185878,-592.164754,-8438.347739,689.485948
554.186206,-148.041188,-8956.491898,766.095498
554.186533,-222.061783,-9030.512492,766.095498
554.186861,-222.061783,-9104.533087,612.876398
554.187188,-296.082377,-8956.491898,766.095498
554.187516,-296.082377,-8660.409521,842.705048
554.187843,-222.061783,-9104.533087,689.485948
554.188171,-444.123565,-9030.512492,612.876398
554.188499,-296.082377,-9104.533087,995.924147
554.188826,-370.102971,-9326.594869,919.314598
554.189154,0.000000,-9178.553681,1149.143247
554.189481,0.000000,-8956.491898,536.266849
554.189809,0.000000,-9104.533087,459.657299
554.190136,0.000000,-9030.512492,689.485948
554.190464,0.000000,-9178.553681,459.657299
554.190791,-666.185348,-9178.553681,689.485948
554.191119,-222.061783,-9104.533087,536.266849
554.191447,-296.082377,-9178.553681,306.438199
554.191774,-370.102971,-9104.533087,536.266849
554.192102,0.000000,-9400.615463,459.657299
554.192429,-370.102971,-8956.491898,459.657299
554.192757,74.020594,-8808.450710,612.876398
554.193084,0.000000,-8808.450710,459.657299
554.193412,-148.041188,-9030.512492,383.047749
554.193739,74.020594,-9252.574275,383.047749
554.194067,-222.061783,-9474.636058,306.438199
554.194394,222.061783,-8808.450710,229.828649
554.194722,0.000000,-8808.450710,919.314598
554.195050,-148.041188,-9326.594869,459.657299
554.195377,-444.123565,-9178.553681,612.876398
554.195705,0.000000,-9178.553681,383.047749
554.196032,-222.061783,-8734.430116,689.485948
554.196360,-518.144159,-8808.450710,153.219100
554.196687,-148.041188,-9104.533087,689.485948
554.197015,-518.144159,-8956.491898,612.876398
554.197342,-296.082377,-8956.491898,612.876398
554.197670,-444.123565,-8956.491898,766.095498
554.197998,-296.082377,-9474.636058,919.314598
554.198325,-592.164754,-9252.574275,612.876398
554.198653,-592.164754,-9178.553681,612.876398
554.198980,-296.082377,-9178.553681,766.095498
554.199308,-296.082377,-9178.553681,689.485948
554.199635,-222.061783,-9252.574275,536.266849
554.199963,-370.102971,-9104.533087,995.924147
554.200290,-666.185348,-9178.553681,919.314598
554.200618,-592.164754,-9400.615463,766.095498
554.200945,-740.205942,-9252.574275,612.876398
554.201273,-444.123565,-8956.491898,306.438199
554.201601,-444.123565,-8808.450710,612.876398
554.201928,-148.041188,-9030.512492,612.876398
554.202256,-148.041188,-8808.450710,459.657299
554.202583,-296.082377,-8956.491898,306.438199
554.202911,-296.082377,-9030.512492,229.828649
554.203238,-296.082377,-8956.491898,766.095498
554.203566,-296.082377,-9104.533087,153.219100
554.203893,0.000000,-9326.594869,383.047749
554.204221,74.020594,-9252.574275,536.266849
554.204549,0.000000,-9400.615463,995.924147
554.204876,-444.123565,-9104.533087,459.657299
554.205204,0.000000,-9104.533087,306.438199
554.205531,0.000000,-9104.533087,306.438199
554.205859,-222.061783,-9252.574275,536.266849
554.206186,-370.102971,-9178.553681,536.266849
554.206514,-222.061783,-8438.347739,459.657299
554.206841,0.000000,-9030.512492,229.828649
554.207169,-296.082377,-9030.512492,229.828649
554.207497,-592.164754,-8956.491898,229.828649
554.207824,-370.102971,-9030.512492,229.828649
554.208152,0.000000,-8438.347739,229.828649
554.208479,-370.102971,-8808.450710,459.657299
554.208807,-148.041188,-8956.491898,459.657299
554.209134,0.000000,-9252.574275,766.095498
554.209462,0.000000,-9252.574275,459.657299
554.209789,0.000000,-9178.553681,1302.362347
554.210117,0.000000,-9326.594869,919.314598
554.210444,-370.102971,-9474.636058,766.095498
554.210772,-518.144159,-9326.594869,612.876398
554.211100,-222.061783,-9104.533087,919.314598
554.211427,-222.061783,-8956.491898,842.705048
554.211755,0.000000,-8956.491898,919.314598
554.212082,-444.123565,-9104.533087,612.876398
554.212410,-296.082377,-8882.471304,612.876398
554.212737,-518.144159,-9030.512492,536.266849
554.213065,-592.164754,-9030.512492,842.705048
554.213392,-592.164754,-9400.615463,919.314598
554.213720,-222.061783,-9474.636058,459.657299
554.214048,0.000000,-9400.615463,689.485948
554.214375,0.000000,-9400.615463,842.705048
554.214703,0.000000,-9474.636058,536.266849
554.215030,0.000000,-9474.636058,689.485948
554.215358,74.020594,-9030.512492,153.219100
554.215685,0.000000,-9474.636058,459.657299
554.216013,0.000000,-9326.594869,306.438199
554.216340,0.000000,-9400.615463,459.657299
554.216668,-222.061783,-8882.471304,689.485948
554.216995,0.000000,-9178.553681,766.095498
554.217323,0.000000,-9252.574275,383.047749
554.217651,-148.041188,-9326.594869,306.438199
554.217978,-222.061783,-8808.450710,0.000000
554.218306,0.000000,-9030.512492,229.828649
554.218633,0.000000,-8956.491898,153.219100
554.218961,0.000000,-9104.533087,229.828649
554.219288,74.020594,-9252.574275,536.266849
554.219616,0.000000,-9252.574275,766.095498
554.219943,0.000000,-9326.594869,612.876398
554.220271,0.000000,-9326.594869,459.657299
554.220599,-370.102971,-9104.533087,766.095498
554.220926,-296.082377,-9326.594869,383.047749
554.221254,-592.164754,-9030.512492,842.705048
554.221581,-740.205942,-9252.574275,612.876398
554.221909,-592.164754,-8734.430116,842.705048
554.222236,-370.102971,-8956.491898,689.485948
554.222564,-592.164754,-8882.471304,536.266849
554.222891,-740.205942,-8734.430116,536.266849
554.223219,-888.247130,-8586.388927,383.047749
554.223546,-666.185348,-8660.409521,766.095498
554.223874,-518.144159,-8734.430116,766.095498
554.224202,-370.102971,-8956.491898,766.095498
554.224529,-148.041188,-9178.553681,689.485948
554.224857,-740.205942,-9030.512492,612.876398
554.225184,-444.123565,-9030.512492,689.485948
554.225512,-296.082377,-8734.430116,919.314598
554.225839,-666.185348,-8808.450710,919.314598
554.226167,-592.164754,-9030.512492,383.047749
554.226494,-592.164754,-9030.512492,459.657299
554.226822,-518.144159,-9030.512492,306.438199
554.227149,-370.102971,-8438.347739,459.657299
554.227477,-370.102971,-8956.491898,383.047749
554.227805,0.000000,-8956.491898,306.438199
554.228132,0.000000,-9030.512492,459.657299
554.228460,-222.061783,-8956.491898,229.828649
554.228787,0.000000,-9252.574275,306.438199
554.229115,148.041188,-9326.594869,0.000000
554.229442,0.000000,-9252.574275,383.047749
554.229770,0.000000,-9474.636058,153.219100
554.230097,74.020594,-9696.697840,536.266849
554.230425,-296.082377,-9696.697840,1072.533697
554.230752,0.000000,-9474.636058,383.047749
554.231080,-296.082377,-9178.553681,383.047749
554.231407,-222.061783,-9178.553681,612.876398
554.231735,-74.020594,-9252.574275,459.657299
554.232063,-444.123565,-8956.491898,459.657299
554.232390,-370.102971,-8808.450710,766.095498
554.232718,-444.123565,-8734.430116,612.876398
554.233045,-814.226536,-9030.512492,306.438199
554.233373,-814.226536,-9030.512492,459.657299
554.233700,-666.185348,-9030.512492,536.266849
554.234028,-222.061783,-8660.409521,536.266849
554.234355,-296.082377,-8882.471304,612.876398
554.234683,-296.082377,-9178.553681,842.705048
554.235010,-296.082377,-9104.533087,919.314598
554.235338,0.000000,-9252.574275,919.314598
554.235665,0.000000,-9326.594869,842.705048
554.235993,-296.082377,-9178.553681,459.657299
554.236321,-148.041188,-9326.594869,612.876398
554.236648,-370.102971,-9104.533087,689.485948
554.236976,-370.102971,-9104.533087,766.095498
554.237303,-148.041188,-9252.574275,766.095498
554.237631,-222.061783,-9030.512492,1149.143247
554.237958,-592.164754,-8808.450710,536.266849
554.238286,-370.102971,-8956.491898,459.657299
554.238613,-222.061783,-9178.553681,689.485948
554.238941,0.000000,-9178.553681,306.438199
554.239268,0.000000,-9104.533087,995.924147
554.239596,0.000000,-9252.574275,306.438199
554.239924,-148.041188,-9178.553681,612.876398
554.240251,-222.061783,-9178.553681,766.095498
554.240579,0.000000,-9400.615463,689.485948
554.240906,222.061783,-9474.636058,459.657299
554.241234,0.000000,-9030.512492,766.095498
554.241561,-222.061783,-9252.574275,536.266849
554.241889,-370.102971,-9030.512492,306.438199
554.242216,-444.123565,-8956.491898,612.876398
554.242544,-296.082377,-9030.512492,842.705048
554.242871,-518.144159,-9030.512492,1149.143247
554.243199,-222.061783,-9104.533087,689.485948
554.243526,-296.082377,-8808.450710,766.095498
554.243854,0.000000,-8808.450710,459.657299
554.244182,0.000000,-9326.594869,919.314598
554.244509,296.082377,-9030.512492,459.657299
554.244837,0.000000,-8882.471304,383.047749
554.245164,0.000000,-9178.553681,536.266849
554.245492,0.000000,-9178.553681,459.657299
554.245819,-222.061783,-9326.594869,536.266849
554.246147,-370.102971,-9178.553681,689.485948
554.246474,0.000000,-9252.574275,459.657299
554.246802,0.000000,-8956.491898,306.438199
554.247129,-296.082377,-9178.553681,536.266849
554.247457,-370.102971,-9104.533087,229.828649
554.247784,-444.123565,-8956.491898,919.314598
554.248112,0.000000,-8808.450710,383.047749
554.248440,-222.061783,-9104.533087,459.657299
554.248767,-222.061783,-9104.533087,459.657299
554.249095,-296.082377,-9178.553681,306.438199
554.249422,0.000000,-8956.491898,689.485948
554.249750,148.041188,-8956.491898,919.314598
554.250077,-222.061783,-9030.512492,229.828649
554.250405,0.000000,-9326.594869,612.876398
554.250732,0.000000,-9400.615463,612.876398
554.251060,0.000000,-9178.553681,919.314598
554.251387,-444.123565,-9104.533087,766.095498
554.251715,-370.102971,-9474.636058,766.095498
554.252043,-592.164754,-9474.636058,689.485948
554.252370,-666.185348,-9104.533087,689.485948
554.252698,-518.144159,-9104.533087,842.705048
554.253025,-296.082377,-9030.512492,459.657299
554.253353,-370.102971,-9030.512492,76.609550
554.253680,-370.102971,-8734.430116,536.266849
554.254008,-666.185348,-8882.471304,536.266849
554.254335,-296.082377,-9030.512492,536.266849
554.254663,-444.123565,-9030.512492,459.657299
554.254990,-296.082377,-9252.574275,383.047749
554.255318,-296.082377,-9178.553681,612.876398
554.255645,-296.082377,-9178.553681,612.876398
554.255973,-222.061783,-8956.491898,612.876398
554.256301,0.000000,-8956.491898,1302.362347
554.256628,-296.082377,-9030.512492,766.095498
554.256956,-222.061783,-9178.553681,536.266849
554.257283,-444.123565,-9104.533087,383.047749
554.257611,-222.061783,-9178.553681,536.266849
554.257938,-444.123565,-9030.512492,766.095498
554.258266,0.000000,-8808.450710,536.266849
554.258593,0.000000,-8808.450710,306.438199
554.258921,0.000000,-8882.471304,536.266849
554.259248,-148.041188,-8808.450710,459.657299
554.259576,-296.082377,-8808.450710,229.828649
554.259903,-518.144159,-8290.306550,612.876398
554.260231,0.000000,-9178.553681,612.876398
554.260559,0.000000,-9104.533087,612.876398
554.260886,0.000000,-9474.636058,536.266849
554.261214,-222.061783,-9252.574275,689.485948
554.261541,-370.102971,-9252.574275,459.657299
554.261869,0.000000,-9400.615463,536.266849
554.262196,-518.144159,-9252.574275,766.095498
554.262524,-444.123565,-9104.533087,536.266849
554.262851,-592.164754,-9104.533087,612.876398
554.263179,-888.247130,-9178.553681,766.095498
554.263506,0.000000,-9252.574275,689.485948
554.263834,-296.082377,-8956.491898,919.314598
554.264162,-370.102971,-8956.491898,766.095498
554.264489,-370.102971,-8882.471304,536.266849
554.264817,0.000000,-9252.574275,459.657299
554.265144,148.041188,-8956.491898,842.705048
554.265472,0.000000,-9326.594869,689.485948
554.265799,74.020594,-9474.636058,689.485948
554.266127,74.020594,-9696.697840,995.924147
554.266454,0.000000,-9696.697840,842.705048
554.266782,0.000000,-9400.615463,459.657299
554.267109,-296.082377,-8956.491898,766.095498
554.267437,-370.102971,-9622.677246,383.047749
554.267764,-518.144159,-9252.574275,383.047749
554.268092,-370.102971,-9326.594869,153.219100
554.268420,-370.102971,-9104.533087,229.828649
554.268747,0.000000,-8956.491898,306.438199
554.269075,-296.082377,-8956.491898,153.219100
554.269402,-296.082377,-8956.491898,76.609550
554.269730,0.000000,-9030.512492,229.828649
554.270057,0.000000,-8660.409521,689.485948
554.270385,0.000000,-8512.368333,229.828649
554.270712,74.020594,-9474.636058,536.266849
554.271040,0.000000,-9474.636058,536.266849
554.271367,-296.082377,-9474.636058,689.485948
554.271695,-222.061783,-9474.636058,842.705048
554.272022,-296.082377,-9400.615463,612.876398
554.272350,-296.082377,-9326.594869,1072.533697
554.272678,-444.123565,-9104.533087,842.705048
554.273005,-518.144159,-9178.553681,1072.533697
554.273333,-666.185348,-9030.512492,689.485948
554.273660,-592.164754,-8734.430116,842.705048
554.273988,-592.164754,-8808.450710,459.657299
554.274315,-518.144159,-8956.491898,612.876398
554.274643,-444.123565,-8956.491898,459.657299
554.274970,-444.123565,-9104.533087,766.095498
554.275298,-370.102971,-8882.471304,0.000000
554.275625,-370.102971,-8734.430116,1225.752797
554.275953,-370.102971,-9030.512492,536.266849
554.276281,-296.082377,-9030.512492,383.047749
554.276608,-296.082377,-9252.574275,536.266849
554.276936,-370.102971,-9178.553681,766.095498
554.277263,-592.164754,-9104.533087,1149.143247
554.277591,-814.226536,-9030.512492,612.876398
554.277918,-592.164754,-9252.574275,459.657299
554.278246,-296.082377,-9030.512492,536.266849
554.278573,-370.102971,-9030.512492,153.219100
554.278901,-296.082377,-8142.265362,153.219100
554.279228,0.000000,-9030.512492,306.438199
554.279556,0.000000,-9104.533087,229.828649
554.279883,0.000000,-8882.471304,229.828649
554.280211,0.000000,-9178.553681,383.047749
554.280539,0.000000,-9178.553681,1072.533697
554.280866,222.061783,-9178.553681,689.485948
554.281194,0.000000,-9474.636058,612.876398
554.281521,148.041188,-9400.615463,536.266849
554.281849,74.020594,-9474.636058,612.876398
554.282176,-148.041188,-8956.491898,306.438199
554.282504,-222.061783,-9030.512492,536.266849
554.282831,-444.123565,-9178.553681,689.485948
554.283159,-518.144159,-9030.512492,612.876398
554.283486,-740.205942,-8808.450710,383.047749
554.283814,-592.164754,-9030.512492,612.876398
554.284141,-740.205942,-8512.368333,995.924147
554.284469,-666.185348,-8660.409521,612.876398
554.284797,-888.247130,-8586.388927,229.828649
554.285124,-814.226536,-8660.409521,459.657299
554.285452,-592.164754,-8882.471304,459.657299
554.285779,0.000000,-9030.512492,1072.533697
554.286107,-296.082377,-9104.533087,842.705048
554.286434,-296.082377,-9400.615463,766.095498
554.286762,-592.164754,-9326.594869,766.095498
554.287089,-444.123565,-9474.636058,842.705048
554.287417,-592.164754,-8808.450710,919.314598
554.287744,-148.041188,-9326.594869,383.047749
554.288072,-296.082377,-9252.574275,383.047749
554.288400,-222.061783,-9252.574275,459.657299
554.288727,-296.082377,-9252.574275,383.047749
554.289055,-666.185348,-9030.512492,689.485948
554.289382,-296.082377,-8734.430116,536.266849
554.289710,-444.123565,-8956.491898,459.657299
554.290037,-444.123565,-9178.553681,459.657299
554.290365,-444.123565,-8956.491898,306.438199
554.290692,-518.144159,-8882.471304,536.266849
554.291020,0.000000,-8660.409521,766.095498
554.291347,0.000000,-9104.533087,459.657299
554.291675,-148.041188,-8956.491898,766.095498
554.292002,-148.041188,-9104.533087,612.876398
554.292330,0.000000,-9178.553681,536.266849
554.292658,-296.082377,-9252.574275,1225.752797
554.292985,-370.102971,-9104.533087,536.266849
554.293313,-370.102971,-9326.594869,689.485948
554.293640,-370.102971,-9178.553681,689.485948
554.293968,-518.144159,-9104.533087,842.705048
554.294295,-814.226536,-8808.450710,689.485948
554.294623,-148.041188,-8808.450710,842.705048
554.294950,-370.102971,-8882.471304,766.095498
554.295278,-370.102971,-8882.471304,842.705048
554.295605,-518.144159,-8882.471304,766.095498
