#time,accel_x,accel_y,accel_z
589.446467,0.000000,-9252.574275,536.266849
589.446795,-148.041188,-9104.533087,459.657299
589.447123,-148.041188,-9178.553681,383.047749
589.447451,0.000000,-9178.553681,229.828649
589.447778,-370.102971,-8586.388927,1225.752797
589.448106,0.000000,-9326.594869,689.485948
589.448434,-222.061783,-9104.533087,612.876398
589.448762,-296.082377,-9178.553681,612.876398
589.449090,-296.082377,-9178.553681,459.657299
589.449418,-148.041188,-9178.553681,1072.533697
589.449746,0.000000,-8882.471304,612.876398
589.450074,-148.041188,-9252.574275,689.485948
589.450401,-370.102971,-9104.533087,383.047749
589.450729,-296.082377,-9030.512492,842.705048
589.451057,-148.041188,-9104.533087,383.047749
589.451385,-444.123565,-8660.409521,0.000000
589.451713,-222.061783,-8956.491898,459.657299
589.452041,-370.102971,-9104.533087,536.266849
589.452369,-370.102971,-9104.533087,689.485948
589.452697,-222.061783,-9030.512492,766.095498
589.453024,0.000000,-9104.533087,842.705048
589.453352,-518.144159,-8734.430116,689.485948
589.453680,-370.102971,-9178.553681,766.095498
589.454008,-370.102971,-8956.491898,1149.143247
589.454336,-296.082377,-8956.491898,612.876398
589.454664,-222.061783,-9474.636058,995.924147
589.454992,0.000000,-9030.512492,306.438199
589.455320,-296.082377,-9252.574275,536.266849
589.455647,-592.164754,-9104.533087,459.657299
589.455975,-814.226536,-9326.594869,76.609550
589.456303,-1554.432478,-9326.594869,-153.219100
589.456631,-1332.370696,-9400.615463,-153.219100
589.456959,-888.247130,-9178.553681,-766.095498
589.457287,-370.102971,-9030.512492,-536.266849
589.457615,-222.061783,-9030.512492,-459.657299
589.457943,-814.226536,-9326.594869,-536.266849
589.458270,-1110.308913,-9178.553681,-1455.581446
589.458598,-1332.370696,-8882.471304,-1149.143247
589.458926,-1110.308913,-9030.512492,-1608.800546
589.459254,-1110.308913,-9252.574275,-1532.190996
589.459582,-592.164754,-9252.574275,-1302.362347
589.459910,0.000000,-9178.553681,-1225.752797
589.460238,0.000000,-9030.512492,-919.314598
589.460566,0.000000,-9030.512492,-1378.971896
589.460893,0.000000,-9326.594869,-1685.410096
589.461221,0.000000,-9474.636058,-1838.629195
589.461549,296.082377,-9178.553681,-1915.238745
589.461877,296.082377,-8956.491898,-2298.286494
589.462205,148.041188,-9400.615463,-1685.410096
589.462533,296.082377,-9326.594869,-1762.019645
589.462861,518.144159,-9178.553681,-1685.410096
589.463189,740.205942,-9178.553681,-1378.971896
589.463516,814.226536,-9326.594869,-1532.190996
589.463844,370.102971,-9622.677246,-1455.581446
589.464172,0.000000,-9252.574275,-1838.629195
589.464500,0.000000,-9252.574275,-2145.067394
589.464828,0.000000,-9178.553681,-1915.238745
589.465156,148.041188,-9178.553681,-1302.362347
589.465484,-296.082377,-9400.615463,-1685.410096
589.465812,-518.144159,-9178.553681,-1532.190996
589.466139,-888.247130,-9030.512492,-1762.019645
589.466467,-1258.350101,-9178.553681,-2298.286494
589.466795,-1406.391290,-8586.388927,-2451.505594
589.467123,-2146.597232,-9178.553681,-2681.334243
589.467451,-1924.535449,-9104.533087,-2987.772442
589.467779,-2294.638420,-9030.512492,-2987.772442
589.468107,-2368.659014,-8882.471304,-3294.210641
589.468435,-2368.659014,-8586.388927,-3370.820191
589.468762,-2146.597232,-8956.491898,-3983.696590
589.469090,-2294.638420,-9030.512492,-4213.525239
589.469418,-2072.576638,-8734.430116,-3983.696590
589.469746,-1776.494261,-8956.491898,-4136.915689
589.470074,-1406.391290,-8734.430116,-3524.039291
589.470402,0.000000,-8808.450710,-4136.915689
589.470730,518.144159,-8956.491898,-3447.429741
589.471058,1184.329507,-8882.471304,-2987.772442
589.471385,1924.535449,-8734.430116,-2451.505594
589.471713,2368.659014,-9030.512492,-2145.067394
589.472041,2738.761985,-9326.594869,-2298.286494
589.472369,2220.617826,-9622.677246,-1838.629195
589.472697,1258.350101,-10066.800811,-2451.505594
589.473025,592.164754,-10362.883188,-2604.724693
589.473353,-444.123565,-10436.903782,-3370.820191
589.473680,-1332.370696,-10362.883188,-3983.696590
589.474008,-1480.411884,-9992.780217,-4366.744339
589.474336,-1332.370696,-9770.718434,-4903.011187
589.474664,-740.205942,-8586.388927,-4903.011187
589.474992,592.164754,-7920.203579,-4519.963438
589.475320,2368.659014,-7476.080014,-3830.477490
589.475648,2886.803174,-7031.956449,-3753.867940
589.475976,2738.761985,-7402.059420,-2374.896044
589.476303,1406.391290,-8586.388927,-2145.067394
589.476631,-592.164754,-9548.656652,-2221.676944
589.476959,-2516.700203,-10436.903782,-1991.848295
589.477287,-4219.173869,-10288.862594,-2911.162892
589.477615,-3997.112087,-10584.944971,-2604.724693
589.477943,-3034.844362,-9992.780217,-2681.334243
589.478271,-740.205942,-9030.512492,-2221.676944
589.478599,2368.659014,-7179.997637,-1072.533697
589.478926,6957.935855,-5625.565159,689.485948
589.479254,10362.883188,-4515.256246,3140.991542
589.479582,11473.192101,-5921.647536,4749.792088
589.479910,8068.244768,-8586.388927,4749.792088
589.480238,1258.350101,-12139.377449,3830.477490
589.480566,-5551.544565,-13841.851115,2145.067394
589.480894,-9992.780217,-14804.118840,-229.828649
589.481222,-12509.480420,-14582.057057,-1302.362347
589.481549,-9622.677246,-12583.501014,-2374.896044
589.481877,-7698.141797,-10732.986159,-1915.238745
589.482205,-1480.411884,-6661.853478,-766.095498
589.482533,-1776.494261,-4811.338623,-1608.800546
589.482861,-740.205942,-4293.194464,-3217.601092
589.483189,-5255.462188,-5995.668130,-6205.373534
589.483517,-9474.636058,-7328.038826,-7890.783629
589.483845,-14359.995275,-8438.347739,-10418.898773
589.484172,-13989.892304,-8808.450710,-10572.117872
589.484500,-11029.068536,-7846.182985,-9806.022374
589.484828,-5995.668130,-7105.977043,-7737.564530
589.485156,1850.514855,-7031.956449,-5209.449386
589.485484,2812.782580,-7031.956449,-5745.716235
589.485812,5847.626942,-8512.368333,-4060.306139
589.486140,3108.864956,-10362.883188,-6281.983084
589.486468,2442.679609,-10732.986159,-7201.297681
589.486795,4737.318029,-10658.965565,-6894.859482
589.487123,8882.471304,-10436.903782,-5592.497135
589.487451,12509.480420,-9252.574275,-2451.505594
589.487779,13841.851115,-9992.780217,-1225.752797
589.488107,13545.768739,-10510.924376,-1149.143247
589.488435,12583.501014,-9770.718434,-1608.800546
589.488763,13767.830521,-9622.677246,-1455.581446
589.489091,14285.974681,-10214.842000,-1225.752797
589.489418,9992.780217,-11769.274478,-1991.848295
589.489746,4219.173869,-14285.974681,-3140.991542
589.490074,-4293.194464,-14359.995275,-5132.839837
589.490402,-11991.336260,-13841.851115,-7890.783629
589.490730,-8956.491898,-9400.615463,-7967.393179
589.491058,-2368.659014,-4515.256246,-6741.640382
589.491386,2072.576638,-2146.597232,-3677.258390
589.491714,4959.379811,-1628.453072,-1838.629195
589.492041,2368.659014,-2812.782580,-842.705048
589.492369,-1702.473667,-3923.091493,-766.095498
589.492697,-4441.235652,-4737.318029,-842.705048
589.493025,-7476.080014,-6883.915261,-1149.143247
589.493353,-6513.812290,-8586.388927,-919.314598
589.493681,-6143.709319,-10362.883188,1991.848295
589.494009,-5255.462188,-9844.739029,3677.258390
589.494337,-3997.112087,-9104.533087,5515.887586
589.494664,-1776.494261,-7698.141797,5056.230287
589.494992,-1554.432478,-9030.512492,3064.381992
589.495320,-4145.153275,-11103.089130,306.438199
589.495648,-5995.668130,-11473.192101,-1072.533697
589.495976,-7698.141797,-10436.903782,-2068.457845
589.496304,-4441.235652,-8882.471304,-1225.752797
589.496632,-1332.370696,-7772.162391,76.609550
589.496960,0.000000,-9104.533087,536.266849
589.497287,-296.082377,-9252.574275,612.876398
589.497615,-3330.926739,-9326.594869,76.609550
589.497943,-3849.070898,-9400.615463,766.095498
589.498271,-4145.153275,-10214.842000,-536.266849
589.498599,-3330.926739,-11399.171507,-995.924147
589.498927,-3404.947333,-12361.439231,-2528.115143
589.499255,-3330.926739,-11325.150913,-1762.019645
589.499582,-1110.308913,-7105.977043,-1991.848295
589.499910,-1036.288319,-7328.038826,-1532.190996
589.500238,1776.494261,-6587.832884,-2834.553343
589.500566,1554.432478,-7105.977043,-4443.353888
589.500894,3997.112087,-8660.409521,-4443.353888
589.501222,5551.544565,-7179.997637,-4213.525239
589.501550,5625.565159,-8290.306550,-3907.087040
589.501878,5403.503377,-11325.150913,-3294.210641
589.502205,4589.276840,-14063.912898,-2987.772442
589.502533,3256.906145,-14285.974681,-3753.867940
589.502861,3256.906145,-13989.892304,-3064.381992
589.503189,2368.659014,-13101.645173,-3753.867940
589.503517,222.061783,-11547.212695,-3983.696590
589.503845,1998.556043,-11843.295072,-3064.381992
589.504173,2294.638420,-9992.780217,-3064.381992
589.504501,1924.535449,-8364.327145,-3524.039291
589.504828,1480.411884,-8660.409521,-3217.601092
589.505156,-888.247130,-8216.285956,-5056.230287
589.505483,-2220.617826,-7031.956449,-5592.497135
589.505811,-1924.535449,-7179.997637,-5898.935335
589.506138,-2146.597232,-6291.750507,-5975.544884
589.506466,-1184.329507,-5033.400406,-4443.353888
589.506793,962.267725,-4367.215058,-2757.943793
589.507121,1406.391290,-5699.585753,-1762.019645
589.507448,0.000000,-7254.018232,-1149.143247
589.507776,-666.185348,-9030.512492,-1608.800546
589.508104,-1924.535449,-10140.821405,-2221.676944
589.508431,-3182.885551,-10288.862594,-2298.286494
589.508759,-4293.194464,-10066.800811,-2221.676944
589.509086,-2664.741391,-9104.533087,-1685.410096
589.509414,-962.267725,-7920.203579,-1915.238745
589.509741,0.000000,-7920.203579,-1608.800546
589.510069,-1924.535449,-8734.430116,-2221.676944
589.510396,-2590.720797,-9030.512492,-3447.429741
589.510724,-3034.844362,-8142.265362,-4060.306139
589.511051,-1554.432478,-9178.553681,-4060.306139
589.511379,-666.185348,-8586.388927,-3830.477490
589.511707,1702.473667,-7402.059420,-2681.334243
589.512034,4219.173869,-5699.585753,-1455.581446
589.512362,3404.947333,-6587.832884,-612.876398
589.512689,2368.659014,-8142.265362,76.609550
589.513017,1036.288319,-8290.306550,-612.876398
589.513344,0.000000,-9178.553681,0.000000
589.513672,148.041188,-10214.842000,-153.219100
589.513999,-888.247130,-9474.636058,153.219100
589.514327,1110.308913,-8586.388927,995.924147
589.514654,2590.720797,-9030.512492,919.314598
589.514982,1850.514855,-9104.533087,536.266849
589.515310,666.185348,-8956.491898,-842.705048
589.515637,74.020594,-8586.388927,-1608.800546
589.515965,-296.082377,-9400.615463,-1762.019645
589.516292,-1480.411884,-10214.842000,-1072.533697
589.516620,-518.144159,-9770.718434,-612.876398
589.516947,1110.308913,-11621.233289,919.314598
589.517275,-518.144159,-11695.253884,766.095498
589.517602,-2220.617826,-11843.295072,383.047749
589.517930,-4071.132681,-10807.006753,-459.657299
589.518257,-4737.318029,-10658.965565,-612.876398
589.518585,-3997.112087,-10510.924376,-306.438199
589.518913,-3923.091493,-9178.553681,-612.876398
589.519240,-4071.132681,-8068.244768,-766.095498
589.519568,-3404.947333,-7772.162391,-536.266849
589.519895,-3627.009116,-7920.203579,-1378.971896
589.520223,-3923.091493,-7254.018232,-2145.067394
589.520550,-2368.659014,-7402.059420,-2451.505594
589.520878,0.000000,-7698.141797,-1608.800546
589.521205,1702.473667,-7254.018232,-689.485948
589.521533,2664.741391,-8512.368333,229.828649
589.521860,3775.050304,-9918.759623,1685.410096
589.522188,3256.906145,-10362.883188,1149.143247
589.522516,1776.494261,-11103.089130,1149.143247
589.522843,2368.659014,-12139.377449,1455.581446
589.523171,1776.494261,-11917.315666,1225.752797
589.523498,1850.514855,-12583.501014,1378.971896
589.523826,1406.391290,-12065.356855,536.266849
589.524153,1406.391290,-10732.986159,536.266849
589.524481,0.000000,-10362.883188,0.000000
589.524808,666.185348,-9548.656652,-919.314598
589.525136,814.226536,-8808.450710,-842.705048
589.525463,740.205942,-7105.977043,-612.876398
589.525791,1480.411884,-7624.121203,-689.485948
589.526119,962.267725,-7920.203579,-306.438199
589.526446,-370.102971,-8068.244768,0.000000
589.526774,-1110.308913,-7698.141797,0.000000
589.527101,-2220.617826,-7772.162391,229.828649
589.527429,-2368.659014,-7550.100608,383.047749
589.527756,-2368.659014,-8512.368333,612.876398
589.528084,-3256.906145,-8808.450710,919.314598
589.528411,-4145.153275,-8956.491898,689.485948
589.528739,-3923.091493,-8808.450710,229.828649
589.529066,-4367.215058,-7624.121203,-842.705048
589.529394,-2220.617826,-7179.997637,-766.095498
589.529722,0.000000,-6883.915261,-612.876398
589.530049,1554.432478,-6883.915261,0.000000
589.530377,1184.329507,-7550.100608,0.000000
589.530704,1406.391290,-9104.533087,842.705048
589.531032,-518.144159,-9326.594869,459.657299
589.531359,-1184.329507,-9918.759623,383.047749
589.531687,222.061783,-10140.821405,995.924147
589.532014,1776.494261,-9326.594869,1608.800546
589.532342,2812.782580,-9178.553681,3294.210641
589.532669,2664.741391,-9400.615463,3294.210641
589.532997,1480.411884,-9918.759623,2911.162892
589.533324,222.061783,-9622.677246,2451.505594
589.533652,0.000000,-9104.533087,2681.334243
589.533980,296.082377,-8216.285956,1915.238745
589.534307,1332.370696,-7105.977043,1991.848295
589.534635,2146.597232,-6587.832884,1608.800546
589.534962,1554.432478,-7624.121203,1685.410096
589.535290,1258.350101,-7698.141797,766.095498
589.535617,-518.144159,-8364.327145,76.609550
589.535945,-1406.391290,-8882.471304,383.047749
589.536272,-962.267725,-9104.533087,-306.438199
589.536600,-1332.370696,-10140.821405,-229.828649
589.536927,-1850.514855,-10955.047942,0.000000
589.537255,-1850.514855,-11547.212695,0.000000
589.537583,-2960.823768,-11621.233289,-383.047749
589.537910,-3849.070898,-11325.150913,-306.438199
589.538238,-3478.967927,-11103.089130,-459.657299
589.538565,-1628.453072,-9844.739029,-306.438199
589.538893,-592.164754,-9178.553681,-153.219100
589.539220,0.000000,-9252.574275,-229.828649
589.539548,-148.041188,-9844.739029,76.609550
589.539875,-888.247130,-9548.656652,-536.266849
589.540203,-814.226536,-9696.697840,-612.876398
589.540530,0.000000,-9992.780217,-383.047749
589.540858,962.267725,-9770.718434,1072.533697
589.541186,1554.432478,-10807.006753,919.314598
589.541513,1776.494261,-10362.883188,919.314598
589.541841,1628.453072,-10140.821405,689.485948
589.542168,1480.411884,-10510.924376,536.266849
589.542496,1702.473667,-10658.965565,1149.143247
589.542823,2220.617826,-10362.883188,1991.848295
589.543151,2294.638420,-10288.862594,1915.238745
589.543478,444.123565,-10584.944971,1838.629195
589.543806,222.061783,-10584.944971,1378.971896
589.544133,-1702.473667,-10288.862594,536.266849
589.544461,-2442.679609,-9622.677246,0.000000
589.544789,-2146.597232,-8956.491898,-459.657299
589.545116,-370.102971,-7476.080014,76.609550
589.545444,666.185348,-7179.997637,459.657299
589.545771,518.144159,-8068.244768,1225.752797
589.546099,-444.123565,-8142.265362,1072.533697
589.546426,-1554.432478,-8216.285956,536.266849
589.546754,-1036.288319,-7550.100608,689.485948
589.547081,-666.185348,-7105.977043,1225.752797
589.547409,444.123565,-7179.997637,1915.238745
589.547736,-740.205942,-8216.285956,1991.848295
589.548064,-1332.370696,-8882.471304,2145.067394
589.548392,-2960.823768,-7920.203579,1072.533697
589.548719,-3108.864956,-8586.388927,612.876398
589.549047,-2368.659014,-7994.224174,0.000000
589.549374,-1628.453072,-7624.121203,0.000000
589.549702,-296.082377,-7402.059420,306.438199
589.550029,-296.082377,-7402.059420,306.438199
589.550357,74.020594,-7179.997637,536.266849
589.550684,0.000000,-7476.080014,153.219100
589.551012,-222.061783,-8438.347739,383.047749
589.551339,444.123565,-8660.409521,1149.143247
589.551667,740.205942,-8216.285956,1225.752797
589.551995,592.164754,-8956.491898,1532.190996
589.552322,-666.185348,-9474.636058,1378.971896
589.552650,-1480.411884,-9992.780217,1378.971896
589.552977,-1924.535449,-9696.697840,0.000000
589.553305,-1554.432478,-7772.162391,612.876398
589.553632,-148.041188,-7402.059420,0.000000
589.553960,1036.288319,-7179.997637,153.219100
589.554287,1184.329507,-7698.141797,0.000000
589.554615,1184.329507,-8068.244768,76.609550
589.554942,1554.432478,-7920.203579,-612.876398
589.555270,1850.514855,-7994.224174,153.219100
589.555598,2664.741391,-8882.471304,1072.533697
589.555925,2664.741391,-10140.821405,1915.238745
589.556253,2072.576638,-11399.171507,2145.067394
589.556580,-370.102971,-12583.501014,1991.848295
589.556908,-2664.741391,-13175.665768,1072.533697
589.557235,-3775.050304,-13323.706956,76.609550
589.557563,-4071.132681,-12731.542202,-306.438199
589.557890,-2960.823768,-10955.047942,-1225.752797
589.558218,-1258.350101,-9918.759623,-1378.971896
589.558545,0.000000,-8586.388927,-1225.752797
589.558873,444.123565,-7328.038826,-1149.143247
589.559200,962.267725,-7105.977043,-995.924147
589.559528,740.205942,-7476.080014,-842.705048
589.559856,740.205942,-8068.244768,0.000000
589.560183,1036.288319,-8364.327145,1225.752797
589.560511,1258.350101,-8512.368333,1532.190996
589.560838,74.020594,-10066.800811,2221.676944
589.561166,-1332.370696,-11621.233289,2221.676944
589.561493,-3108.864956,-12879.583391,1532.190996
589.561821,-3701.029710,-11843.295072,1225.752797
589.562148,-3034.844362,-10436.903782,766.095498
589.562476,-1628.453072,-9178.553681,306.438199
589.562803,0.000000,-8660.409521,229.828649
589.563131,0.000000,-7920.203579,-383.047749
589.563459,888.247130,-6957.935855,0.000000
589.563786,518.144159,-5995.668130,-766.095498
589.564114,1480.411884,-5773.606348,153.219100
589.564441,1850.514855,-6809.894666,536.266849
589.564769,2220.617826,-7550.100608,1378.971896
589.565096,962.267725,-8882.471304,1532.190996
589.565424,-962.267725,-11029.068536,2451.505594
589.565751,-2664.741391,-11547.212695,1685.410096
589.566079,-4145.153275,-11177.109724,1378.971896
589.566406,-3627.009116,-9992.780217,766.095498
589.566734,-2516.700203,-9474.636058,0.000000
589.567062,-1332.370696,-8734.430116,919.314598
589.567389,-1036.288319,-6957.935855,0.000000
589.567717,0.000000,-5921.647536,-306.438199
589.568044,888.247130,-5255.462188,-536.266849
589.568372,1776.494261,-5329.482782,-229.828649
589.568699,2664.741391,-5995.668130,306.438199
589.569027,3775.050304,-6883.915261,1225.752797
589.569354,3478.967927,-8438.347739,2221.676944
589.569682,1110.308913,-10584.944971,2451.505594
589.570009,-370.102971,-12583.501014,2451.505594
589.570337,-2368.659014,-12879.583391,995.924147
589.570665,-2886.803174,-13545.768739,1149.143247
589.570992,-2442.679609,-12361.439231,1149.143247
589.571320,-1332.370696,-11769.274478,766.095498
589.571647,-814.226536,-10807.006753,459.657299
589.571975,0.000000,-9548.656652,76.609550
589.572302,814.226536,-7846.182985,-459.657299
589.572630,1332.370696,-7105.977043,-842.705048
589.572957,2664.741391,-6143.709319,0.000000
589.573285,3627.009116,-6217.729913,919.314598
589.573612,3478.967927,-6809.894666,919.314598
589.573940,1554.432478,-8438.347739,2068.457845
589.574268,-888.247130,-10362.883188,1685.410096
589.574595,-2664.741391,-10807.006753,1302.362347
589.574923,-4219.173869,-11103.089130,689.485948
589.575250,-3478.967927,-11251.130318,689.485948
589.575578,-2738.761985,-10510.924376,536.266849
589.575905,-3108.864956,-10140.821405,-383.047749
589.576233,-2516.700203,-9548.656652,-995.924147
589.576560,-2368.659014,-8142.265362,-1762.019645
589.576888,-888.247130,-7031.956449,-1915.238745
589.577215,1258.350101,-6661.853478,-1302.362347
589.577543,2368.659014,-6291.750507,-919.314598
589.577871,3552.988522,-7402.059420,76.609550
589.578198,2294.638420,-9252.574275,919.314598
589.578526,518.144159,-11177.109724,1685.410096
589.578853,-1406.391290,-11251.130318,1455.581446
589.579181,-1776.494261,-12065.356855,1302.362347
589.579508,-2294.638420,-11769.274478,995.924147
589.579836,-1628.453072,-11177.109724,995.924147
589.580163,-1110.308913,-9844.739029,766.095498
589.580491,-740.205942,-8808.450710,536.266849
589.580818,814.226536,-7772.162391,229.828649
589.581146,1184.329507,-6439.791695,-306.438199
589.581474,2738.761985,-5699.585753,-383.047749
589.581801,4515.256246,-5255.462188,153.219100
589.582129,4959.379811,-5403.503377,1455.581446
589.582456,4293.194464,-7031.956449,2068.457845
589.582784,2072.576638,-9178.553681,2834.553343
589.583111,-296.082377,-10955.047942,2604.724693
589.583439,-3108.864956,-12509.480420,1915.238745
589.583766,-4293.194464,-12953.603985,2068.457845
589.584094,-3404.947333,-12435.459826,1991.848295
589.584421,-3701.029710,-10732.986159,995.924147
589.584749,-2960.823768,-9770.718434,766.095498
589.585077,-2886.803174,-8808.450710,76.609550
589.585404,-2516.700203,-7179.997637,-306.438199
589.585732,-1702.473667,-5847.626942,-842.705048
589.586059,370.102971,-5033.400406,-612.876398
589.586387,1554.432478,-5847.626942,229.828649
589.586714,1628.453072,-6883.915261,689.485948
589.587042,814.226536,-8734.430116,1608.800546
589.587369,-1110.308913,-9178.553681,1762.019645
589.587697,-1924.535449,-9992.780217,1455.581446
589.588024,-2590.720797,-11177.109724,1149.143247
589.588352,-2368.659014,-11473.192101,1149.143247
589.588679,-2442.679609,-10732.986159,536.266849
589.589007,-2072.576638,-10436.903782,76.609550
589.589335,-2146.597232,-9178.553681,-612.876398
589.589662,-1110.308913,-9252.574275,-1225.752797
589.589990,0.000000,-7846.182985,-1838.629195
589.590317,2738.761985,-6661.853478,-1378.971896
589.590645,4515.256246,-6513.812290,-919.314598
589.590972,6735.874072,-7105.977043,383.047749
589.591300,4811.338623,-8512.368333,1225.752797
589.591627,3108.864956,-10732.986159,1608.800546
589.591955,814.226536,-11917.315666,1378.971896
589.592282,-1184.329507,-12879.583391,1225.752797
589.592610,-2294.638420,-12657.521608,612.876398
589.592938,-2220.617826,-12657.521608,1149.143247
589.593265,-2294.638420,-11917.315666,689.485948
589.593593,-1998.556043,-9992.780217,76.609550
589.593920,-1332.370696,-8660.409521,-612.876398
589.594248,0.000000,-6809.894666,-995.924147
589.594575,518.144159,-5033.400406,-1302.362347
589.594903,2590.720797,-4737.318029,-842.705048
589.595230,2886.803174,-4589.276840,-383.047749
589.595558,2886.803174,-6735.874072,919.314598
589.595885,888.247130,-8068.244768,1302.362347
589.596213,-1258.350101,-9178.553681,1302.362347
589.596541,-3627.009116,-11177.109724,1225.752797
589.596868,-4811.338623,-11917.315666,1378.971896
589.597196,-4367.215058,-12213.398043,1072.533697
589.597523,-4071.132681,-11843.295072,689.485948
589.597851,-3923.091493,-11917.315666,459.657299
589.598178,-3330.926739,-10584.944971,0.000000
589.598506,-2516.700203,-8586.388927,-1149.143247
589.598833,0.000000,-6957.935855,-1302.362347
589.599161,2220.617826,-5329.482782,-919.314598
589.599488,4293.194464,-5847.626942,459.657299
589.599816,3997.112087,-6069.688724,612.876398
589.600144,2516.700203,-7846.182985,1685.410096
589.600471,1184.329507,-8882.471304,1532.190996
589.600799,-592.164754,-10214.842000,1685.410096
589.601126,-740.205942,-10955.047942,1838.629195
589.601454,-518.144159,-11325.150913,2451.505594
589.601781,-518.144159,-11325.150913,2374.896044
589.602109,-370.102971,-11251.130318,2451.505594
589.602436,-814.226536,-10288.862594,1225.752797
589.602764,-666.185348,-9474.636058,383.047749
589.603091,-296.082377,-7624.121203,-383.047749
589.603419,1480.411884,-6735.874072,-536.266849
589.603746,3108.864956,-5551.544565,-306.438199
589.604073,4663.297435,-5773.606348,612.876398
589.604401,3478.967927,-7550.100608,1685.410096
589.604728,2516.700203,-9104.533087,2145.067394
589.605056,-740.205942,-10584.944971,1608.800546
589.605383,-2442.679609,-12065.356855,1762.019645
589.605710,-3849.070898,-12657.521608,1532.190996
589.606038,-4441.235652,-12435.459826,1455.581446
589.606365,-3923.091493,-12213.398043,2374.896044
589.606693,-3923.091493,-11843.295072,1302.362347
589.607020,-3923.091493,-10066.800811,459.657299
589.607347,-3701.029710,-7402.059420,-919.314598
589.607675,-2442.679609,-5921.647536,-1532.190996
589.608002,518.144159,-4515.256246,-1302.362347
589.608330,2072.576638,-3997.112087,-766.095498
589.608657,2442.679609,-5107.421000,76.609550
589.608984,1480.411884,-6883.915261,306.438199
589.609312,-148.041188,-8364.327145,536.266849
589.609639,-2072.576638,-10510.924376,383.047749
589.609966,-1480.411884,-11103.089130,1225.752797
589.610294,-1480.411884,-11325.150913,919.314598
589.610621,-1184.329507,-11695.253884,1302.362347
589.610949,-1850.514855,-11917.315666,766.095498
589.611276,-1850.514855,-11399.171507,153.219100
589.611603,-1480.411884,-9474.636058,-842.705048
589.611931,1332.370696,-7402.059420,-536.266849
589.612258,2738.761985,-6735.874072,-689.485948
589.612586,5255.462188,-6291.750507,0.000000
589.612913,4885.359217,-7031.956449,536.266849
589.613240,3552.988522,-8290.306550,383.047749
589.613568,2590.720797,-9548.656652,1532.190996
589.613895,444.123565,-10214.842000,766.095498
589.614223,-222.061783,-11399.171507,1532.190996
589.614550,-222.061783,-11695.253884,1685.410096
589.614877,-888.247130,-11251.130318,1455.581446
589.615205,-962.267725,-11399.171507,1149.143247
589.615532,-2590.720797,-10436.903782,689.485948
589.615859,-3182.885551,-9474.636058,-153.219100
589.616187,-3330.926739,-8142.265362,-1225.752797
589.616514,-1776.494261,-6513.812290,-1608.800546
589.616842,666.185348,-5847.626942,-919.314598
589.617169,1998.556043,-5551.544565,229.828649
589.617496,1184.329507,-6809.894666,536.266849
589.617824,370.102971,-8068.244768,766.095498
589.618151,-888.247130,-9252.574275,919.314598
589.618479,-2516.700203,-11029.068536,842.705048
589.618806,-2516.700203,-11473.192101,1762.019645
589.619133,-2664.741391,-11843.295072,1532.190996
589.619461,-2516.700203,-11695.253884,1685.410096
589.619788,-2812.782580,-11695.253884,766.095498
589.620116,-1702.473667,-10362.883188,995.924147
589.620443,-888.247130,-8586.388927,0.000000
589.620770,666.185348,-7476.080014,0.000000
589.621098,2368.659014,-6587.832884,153.219100
589.621425,3478.967927,-6069.688724,306.438199
589.621753,2368.659014,-7254.018232,766.095498
589.622080,1258.350101,-7772.162391,536.266849
589.622407,296.082377,-8660.409521,536.266849
589.622735,222.061783,-9326.594869,1149.143247
589.623062,370.102971,-10066.800811,1762.019645
589.623389,0.000000,-10436.903782,1991.848295
589.623717,-370.102971,-11917.315666,2145.067394
589.624044,-1998.556043,-11843.295072,1685.410096
589.624372,-1924.535449,-11103.089130,995.924147
589.624699,-1850.514855,-9844.739029,306.438199
589.625026,-592.164754,-8956.491898,229.828649
589.625354,1184.329507,-8216.285956,919.314598
589.625681,1776.494261,-6883.915261,766.095498
589.626009,1702.473667,-7105.977043,766.095498
589.626336,1332.370696,-7772.162391,1149.143247
589.626663,-296.082377,-8512.368333,306.438199
589.626991,-1480.411884,-9326.594869,76.609550
589.627318,-2294.638420,-9400.615463,536.266849
589.627646,-1110.308913,-9252.574275,1149.143247
589.627973,-962.267725,-9474.636058,1225.752797
589.628300,-1776.494261,-10510.924376,1838.629195
589.628628,-2516.700203,-10658.965565,1378.971896
589.628955,-2738.761985,-10066.800811,306.438199
589.629282,-3552.988522,-8808.450710,-306.438199
589.629610,-1776.494261,-7624.121203,-536.266849
589.629937,444.123565,-6661.853478,-229.828649
589.630265,1554.432478,-6069.688724,0.000000
589.630592,2146.597232,-6587.832884,0.000000
589.630919,1406.391290,-7179.997637,76.609550
589.631247,518.144159,-7994.224174,0.000000
589.631574,148.041188,-8808.450710,0.000000
589.631902,740.205942,-9474.636058,0.000000
589.632229,148.041188,-10140.821405,-153.219100
589.632556,-592.164754,-11177.109724,306.438199
589.632884,-518.144159,-11621.233289,536.266849
589.633211,-962.267725,-11029.068536,0.000000
589.633539,0.000000,-10140.821405,-229.828649
589.633866,1776.494261,-9474.636058,0.000000
589.634193,1998.556043,-8734.430116,0.000000
589.634521,1998.556043,-9400.615463,-842.705048
589.634848,518.144159,-9474.636058,-536.266849
589.635175,0.000000,-8882.471304,-766.095498
589.635503,-222.061783,-9178.553681,-995.924147
589.635830,0.000000,-9548.656652,-536.266849
589.636158,296.082377,-9474.636058,76.609550
589.636485,148.041188,-9844.739029,689.485948
589.636812,0.000000,-9770.718434,1149.143247
589.637140,-370.102971,-9844.739029,1225.752797
589.637467,-1110.308913,-10362.883188,995.924147
589.637795,-1776.494261,-9992.780217,0.000000
589.638122,-1184.329507,-9400.615463,229.828649
589.638449,888.247130,-7624.121203,842.705048
589.638777,1998.556043,-7550.100608,1532.190996
589.639104,2072.576638,-9400.615463,2145.067394
589.639432,1184.329507,-10288.862594,2834.553343
589.639759,-814.226536,-10140.821405,1608.800546
589.640086,-1628.453072,-10807.006753,1915.238745
589.640414,-2220.617826,-10807.006753,1532.190996
589.640741,-2072.576638,-11103.089130,1838.629195
589.641068,-2294.638420,-11103.089130,2298.286494
589.641396,-1998.556043,-10658.965565,2221.676944
589.641723,-1850.514855,-9992.780217,1532.190996
589.642051,-2368.659014,-8956.491898,766.095498
589.642378,-1924.535449,-7920.203579,536.266849
589.642705,-666.185348,-7105.977043,919.314598
589.643033,-962.267725,-6809.894666,306.438199
589.643360,-1110.308913,-7846.182985,919.314598
589.643688,-1924.535449,-8142.265362,612.876398
589.644015,-1776.494261,-7624.121203,689.485948
589.644342,-1554.432478,-8216.285956,995.924147
589.644670,-1184.329507,-8660.409521,1149.143247
589.644997,0.000000,-8512.368333,1378.971896
589.645325,0.000000,-8586.388927,1149.143247
589.645652,0.000000,-9252.574275,1532.190996
589.645979,-444.123565,-9030.512492,1072.533697
589.646307,-592.164754,-8586.388927,153.219100
589.646634,0.000000,-8290.306550,76.609550
589.646962,2294.638420,-7328.038826,536.266849
589.647289,3034.844362,-7105.977043,1149.143247
589.647616,2886.803174,-7476.080014,919.314598
589.647944,2516.700203,-8512.368333,1378.971896
589.648271,1480.411884,-8956.491898,612.876398
589.648598,0.000000,-9178.553681,-306.438199
589.648926,222.061783,-9696.697840,0.000000
589.649253,0.000000,-9474.636058,-229.828649
589.649581,370.102971,-8956.491898,383.047749
589.649908,0.000000,-8808.450710,76.609550
589.650235,518.144159,-8660.409521,383.047749
589.650563,-740.205942,-8216.285956,-689.485948
589.650890,-370.102971,-7328.038826,-536.266849
589.651218,-296.082377,-6957.935855,-459.657299
589.651545,592.164754,-6587.832884,-536.266849
589.651872,296.082377,-7328.038826,0.000000
589.652200,-592.164754,-8364.327145,153.219100
589.652527,-1332.370696,-9178.553681,0.000000
589.652855,-1998.556043,-9030.512492,-459.657299
589.653182,-2294.638420,-9918.759623,-919.314598
589.653509,-2368.659014,-9622.677246,-919.314598
589.653837,-1554.432478,-9474.636058,-1302.362347
589.654164,-1036.288319,-9622.677246,-1072.533697
589.654491,-666.185348,-10066.800811,-1302.362347
589.654819,-148.041188,-9992.780217,-1302.362347
589.655146,-296.082377,-9844.739029,-1378.971896
589.655474,444.123565,-9696.697840,-766.095498
589.655801,2072.576638,-9548.656652,229.828649
589.656128,2516.700203,-9770.718434,995.924147
589.656456,1406.391290,-10807.006753,2298.286494
589.656783,370.102971,-11029.068536,1685.410096
589.657111,-592.164754,-11547.212695,995.924147
589.657438,-1628.453072,-11547.212695,766.095498
589.657765,-592.164754,-10510.924376,995.924147
589.658093,1628.453072,-9400.615463,1455.581446
589.658420,2368.659014,-9474.636058,1762.019645
589.658748,2368.659014,-9104.533087,1685.410096
589.659075,2368.659014,-8808.450710,1838.629195
589.659402,1850.514855,-9326.594869,1225.752797
589.659730,1332.370696,-9104.533087,1915.238745
589.660057,1554.432478,-9844.739029,2221.676944
589.660384,1258.350101,-9474.636058,2528.115143
589.660712,74.020594,-10658.965565,2604.724693
589.661039,-2072.576638,-11621.233289,2681.334243
589.661367,-3923.091493,-11621.233289,1838.629195
589.661694,-5181.441594,-10881.027347,919.314598
589.662021,-6143.709319,-10584.944971,612.876398
589.662349,-4737.318029,-9252.574275,229.828649
589.662676,-3775.050304,-8660.409521,0.000000
589.663004,-3256.906145,-8512.368333,306.438199
589.663331,-2368.659014,-7105.977043,153.219100
589.663658,-2146.597232,-6513.812290,0.000000
589.663986,-1184.329507,-6143.709319,76.609550
589.664313,0.000000,-5847.626942,229.828649
589.664641,370.102971,-7105.977043,1455.581446
589.664968,592.164754,-8142.265362,2298.286494
589.665295,-888.247130,-9474.636058,1915.238745
589.665623,-1110.308913,-9770.718434,1762.019645
589.665950,-1776.494261,-10214.842000,919.314598
589.666278,-1184.329507,-9696.697840,766.095498
589.666605,888.247130,-8586.388927,919.314598
589.666932,1480.411884,-7994.224174,0.000000
589.667260,2516.700203,-7994.224174,0.000000
589.667587,2960.823768,-7698.141797,153.219100
589.667914,2960.823768,-7031.956449,-306.438199
589.668242,2442.679609,-7254.018232,-612.876398
589.668569,4515.256246,-7920.203579,536.266849
589.668897,4367.215058,-7698.141797,1225.752797
589.669224,3701.029710,-8512.368333,2221.676944
589.669551,1110.308913,-10214.842000,1838.629195
589.669879,-370.102971,-11769.274478,1991.848295
589.670206,-3701.029710,-11547.212695,76.609550
589.670534,-3997.112087,-10955.047942,0.000000
589.670861,-3404.947333,-9548.656652,-459.657299
589.671188,-2368.659014,-8586.388927,-995.924147
589.671516,-1332.370696,-7920.203579,-995.924147
589.671843,-740.205942,-6439.791695,-1225.752797
589.672171,222.061783,-5625.565159,-1608.800546
589.672498,0.000000,-6143.709319,-2068.457845
589.672825,-370.102971,-6883.915261,-1302.362347
589.673153,1184.329507,-7772.162391,-306.438199
589.673480,444.123565,-8290.306550,76.609550
589.673807,222.061783,-10066.800811,842.705048
589.674135,-1850.514855,-11769.274478,842.705048
589.674462,-2368.659014,-12435.459826,995.924147
589.674790,-3478.967927,-12731.542202,306.438199
589.675117,-2738.761985,-11769.274478,383.047749
589.675444,-1258.350101,-10584.944971,153.219100
589.675772,0.000000,-10214.842000,0.000000
589.676099,740.205942,-9474.636058,-229.828649
589.676427,1850.514855,-8364.327145,0.000000
589.676754,1554.432478,-7031.956449,-612.876398
589.677081,2812.782580,-6809.894666,0.000000
589.677409,4293.194464,-7105.977043,919.314598
589.677736,3997.112087,-7994.224174,1685.410096
589.678064,2516.700203,-10214.842000,2911.162892
589.678391,-148.041188,-11399.171507,2604.724693
589.678718,-2220.617826,-12435.459826,2068.457845
589.679046,-3404.947333,-12361.439231,1225.752797
589.679373,-4071.132681,-11843.295072,1225.752797
589.679700,-2664.741391,-10807.006753,1225.752797
589.680028,-2368.659014,-9030.512492,306.438199
589.680355,-1702.473667,-8216.285956,306.438199
589.680683,-962.267725,-6957.935855,-383.047749
589.681010,-592.164754,-5995.668130,-919.314598
589.681337,-222.061783,-6587.832884,-459.657299
589.681665,814.226536,-6513.812290,-153.219100
589.681992,1850.514855,-6957.935855,1149.143247
589.682320,2294.638420,-8586.388927,2145.067394
589.682647,-148.041188,-9918.759623,2604.724693
589.682974,-1480.411884,-12065.356855,2681.334243
589.683302,-4071.132681,-12583.501014,1608.800546
589.683629,-4589.276840,-12731.542202,1685.410096
589.683957,-3701.029710,-10955.047942,1302.362347
589.684284,-2072.576638,-9622.677246,536.266849
589.684611,-1702.473667,-8956.491898,0.000000
589.684939,-592.164754,-7846.182985,-229.828649
589.685266,888.247130,-6143.709319,-1149.143247
589.685593,2442.679609,-4589.276840,-995.924147
589.685921,3923.091493,-4885.359217,-689.485948
589.686248,5033.400406,-6069.688724,383.047749
589.686576,4219.173869,-7402.059420,919.314598
589.686903,3034.844362,-9400.615463,1915.238745
589.687230,888.247130,-11177.109724,2145.067394
589.687558,-1258.350101,-12361.439231,2298.286494
589.687885,-3478.967927,-13693.809927,1225.752797
589.688213,-3256.906145,-12361.439231,919.314598
589.688540,-2368.659014,-11325.150913,766.095498
589.688867,-1554.432478,-10140.821405,306.438199
589.689195,-1480.411884,-9178.553681,-689.485948
589.689522,0.000000,-7254.018232,-1378.971896
589.689850,296.082377,-5329.482782,-1762.019645
589.690177,2220.617826,-4811.338623,-995.924147
589.690504,3330.926739,-5033.400406,-306.438199
589.690832,3330.926739,-5921.647536,459.657299
589.691159,1776.494261,-8808.450710,1072.533697
589.691487,-296.082377,-10288.862594,1762.019645
589.691814,-2368.659014,-11399.171507,1455.581446
589.692141,-3849.070898,-12731.542202,1302.362347
589.692469,-4885.359217,-12509.480420,995.924147
589.692796,-4071.132681,-11843.295072,612.876398
589.693123,-2664.741391,-9844.739029,153.219100
589.693451,-1924.535449,-8660.409521,0.000000
589.693778,-148.041188,-7994.224174,-459.657299
589.694106,296.082377,-6143.709319,-1302.362347
589.694433,1554.432478,-5995.668130,-1149.143247
589.694760,3849.070898,-5699.585753,0.000000
589.695088,4515.256246,-5921.647536,842.705048
589.695415,3478.967927,-7994.224174,1838.629195
589.695743,1702.473667,-10362.883188,2451.505594
589.696070,-296.082377,-10436.903782,2681.334243
589.696397,-2072.576638,-12287.418637,2068.457845
589.696725,-3997.112087,-12953.603985,1302.362347
589.697052,-3404.947333,-12657.521608,1532.190996
589.697380,-3256.906145,-10955.047942,689.485948
589.697707,-3034.844362,-9622.677246,842.705048
589.698034,-1998.556043,-8216.285956,-766.095498
589.698362,-1184.329507,-7105.977043,-1608.800546
589.698689,-740.205942,-6069.688724,-1915.238745
589.699016,1332.370696,-4959.379811,-1455.581446
589.699344,3256.906145,-5329.482782,229.828649
589.699671,3182.885551,-6365.771101,459.657299
589.699999,1406.391290,-8808.450710,1302.362347
589.700326,0.000000,-10066.800811,1608.800546
589.700653,-2590.720797,-11177.109724,1378.971896
589.700981,-3552.988522,-12065.356855,1149.143247
589.701308,-3182.885551,-11843.295072,1225.752797
589.701636,-2220.617826,-11843.295072,919.314598
589.701963,-1776.494261,-10732.986159,459.657299
589.702290,-740.205942,-9474.636058,76.609550
589.702618,444.123565,-7920.203579,-536.266849
589.702945,1702.473667,-6661.853478,-536.266849
589.703273,3182.885551,-5995.668130,-612.876398
589.703600,5329.482782,-6143.709319,383.047749
589.703927,5033.400406,-6883.915261,919.314598
589.704255,4367.215058,-8882.471304,2145.067394
589.704582,1850.514855,-10066.800811,2451.505594
589.704909,-740.205942,-11547.212695,1685.410096
589.705236,-3404.947333,-13471.748144,1455.581446
589.705564,-2590.720797,-13767.830521,2068.457845
589.705891,-2886.803174,-12879.583391,1608.800546
589.706218,-3182.885551,-12065.356855,1608.800546
589.706546,-3034.844362,-11103.089130,306.438199
589.706873,-2368.659014,-9474.636058,-229.828649
589.707200,-2146.597232,-7402.059420,-1455.581446
589.707528,296.082377,-5921.647536,-1685.410096
589.707855,1702.473667,-5403.503377,-919.314598
589.708183,3330.926739,-4589.276840,-306.438199
589.708510,2590.720797,-7179.997637,306.438199
589.708837,1110.308913,-8808.450710,1149.143247
589.709165,-296.082377,-10140.821405,1225.752797
589.709492,-2220.617826,-12065.356855,1302.362347
589.709819,-3182.885551,-12435.459826,1608.800546
589.710147,-2664.741391,-12731.542202,1991.848295
589.710474,-3034.844362,-11917.315666,919.314598
589.710801,-1850.514855,-10436.903782,766.095498
589.711129,-1184.329507,-8956.491898,-229.828649
589.711456,-148.041188,-7476.080014,-536.266849
589.711784,444.123565,-6587.832884,-1225.752797
589.712111,2442.679609,-5033.400406,-1149.143247
589.712438,4515.256246,-4219.173869,-306.438199
589.712766,4737.318029,-5255.462188,536.266849
589.713093,3701.029710,-8068.244768,1762.019645
589.713420,1628.453072,-9252.574275,1685.410096
589.713748,-1998.556043,-10436.903782,1072.533697
589.714075,-3108.864956,-11991.336260,1915.238745
589.714402,-2220.617826,-11251.130318,1838.629195
589.714730,-2294.638420,-10955.047942,1608.800546
589.715057,-2368.659014,-10288.862594,2145.067394
589.715385,-2368.659014,-8956.491898,766.095498
589.715712,-1850.514855,-6735.874072,-306.438199
589.716039,-1332.370696,-5403.503377,-1149.143247
589.716367,222.061783,-4885.359217,-1149.143247
589.716694,1480.411884,-4589.276840,0.000000
589.717021,2442.679609,-5403.503377,0.000000
589.717349,1776.494261,-6809.894666,842.705048
589.717676,148.041188,-8512.368333,1302.362347
589.718003,-814.226536,-9770.718434,1149.143247
589.718331,-3330.926739,-11029.068536,689.485948
589.718658,-3034.844362,-11547.212695,1608.800546
589.718985,-2812.782580,-11103.089130,1072.533697
589.719313,-2664.741391,-10732.986159,689.485948
589.719640,-2516.700203,-10362.883188,383.047749
589.719968,-2294.638420,-8956.491898,-383.047749
589.720295,-1184.329507,-7920.203579,-612.876398
589.720622,-222.061783,-6809.894666,-1302.362347
589.720950,2664.741391,-5995.668130,-766.095498
589.721277,3330.926739,-5329.482782,-153.219100
589.721604,3849.070898,-7624.121203,995.924147
589.721932,2664.741391,-9178.553681,1532.190996
589.722259,888.247130,-10140.821405,1838.629195
589.722586,-296.082377,-12361.439231,2068.457845
589.722914,-1258.350101,-13101.645173,2068.457845
589.723241,-1036.288319,-13175.665768,1915.238745
589.723569,-888.247130,-13175.665768,2145.067394
589.723896,-1702.473667,-11917.315666,1149.143247
589.724223,-1628.453072,-11399.171507,612.876398
589.724551,-1702.473667,-9252.574275,-1149.143247
589.724878,0.000000,-7624.121203,-1378.971896
589.725205,1702.473667,-6883.915261,-919.314598
589.725533,4293.194464,-5699.585753,-766.095498
589.725860,3552.988522,-7031.956449,306.438199
589.726187,2368.659014,-8808.450710,919.314598
589.726515,592.164754,-9400.615463,766.095498
589.726842,-1554.432478,-10955.047942,689.485948
589.727170,-2220.617826,-12435.459826,766.095498
589.727497,-2442.679609,-12139.377449,1685.410096
589.727824,-2664.741391,-11843.295072,1532.190996
589.728152,-2960.823768,-11843.295072,1378.971896
589.728479,-3182.885551,-11177.109724,306.438199
589.728806,-2812.782580,-9474.636058,-459.657299
589.729134,-2368.659014,-7920.203579,-1225.752797
589.729461,-296.082377,-6883.915261,-1532.190996
589.729788,1850.514855,-6069.688724,-1149.143247
589.730116,2812.782580,-6661.853478,-153.219100
589.730443,1998.556043,-7920.203579,0.000000
589.730771,1628.453072,-8364.327145,153.219100
589.731098,0.000000,-9252.574275,0.000000
589.731425,-222.061783,-10807.006753,1149.143247
589.731753,-444.123565,-11473.192101,1378.971896
589.732080,-1406.391290,-11769.274478,2068.457845
589.732407,-1776.494261,-12065.356855,1915.238745
589.732735,-1332.370696,-10658.965565,1072.533697
589.733062,-1036.288319,-9548.656652,689.485948
589.733389,-370.102971,-7920.203579,0.000000
589.733717,592.164754,-6587.832884,0.000000
589.734044,2738.761985,-5255.462188,842.705048
589.734371,3849.070898,-4293.194464,76.609550
589.734699,3627.009116,-5699.585753,919.314598
589.735026,2442.679609,-6957.935855,995.924147
589.735354,370.102971,-7994.224174,459.657299
589.735681,-740.205942,-9622.677246,1072.533697
589.736008,-1554.432478,-9548.656652,1608.800546
589.736336,-888.247130,-10066.800811,1838.629195
589.736663,-1406.391290,-10881.027347,2068.457845
589.736990,-2368.659014,-11029.068536,2068.457845
589.737318,-2664.741391,-9474.636058,919.314598
589.737645,-3182.885551,-8142.265362,-153.219100
589.737972,-2368.659014,-7031.956449,-842.705048
589.738300,-592.164754,-5847.626942,-842.705048
589.738627,296.082377,-5625.565159,-612.876398
589.738955,370.102971,-6513.812290,-536.266849
589.739282,-518.144159,-7105.977043,459.657299
589.739609,-1258.350101,-7772.162391,0.000000
589.739937,-2146.597232,-9474.636058,383.047749
589.740264,-1628.453072,-10066.800811,766.095498
589.740591,-592.164754,-9992.780217,1149.143247
589.740919,-370.102971,-10288.862594,1455.581446
589.741246,-888.247130,-10658.965565,1915.238745
589.741573,-888.247130,-10288.862594,1225.752797
589.741901,-1258.350101,-9474.636058,612.876398
589.742228,-1036.288319,-9178.553681,0.000000
589.742556,666.185348,-7550.100608,153.219100
589.742883,1998.556043,-7031.956449,306.438199
589.743210,2220.617826,-7402.059420,229.828649
589.743538,1332.370696,-8586.388927,229.828649
589.743865,1036.288319,-9104.533087,612.876398
589.744192,888.247130,-9622.677246,459.657299
589.744520,370.102971,-10510.924376,612.876398
589.744847,962.267725,-10732.986159,1149.143247
589.745174,-296.082377,-11325.150913,1532.190996
589.745502,-962.267725,-11843.295072,1455.581446
589.745829,-888.247130,-11103.089130,1225.752797
589.746156,-1332.370696,-9918.759623,536.266849
589.746484,-1702.473667,-9696.697840,0.000000
589.746811,-888.247130,-8956.491898,0.000000
589.747139,370.102971,-7846.182985,689.485948
589.747466,518.144159,-7772.162391,306.438199
589.747793,444.123565,-8734.430116,1532.190996
589.748121,0.000000,-8808.450710,536.266849
589.748448,-1628.453072,-8956.491898,0.000000
589.748775,-1776.494261,-9844.739029,0.000000
589.749103,-1110.308913,-9252.574275,306.438199
589.749430,-888.247130,-9622.677246,995.924147
589.749757,-888.247130,-10510.924376,689.485948
589.750085,-888.247130,-10732.986159,919.314598
589.750412,-592.164754,-10807.006753,1072.533697
589.750740,-1184.329507,-10436.903782,306.438199
589.751067,-148.041188,-10288.862594,383.047749
589.751394,888.247130,-8956.491898,766.095498
589.751722,962.267725,-8734.430116,842.705048
589.752049,592.164754,-9252.574275,842.705048
589.752376,518.144159,-9326.594869,919.314598
589.752704,-592.164754,-9030.512492,536.266849
589.753031,-888.247130,-9030.512492,0.000000
589.753358,-370.102971,-9104.533087,459.657299
589.753686,222.061783,-8438.347739,766.095498
589.754013,0.000000,-8956.491898,689.485948
589.754341,370.102971,-9844.739029,1455.581446
589.754668,0.000000,-8734.430116,1225.752797
589.754995,-1184.329507,-9030.512492,842.705048
589.755323,-1110.308913,-9400.615463,229.828649
589.755650,0.000000,-8068.244768,306.438199
589.755977,592.164754,-7624.121203,383.047749
589.756305,888.247130,-7994.224174,1149.143247
589.756632,962.267725,-8142.265362,459.657299
589.756959,0.000000,-8290.306550,459.657299
589.757287,-1184.329507,-8512.368333,76.609550
589.757614,-1406.391290,-8438.347739,0.000000
589.757941,0.000000,-8142.265362,459.657299
589.758269,-518.144159,-8586.388927,919.314598
589.758596,-1184.329507,-8956.491898,459.657299
589.758924,-814.226536,-9770.718434,842.705048
589.759251,-1924.535449,-9474.636058,229.828649
589.759578,-1332.370696,-9178.553681,229.828649
589.759906,592.164754,-8586.388927,612.876398
589.760233,1036.288319,-7994.224174,842.705048
589.760560,1406.391290,-8586.388927,1149.143247
589.760888,222.061783,-8660.409521,919.314598
589.761215,0.000000,-8808.450710,766.095498
589.761542,-1628.453072,-9104.533087,153.219100
589.761870,-1776.494261,-9400.615463,0.000000
589.762197,-888.247130,-9326.594869,0.000000
589.762525,-814.226536,-8882.471304,0.000000
589.762852,0.000000,-9178.553681,612.876398
589.763179,444.123565,-9178.553681,383.047749
589.763507,444.123565,-9104.533087,306.438199
589.763834,0.000000,-9548.656652,0.000000
589.764161,370.102971,-9326.594869,0.000000
589.764489,1110.308913,-8882.471304,536.266849
589.764816,888.247130,-8956.491898,306.438199
589.765143,740.205942,-9400.615463,1072.533697
589.765471,74.020594,-10214.842000,383.047749
589.765798,-1184.329507,-10362.883188,0.000000
589.766126,-1850.514855,-10140.821405,-229.828649
589.766453,-666.185348,-9696.697840,-229.828649
589.766780,74.020594,-9400.615463,-229.828649
589.767108,74.020594,-9326.594869,383.047749
589.767435,-592.164754,-10066.800811,306.438199
589.767762,-222.061783,-9474.636058,612.876398
589.768090,-740.205942,-7920.203579,0.000000
589.768417,962.267725,-7476.080014,536.266849
589.768744,2072.576638,-7476.080014,919.314598
589.769072,1776.494261,-8216.285956,1685.410096
589.769399,814.226536,-9326.594869,1762.019645
589.769727,0.000000,-9844.739029,1685.410096
589.770054,-2146.597232,-10436.903782,229.828649
589.770381,-2886.803174,-10510.924376,995.924147
589.770709,-2368.659014,-10436.903782,229.828649
589.771036,-888.247130,-9844.739029,766.095498
589.771363,-370.102971,-9474.636058,919.314598
589.771691,0.000000,-9474.636058,1378.971896
589.772018,-370.102971,-8808.450710,1225.752797
589.772345,-962.267725,-8364.327145,76.609550
589.772673,-1110.308913,-8142.265362,153.219100
589.773000,74.020594,-7994.224174,306.438199
589.773327,888.247130,-7772.162391,842.705048
589.773655,814.226536,-8068.244768,1838.629195
589.773982,0.000000,-8882.471304,1991.848295
589.774310,-1258.350101,-9622.677246,1532.190996
589.774637,-2960.823768,-10140.821405,536.266849
589.774964,-3404.947333,-9622.677246,0.000000
589.775292,-2146.597232,-8586.388927,383.047749
589.775619,-962.267725,-8734.430116,306.438199
589.775946,-148.041188,-8512.368333,383.047749
589.776274,444.123565,-8290.306550,689.485948
589.776601,814.226536,-7328.038826,0.000000
589.776928,962.267725,-6957.935855,-536.266849
589.777256,1998.556043,-7179.997637,1225.752797
589.777583,2664.741391,-7920.203579,1378.971896
589.777911,1776.494261,-8808.450710,2145.067394
589.778238,1332.370696,-10140.821405,2834.553343
589.778565,0.000000,-10732.986159,2604.724693
589.778893,-1332.370696,-10362.883188,2298.286494
589.779220,-2368.659014,-11251.130318,1608.800546
589.779547,-1184.329507,-10140.821405,1685.410096
589.779875,0.000000,-8808.450710,1302.362347
589.780202,518.144159,-8364.327145,1838.629195
589.780529,1332.370696,-8586.388927,1762.019645
589.780857,1702.473667,-7846.182985,2221.676944
589.781184,740.205942,-7031.956449,1685.410096
589.781512,148.041188,-7402.059420,1455.581446
589.781839,1036.288319,-7476.080014,1762.019645
589.782166,518.144159,-8290.306550,2374.896044
589.782494,-370.102971,-9178.553681,3064.381992
589.782821,-1184.329507,-10214.842000,2987.772442
589.783148,-2368.659014,-10362.883188,2681.334243
589.783476,-3478.967927,-11177.109724,2451.505594
589.783803,-3404.947333,-11473.192101,2451.505594
589.784130,-1998.556043,-9992.780217,2298.286494
589.784458,-2368.659014,-9474.636058,1608.800546
589.784785,-2368.659014,-9622.677246,995.924147
589.785112,-1776.494261,-9030.512492,842.705048
589.785440,-1702.473667,-7920.203579,76.609550
589.785767,-518.144159,-7624.121203,842.705048
589.786095,1480.411884,-6883.915261,1072.533697
589.786422,3923.091493,-7105.977043,2757.943793
589.786749,3552.988522,-8734.430116,3753.867940
589.787077,2960.823768,-10658.965565,4749.792088
589.787404,1998.556043,-11473.192101,4903.011187
589.787731,-444.123565,-11621.233289,4596.572988
589.788059,-2368.659014,-12583.501014,3983.696590
589.788386,-1924.535449,-12509.480420,4213.525239
589.788713,-370.102971,-10732.986159,4136.915689
589.789041,962.267725,-8808.450710,4136.915689
589.789368,1850.514855,-7846.182985,4443.353888
589.789696,1628.453072,-8142.265362,4290.134789
589.790023,1258.350101,-7254.018232,3294.210641
589.790350,222.061783,-6661.853478,1991.848295
589.790678,518.144159,-7402.059420,2604.724693
589.791005,962.267725,-7550.100608,4060.306139
589.791332,1110.308913,-8586.388927,5056.230287
589.791660,666.185348,-9474.636058,6052.154434
589.791987,-296.082377,-10584.944971,6741.640382
589.792314,-2886.803174,-11177.109724,5822.325785
589.792642,-4441.235652,-9770.718434,5439.278036
589.792969,-5329.482782,-10658.965565,4213.525239
589.793297,-5625.565159,-10066.800811,3600.648841
589.793624,-4441.235652,-8290.306550,3064.381992
589.793951,-1924.535449,-6883.915261,3294.210641
589.794279,-296.082377,-6143.709319,3217.601092
589.794606,-962.267725,-6291.750507,2451.505594
589.794933,-2368.659014,-5995.668130,1072.533697
589.795261,-1480.411884,-6143.709319,842.705048
589.795588,-888.247130,-7179.997637,1302.362347
589.795915,-222.061783,-7550.100608,2451.505594
589.796243,2368.659014,-7994.224174,3830.477490
589.796570,3997.112087,-8882.471304,5362.668486
589.796898,4145.153275,-10140.821405,6281.983084
589.797225,2294.638420,-11325.150913,6358.592633
589.797552,0.000000,-11991.336260,4903.011187
589.797880,-592.164754,-11843.295072,4519.963438
589.798207,-814.226536,-11029.068536,3753.867940
589.798534,-370.102971,-9992.780217,3064.381992
589.798862,1258.350101,-9400.615463,3294.210641
589.799189,2886.803174,-7476.080014,3370.820191
589.799516,3330.926739,-6957.935855,3600.648841
589.799844,2368.659014,-6809.894666,2834.553343
589.800171,444.123565,-8364.327145,1608.800546
589.800498,-2886.803174,-9992.780217,459.657299
589.800826,-3923.091493,-10362.883188,0.000000
589.801153,-3849.070898,-9992.780217,536.266849
589.801481,-1850.514855,-9252.574275,1455.581446
589.801808,-518.144159,-9548.656652,2757.943793
589.802135,444.123565,-9696.697840,3753.867940
589.802463,296.082377,-9252.574275,4213.525239
589.802790,444.123565,-8660.409521,3907.087040
589.803117,-592.164754,-9400.615463,2987.772442
589.803445,-1332.370696,-10214.842000,2451.505594
589.803772,-1628.453072,-10362.883188,2374.896044
589.804099,0.000000,-8956.491898,2604.724693
589.804427,1702.473667,-8216.285956,3830.477490
589.804754,3256.906145,-8142.265362,4673.182538
589.805082,3552.988522,-9474.636058,4213.525239
589.805409,2960.823768,-10658.965565,3907.087040
589.805736,1776.494261,-10732.986159,3370.820191
589.806064,1110.308913,-11029.068536,3677.258390
589.806391,1036.288319,-11695.253884,3524.039291
589.806719,-370.102971,-12065.356855,3600.648841
589.807046,-1406.391290,-11917.315666,3907.087040
589.807374,-2220.617826,-11399.171507,4060.306139
589.807701,-2072.576638,-9326.594869,3983.696590
589.808029,-1036.288319,-8142.265362,3677.258390
589.808356,-592.164754,-7624.121203,3600.648841
589.808684,-1406.391290,-7624.121203,3294.210641
589.809011,-1998.556043,-7476.080014,3064.381992
589.809339,-1406.391290,-7105.977043,3064.381992
589.809666,0.000000,-5995.668130,3677.258390
589.809993,1480.411884,-7031.956449,4903.011187
589.810321,814.226536,-7772.162391,4903.011187
589.810648,-666.185348,-9548.656652,4290.134789
589.810976,-2294.638420,-10288.862594,4213.525239
589.811303,-2886.803174,-9992.780217,3907.087040
589.811631,-1998.556043,-9104.533087,4213.525239
589.811958,0.000000,-9400.615463,3830.477490
589.812286,444.123565,-9474.636058,3907.087040
589.812613,296.082377,-10066.800811,3600.648841
589.812941,-370.102971,-9104.533087,3294.210641
589.813268,-740.205942,-8438.347739,3217.601092
589.813596,222.061783,-8216.285956,2987.772442
589.813923,518.144159,-8068.244768,3064.381992
589.814251,518.144159,-8660.409521,3217.601092
589.814578,-740.205942,-9104.533087,3370.820191
589.814906,-2220.617826,-9178.553681,3217.601092
589.815233,-1776.494261,-8882.471304,2528.115143
589.815561,-2146.597232,-8882.471304,2374.896044
589.815888,0.000000,-8660.409521,2451.505594
589.816216,814.226536,-7994.224174,3217.601092
589.816543,1258.350101,-7624.121203,3140.991542
589.816870,740.205942,-7179.997637,3370.820191
589.817198,296.082377,-7920.203579,2911.162892
589.817525,0.000000,-7846.182985,2068.457845
589.817853,148.041188,-8512.368333,2145.067394
589.818180,888.247130,-9030.512492,2604.724693
589.818508,1406.391290,-8586.388927,3294.210641
589.818835,2072.576638,-9252.574275,4519.963438
589.819163,1924.535449,-9992.780217,4366.744339
589.819490,1184.329507,-10584.944971,3983.696590
589.819818,0.000000,-10807.006753,2911.162892
589.820145,-666.185348,-10658.965565,2757.943793
589.820473,-1110.308913,-10658.965565,3140.991542
589.820800,-444.123565,-9844.739029,3524.039291
589.821128,444.123565,-9400.615463,4136.915689
589.821455,1554.432478,-9252.574275,4519.963438
589.821783,1110.308913,-9474.636058,4366.744339
589.822110,-1036.288319,-8956.491898,3370.820191
589.822438,-3330.926739,-9252.574275,2451.505594
589.822765,-3627.009116,-9104.533087,2374.896044
589.823093,-2812.782580,-8882.471304,2451.505594
589.823420,-1258.350101,-8216.285956,3294.210641
589.823747,74.020594,-7179.997637,3830.477490
589.824075,740.205942,-8142.265362,4596.572988
589.824402,-148.041188,-8290.306550,4673.182538
589.824730,-1554.432478,-8808.450710,3830.477490
589.825057,-2294.638420,-9770.718434,2911.162892
589.825385,-2442.679609,-9622.677246,2451.505594
589.825712,-2146.597232,-10288.862594,2374.896044
589.826040,-814.226536,-9770.718434,2911.162892
589.826367,592.164754,-9252.574275,3524.039291
589.826695,2368.659014,-9030.512492,4366.744339
589.827022,2368.659014,-9104.533087,4979.620737
589.827350,1628.453072,-9770.718434,3447.429741
589.827677,592.164754,-10288.862594,3370.820191
589.828005,-222.061783,-10214.842000,2911.162892
589.828332,-444.123565,-10140.821405,3064.381992
589.828660,518.144159,-9918.759623,3983.696590
589.828987,592.164754,-9252.574275,4213.525239
589.829315,0.000000,-9326.594869,3677.258390
589.829642,-962.267725,-8956.491898,3217.601092
589.829970,-1554.432478,-8734.430116,2911.162892
589.830297,-1258.350101,-8290.306550,1915.238745
589.830625,-296.082377,-7920.203579,2451.505594
589.830952,592.164754,-7402.059420,2604.724693
589.831279,1480.411884,-7328.038826,3294.210641
589.831607,1924.535449,-7328.038826,3830.477490
589.831934,1258.350101,-7920.203579,4136.915689
589.832262,592.164754,-9178.553681,3907.087040
589.832589,-370.102971,-9474.636058,3907.087040
589.832917,-1036.288319,-9992.780217,3830.477490
589.833244,-1184.329507,-10288.862594,3753.867940
589.833572,-1184.329507,-10066.800811,3753.867940
589.833899,-592.164754,-9770.718434,3830.477490
589.834227,0.000000,-9252.574275,3677.258390
589.834554,-518.144159,-8808.450710,2987.772442
589.834882,-444.123565,-8586.388927,2604.724693
589.835209,-518.144159,-8290.306550,2757.943793
589.835537,-814.226536,-7698.141797,2298.286494
589.835864,-222.061783,-7772.162391,2834.553343
589.836192,-518.144159,-7994.224174,2757.943793
589.836519,-370.102971,-8290.306550,3217.601092
589.836847,-592.164754,-8660.409521,3294.210641
589.837174,-444.123565,-9030.512492,3294.210641
589.837502,0.000000,-9474.636058,3600.648841
589.837829,-740.205942,-9548.656652,3217.601092
589.838156,-518.144159,-9548.656652,3294.210641
589.838484,-592.164754,-9474.636058,3140.991542
589.838811,-444.123565,-8956.491898,3064.381992
589.839139,296.082377,-8364.327145,2987.772442
589.839466,518.144159,-8734.430116,2757.943793
589.839794,814.226536,-8882.471304,2757.943793
589.840121,666.185348,-9252.574275,2374.896044
589.840449,296.082377,-9696.697840,2298.286494
589.840776,-222.061783,-9992.780217,2451.505594
589.841104,0.000000,-10066.800811,2528.115143
589.841431,0.000000,-10066.800811,2221.676944
589.841759,0.000000,-10140.821405,2221.676944
589.842086,0.000000,-9770.718434,2528.115143
589.842414,-148.041188,-9844.739029,1991.848295
589.842741,-888.247130,-9696.697840,2451.505594
589.843069,-1406.391290,-9770.718434,1608.800546
589.843396,-1628.453072,-9400.615463,1378.971896
589.843724,-1110.308913,-8734.430116,1532.190996
589.844051,-444.123565,-8290.306550,1455.581446
589.844379,518.144159,-7846.182985,1149.143247
589.844706,592.164754,-7846.182985,1302.362347
589.845033,740.205942,-8290.306550,1149.143247
589.845361,148.041188,-8808.450710,1072.533697
589.845688,-148.041188,-9104.533087,1225.752797
589.846016,-444.123565,-9622.677246,995.924147
589.846343,-148.041188,-10066.800811,1455.581446
589.846671,518.144159,-10214.842000,1685.410096
589.846998,814.226536,-10066.800811,1838.629195
589.847326,1184.329507,-10066.800811,1915.238745
589.847653,740.205942,-9992.780217,1762.019645
589.847981,296.082377,-9400.615463,1915.238745
589.848308,-148.041188,-9548.656652,1532.190996
589.848636,-814.226536,-9474.636058,1149.143247
589.848963,-962.267725,-9104.533087,995.924147
589.849291,-370.102971,-8808.450710,1608.800546
589.849618,0.000000,-8364.327145,1072.533697
589.849946,0.000000,-8364.327145,919.314598
589.850273,-296.082377,-8512.368333,1225.752797
589.850601,-888.247130,-8586.388927,919.314598
589.850928,-1110.308913,-8438.347739,689.485948
589.851256,-1554.432478,-7994.224174,536.266849
589.851583,-1184.329507,-8290.306550,612.876398
589.851911,-592.164754,-8438.347739,766.095498
589.852238,-148.041188,-8586.388927,842.705048
589.852565,0.000000,-8660.409521,1149.143247
589.852893,0.000000,-8808.450710,1532.190996
589.853220,0.000000,-8882.471304,995.924147
589.853548,-222.061783,-9252.574275,842.705048
589.853875,0.000000,-9252.574275,612.876398
589.854203,148.041188,-9104.533087,612.876398
589.854530,666.185348,-9178.553681,612.876398
589.854858,222.061783,-9178.553681,995.924147
589.855185,0.000000,-9178.553681,1149.143247
589.855513,0.000000,-9474.636058,1378.971896
589.855840,-370.102971,-9474.636058,1072.533697
589.856168,-444.123565,-9252.574275,919.314598
589.856495,-296.082377,-8660.409521,1225.752797
589.856823,-370.102971,-8882.471304,612.876398
589.857150,-444.123565,-8956.491898,536.266849
589.857478,-666.185348,-8734.430116,842.705048
589.857805,-444.123565,-8586.388927,842.705048
589.858133,-592.164754,-8290.306550,1302.362347
589.858460,-740.205942,-8734.430116,612.876398
589.858788,-1110.308913,-8808.450710,766.095498
589.859115,-1184.329507,-9104.533087,229.828649
589.859442,-962.267725,-9252.574275,383.047749
589.859770,-962.267725,-9178.553681,229.828649
589.860097,-370.102971,-9252.574275,383.047749
589.860425,-148.041188,-9474.636058,689.485948
589.860752,-148.041188,-9474.636058,459.657299
589.861080,0.000000,-9400.615463,689.485948
589.861407,0.000000,-9474.636058,383.047749
589.861735,0.000000,-9326.594869,612.876398
589.862062,-444.123565,-9770.718434,536.266849
589.862390,-222.061783,-9696.697840,536.266849
589.862717,0.000000,-9548.656652,536.266849
589.863045,148.041188,-9400.615463,689.485948
589.863372,518.144159,-9474.636058,995.924147
589.863700,222.061783,-9104.533087,612.876398
589.864027,370.102971,-9104.533087,306.438199
589.864355,296.082377,-9104.533087,536.266849
589.864682,74.020594,-9104.533087,612.876398
589.865010,-148.041188,-8956.491898,306.438199
589.865337,-222.061783,-9326.594869,536.266849
589.865665,0.000000,-9400.615463,536.266849
589.865992,0.000000,-9252.574275,306.438199
589.866319,0.000000,-9104.533087,229.828649
589.866647,74.020594,-8808.450710,306.438199
589.866974,222.061783,-8660.409521,229.828649
589.867302,-148.041188,-8660.409521,229.828649
589.867629,-370.102971,-8808.450710,229.828649
589.867957,-518.144159,-8882.471304,459.657299
589.868284,-518.144159,-8586.388927,306.438199
589.868612,-444.123565,-8882.471304,0.000000
589.868939,-962.267725,-9104.533087,459.657299
589.869267,-666.185348,-9178.553681,459.657299
589.869594,-666.185348,-8808.450710,766.095498
589.869922,-666.185348,-8586.388927,306.438199
589.870249,-592.164754,-8290.306550,689.485948
589.870577,-518.144159,-8512.368333,536.266849
589.870904,-370.102971,-8808.450710,689.485948
589.871232,-740.205942,-8586.388927,612.876398
589.871559,-740.205942,-8956.491898,842.705048
589.871887,-888.247130,-9400.615463,766.095498
589.872214,-888.247130,-8956.491898,995.924147
589.872542,-740.205942,-8956.491898,1149.143247
589.872869,-444.123565,-8882.471304,842.705048
589.873197,-296.082377,-8882.471304,612.876398
589.873524,-666.185348,-8438.347739,612.876398
589.873851,-296.082377,-8882.471304,459.657299
589.874179,-592.164754,-9178.553681,689.485948
589.874506,-518.144159,-9326.594869,612.876398
589.874834,-518.144159,-9622.677246,995.924147
589.875161,-222.061783,-9474.636058,995.924147
589.875489,0.000000,-9252.574275,536.266849
589.875816,-222.061783,-9400.615463,536.266849
589.876144,-148.041188,-9178.553681,383.047749
589.876471,-370.102971,-9178.553681,536.266849
589.876799,-518.144159,-9104.533087,766.095498
589.877126,-296.082377,-8882.471304,766.095498
589.877454,-740.205942,-9178.553681,229.828649
589.877781,-666.185348,-9400.615463,689.485948
589.878109,-296.082377,-9252.574275,536.266849
589.878436,-222.061783,-9178.553681,536.266849
589.878764,-222.061783,-8586.388927,842.705048
589.879091,0.000000,-8734.430116,153.219100
589.879419,-222.061783,-8734.430116,306.438199
589.879746,0.000000,-9104.533087,229.828649
589.880074,-148.041188,-9178.553681,459.657299
589.880401,-592.164754,-9030.512492,536.266849
589.880728,0.000000,-9696.697840,919.314598
589.881056,-148.041188,-9770.718434,689.485948
589.881383,-296.082377,-9474.636058,612.876398
589.881711,0.000000,-9252.574275,612.876398
589.882038,0.000000,-8290.306550,383.047749
589.882366,-370.102971,-8512.368333,536.266849
589.882693,-666.185348,-8660.409521,536.266849
589.883021,-1110.308913,-8734.430116,383.047749
589.883348,-1184.329507,-8882.471304,383.047749
589.883676,-1184.329507,-8882.471304,612.876398
589.884003,-592.164754,-8734.430116,612.876398
589.884331,-222.061783,-9030.512492,689.485948
589.884658,370.102971,-8882.471304,689.485948
589.884986,518.144159,-8734.430116,612.876398
589.885313,518.144159,-8660.409521,383.047749
589.885641,222.061783,-8882.471304,612.876398
589.885968,0.000000,-9474.636058,536.266849
589.886296,-370.102971,-9918.759623,919.314598
589.886623,-370.102971,-9992.780217,1149.143247
589.886951,0.000000,-9992.780217,1225.752797
589.887278,0.000000,-9030.512492,842.705048
589.887605,888.247130,-9326.594869,229.828649
589.887933,814.226536,-8364.327145,76.609550
589.888260,888.247130,-7772.162391,0.000000
589.888588,370.102971,-7624.121203,76.609550
589.888915,0.000000,-8142.265362,0.000000
589.889243,-444.123565,-8956.491898,153.219100
589.889570,-740.205942,-9400.615463,766.095498
589.889898,-592.164754,-9474.636058,689.485948
589.890225,-444.123565,-9252.574275,536.266849
589.890553,-148.041188,-9178.553681,459.657299
589.890880,370.102971,-8438.347739,459.657299
589.891208,370.102971,-8290.306550,76.609550
589.891535,370.102971,-8216.285956,76.609550
589.891863,0.000000,-8660.409521,459.657299
589.892190,-518.144159,-9104.533087,459.657299
589.892518,-888.247130,-9622.677246,766.095498
589.892845,-1258.350101,-9474.636058,536.266849
589.893173,-1036.288319,-9770.718434,536.266849
589.893500,-814.226536,-9622.677246,383.047749
589.893828,-296.082377,-9104.533087,536.266849
589.894155,444.123565,-8808.450710,306.438199
589.894483,740.205942,-8290.306550,383.047749
589.894810,148.041188,-9104.533087,459.657299
589.895137,0.000000,-9326.594869,766.095498
589.895465,-296.082377,-9770.718434,842.705048
589.895792,-592.164754,-9992.780217,1378.971896
589.896120,-444.123565,-9992.780217,1225.752797
589.896447,-518.144159,-9844.739029,459.657299
589.896775,-370.102971,-9400.615463,459.657299
589.897102,-148.041188,-8956.491898,229.828649
589.897430,0.000000,-8438.347739,306.438199
589.897757,-222.061783,-8512.368333,612.876398
589.898085,-518.144159,-8882.471304,383.047749
589.898412,-1036.288319,-9400.615463,842.705048
589.898740,-666.185348,-9696.697840,689.485948
589.899067,-740.205942,-9770.718434,919.314598
589.899395,-296.082377,-9770.718434,459.657299
589.899722,-222.061783,-9474.636058,689.485948
589.900050,-370.102971,-9326.594869,689.485948
589.900377,-148.041188,-9326.594869,689.485948
589.900705,0.000000,-9400.615463,612.876398
589.901032,-148.041188,-9548.656652,306.438199
589.901360,-370.102971,-9474.636058,1532.190996
589.901687,-592.164754,-9474.636058,1149.143247
589.902014,-740.205942,-9474.636058,842.705048
589.902342,-740.205942,-9474.636058,536.266849
589.902669,-370.102971,-9104.533087,689.485948
589.902997,-518.144159,-8216.285956,383.047749
589.903324,-592.164754,-8364.327145,306.438199
589.903652,-592.164754,-8142.265362,383.047749
589.903979,-518.144159,-8364.327145,383.047749
589.904307,-740.205942,-8290.306550,689.485948
589.904634,-518.144159,-8586.388927,459.657299
589.904962,-888.247130,-9104.533087,842.705048
589.905289,-666.185348,-9178.553681,459.657299
589.905617,-740.205942,-9104.533087,612.876398
589.905944,-444.123565,-8956.491898,306.438199
589.906272,-592.164754,-8438.347739,383.047749
589.906599,-444.123565,-8660.409521,153.219100
589.906927,-370.102971,-8956.491898,536.266849
589.907254,-222.061783,-8882.471304,306.438199
589.907582,-296.082377,-8734.430116,612.876398
589.907909,-888.247130,-8956.491898,229.828649
589.908237,-222.061783,-8956.491898,612.876398
589.908564,0.000000,-9178.553681,459.657299
589.908892,0.000000,-8586.388927,229.828649
589.909219,74.020594,-8734.430116,306.438199
589.909547,222.061783,-9104.533087,612.876398
589.909874,148.041188,-8882.471304,919.314598
589.910202,0.000000,-9104.533087,766.095498
589.910529,74.020594,-9252.574275,612.876398
589.910857,0.000000,-9400.615463,766.095498
589.911184,0.000000,-9252.574275,612.876398
589.911512,0.000000,-8882.471304,689.485948
589.911839,222.061783,-8734.430116,306.438199
589.912167,0.000000,-8438.347739,306.438199
589.912494,0.000000,-8512.368333,229.828649
589.912822,-296.082377,-8882.471304,306.438199
589.913149,-518.144159,-8512.368333,612.876398
589.913477,0.000000,-9104.533087,306.438199
589.913804,-518.144159,-9400.615463,459.657299
589.914132,-592.164754,-9696.697840,459.657299
589.914459,0.000000,-9844.739029,766.095498
589.914787,0.000000,-9400.615463,459.657299
589.915114,0.000000,-8808.450710,612.876398
589.915442,0.000000,-9252.574275,536.266849
589.915769,-296.082377,-9326.594869,536.266849
589.916097,-296.082377,-9252.574275,766.095498
589.916424,-370.102971,-9104.533087,689.485948
589.916752,74.020594,-9178.553681,919.314598
589.917079,-222.061783,-9400.615463,766.095498
589.917407,0.000000,-9548.656652,766.095498
589.917734,0.000000,-9104.533087,229.828649
589.918062,296.082377,-8956.491898,459.657299
589.918389,296.082377,-8734.430116,536.266849
589.918717,0.000000,-9178.553681,306.438199
589.919044,0.000000,-9622.677246,842.705048
589.919372,0.000000,-9770.718434,689.485948
589.919699,-296.082377,-9696.697840,689.485948
589.920027,-222.061783,-9474.636058,612.876398
589.920354,0.000000,-9474.636058,536.266849
589.920682,74.020594,-9178.553681,229.828649
589.921009,222.061783,-8882.471304,229.828649
589.921337,74.020594,-8734.430116,76.609550
589.921664,-148.041188,-8734.430116,459.657299
589.921992,0.000000,-9030.512492,229.828649
589.922319,-296.082377,-9252.574275,766.095498
589.922647,-222.061783,-9474.636058,612.876398
589.922974,-370.102971,-9696.697840,842.705048
589.923302,-222.061783,-9770.718434,1072.533697
589.923629,0.000000,-9400.615463,536.266849
589.923957,0.000000,-9252.574275,689.485948
589.924284,74.020594,-9178.553681,689.485948
589.924612,-148.041188,-8956.491898,459.657299
589.924939,-222.061783,-8882.471304,536.266849
589.925267,-814.226536,-8734.430116,919.314598
589.925594,-592.164754,-9252.574275,842.705048
589.925922,-592.164754,-9326.594869,612.876398
589.926249,-740.205942,-9326.594869,766.095498
589.926577,-518.144159,-9104.533087,536.266849
589.926904,-296.082377,-8586.388927,612.876398
589.927232,0.000000,-9178.553681,306.438199
589.927560,-148.041188,-9104.533087,229.828649
589.927887,0.000000,-9326.594869,536.266849
589.928215,-222.061783,-9252.574275,536.266849
589.928542,-814.226536,-9400.615463,995.924147
589.928870,-518.144159,-9104.533087,153.219100
589.929197,-370.102971,-9252.574275,383.047749
589.929525,-518.144159,-9104.533087,229.828649
589.929852,-592.164754,-8882.471304,612.876398
589.930180,-444.123565,-8808.450710,459.657299
589.930507,0.000000,-8734.430116,766.095498
589.930835,-370.102971,-8734.430116,229.828649
589.931162,-444.123565,-9252.574275,383.047749
589.931490,-370.102971,-9400.615463,306.438199
589.931817,-296.082377,-9474.636058,612.876398
589.932145,-370.102971,-9178.553681,766.095498
589.932472,-370.102971,-9030.512492,766.095498
589.932800,-444.123565,-8956.491898,383.047749
589.933127,-518.144159,-9326.594869,383.047749
589.933455,-444.123565,-9104.533087,612.876398
589.933782,-592.164754,-8808.450710,459.657299
589.934110,-444.123565,-9030.512492,612.876398
589.934437,-888.247130,-8882.471304,612.876398
589.934765,-888.247130,-8512.368333,383.047749
589.935092,-666.185348,-8734.430116,536.266849
589.935420,-592.164754,-8660.409521,842.705048
589.935747,-666.185348,-8512.368333,306.438199
589.936075,-518.144159,-8956.491898,459.657299
589.936402,-666.185348,-8808.450710,536.266849
589.936730,-296.082377,-8956.491898,536.266849
589.937057,-592.164754,-8956.491898,689.485948
589.937385,-148.041188,-8956.491898,1072.533697
589.937712,-444.123565,-8882.471304,612.876398
589.938040,-370.102971,-8882.471304,689.485948
589.938367,-296.082377,-8882.471304,995.924147
589.938695,-222.061783,-9104.533087,612.876398
589.939022,-148.041188,-8956.491898,766.095498
589.939350,0.000000,-8882.471304,536.266849
589.939677,-370.102971,-9252.574275,536.266849
589.940005,0.000000,-9178.553681,612.876398
589.940332,-222.061783,-9252.574275,459.657299
589.940660,148.041188,-9104.533087,536.266849
589.940987,0.000000,-9030.512492,459.657299
589.941315,0.000000,-9326.594869,536.266849
589.941642,-148.041188,-9326.594869,459.657299
589.941970,148.041188,-9104.533087,536.266849
589.942297,0.000000,-9178.553681,612.876398
589.942625,74.020594,-9178.553681,0.000000
589.942952,0.000000,-9252.574275,536.266849
589.943280,0.000000,-9178.553681,536.266849
589.943607,0.000000,-8956.491898,153.219100
589.943935,-222.061783,-9104.533087,459.657299
589.944262,-296.082377,-8734.430116,536.266849
589.944590,-296.082377,-8956.491898,383.047749
589.944917,0.000000,-9178.553681,459.657299
589.945245,0.000000,-9326.594869,459.657299
589.945572,0.000000,-9400.615463,536.266849
589.945900,0.000000,-9252.574275,612.876398
589.946227,0.000000,-9474.636058,766.095498
589.946555,-296.082377,-9178.553681,612.876398
589.946882,-222.061783,-9326.594869,612.876398
589.947210,-296.082377,-9326.594869,536.266849
589.947537,0.000000,-8956.491898,766.095498
589.947865,-296.082377,-9030.512492,766.095498
589.948192,-370.102971,-9326.594869,459.657299
589.948520,-370.102971,-9252.574275,459.657299
589.948847,-296.082377,-9252.574275,459.657299
589.949175,-370.102971,-9252.574275,459.657299
589.949502,0.000000,-9104.533087,153.219100
589.949830,-370.102971,-9030.512492,459.657299
589.950157,-296.082377,-9104.533087,459.657299
589.950485,0.000000,-9400.615463,612.876398
589.950812,0.000000,-9400.615463,383.047749
589.951140,-222.061783,-8882.471304,153.219100
589.951467,-444.123565,-9030.512492,689.485948
589.951795,0.000000,-9252.574275,612.876398
589.952122,0.000000,-9474.636058,536.266849
589.952450,-222.061783,-9252.574275,536.266849
589.952777,0.000000,-9474.636058,612.876398
589.953105,0.000000,-9474.636058,153.219100
589.953432,-222.061783,-9548.656652,612.876398
589.953760,-222.061783,-9400.615463,383.047749
589.954088,-148.041188,-9474.636058,612.876398
589.954415,148.041188,-9104.533087,995.924147
589.954743,296.082377,-9400.615463,995.924147
589.955070,74.020594,-9178.553681,536.266849
589.955398,0.000000,-9252.574275,766.095498
589.955725,-370.102971,-9104.533087,766.095498
589.956053,-444.123565,-9252.574275,459.657299
589.956380,-740.205942,-8956.491898,1149.143247
589.956708,-592.164754,-8882.471304,766.095498
589.957035,-592.164754,-8956.491898,766.095498
589.957363,-444.123565,-8808.450710,612.876398
589.957690,-592.164754,-8808.450710,842.705048
589.958018,-592.164754,-9104.533087,766.095498
589.958345,-666.185348,-8808.450710,919.314598
589.958673,-740.205942,-9030.512492,536.266849
589.959000,-518.144159,-9252.574275,459.657299
589.959328,-518.144159,-9252.574275,689.485948
589.959655,-370.102971,-9326.594869,612.876398
589.959983,-296.082377,-8586.388927,459.657299
589.960310,-444.123565,-9104.533087,612.876398
589.960638,-814.226536,-9104.533087,459.657299
589.960965,-740.205942,-8882.471304,459.657299
589.961293,-518.144159,-8586.388927,689.485948
589.961620,-148.041188,-8512.368333,689.485948
589.961948,-444.123565,-8808.450710,612.876398
589.962275,-518.144159,-9104.533087,612.876398
589.962603,-518.144159,-9030.512492,689.485948
589.962930,-444.123565,-8808.450710,766.095498
589.963258,-296.082377,-8512.368333,459.657299
589.963585,-444.123565,-8734.430116,612.876398
589.963913,-296.082377,-9104.533087,689.485948
589.964240,-370.102971,-8734.430116,459.657299
589.964568,-370.102971,-8512.368333,383.047749
589.964895,-592.164754,-8512.368333,153.219100
589.965223,-888.247130,-8882.471304,612.876398
589.965550,-666.185348,-8956.491898,306.438199
589.965878,-592.164754,-8956.491898,306.438199
589.966205,-296.082377,-8956.491898,306.438199
589.966533,-222.061783,-9030.512492,0.000000
589.966860,0.000000,-9030.512492,842.705048
589.967188,0.000000,-9178.553681,459.657299
589.967515,0.000000,-9030.512492,689.485948
589.967843,0.000000,-9252.574275,612.876398
589.968170,-370.102971,-9252.574275,842.705048
589.968498,-296.082377,-8956.491898,995.924147
589.968825,-370.102971,-8808.450710,383.047749
589.969153,0.000000,-8808.450710,459.657299
589.969480,-296.082377,-8956.491898,383.047749
589.969808,0.000000,-8882.471304,536.266849
589.970135,-370.102971,-8216.285956,1072.533697
589.970463,-148.041188,-8956.491898,536.266849
589.970790,-444.123565,-9178.553681,306.438199
589.971118,-370.102971,-9178.553681,766.095498
589.971445,0.000000,-9030.512492,306.438199
589.971773,-148.041188,-9178.553681,689.485948
589.972100,0.000000,-9178.553681,766.095498
589.972428,74.020594,-9326.594869,459.657299
589.972755,0.000000,-9178.553681,229.828649
589.973083,-222.061783,-9326.594869,459.657299
589.973410,0.000000,-9474.636058,459.657299
589.973738,-222.061783,-9252.574275,76.609550
589.974065,-296.082377,-9326.594869,536.266849
589.974393,-296.082377,-9474.636058,459.657299
589.974720,0.000000,-9622.677246,766.095498
589.975048,-148.041188,-9474.636058,612.876398
589.975375,222.061783,-9474.636058,459.657299
589.975703,74.020594,-9400.615463,612.876398
589.976030,0.000000,-9400.615463,766.095498
589.976358,74.020594,-9400.615463,536.266849
589.976685,0.000000,-9474.636058,842.705048
589.977013,-444.123565,-8734.430116,842.705048
589.977340,-148.041188,-9030.512492,689.485948
589.977668,-222.061783,-9326.594869,612.876398
589.977995,-222.061783,-9252.574275,612.876398
589.978323,-296.082377,-9104.533087,612.876398
589.978650,-370.102971,-8660.409521,612.876398
589.978978,0.000000,-9030.512492,919.314598
589.979305,-370.102971,-9326.594869,612.876398
589.979633,-222.061783,-9696.697840,536.266849
589.979961,-296.082377,-9400.615463,766.095498
589.980288,0.000000,-9474.636058,383.047749
589.980616,0.000000,-9326.594869,536.266849
589.980943,0.000000,-9770.718434,612.876398
589.981271,0.000000,-9548.656652,536.266849
589.981598,0.000000,-9104.533087,612.876398
589.981926,0.000000,-9326.594869,383.047749
589.982253,74.020594,-9252.574275,383.047749
589.982581,-370.102971,-9400.615463,536.266849
589.982908,-296.082377,-9104.533087,536.266849
589.983236,-222.061783,-9178.553681,689.485948
589.983563,-370.102971,-9252.574275,383.047749
589.983891,-518.144159,-9252.574275,383.047749
589.984218,-222.061783,-9104.533087,153.219100
589.984546,0.000000,-8808.450710,306.438199
589.984873,-370.102971,-8660.409521,459.657299
589.985201,0.000000,-9030.512492,229.828649
589.985528,0.000000,-9474.636058,0.000000
589.985856,-592.164754,-8586.388927,383.047749
589.986183,-592.164754,-9252.574275,306.438199
589.986511,-592.164754,-9178.553681,306.438199
589.986838,-740.205942,-9252.574275,459.657299
589.987166,-444.123565,-8660.409521,383.047749
589.987493,0.000000,-8586.388927,1072.533697
589.987821,-296.082377,-8956.491898,383.047749
589.988148,-148.041188,-8808.450710,306.438199
589.988476,-518.144159,-8808.450710,536.266849
589.988803,-370.102971,-8956.491898,612.876398
589.989131,-666.185348,-8882.471304,995.924147
589.989458,-666.185348,-8956.491898,612.876398
589.989786,-518.144159,-8734.430116,689.485948
589.990113,-518.144159,-8734.430116,766.095498
589.990441,-518.144159,-8660.409521,459.657299
589.990768,-370.102971,-8660.409521,383.047749
589.991096,-296.082377,-8512.368333,842.705048
589.991423,-666.185348,-8586.388927,766.095498
589.991751,-740.205942,-8660.409521,459.657299
589.992078,-592.164754,-8734.430116,383.047749
589.992406,-370.102971,-8512.368333,536.266849
589.992733,0.000000,-8808.450710,536.266849
589.993061,-592.164754,-8882.471304,383.047749
589.993388,-444.123565,-9252.574275,459.657299
589.993716,-148.041188,-9400.615463,689.485948
589.994043,0.000000,-8734.430116,459.657299
589.994371,0.000000,-8734.430116,1378.971896
589.994698,0.000000,-9030.512492,459.657299
589.995026,-296.082377,-8882.471304,689.485948
589.995353,-296.082377,-8882.471304,306.438199
589.995681,-222.061783,-8734.430116,612.876398
589.996008,-296.082377,-8586.388927,842.705048
589.996336,0.000000,-8956.491898,766.095498
589.996663,-296.082377,-9104.533087,536.266849
589.996991,-370.102971,-9252.574275,612.876398
589.997318,-222.061783,-9178.553681,766.095498
589.997646,-148.041188,-8808.450710,766.095498
589.997973,-296.082377,-9474.636058,612.876398
589.998301,-370.102971,-9548.656652,459.657299
589.998628,-296.082377,-9474.636058,536.266849
589.998956,-444.123565,-9474.636058,536.266849
589.999283,0.000000,-9474.636058,689.485948
589.999611,0.000000,-9030.512492,612.876398
589.999938,0.000000,-9030.512492,383.047749
590.000266,0.000000,-9326.594869,459.657299
590.000593,-148.041188,-9400.615463,536.266849
590.000921,-370.102971,-9252.574275,612.876398
590.001248,-148.041188,-9104.533087,612.876398
590.001576,0.000000,-9326.594869,766.095498
590.001903,-296.082377,-9400.615463,536.266849
590.002231,-148.041188,-9178.553681,612.876398
590.002558,0.000000,-9178.553681,842.705048
590.002886,370.102971,-9474.636058,1225.752797
590.003213,-296.082377,-9178.553681,689.485948
590.003541,-222.061783,-9178.553681,766.095498
590.003868,-222.061783,-9326.594869,689.485948
590.004196,-148.041188,-9252.574275,536.266849
590.004523,-370.102971,-8956.491898,459.657299
590.004851,0.000000,-9252.574275,995.924147
590.005178,-222.061783,-9178.553681,612.876398
590.005506,0.000000,-9252.574275,383.047749
590.005834,-222.061783,-9252.574275,459.657299
590.006161,0.000000,-9326.594869,383.047749
590.006489,-148.041188,-9252.574275,229.828649
590.006816,-222.061783,-9178.553681,612.876398
590.007144,-148.041188,-9326.594869,383.047749
590.007471,-296.082377,-9474.636058,612.876398
590.007799,-370.102971,-8808.450710,459.657299
590.008127,-222.061783,-8882.471304,459.657299
590.008454,-444.123565,-8808.450710,383.047749
590.008782,-296.082377,-8808.450710,229.828649
590.009109,0.000000,-8808.450710,459.657299
590.009437,0.000000,-8882.471304,536.266849
590.009765,-370.102971,-8512.368333,459.657299
590.010092,-222.061783,-9030.512492,612.876398
590.010420,0.000000,-9252.574275,383.047749
590.010747,0.000000,-9474.636058,536.266849
590.011075,148.041188,-9474.636058,766.095498
590.011402,74.020594,-9252.574275,995.924147
590.011730,0.000000,-9474.636058,306.438199
590.012058,-222.061783,-9474.636058,536.266849
590.012385,-222.061783,-9326.594869,306.438199
590.012713,-370.102971,-9178.553681,306.438199
590.013040,-444.123565,-8882.471304,766.095498
590.013368,0.000000,-9252.574275,612.876398
590.013696,-148.041188,-8956.491898,306.438199
590.014023,-444.123565,-8956.491898,459.657299
590.014351,-666.185348,-8882.471304,383.047749
590.014678,-444.123565,-9178.553681,459.657299
590.015006,-370.102971,-9030.512492,306.438199
590.015333,-370.102971,-8956.491898,766.095498
590.015661,-296.082377,-9104.533087,766.095498
590.015989,0.000000,-9030.512492,612.876398
590.016316,-148.041188,-8808.450710,689.485948
590.016644,-148.041188,-8882.471304,919.314598
590.016971,-296.082377,-8290.306550,536.266849
590.017299,-666.185348,-8660.409521,612.876398
590.017626,-814.226536,-8808.450710,612.876398
590.017954,-666.185348,-8956.491898,689.485948
590.018282,-666.185348,-8956.491898,1149.143247
590.018609,-518.144159,-9178.553681,766.095498
590.018937,-592.164754,-9400.615463,536.266849
590.019264,-518.144159,-9252.574275,766.095498
590.019592,-740.205942,-9178.553681,689.485948
590.019920,-666.185348,-8660.409521,536.266849
590.020247,-518.144159,-8512.368333,766.095498
590.020575,-444.123565,-8956.491898,383.047749
590.020902,-814.226536,-8734.430116,689.485948
590.021230,-518.144159,-8808.450710,459.657299
590.021557,-740.205942,-8808.450710,612.876398
590.021885,-814.226536,-8438.347739,153.219100
590.022213,-518.144159,-8956.491898,689.485948
590.022540,-370.102971,-8882.471304,383.047749
590.022868,-296.082377,-8956.491898,766.095498
590.023195,0.000000,-9104.533087,612.876398
590.023523,-148.041188,-9178.553681,536.266849
590.023850,-296.082377,-9030.512492,383.047749
590.024178,0.000000,-9104.533087,536.266849
590.024506,0.000000,-9178.553681,536.266849
590.024833,0.000000,-9178.553681,612.876398
590.025161,0.000000,-9030.512492,383.047749
590.025488,-296.082377,-8882.471304,612.876398
590.025816,-222.061783,-8956.491898,459.657299
590.026144,0.000000,-9030.512492,306.438199
590.026471,0.000000,-9252.574275,306.438199
590.026799,222.061783,-9030.512492,1072.533697
590.027126,-296.082377,-9326.594869,766.095498
590.027454,0.000000,-9252.574275,612.876398
590.027781,0.000000,-9178.553681,536.266849
590.028109,0.000000,-9326.594869,459.657299
590.028437,-222.061783,-9326.594869,766.095498
590.028764,-296.082377,-8808.450710,766.095498
590.029092,-148.041188,-9030.512492,766.095498
590.029419,-148.041188,-8956.491898,306.438199
590.029747,-444.123565,-8956.491898,536.266849
590.030075,-518.144159,-9030.512492,459.657299
590.030402,-370.102971,-8808.450710,766.095498
590.030730,-740.205942,-8734.430116,689.485948
590.031057,-444.123565,-9326.594869,995.924147
590.031385,-518.144159,-9474.636058,459.657299
590.031712,-444.123565,-9400.615463,689.485948
590.032040,0.000000,-9844.739029,229.828649
590.032368,0.000000,-8808.450710,306.438199
590.032695,0.000000,-9474.636058,459.657299
590.033023,0.000000,-9474.636058,612.876398
590.033350,0.000000,-9474.636058,459.657299
590.033678,0.000000,-8956.491898,612.876398
590.034005,444.123565,-9400.615463,766.095498
590.034333,0.000000,-9252.574275,536.266849
590.034661,0.000000,-9400.615463,383.047749
590.034988,0.000000,-9104.533087,306.438199
590.035316,0.000000,-9178.553681,383.047749
590.035643,148.041188,-8882.471304,766.095498
590.035971,0.000000,-9252.574275,459.657299
590.036299,0.000000,-9400.615463,459.657299
590.036626,0.000000,-9474.636058,459.657299
590.036954,0.000000,-9252.574275,383.047749
590.037281,0.000000,-9252.574275,536.266849
590.037609,0.000000,-9030.512492,459.657299
590.037936,0.000000,-9178.553681,229.828649
590.038264,-370.102971,-8882.471304,229.828649
590.038592,-370.102971,-9104.533087,536.266849
590.038919,-222.061783,-9178.553681,689.485948
590.039247,-222.061783,-8660.409521,459.657299
590.039574,-296.082377,-8956.491898,383.047749
590.039902,-370.102971,-9400.615463,612.876398
590.040229,-370.102971,-9252.574275,612.876398
590.040557,-592.164754,-9252.574275,612.876398
590.040885,-222.061783,-9252.574275,612.876398
590.041212,0.000000,-8956.491898,766.095498
590.041540,0.000000,-8882.471304,536.266849
590.041867,0.000000,-9104.533087,689.485948
590.042195,-296.082377,-8882.471304,842.705048
590.042523,0.000000,-8808.450710,1072.533697
590.042850,-888.247130,-8660.409521,766.095498
590.043178,-592.164754,-8882.471304,842.705048
590.043505,-814.226536,-8956.491898,612.876398
590.043833,-370.102971,-8882.471304,536.266849
590.044160,-370.102971,-8956.491898,919.314598
590.044488,-444.123565,-8734.430116,612.876398
590.044816,-222.061783,-8956.491898,612.876398
590.045143,-148.041188,-9178.553681,612.876398
590.045471,-148.041188,-9178.553681,536.266849
590.045798,0.000000,-9252.574275,1072.533697
590.046126,0.000000,-9326.594869,689.485948
590.046454,74.020594,-9252.574275,459.657299
590.046781,0.000000,-8956.491898,536.266849
590.047109,-222.061783,-9104.533087,689.485948
590.047436,-148.041188,-9104.533087,459.657299
590.047764,0.000000,-8882.471304,306.438199
590.048091,-148.041188,-8808.450710,459.657299
590.048419,-222.061783,-8956.491898,612.876398
590.048747,-444.123565,-8956.491898,766.095498
590.049074,-370.102971,-9178.553681,689.485948
590.049402,-222.061783,-9178.553681,459.657299
590.049729,-592.164754,-8882.471304,536.266849
590.050057,-444.123565,-8956.491898,689.485948
590.050384,-148.041188,-9030.512492,612.876398
590.050712,-370.102971,-8956.491898,612.876398
590.051040,-148.041188,-8882.471304,383.047749
590.051367,-222.061783,-9178.553681,919.314598
590.051695,-666.185348,-9030.512492,612.876398
590.052022,-666.185348,-9104.533087,459.657299
590.052350,-814.226536,-9252.574275,689.485948
590.052678,-444.123565,-9104.533087,689.485948
590.053005,-888.247130,-9030.512492,536.266849
590.053333,-740.205942,-9326.594869,459.657299
590.053660,-444.123565,-9474.636058,459.657299
590.053988,-148.041188,-9252.574275,766.095498
590.054315,-222.061783,-9252.574275,459.657299
590.054643,-592.164754,-9030.512492,919.314598
590.054971,-370.102971,-8956.491898,766.095498
590.055298,-444.123565,-9030.512492,612.876398
590.055626,-370.102971,-8956.491898,306.438199
590.055953,-370.102971,-9030.512492,383.047749
590.056281,0.000000,-8808.450710,536.266849
590.056608,148.041188,-8956.491898,229.828649
590.056936,0.000000,-8586.388927,383.047749
590.057264,0.000000,-8808.450710,153.219100
590.057591,0.000000,-8956.491898,229.828649
590.057919,0.000000,-9178.553681,536.266849
590.058246,222.061783,-9104.533087,612.876398
590.058574,222.061783,-9474.636058,306.438199
590.058902,0.000000,-9400.615463,612.876398
590.059229,0.000000,-9474.636058,459.657299
590.059557,222.061783,-9474.636058,459.657299
590.059884,148.041188,-9104.533087,153.219100
590.060212,0.000000,-9326.594869,612.876398
590.060539,0.000000,-9178.553681,459.657299
590.060867,-296.082377,-9178.553681,536.266849
590.061195,-370.102971,-9178.553681,459.657299
590.061522,-222.061783,-8956.491898,919.314598
590.061850,-222.061783,-9326.594869,536.266849
590.062177,-296.082377,-9178.553681,306.438199
590.062505,-222.061783,-9104.533087,536.266849
590.062833,-370.102971,-9326.594869,689.485948
590.063160,-222.061783,-8808.450710,842.705048
590.063488,0.000000,-9400.615463,459.657299
590.063815,-370.102971,-9326.594869,919.314598
590.064143,-444.123565,-9326.594869,919.314598
590.064470,-370.102971,-9252.574275,995.924147
590.064798,-296.082377,-9104.533087,995.924147
590.065126,-370.102971,-9178.553681,995.924147
590.065453,-444.123565,-9474.636058,842.705048
590.065781,-370.102971,-9400.615463,842.705048
590.066108,-222.061783,-9326.594869,766.095498
590.066436,-296.082377,-9326.594869,689.485948
590.066763,0.000000,-9400.615463,306.438199
590.067091,0.000000,-9326.594869,842.705048
590.067419,0.000000,-9252.574275,842.705048
590.067746,0.000000,-9252.574275,689.485948
590.068074,0.000000,-9400.615463,766.095498
590.068401,148.041188,-9400.615463,306.438199
590.068729,-296.082377,-9252.574275,536.266849
590.069057,-444.123565,-9030.512492,612.876398
590.069384,-370.102971,-9030.512492,459.657299
590.069712,-370.102971,-9104.533087,459.657299
590.070039,74.020594,-8882.471304,689.485948
590.070367,-370.102971,-8956.491898,0.000000
590.070694,0.000000,-9178.553681,459.657299
590.071022,-296.082377,-8808.450710,229.828649
590.071350,-296.082377,-8882.471304,459.657299
590.071677,0.000000,-8956.491898,536.266849
590.072005,74.020594,-9104.533087,306.438199
590.072332,-148.041188,-9252.574275,689.485948
590.072660,-222.061783,-9104.533087,459.657299
590.072988,-296.082377,-9104.533087,459.657299
590.073315,-74.020594,-8660.409521,766.095498
590.073643,-444.123565,-8660.409521,689.485948
590.073970,-296.082377,-8808.450710,383.047749
590.074298,-592.164754,-8586.388927,459.657299
590.074625,-518.144159,-8956.491898,306.438199
590.074953,-296.082377,-8734.430116,536.266849
590.075281,-814.226536,-8512.368333,459.657299
590.075608,-592.164754,-9030.512492,536.266849
590.075936,-444.123565,-8956.491898,306.438199
590.076263,-592.164754,-8882.471304,612.876398
590.076591,-370.102971,-8882.471304,766.095498
590.076918,-222.061783,-9030.512492,689.485948
590.077246,-592.164754,-8660.409521,612.876398
590.077574,-444.123565,-8882.471304,689.485948
590.077901,-296.082377,-8956.491898,536.266849
590.078229,-444.123565,-8808.450710,459.657299
590.078556,-222.061783,-8808.450710,229.828649
590.078884,0.000000,-8586.388927,766.095498
590.079212,-296.082377,-8734.430116,459.657299
590.079539,-370.102971,-8956.491898,536.266849
590.079867,-296.082377,-8956.491898,306.438199
590.080194,-296.082377,-9104.533087,306.438199
590.080522,0.000000,-9030.512492,383.047749
590.080849,-222.061783,-9030.512492,383.047749
590.081177,0.000000,-9030.512492,459.657299
590.081505,-370.102971,-9178.553681,383.047749
590.081832,-296.082377,-9252.574275,536.266849
590.082160,-814.226536,-9030.512492,612.876398
590.082487,-518.144159,-8882.471304,459.657299
590.082815,-296.082377,-9252.574275,689.485948
590.083142,-222.061783,-9252.574275,383.047749
590.083470,-222.061783,-9326.594869,612.876398
590.083798,0.000000,-9326.594869,612.876398
590.084125,0.000000,-9326.594869,536.266849
590.084453,-444.123565,-9400.615463,612.876398
590.084780,-370.102971,-9400.615463,612.876398
590.085108,-740.205942,-9474.636058,536.266849
590.085436,-222.061783,-9400.615463,1072.533697
590.085763,-296.082377,-9252.574275,919.314598
590.086091,-518.144159,-9474.636058,536.266849
590.086418,-518.144159,-9400.615463,689.485948
590.086746,-666.185348,-9252.574275,689.485948
590.087073,-518.144159,-9252.574275,766.095498
590.087401,0.000000,-9252.574275,766.095498
590.087729,-518.144159,-9178.553681,689.485948
590.088056,-296.082377,-9326.594869,689.485948
590.088384,0.000000,-9326.594869,612.876398
590.088711,0.000000,-9326.594869,612.876398
590.089039,74.020594,-9474.636058,919.314598
590.089367,0.000000,-9474.636058,689.485948
590.089694,74.020594,-9474.636058,766.095498
590.090022,222.061783,-9400.615463,612.876398
590.090349,74.020594,-9252.574275,306.438199
590.090677,370.102971,-9178.553681,459.657299
590.091004,222.061783,-9474.636058,459.657299
590.091332,0.000000,-9178.553681,76.609550
590.091660,0.000000,-9104.533087,306.438199
590.091987,0.000000,-9252.574275,383.047749
590.092315,-148.041188,-8956.491898,1072.533697
590.092642,-148.041188,-9252.574275,766.095498
590.092970,0.000000,-9252.574275,306.438199
590.093297,0.000000,-8882.471304,536.266849
590.093625,0.000000,-8808.450710,306.438199
590.093953,0.000000,-8956.491898,76.609550
590.094280,296.082377,-9326.594869,689.485948
590.094608,-222.061783,-8734.430116,612.876398
590.094935,-296.082377,-8586.388927,459.657299
590.095263,-296.082377,-8882.471304,459.657299
590.095591,-666.185348,-9030.512492,612.876398
590.095918,-592.164754,-9104.533087,842.705048
590.096246,-296.082377,-8882.471304,995.924147
590.096573,-518.144159,-8956.491898,689.485948
590.096901,-740.205942,-9030.512492,995.924147
590.097228,-814.226536,-9178.553681,919.314598
590.097556,-592.164754,-9104.533087,536.266849
590.097884,-222.061783,-8512.368333,1302.362347
590.098211,0.000000,-8956.491898,919.314598
590.098539,-296.082377,-9178.553681,766.095498
590.098866,-518.144159,-9030.512492,919.314598
590.099194,-740.205942,-8660.409521,536.266849
590.099521,-370.102971,-8734.430116,1455.581446
590.099849,-740.205942,-8956.491898,766.095498
590.100177,-592.164754,-9178.553681,766.095498
590.100504,-518.144159,-9178.553681,612.876398
590.100832,-370.102971,-9252.574275,536.266849
590.101159,-296.082377,-8808.450710,536.266849
590.101487,-296.082377,-9252.574275,612.876398
590.101815,-296.082377,-9178.553681,306.438199
590.102142,-370.102971,-9178.553681,383.047749
590.102470,-148.041188,-9030.512492,306.438199
590.102797,0.000000,-9030.512492,306.438199
590.103125,-222.061783,-9252.574275,536.266849
590.103452,-222.061783,-8956.491898,383.047749
590.103780,-222.061783,-9178.553681,306.438199
590.104108,-296.082377,-9030.512492,0.000000
590.104435,-222.061783,-9400.615463,-229.828649
590.104763,0.000000,-8956.491898,0.000000
590.105090,0.000000,-9030.512492,76.609550
590.105418,0.000000,-8956.491898,153.219100
590.105746,0.000000,-9252.574275,459.657299
590.106073,-222.061783,-9326.594869,536.266849
590.106401,-222.061783,-9252.574275,766.095498
590.106728,-518.144159,-9178.553681,536.266849
590.107056,-518.144159,-9104.533087,612.876398
590.107383,-296.082377,-9030.512492,612.876398
590.107711,-296.082377,-8956.491898,383.047749
590.108039,-296.082377,-8808.450710,919.314598
590.108366,-370.102971,-8956.491898,612.876398
590.108694,-888.247130,-8734.430116,459.657299
590.109022,-1036.288319,-8512.368333,766.095498
590.109349,-740.205942,-8956.491898,459.657299
590.109677,-592.164754,-8882.471304,612.876398
590.110005,-518.144159,-9252.574275,995.924147
590.110332,-592.164754,-9252.574275,1072.533697
590.110660,-370.102971,-9030.512492,536.266849
590.110988,-296.082377,-8808.450710,842.705048
590.111315,-222.061783,-8808.450710,766.095498
590.111643,0.000000,-9030.512492,919.314598
590.111971,0.000000,-9030.512492,689.485948
590.112298,0.000000,-9252.574275,842.705048
590.112626,-148.041188,-9030.512492,689.485948
590.112954,0.000000,-9252.574275,612.876398
590.113281,0.000000,-8808.450710,842.705048
590.113609,0.000000,-8956.491898,459.657299
590.113937,0.000000,-9252.574275,459.657299
590.114264,0.000000,-9178.553681,459.657299
590.114592,74.020594,-9326.594869,383.047749
590.114920,148.041188,-9178.553681,842.705048
590.115247,148.041188,-9474.636058,306.438199
590.115575,0.000000,-9548.656652,689.485948
590.115903,0.000000,-9474.636058,612.876398
590.116230,0.000000,-9252.574275,229.828649
590.116558,0.000000,-9178.553681,995.924147
590.116886,-370.102971,-9252.574275,306.438199
590.117213,-370.102971,-9252.574275,459.657299
590.117541,-518.144159,-9104.533087,536.266849
590.117869,-296.082377,-9104.533087,689.485948
590.118196,-296.082377,-9252.574275,459.657299
590.118524,-444.123565,-9030.512492,1149.143247
590.118852,0.000000,-9400.615463,536.266849
590.119179,0.000000,-9326.594869,995.924147
590.119507,-222.061783,-9252.574275,766.095498
590.119835,-148.041188,-9326.594869,766.095498
590.120162,0.000000,-9030.512492,536.266849
590.120490,-222.061783,-9474.636058,612.876398
590.120818,-444.123565,-9326.594869,919.314598
590.121145,-444.123565,-9326.594869,766.095498
590.121473,-518.144159,-9252.574275,689.485948
590.121801,-370.102971,-9326.594869,459.657299
590.122128,-370.102971,-9178.553681,766.095498
590.122456,-444.123565,-9326.594869,689.485948
590.122784,-518.144159,-9326.594869,536.266849
590.123111,-370.102971,-9326.594869,689.485948
590.123439,-296.082377,-9178.553681,766.095498
590.123767,-148.041188,-9104.533087,919.314598
590.124094,-296.082377,-9252.574275,689.485948
590.124422,-148.041188,-9252.574275,536.266849
590.124750,-222.061783,-9178.553681,459.657299
590.125077,0.000000,-9104.533087,383.047749
590.125405,-444.123565,-8142.265362,0.000000
590.125733,-518.144159,-8586.388927,306.438199
590.126060,-296.082377,-8660.409521,229.828649
590.126388,0.000000,-8734.430116,229.828649
590.126716,0.000000,-8882.471304,383.047749
590.127043,-296.082377,-8734.430116,383.047749
590.127371,-222.061783,-9104.533087,229.828649
590.127698,-222.061783,-8882.471304,459.657299
590.128026,0.000000,-9030.512492,306.438199
590.128354,0.000000,-9030.512492,229.828649
590.128681,74.020594,-8808.450710,919.314598
590.129009,0.000000,-8956.491898,383.047749
590.129337,-222.061783,-8882.471304,536.266849
590.129664,0.000000,-8808.450710,459.657299
590.129992,-222.061783,-8956.491898,383.047749
590.130320,-518.144159,-8660.409521,766.095498
590.130647,-148.041188,-8586.388927,612.876398
590.130975,-370.102971,-8882.471304,383.047749
590.131303,-444.123565,-8956.491898,383.047749
590.131630,-444.123565,-8882.471304,306.438199
590.131958,0.000000,-9030.512492,689.485948
590.132286,0.000000,-9104.533087,536.266849
590.132613,0.000000,-8808.450710,612.876398
590.132941,0.000000,-8882.471304,383.047749
590.133269,-148.041188,-9030.512492,612.876398
590.133596,-370.102971,-9104.533087,766.095498
590.133924,-296.082377,-8956.491898,229.828649
590.134252,-518.144159,-9178.553681,766.095498
590.134579,-370.102971,-9178.553681,536.266849
590.134907,-296.082377,-9178.553681,689.485948
590.135235,-296.082377,-9326.594869,689.485948
590.135562,-296.082377,-8956.491898,1532.190996
590.135890,0.000000,-9400.615463,766.095498
590.136218,-518.144159,-9474.636058,842.705048
590.136545,-296.082377,-9474.636058,536.266849
590.136873,-518.144159,-9474.636058,995.924147
590.137201,0.000000,-9252.574275,766.095498
590.137528,0.000000,-9104.533087,842.705048
590.137856,-370.102971,-9252.574275,842.705048
590.138184,-592.164754,-9178.553681,536.266849
590.138511,-740.205942,-9030.512492,689.485948
590.138839,-814.226536,-8956.491898,306.438199
590.139167,-740.205942,-8586.388927,919.314598
590.139494,-518.144159,-9030.512492,383.047749
590.139822,-222.061783,-9178.553681,536.266849
590.140150,-296.082377,-9326.594869,919.314598
590.140477,-518.144159,-9178.553681,842.705048
590.140805,-370.102971,-9030.512492,153.219100
590.141133,-148.041188,-9622.677246,612.876398
590.141460,0.000000,-9474.636058,536.266849
590.141788,0.000000,-9030.512492,536.266849
590.142116,74.020594,-9252.574275,612.876398
590.142443,0.000000,-9326.594869,689.485948
590.142771,-444.123565,-9104.533087,689.485948
590.143099,-296.082377,-9178.553681,459.657299
590.143426,-296.082377,-9030.512492,536.266849
590.143754,-370.102971,-9178.553681,306.438199
590.144082,0.000000,-9548.656652,1072.533697
590.144409,0.000000,-8882.471304,536.266849
590.144737,0.000000,-9178.553681,459.657299
590.145065,-370.102971,-8956.491898,536.266849
590.145392,0.000000,-9104.533087,689.485948
590.145720,0.000000,-9178.553681,459.657299
590.146048,148.041188,-8808.450710,459.657299
590.146375,-296.082377,-8956.491898,306.438199
590.146703,-148.041188,-8956.491898,383.047749
590.147031,-444.123565,-8808.450710,536.266849
590.147358,-222.061783,-8956.491898,459.657299
590.147686,-740.205942,-8512.368333,306.438199
590.148013,-222.061783,-8882.471304,306.438199
590.148341,-370.102971,-9104.533087,536.266849
590.148669,-370.102971,-8956.491898,306.438199
590.148996,-222.061783,-9030.512492,459.657299
590.149324,222.061783,-9104.533087,612.876398
590.149652,0.000000,-8956.491898,459.657299
590.149979,0.000000,-9178.553681,383.047749
590.150307,0.000000,-9178.553681,689.485948
590.150635,0.000000,-8956.491898,383.047749
590.150962,0.000000,-9104.533087,306.438199
590.151290,74.020594,-9104.533087,919.314598
590.151618,-148.041188,-9252.574275,612.876398
590.151945,0.000000,-8956.491898,612.876398
590.152273,-148.041188,-9030.512492,383.047749
590.152601,-370.102971,-9030.512492,689.485948
590.152928,-370.102971,-8956.491898,612.876398
590.153256,0.000000,-8882.471304,459.657299
590.153584,-222.061783,-9030.512492,536.266849
590.153911,-148.041188,-9326.594869,459.657299
590.154239,-296.082377,-9178.553681,612.876398
590.154567,-222.061783,-8956.491898,766.095498
590.154894,-222.061783,-9474.636058,919.314598
590.155222,-222.061783,-9326.594869,536.266849
590.155550,-296.082377,-9252.574275,383.047749
590.155877,-592.164754,-8956.491898,536.266849
590.156205,-962.267725,-8956.491898,995.924147
590.156533,0.000000,-9252.574275,536.266849
590.156860,-370.102971,-9030.512492,459.657299
590.157188,-222.061783,-9104.533087,689.485948
590.157516,-444.123565,-9030.512492,919.314598
590.157843,-296.082377,-9178.553681,766.095498
590.158171,-296.082377,-9104.533087,766.095498
590.158499,-666.185348,-9104.533087,689.485948
590.158826,-444.123565,-9326.594869,842.705048
590.159154,-444.123565,-9252.574275,612.876398
590.159482,-370.102971,-9474.636058,766.095498
590.159809,-592.164754,-8660.409521,612.876398
590.160137,-444.123565,-9252.574275,766.095498
590.160465,-592.164754,-9104.533087,536.266849
590.160792,-444.123565,-9030.512492,536.266849
590.161120,-296.082377,-8882.471304,459.657299
590.161448,0.000000,-8808.450710,766.095498
590.161775,-518.144159,-8956.491898,306.438199
590.162103,-370.102971,-9178.553681,306.438199
590.162431,-444.123565,-9252.574275,766.095498
590.162758,-222.061783,-9030.512492,383.047749
590.163086,0.000000,-8882.471304,842.705048
590.163414,0.000000,-8956.491898,153.219100
590.163741,-296.082377,-9178.553681,612.876398
590.164069,-444.123565,-9030.512492,536.266849
590.164397,-444.123565,-8882.471304,459.657299
590.164724,-296.082377,-8882.471304,383.047749
590.165052,-222.061783,-9252.574275,383.047749
590.165380,-222.061783,-9326.594869,689.485948
590.165707,-222.061783,-9104.533087,612.876398
590.166035,0.000000,-9178.553681,459.657299
590.166363,-148.041188,-9326.594869,536.266849
590.166690,0.000000,-9030.512492,842.705048
590.167018,-148.041188,-9104.533087,766.095498
590.167346,0.000000,-9104.533087,536.266849
590.167673,-296.082377,-9400.615463,766.095498
590.168001,-370.102971,-9326.594869,612.876398
590.168328,0.000000,-9104.533087,536.266849
590.168656,-296.082377,-9030.512492,536.266849
590.168984,-518.144159,-8956.491898,459.657299
590.169311,-518.144159,-8882.471304,536.266849
590.169639,-592.164754,-8734.430116,459.657299
590.169967,-222.061783,-8660.409521,919.314598
590.170294,0.000000,-8660.409521,459.657299
590.170622,-296.082377,-8882.471304,383.047749
590.170950,-518.144159,-9030.512492,536.266849
590.171277,-222.061783,-9178.553681,612.876398
590.171605,-444.123565,-9474.636058,842.705048
590.171933,-222.061783,-8660.409521,919.314598
590.172260,148.041188,-9178.553681,612.876398
590.172588,74.020594,-9178.553681,536.266849
590.172916,74.020594,-9252.574275,536.266849
590.173243,0.000000,-9104.533087,536.266849
590.173571,0.000000,-8882.471304,536.266849
590.173899,-444.123565,-9326.594869,536.266849
590.174226,-518.144159,-9400.615463,689.485948
590.174554,-444.123565,-9400.615463,766.095498
590.174882,-370.102971,-9400.615463,689.485948
590.175209,74.020594,-8956.491898,766.095498
590.175537,74.020594,-9252.574275,229.828649
590.175865,0.000000,-9252.574275,383.047749
590.176192,0.000000,-9104.533087,229.828649
590.176520,0.000000,-9030.512492,536.266849
590.176848,0.000000,-9400.615463,459.657299
590.177175,-148.041188,-9474.636058,459.657299
590.177503,-296.082377,-9474.636058,612.876398
590.177831,-296.082377,-9400.615463,689.485948
590.178158,-222.061783,-9326.594869,459.657299
590.178486,-222.061783,-9252.574275,229.828649
590.178814,-592.164754,-8586.388927,76.609550
590.179141,-296.082377,-8882.471304,229.828649
590.179469,0.000000,-8734.430116,229.828649
590.179797,0.000000,-8882.471304,306.438199
590.180124,0.000000,-9178.553681,459.657299
590.180452,0.000000,-8808.450710,766.095498
590.180780,0.000000,-9178.553681,766.095498
590.181107,0.000000,-9400.615463,689.485948
590.181435,0.000000,-9252.574275,612.876398
590.181763,0.000000,-9252.574275,612.876398
590.182090,0.000000,-8808.450710,1072.533697
590.182418,0.000000,-9252.574275,612.876398
590.182746,-370.102971,-9030.512492,766.095498
590.183073,-592.164754,-9252.574275,612.876398
590.183401,-444.123565,-9104.533087,383.047749
590.183729,-370.102971,-8882.471304,766.095498
590.184056,-222.061783,-8956.491898,229.828649
590.184384,-592.164754,-8586.388927,76.609550
590.184712,-592.164754,-8364.327145,306.438199
590.185039,-370.102971,-8882.471304,229.828649
590.185367,-222.061783,-8808.450710,536.266849
590.185695,-296.082377,-8512.368333,229.828649
590.186022,-296.082377,-9030.512492,689.485948
590.186350,-296.082377,-9030.512492,766.095498
590.186678,-370.102971,-8956.491898,842.705048
590.187005,-222.061783,-9030.512492,689.485948
590.187333,0.000000,-9030.512492,306.438199
590.187661,-370.102971,-8882.471304,459.657299
590.187988,-222.061783,-9252.574275,383.047749
590.188316,-444.123565,-8882.471304,536.266849
590.188643,0.000000,-8882.471304,612.876398
590.188971,-148.041188,-8660.409521,766.095498
590.189299,0.000000,-9252.574275,459.657299
590.189626,-222.061783,-9178.553681,689.485948
590.189954,-148.041188,-9178.553681,383.047749
590.190282,-296.082377,-9252.574275,383.047749
590.190609,0.000000,-9030.512492,842.705048
590.190937,0.000000,-9252.574275,536.266849
590.191265,0.000000,-9474.636058,612.876398
590.191592,-296.082377,-9326.594869,612.876398
590.191920,-296.082377,-9474.636058,383.047749
590.192248,-518.144159,-9474.636058,536.266849
590.192575,-222.061783,-9400.615463,229.828649
590.192903,0.000000,-9104.533087,306.438199
590.193231,0.000000,-8956.491898,383.047749
590.193558,0.000000,-8956.491898,306.438199
590.193886,-148.041188,-9178.553681,383.047749
590.194214,0.000000,-9326.594869,0.000000
590.194541,-296.082377,-8808.450710,612.876398
590.194869,-296.082377,-9252.574275,459.657299
590.195197,-296.082377,-9104.533087,459.657299
590.195524,-148.041188,-9252.574275,459.657299
590.195852,0.000000,-9252.574275,383.047749
590.196180,-148.041188,-9400.615463,689.485948
590.196507,-222.061783,-9104.533087,612.876398
590.196835,0.000000,-9252.574275,459.657299
590.197163,-148.041188,-9474.636058,689.485948
590.197490,-222.061783,-9104.533087,766.095498
590.197818,-148.041188,-8882.471304,536.266849
590.198146,0.000000,-9400.615463,459.657299
590.198473,0.000000,-9252.574275,689.485948
590.198801,0.000000,-9252.574275,536.266849
590.199129,-148.041188,-9178.553681,919.314598
590.199456,-296.082377,-8808.450710,766.095498
590.199784,-444.123565,-9178.553681,536.266849
590.200112,-444.123565,-9030.512492,536.266849
590.200439,-296.082377,-9252.574275,612.876398
590.200767,-148.041188,-8956.491898,766.095498
590.201095,-296.082377,-9474.636058,306.438199
590.201422,-444.123565,-8882.471304,766.095498
590.201750,-666.185348,-9030.512492,612.876398
590.202078,-518.144159,-8956.491898,536.266849
590.202405,-444.123565,-9030.512492,689.485948
590.202733,-296.082377,-8956.491898,536.266849
590.203061,-370.102971,-9178.553681,919.314598
590.203388,-518.144159,-9252.574275,536.266849
590.203716,-222.061783,-9400.615463,612.876398
590.204044,-444.123565,-9104.533087,612.876398
590.204371,-444.123565,-8956.491898,766.095498
590.204699,-222.061783,-9104.533087,766.095498
590.205027,-222.061783,-9252.574275,612.876398
590.205354,-148.041188,-9252.574275,536.266849
590.205682,0.000000,-9252.574275,612.876398
590.206009,-296.082377,-9030.512492,612.876398
590.206337,0.000000,-9326.594869,76.609550
590.206665,0.000000,-9326.594869,306.438199
590.206992,-148.041188,-9400.615463,383.047749
590.207320,0.000000,-8808.450710,459.657299
590.207647,-518.144159,-8734.430116,306.438199
590.207975,0.000000,-8882.471304,995.924147
590.208303,-296.082377,-9104.533087,459.657299
590.208630,-296.082377,-9252.574275,383.047749
590.208958,-222.061783,-9104.533087,536.266849
590.209285,-296.082377,-8956.491898,229.828649
590.209613,0.000000,-9104.533087,0.000000
590.209940,222.061783,-9178.553681,229.828649
590.210268,0.000000,-9104.533087,306.438199
590.210596,-222.061783,-9030.512492,76.609550
590.210923,-296.082377,-9326.594869,536.266849
590.211251,-370.102971,-9178.553681,536.266849
590.211578,0.000000,-9474.636058,459.657299
590.211906,0.000000,-9104.533087,536.266849
590.212234,0.000000,-9104.533087,459.657299
590.212561,0.000000,-8956.491898,612.876398
590.212889,0.000000,-8882.471304,459.657299
590.213216,0.000000,-8956.491898,995.924147
590.213544,-814.226536,-8512.368333,306.438199
590.213871,-740.205942,-9104.533087,612.876398
590.214199,-592.164754,-9178.553681,612.876398
590.214527,-222.061783,-9104.533087,689.485948
590.214854,0.000000,-8882.471304,229.828649
590.215182,-518.144159,-8438.347739,459.657299
590.215509,-148.041188,-8882.471304,689.485948
590.215837,-296.082377,-8808.450710,383.047749
590.216165,-444.123565,-8882.471304,612.876398
590.216492,-740.205942,-8956.491898,766.095498
590.216820,-740.205942,-9030.512492,1302.362347
590.217147,-296.082377,-9400.615463,689.485948
590.217475,-222.061783,-9474.636058,612.876398
590.217803,0.000000,-9400.615463,689.485948
590.218130,222.061783,-9252.574275,842.705048
590.218458,0.000000,-8660.409521,689.485948
590.218785,74.020594,-9326.594869,459.657299
590.219113,0.000000,-9178.553681,459.657299
590.219440,0.000000,-9104.533087,459.657299
590.219768,-222.061783,-9252.574275,766.095498
590.220096,-444.123565,-9474.636058,919.314598
590.220423,-592.164754,-9474.636058,612.876398
590.220751,-518.144159,-9548.656652,689.485948
590.221078,-444.123565,-9400.615463,689.485948
590.221406,0.000000,-9104.533087,536.266849
590.221734,0.000000,-8808.450710,0.000000
590.222061,-222.061783,-8808.450710,842.705048
590.222389,-296.082377,-8808.450710,459.657299
590.222716,-518.144159,-8956.491898,612.876398
590.223044,-370.102971,-9326.594869,612.876398
590.223372,-370.102971,-9474.636058,612.876398
590.223699,-444.123565,-9030.512492,306.438199
590.224027,-148.041188,-9104.533087,536.266849
590.224354,518.144159,-8956.491898,919.314598
590.224682,1036.288319,-8882.471304,1302.362347
590.225009,1110.308913,-8660.409521,1532.190996
590.225337,888.247130,-8882.471304,1991.848295
590.225665,444.123565,-9252.574275,1762.019645
590.225992,0.000000,-9400.615463,1838.629195
590.226320,0.000000,-9326.594869,1838.629195
590.226647,0.000000,-9104.533087,1991.848295
590.226975,74.020594,-9030.512492,2451.505594
590.227303,518.144159,-9178.553681,2145.067394
590.227630,74.020594,-8956.491898,2221.676944
590.227958,0.000000,-8586.388927,2068.457845
590.228285,-296.082377,-8586.388927,2068.457845
590.228613,-222.061783,-8660.409521,2145.067394
590.228940,-296.082377,-8660.409521,2374.896044
590.229268,-666.185348,-8956.491898,2604.724693
590.229596,-666.185348,-8956.491898,2681.334243
590.229923,-666.185348,-8956.491898,2757.943793
590.230251,-962.267725,-8956.491898,2987.772442
590.230578,-1036.288319,-8882.471304,3064.381992
590.230906,-740.205942,-8882.471304,3064.381992
590.231234,-740.205942,-8956.491898,2987.772442
590.231561,-666.185348,-9178.553681,3217.601092
590.231889,-740.205942,-9104.533087,3370.820191
590.232216,-370.102971,-8586.388927,3447.429741
590.232544,-518.144159,-8808.450710,3370.820191
590.232872,-370.102971,-9104.533087,3140.991542
590.233199,-444.123565,-8808.450710,3294.210641
590.233527,-370.102971,-8882.471304,2911.162892
590.233854,-370.102971,-8660.409521,3830.477490
590.234182,370.102971,-9178.553681,3217.601092
590.234509,0.000000,-9178.553681,3447.429741
590.234837,0.000000,-9252.574275,3600.648841
590.235165,74.020594,-9104.533087,3677.258390
590.235492,370.102971,-9030.512492,3447.429741
590.235820,518.144159,-8882.471304,4213.525239
590.236147,888.247130,-8956.491898,4290.134789
590.236475,888.247130,-9252.574275,4366.744339
590.236803,1036.288319,-9178.553681,4673.182538
590.237130,1406.391290,-9252.574275,4673.182538
590.237458,1110.308913,-9474.636058,4903.011187
590.237785,444.123565,-9474.636058,4979.620737
590.238113,148.041188,-9770.718434,5056.230287
590.238441,-370.102971,-9770.718434,4673.182538
590.238768,-592.164754,-9548.656652,4596.572988
590.239096,-518.144159,-9400.615463,4213.525239
590.239423,-888.247130,-9252.574275,3983.696590
590.239751,-1480.411884,-9326.594869,4060.306139
590.240078,-2072.576638,-9400.615463,3370.820191
590.240406,-2368.659014,-8956.491898,3140.991542
590.240734,-2368.659014,-8808.450710,2987.772442
590.241061,-2146.597232,-8438.347739,3217.601092
590.241389,-962.267725,-7994.224174,3830.477490
590.241716,0.000000,-8068.244768,4136.915689
590.242044,1184.329507,-7846.182985,4903.011187
590.242372,1998.556043,-8068.244768,6281.983084
590.242699,2220.617826,-8438.347739,6435.202183
590.243027,1480.411884,-9548.656652,6665.030833
590.243354,444.123565,-10362.883188,6358.592633
590.243682,-1184.329507,-11029.068536,5822.325785
590.244010,-2368.659014,-11029.068536,5515.887586
590.244337,-2738.761985,-10658.965565,4826.401637
590.244665,-2368.659014,-10362.883188,4060.306139
590.244992,-444.123565,-8956.491898,3983.696590
590.245320,962.267725,-7920.203579,4060.306139
590.245647,1850.514855,-7328.038826,4213.525239
590.245975,1406.391290,-7550.100608,3753.867940
590.246303,-1332.370696,-9178.553681,2451.505594
590.246630,-6069.688724,-11029.068536,459.657299
590.246958,-9918.759623,-12287.418637,-1915.238745
590.247285,-11621.233289,-11843.295072,-3524.039291
590.247613,-9030.512492,-9326.594869,-3830.477490
590.247941,-5699.585753,-7772.162391,-2451.505594
590.248268,2146.597232,-5773.606348,-1762.019645
590.248596,4737.318029,-4663.297435,1149.143247
590.248923,8734.430116,-3552.988522,1762.019645
590.249251,10881.027347,-4515.256246,3907.087040
590.249578,9104.533087,-5847.626942,4443.353888
590.249906,9548.656652,-9252.574275,5515.887586
590.250234,4737.318029,-12731.542202,6358.592633
590.250561,2368.659014,-13841.851115,6052.154434
590.250889,1332.370696,-14508.036463,6588.421283
590.251216,1998.556043,-12583.501014,7048.078582
590.251544,5255.462188,-11325.150913,6894.859482
590.251872,7550.100608,-9474.636058,8044.002729
590.252199,9622.677246,-8364.327145,8120.612279
590.252527,7402.059420,-8956.491898,7201.297681
590.252854,2294.638420,-8660.409521,6281.983084
590.253182,-3552.988522,-10436.903782,4290.134789
590.253510,-7402.059420,-10288.862594,2604.724693
590.253837,-9548.656652,-9696.697840,2528.115143
590.254165,-7846.182985,-8586.388927,4136.915689
590.254492,-7476.080014,-6439.791695,5822.325785
590.254820,-3627.009116,-5551.544565,7201.297681
590.255147,-5033.400406,-6957.935855,8197.221829
590.255475,-6661.853478,-6365.771101,6358.592633
590.255803,-7920.203579,-7772.162391,5745.716235
590.256130,-8734.430116,-7994.224174,4903.011187
590.256458,-7550.100608,-6587.832884,4903.011187
590.256785,-5995.668130,-7105.977043,5209.449386
590.257113,-4885.359217,-8068.244768,5209.449386
590.257441,-3849.070898,-7772.162391,5286.058936
590.257768,666.185348,-6291.750507,6435.202183
590.258096,7105.977043,-3923.091493,8427.050478
590.258423,11103.089130,-5033.400406,9806.022374
590.258751,10807.006753,-9992.780217,10342.289223
590.259079,3627.009116,-15914.427753,8810.098227
590.259406,-6291.750507,-18653.189738,4366.744339
590.259734,-11917.315666,-18949.272115,919.314598
590.260061,-12065.356855,-17172.777854,-766.095498
590.260389,-8956.491898,-14582.057057,-1608.800546
590.260716,-1184.329507,-11769.274478,229.828649
590.261044,1850.514855,-8364.327145,-766.095498
590.261372,0.000000,-6365.771101,76.609550
590.261699,3627.009116,-3701.029710,-3217.601092
590.262027,2072.576638,-3775.050304,-3447.429741
590.262354,2738.761985,-5773.606348,-4366.744339
590.262682,1850.514855,-7105.977043,-4749.792088
590.263010,1554.432478,-8660.409521,-1838.629195
590.263337,4071.132681,-8660.409521,766.095498
590.263665,6291.750507,-8660.409521,4596.572988
590.263992,7402.059420,-9548.656652,5822.325785
590.264320,6883.915261,-11473.192101,4290.134789
590.264647,3108.864956,-14434.015869,3600.648841
590.264975,1184.329507,-13767.830521,2451.505594
590.265303,1776.494261,-11473.192101,1225.752797
590.265630,5033.400406,-9252.574275,2221.676944
590.265958,9696.697840,-8808.450710,2451.505594
590.266285,7550.100608,-8956.491898,2604.724693
590.266613,6439.791695,-7846.182985,2145.067394
590.266941,-518.144159,-7698.141797,2221.676944
590.267268,-4589.276840,-7920.203579,995.924147
590.267596,-6069.688724,-10140.821405,0.000000
590.267923,-6661.853478,-12139.377449,0.000000
590.268251,-4811.338623,-11843.295072,1838.629195
590.268579,-3552.988522,-9474.636058,4060.306139
590.268906,-814.226536,-6291.750507,5822.325785
590.269234,-1184.329507,-6217.729913,7201.297681
590.269561,148.041188,-6291.750507,7660.954980
590.269889,-2664.741391,-5551.544565,6435.202183
590.270216,-4441.235652,-4737.318029,6435.202183
590.270544,-5995.668130,-5699.585753,6205.373534
590.270872,-6735.874072,-6883.915261,6205.373534
590.271199,-4515.256246,-7031.956449,6281.983084
590.271527,444.123565,-6661.853478,7507.735880
590.271854,3923.091493,-6513.812290,7890.783629
590.272182,2738.761985,-7772.162391,7354.516781
590.272510,370.102971,-9918.759623,6281.983084
590.272837,-2812.782580,-11325.150913,4673.182538
590.273165,-4885.359217,-12287.418637,3370.820191
590.273492,-6439.791695,-13175.665768,1532.190996
590.273820,-5329.482782,-13175.665768,2834.553343
590.274148,-3256.906145,-10881.027347,3217.601092
590.274475,148.041188,-8586.388927,4213.525239
590.274803,1554.432478,-8068.244768,4519.963438
590.275130,1184.329507,-8216.285956,4366.744339
590.275458,2220.617826,-7402.059420,3830.477490
590.275785,222.061783,-7550.100608,2681.334243
590.276113,-2220.617826,-8438.347739,2528.115143
590.276441,-3034.844362,-9918.759623,2834.553343
590.276768,-1110.308913,-9918.759623,3907.087040
590.277096,1924.535449,-9178.553681,5132.839837
590.277423,3775.050304,-9622.677246,5898.935335
590.277751,3775.050304,-9918.759623,5898.935335
590.278079,2294.638420,-10510.924376,4596.572988
590.278406,-370.102971,-11917.315666,2681.334243
590.278734,-2368.659014,-11917.315666,306.438199
590.279061,-1776.494261,-11695.253884,766.095498
