#time,accel_x,accel_y,accel_z
391.894156,-74.020594,-9326.594869,689.485948
391.894484,-518.144159,-9178.553681,612.876398
391.894812,-296.082377,-8956.491898,689.485948
391.895139,-518.144159,-8660.409521,1302.362347
391.895467,0.000000,-9104.533087,689.485948
391.895795,-296.082377,-9178.553681,766.095498
391.896123,-222.061783,-9030.512492,536.266849
391.896450,-296.082377,-9030.512492,766.095498
391.896778,-222.061783,-9326.594869,612.876398
391.897106,0.000000,-9178.553681,612.876398
391.897434,-222.061783,-9252.574275,459.657299
391.897761,-148.041188,-8956.491898,536.266849
391.898089,-296.082377,-8808.450710,459.657299
391.898417,0.000000,-9326.594869,229.828649
391.898745,0.000000,-9104.533087,76.609550
391.899072,-222.061783,-9030.512492,459.657299
391.899400,-222.061783,-9104.533087,383.047749
391.899728,-148.041188,-9178.553681,536.266849
391.900056,-296.082377,-9104.533087,459.657299
391.900383,74.020594,-9104.533087,919.314598
391.900711,-444.123565,-8956.491898,536.266849
391.901039,-222.061783,-9252.574275,459.657299
391.901367,-444.123565,-9178.553681,383.047749
391.901694,-222.061783,-9326.594869,612.876398
391.902022,0.000000,-9252.574275,766.095498
391.902350,-444.123565,-8808.450710,459.657299
391.902678,-296.082377,-9030.512492,612.876398
391.903005,-296.082377,-9030.512492,689.485948
391.903333,-296.082377,-9030.512492,459.657299
391.903661,-296.082377,-8956.491898,612.876398
391.903988,-370.102971,-9030.512492,1149.143247
391.904316,-444.123565,-9178.553681,766.095498
391.904644,-518.144159,-9178.553681,612.876398
391.904972,-296.082377,-9104.533087,383.047749
391.905299,-148.041188,-9252.574275,766.095498
391.905627,0.000000,-8808.450710,306.438199
391.905955,-296.082377,-8956.491898,536.266849
391.906283,-370.102971,-9252.574275,536.266849
391.906610,-370.102971,-9178.553681,612.876398
391.906938,-370.102971,-9030.512492,536.266849
391.907266,-222.061783,-8882.471304,766.095498
391.907594,-518.144159,-9030.512492,536.266849
391.907921,-962.267725,-9178.553681,306.438199
391.908249,-1184.329507,-9400.615463,0.000000
391.908577,-1480.411884,-9326.594869,-306.438199
391.908905,-1184.329507,-9030.512492,-306.438199
391.909232,-1036.288319,-8956.491898,-689.485948
391.909560,-666.185348,-9030.512492,-536.266849
391.909888,-666.185348,-9178.553681,-536.266849
391.910216,-888.247130,-9252.574275,-919.314598
391.910543,-1110.308913,-9326.594869,-1608.800546
391.910871,-888.247130,-9178.553681,-1149.143247
391.911199,-814.226536,-8956.491898,-1302.362347
391.911527,-666.185348,-9400.615463,-1378.971896
391.911854,-370.102971,-9326.594869,-1378.971896
391.912182,-222.061783,-9326.594869,-1378.971896
391.912510,-222.061783,-8956.491898,-383.047749
391.912838,0.000000,-9326.594869,-1378.971896
391.913165,74.020594,-9252.574275,-1532.190996
391.913493,148.041188,-9474.636058,-1378.971896
391.913821,74.020594,-9178.553681,-1685.410096
391.914148,148.041188,-8956.491898,-1838.629195
391.914476,370.102971,-9326.594869,-1685.410096
391.914804,222.061783,-9252.574275,-1991.848295
391.915132,444.123565,-9400.615463,-1915.238745
391.915459,222.061783,-9474.636058,-1685.410096
391.915787,74.020594,-9178.553681,-1915.238745
391.916115,74.020594,-8882.471304,-1762.019645
391.916443,148.041188,-9104.533087,-1762.019645
391.916770,222.061783,-9104.533087,-1915.238745
391.917098,0.000000,-9104.533087,-1608.800546
391.917426,-148.041188,-9104.533087,-1991.848295
391.917754,-370.102971,-8512.368333,-1608.800546
391.918081,-962.267725,-9030.512492,-1838.629195
391.918409,-1110.308913,-9104.533087,-1915.238745
391.918737,-1184.329507,-8956.491898,-2068.457845
391.919065,-1258.350101,-9030.512492,-2374.896044
391.919392,-1628.453072,-9030.512492,-2221.676944
391.919720,-1850.514855,-9030.512492,-2911.162892
391.920048,-2072.576638,-8956.491898,-3140.991542
391.920376,-1924.535449,-9030.512492,-3294.210641
391.920703,-1850.514855,-9104.533087,-3370.820191
391.921031,-2146.597232,-9030.512492,-3217.601092
391.921359,-1554.432478,-9030.512492,-3830.477490
391.921687,-1406.391290,-8882.471304,-3753.867940
391.922014,-1258.350101,-8882.471304,-3753.867940
391.922342,-814.226536,-9030.512492,-3447.429741
391.922670,-148.041188,-8660.409521,-3064.381992
391.922998,740.205942,-8808.450710,-2911.162892
391.923325,1036.288319,-8882.471304,-2757.943793
391.923653,1776.494261,-8956.491898,-2298.286494
391.923981,2220.617826,-8882.471304,-1685.410096
391.924308,2442.679609,-8882.471304,-1378.971896
391.924636,2294.638420,-9474.636058,-1532.190996
391.924964,1258.350101,-9696.697840,-1685.410096
391.925292,148.041188,-10510.924376,-2145.067394
391.925619,-666.185348,-10510.924376,-2681.334243
391.925947,-1480.411884,-10362.883188,-3600.648841
391.926275,-2368.659014,-9844.739029,-3677.258390
391.926603,-1554.432478,-9326.594869,-4213.525239
391.926930,-740.205942,-8586.388927,-3907.087040
391.927258,814.226536,-7624.121203,-3524.039291
391.927586,2220.617826,-7105.977043,-2757.943793
391.927914,2886.803174,-7105.977043,-1762.019645
391.928241,2738.761985,-7179.997637,-1302.362347
391.928569,1776.494261,-8364.327145,-842.705048
391.928897,444.123565,-9474.636058,-612.876398
391.929225,-1480.411884,-10584.944971,-842.705048
391.929552,-2738.761985,-10584.944971,0.000000
391.929880,-3478.967927,-10807.006753,-1302.362347
391.930208,-3108.864956,-10436.903782,-1378.971896
391.930536,-2072.576638,-9252.574275,-1532.190996
391.930863,74.020594,-7994.224174,-1225.752797
391.931191,1850.514855,-7105.977043,-459.657299
391.931519,3108.864956,-6513.812290,0.000000
391.931847,3256.906145,-7105.977043,-383.047749
391.932174,2368.659014,-7846.182985,153.219100
391.932502,222.061783,-9178.553681,-306.438199
391.932830,-1998.556043,-10510.924376,-383.047749
391.933158,-4145.153275,-11177.109724,-306.438199
391.933485,-4737.318029,-11769.274478,-766.095498
391.933813,-4663.297435,-11177.109724,-766.095498
391.934141,-2590.720797,-9696.697840,0.000000
391.934468,74.020594,-8512.368333,842.705048
391.934796,2368.659014,-7179.997637,1838.629195
391.935124,3478.967927,-6439.791695,1762.019645
391.935452,3404.947333,-7105.977043,2145.067394
391.935779,1406.391290,-8068.244768,1378.971896
391.936107,-1332.370696,-8808.450710,459.657299
391.936435,-3256.906145,-9918.759623,0.000000
391.936763,-4145.153275,-10140.821405,-306.438199
391.937090,-3627.009116,-10066.800811,-383.047749
391.937418,-1184.329507,-9252.574275,153.219100
391.937746,1258.350101,-8734.430116,919.314598
391.938074,2960.823768,-7994.224174,1608.800546
391.938401,3997.112087,-8290.306550,1915.238745
391.938729,2220.617826,-9252.574275,1378.971896
391.939057,-740.205942,-9770.718434,459.657299
391.939385,-3182.885551,-10807.006753,0.000000
391.939712,-5033.400406,-10881.027347,-919.314598
391.940040,-5181.441594,-10140.821405,-842.705048
391.940368,-3182.885551,-9252.574275,-766.095498
391.940696,-370.102971,-8068.244768,0.000000
391.941023,2812.782580,-7105.977043,1378.971896
391.941351,4589.276840,-6513.812290,1838.629195
391.941679,4811.338623,-6587.832884,2374.896044
391.942007,3034.844362,-8290.306550,1532.190996
391.942334,740.205942,-9474.636058,842.705048
391.942662,-1554.432478,-10214.842000,689.485948
391.942990,-2294.638420,-10362.883188,766.095498
391.943318,-1850.514855,-10362.883188,995.924147
391.943645,-888.247130,-9252.574275,1991.848295
391.943973,1332.370696,-9030.512492,2068.457845
391.944301,1998.556043,-8364.327145,2221.676944
391.944628,2368.659014,-8142.265362,1532.190996
391.944956,1776.494261,-8660.409521,1225.752797
391.945284,74.020594,-8512.368333,383.047749
391.945612,-1406.391290,-9770.718434,459.657299
391.945939,-2590.720797,-10066.800811,0.000000
391.946267,-3775.050304,-9770.718434,-306.438199
391.946595,-3552.988522,-9030.512492,0.000000
391.946923,-2072.576638,-9178.553681,306.438199
391.947250,-1554.432478,-8142.265362,306.438199
391.947578,-592.164754,-7920.203579,459.657299
391.947906,666.185348,-8290.306550,766.095498
391.948234,370.102971,-8290.306550,612.876398
391.948561,0.000000,-8660.409521,1302.362347
391.948889,-666.185348,-9400.615463,229.828649
391.949217,-2442.679609,-9770.718434,-306.438199
391.949545,-2738.761985,-9622.677246,-306.438199
391.949872,-2960.823768,-9030.512492,-995.924147
391.950200,-1850.514855,-8660.409521,-612.876398
391.950528,444.123565,-8586.388927,0.000000
391.950856,1776.494261,-8438.347739,0.000000
391.951183,2886.803174,-8660.409521,306.438199
391.951511,4219.173869,-9030.512492,612.876398
391.951839,2812.782580,-9992.780217,536.266849
391.952167,296.082377,-10436.903782,0.000000
391.952494,-666.185348,-10807.006753,-229.828649
391.952822,-1406.391290,-11177.109724,-766.095498
391.953150,-1480.411884,-10436.903782,-766.095498
391.953478,0.000000,-9770.718434,0.000000
391.953805,2442.679609,-8882.471304,919.314598
391.954133,3701.029710,-8586.388927,2298.286494
391.954461,3627.009116,-8068.244768,2221.676944
391.954788,3330.926739,-8438.347739,1762.019645
391.955116,962.267725,-9030.512492,1072.533697
391.955444,-1036.288319,-9992.780217,383.047749
391.955772,-2664.741391,-9474.636058,-536.266849
391.956099,-3404.947333,-9326.594869,-383.047749
391.956427,-2738.761985,-9104.533087,229.828649
391.956755,-1184.329507,-8142.265362,612.876398
391.957083,518.144159,-8068.244768,1915.238745
391.957410,592.164754,-8216.285956,2221.676944
391.957738,518.144159,-8586.388927,1532.190996
391.958066,-444.123565,-9252.574275,995.924147
391.958393,-2516.700203,-9548.656652,306.438199
391.958721,-4219.173869,-10066.800811,-153.219100
391.959049,-4293.194464,-9622.677246,229.828649
391.959377,-4145.153275,-9252.574275,0.000000
391.959704,-2294.638420,-8808.450710,536.266849
391.960032,-148.041188,-7994.224174,1149.143247
391.960360,1184.329507,-7994.224174,1685.410096
391.960688,1924.535449,-7550.100608,1991.848295
391.961015,1924.535449,-7994.224174,1838.629195
391.961343,1110.308913,-9252.574275,1378.971896
391.961671,0.000000,-9178.553681,1378.971896
391.961998,-1332.370696,-9992.780217,766.095498
391.962326,-2664.741391,-10510.924376,459.657299
391.962654,-2368.659014,-9400.615463,383.047749
391.962982,-1702.473667,-9474.636058,229.828649
391.963309,0.000000,-8660.409521,229.828649
391.963637,962.267725,-8734.430116,1072.533697
391.963965,2072.576638,-7698.141797,306.438199
391.964293,2590.720797,-8586.388927,689.485948
391.964620,1776.494261,-8660.409521,459.657299
391.964948,0.000000,-9474.636058,0.000000
391.965276,-1998.556043,-10140.821405,-536.266849
391.965603,-3182.885551,-10362.883188,-1302.362347
391.965931,-2516.700203,-10510.924376,-995.924147
391.966259,-2294.638420,-9326.594869,-383.047749
391.966587,370.102971,-8364.327145,0.000000
391.966914,2664.741391,-7846.182985,995.924147
391.967242,3849.070898,-7920.203579,1532.190996
391.967570,3034.844362,-7179.997637,1455.581446
391.967898,2368.659014,-8068.244768,1149.143247
391.968225,370.102971,-9400.615463,766.095498
391.968553,-1776.494261,-9918.759623,0.000000
391.968881,-2738.761985,-9474.636058,-536.266849
391.969208,-2368.659014,-9770.718434,0.000000
391.969536,-740.205942,-9548.656652,766.095498
391.969864,1110.308913,-8808.450710,1225.752797
391.970192,2072.576638,-7920.203579,1225.752797
391.970519,2664.741391,-8808.450710,1608.800546
391.970847,1998.556043,-9030.512492,1225.752797
391.971175,0.000000,-9178.553681,919.314598
391.971503,-1850.514855,-10140.821405,153.219100
391.971830,-2812.782580,-10288.862594,0.000000
391.972158,-3701.029710,-9992.780217,0.000000
391.972486,-2812.782580,-9400.615463,459.657299
391.972813,-1480.411884,-8586.388927,1532.190996
391.973141,296.082377,-8290.306550,1608.800546
391.973469,888.247130,-8068.244768,1685.410096
391.973797,1036.288319,-8290.306550,1608.800546
391.974124,962.267725,-8660.409521,1378.971896
391.974452,-370.102971,-8512.368333,689.485948
391.974780,-1554.432478,-9326.594869,612.876398
391.975107,-2516.700203,-9696.697840,383.047749
391.975435,-3256.906145,-9696.697840,229.828649
391.975763,-3108.864956,-9474.636058,76.609550
391.976091,-1850.514855,-8734.430116,-153.219100
391.976418,0.000000,-8660.409521,76.609550
391.976746,1036.288319,-8586.388927,766.095498
391.977074,1924.535449,-8586.388927,919.314598
391.977402,1480.411884,-9030.512492,919.314598
391.977729,74.020594,-9918.759623,306.438199
391.978057,-962.267725,-10510.924376,383.047749
391.978385,-2590.720797,-10214.842000,-842.705048
391.978712,-3108.864956,-10066.800811,-459.657299
391.979040,-1850.514855,-9696.697840,-229.828649
391.979368,74.020594,-8660.409521,153.219100
391.979696,2442.679609,-7994.224174,689.485948
391.980023,4589.276840,-8068.244768,1915.238745
391.980351,4367.215058,-7994.224174,1915.238745
391.980679,3034.844362,-8734.430116,1838.629195
391.981007,1332.370696,-9104.533087,1149.143247
391.981334,-1036.288319,-9474.636058,766.095498
391.981662,-1776.494261,-10066.800811,153.219100
391.981990,-2738.761985,-9770.718434,76.609550
391.982317,-1406.391290,-9622.677246,536.266849
391.982645,74.020594,-9252.574275,995.924147
391.982973,1924.535449,-8364.327145,1072.533697
391.983301,1998.556043,-8586.388927,1608.800546
391.983628,1702.473667,-8808.450710,1072.533697
391.983956,0.000000,-9178.553681,842.705048
391.984284,-1850.514855,-9474.636058,0.000000
391.984612,-3627.009116,-9548.656652,-306.438199
391.984939,-4589.276840,-9326.594869,-229.828649
391.985267,-3849.070898,-9400.615463,-153.219100
391.985595,-2738.761985,-8734.430116,153.219100
391.985922,-962.267725,-8364.327145,842.705048
391.986250,814.226536,-8290.306550,1302.362347
391.986578,1480.411884,-7920.203579,1608.800546
391.986906,1776.494261,-8068.244768,995.924147
391.987233,666.185348,-8808.450710,1149.143247
391.987561,-370.102971,-9400.615463,766.095498
391.987889,-2220.617826,-9474.636058,612.876398
391.988216,-2738.761985,-9474.636058,0.000000
391.988544,-2294.638420,-9548.656652,306.438199
391.988872,-1406.391290,-9474.636058,76.609550
391.989200,0.000000,-9178.553681,0.000000
391.989527,1554.432478,-8882.471304,76.609550
391.989855,2368.659014,-8364.327145,306.438199
391.990183,2812.782580,-8364.327145,995.924147
391.990511,1628.453072,-9178.553681,612.876398
391.990838,0.000000,-9844.739029,0.000000
391.991166,-1924.535449,-10362.883188,-383.047749
391.991494,-3330.926739,-10510.924376,-995.924147
391.991821,-2960.823768,-10066.800811,383.047749
391.992149,-1258.350101,-9474.636058,-459.657299
391.992477,1110.308913,-8586.388927,229.828649
391.992805,2812.782580,-7698.141797,766.095498
391.993132,4071.132681,-7920.203579,1455.581446
391.993460,3997.112087,-7994.224174,1991.848295
391.993788,2146.597232,-8068.244768,1225.752797
391.994116,-370.102971,-9400.615463,459.657299
391.994443,-1850.514855,-9770.718434,153.219100
391.994771,-2812.782580,-9918.759623,-306.438199
391.995099,-1850.514855,-9474.636058,383.047749
391.995426,0.000000,-8734.430116,1072.533697
391.995754,1406.391290,-8808.450710,1455.581446
391.996082,2220.617826,-8808.450710,1762.019645
391.996410,1628.453072,-8660.409521,1455.581446
391.996737,814.226536,-9178.553681,1225.752797
391.997065,-592.164754,-9770.718434,1378.971896
391.997393,-3256.906145,-9770.718434,-153.219100
391.997721,-4219.173869,-10066.800811,-383.047749
391.998048,-3627.009116,-10140.821405,0.000000
391.998376,-3034.844362,-9474.636058,76.609550
391.998704,-1406.391290,-8364.327145,842.705048
391.999031,0.000000,-8142.265362,766.095498
391.999359,1036.288319,-7994.224174,1225.752797
391.999687,592.164754,-7920.203579,919.314598
392.000015,740.205942,-8068.244768,1149.143247
392.000342,-296.082377,-8956.491898,1685.410096
392.000670,-1480.411884,-9104.533087,612.876398
392.000998,-2664.741391,-9474.636058,306.438199
392.001326,-2516.700203,-9770.718434,306.438199
392.001653,-2220.617826,-9474.636058,459.657299
392.001981,-444.123565,-8882.471304,919.314598
392.002309,1036.288319,-8882.471304,1302.362347
392.002636,1776.494261,-8586.388927,1302.362347
392.002964,1998.556043,-9178.553681,1225.752797
392.003292,1924.535449,-8956.491898,919.314598
392.003620,296.082377,-9622.677246,766.095498
392.003947,-1554.432478,-10436.903782,0.000000
392.004275,-2738.761985,-10362.883188,-612.876398
392.004603,-3182.885551,-10140.821405,-919.314598
392.004930,-2368.659014,-9844.739029,-689.485948
392.005258,-148.041188,-8734.430116,-153.219100
392.005586,1258.350101,-7328.038826,689.485948
392.005914,3330.926739,-7624.121203,1532.190996
392.006241,3330.926739,-8364.327145,1532.190996
392.006569,2368.659014,-8142.265362,1149.143247
392.006897,518.144159,-9178.553681,536.266849
392.007225,-1554.432478,-9326.594869,842.705048
392.007552,-2368.659014,-9474.636058,0.000000
392.007880,-2738.761985,-9844.739029,153.219100
392.008208,-1406.391290,-9252.574275,383.047749
392.008535,740.205942,-8882.471304,612.876398
392.008863,2368.659014,-8068.244768,1072.533697
392.009191,2442.679609,-8068.244768,1302.362347
392.009519,2368.659014,-8586.388927,1225.752797
392.009846,1110.308913,-9178.553681,536.266849
392.010174,-1184.329507,-9474.636058,0.000000
392.010502,-3034.844362,-10214.842000,-383.047749
392.010830,-3404.947333,-9844.739029,-306.438199
392.011157,-2960.823768,-9918.759623,-153.219100
392.011485,-1776.494261,-9030.512492,153.219100
392.011813,-148.041188,-8586.388927,459.657299
392.012140,1184.329507,-8216.285956,1149.143247
392.012468,1924.535449,-7476.080014,1532.190996
392.012796,1480.411884,-8142.265362,1455.581446
392.013124,148.041188,-8142.265362,1225.752797
392.013451,-1258.350101,-9474.636058,766.095498
392.013779,-2442.679609,-9400.615463,76.609550
392.014107,-3478.967927,-9104.533087,-306.438199
392.014435,-2368.659014,-9474.636058,153.219100
392.014762,-1332.370696,-9104.533087,0.000000
392.015090,444.123565,-8290.306550,612.876398
392.015418,1554.432478,-8512.368333,842.705048
392.015745,2294.638420,-8364.327145,1149.143247
392.016073,2294.638420,-8512.368333,919.314598
392.016401,1110.308913,-8882.471304,842.705048
392.016729,-666.185348,-10436.903782,229.828649
392.017056,-2368.659014,-10510.924376,-229.828649
392.017384,-3108.864956,-10436.903782,-383.047749
392.017712,-2146.597232,-10066.800811,76.609550
392.018039,-592.164754,-9474.636058,76.609550
392.018367,962.267725,-8734.430116,842.705048
392.018695,3034.844362,-8734.430116,1685.410096
392.019023,3256.906145,-8216.285956,1608.800546
392.019350,2442.679609,-8216.285956,1762.019645
392.019678,1036.288319,-8882.471304,459.657299
392.020006,-1110.308913,-9696.697840,459.657299
392.020334,-2664.741391,-9622.677246,0.000000
392.020661,-3108.864956,-9844.739029,-306.438199
392.020989,-2960.823768,-9474.636058,76.609550
392.021317,-1258.350101,-8956.491898,0.000000
392.021644,592.164754,-8586.388927,919.314598
392.021972,1628.453072,-8364.327145,995.924147
392.022300,1850.514855,-8216.285956,766.095498
392.022628,1258.350101,-8956.491898,689.485948
392.022955,-296.082377,-9178.553681,536.266849
392.023283,-2072.576638,-9992.780217,0.000000
392.023611,-2664.741391,-10214.842000,0.000000
392.023939,-2664.741391,-9622.677246,153.219100
392.024266,-1850.514855,-9252.574275,306.438199
392.024594,0.000000,-9030.512492,919.314598
392.024922,1184.329507,-8438.347739,1532.190996
392.025249,2146.597232,-8290.306550,1685.410096
392.025577,2146.597232,-8364.327145,1762.019645
392.025905,1110.308913,-8660.409521,1225.752797
392.026233,74.020594,-9252.574275,919.314598
392.026560,-1184.329507,-9770.718434,766.095498
392.026888,-2886.803174,-9548.656652,76.609550
392.027216,-2738.761985,-9326.594869,0.000000
392.027544,-1850.514855,-9178.553681,306.438199
392.027871,-518.144159,-8512.368333,153.219100
392.028199,888.247130,-8364.327145,459.657299
392.028527,1924.535449,-8290.306550,459.657299
392.028854,1850.514855,-8512.368333,536.266849
392.029182,888.247130,-9030.512492,459.657299
392.029510,-888.247130,-9696.697840,-153.219100
392.029838,-2294.638420,-10288.862594,0.000000
392.030165,-3478.967927,-10288.862594,-919.314598
392.030493,-3478.967927,-9992.780217,-536.266849
392.030821,-1850.514855,-9474.636058,-306.438199
392.031149,0.000000,-8882.471304,0.000000
392.031476,2072.576638,-8216.285956,919.314598
392.031804,3627.009116,-8068.244768,919.314598
392.032132,3404.947333,-8068.244768,995.924147
392.032459,2294.638420,-8660.409521,919.314598
392.032787,518.144159,-9326.594869,383.047749
392.033115,-1480.411884,-9770.718434,689.485948
392.033443,-2368.659014,-10066.800811,-153.219100
392.033770,-2220.617826,-10066.800811,-153.219100
392.034098,-1332.370696,-9548.656652,0.000000
392.034426,888.247130,-9326.594869,459.657299
392.034753,2368.659014,-8882.471304,919.314598
392.035081,3034.844362,-8290.306550,1149.143247
392.035409,2442.679609,-8808.450710,1072.533697
392.035737,814.226536,-9400.615463,766.095498
392.036064,-1110.308913,-9844.739029,0.000000
392.036392,-2664.741391,-9992.780217,76.609550
392.036720,-3775.050304,-10066.800811,-383.047749
392.037048,-2368.659014,-9548.656652,383.047749
392.037375,-1110.308913,-8586.388927,766.095498
392.037703,370.102971,-8438.347739,1455.581446
392.038031,1850.514855,-7994.224174,2298.286494
392.038358,1776.494261,-7550.100608,1762.019645
392.038686,1184.329507,-8512.368333,1762.019645
392.039014,0.000000,-9252.574275,1455.581446
392.039342,-2294.638420,-9030.512492,612.876398
392.039669,-3330.926739,-9474.636058,536.266849
392.039997,-3404.947333,-9844.739029,995.924147
392.040325,-3404.947333,-8438.347739,0.000000
392.040653,-1258.350101,-8734.430116,1149.143247
392.040980,74.020594,-8586.388927,1225.752797
392.041308,518.144159,-8068.244768,766.095498
392.041636,1998.556043,-8586.388927,1838.629195
392.041963,1332.370696,-8512.368333,1225.752797
392.042291,-814.226536,-9104.533087,612.876398
392.042619,-1850.514855,-10214.842000,306.438199
392.042947,-2886.803174,-10510.924376,0.000000
392.043274,-3627.009116,-9548.656652,-383.047749
392.043602,-1850.514855,-9030.512492,383.047749
392.043930,0.000000,-8586.388927,459.657299
392.044258,1406.391290,-8068.244768,1149.143247
392.044585,2664.741391,-7846.182985,1455.581446
392.044913,3182.885551,-7994.224174,1608.800546
392.045241,2960.823768,-7920.203579,1455.581446
392.045568,1258.350101,-9400.615463,1532.190996
392.045896,-962.267725,-9622.677246,306.438199
392.046224,-2146.597232,-10288.862594,-383.047749
392.046552,-2146.597232,-10584.944971,0.000000
392.046879,-1924.535449,-9918.759623,536.266849
392.047207,222.061783,-9104.533087,0.000000
392.047535,1628.453072,-8882.471304,612.876398
392.047863,2590.720797,-8734.430116,842.705048
392.048190,2368.659014,-8512.368333,689.485948
392.048518,1776.494261,-8660.409521,689.485948
392.048846,-296.082377,-9474.636058,0.000000
392.049173,-2368.659014,-10140.821405,-536.266849
392.049501,-3034.844362,-9992.780217,-1072.533697
392.049829,-3552.988522,-9918.759623,-1072.533697
392.050157,-1924.535449,-9474.636058,-153.219100
392.050484,-296.082377,-8808.450710,153.219100
392.050812,814.226536,-8068.244768,459.657299
392.051140,2442.679609,-8290.306550,1302.362347
392.051467,2442.679609,-8290.306550,1532.190996
392.051795,1110.308913,-8364.327145,1072.533697
392.052123,-518.144159,-9400.615463,1149.143247
392.052451,-2072.576638,-9400.615463,612.876398
392.052778,-3034.844362,-9992.780217,0.000000
392.053106,-2886.803174,-9474.636058,0.000000
392.053434,-1628.453072,-9252.574275,306.438199
392.053762,74.020594,-8290.306550,689.485948
392.054089,1776.494261,-7920.203579,1302.362347
392.054417,1924.535449,-8068.244768,1072.533697
392.054745,1998.556043,-8364.327145,1302.362347
392.055072,814.226536,-8956.491898,919.314598
392.055400,-962.267725,-9696.697840,689.485948
392.055728,-3404.947333,-9844.739029,153.219100
392.056056,-3182.885551,-10214.842000,-229.828649
392.056383,-2812.782580,-9622.677246,153.219100
392.056711,-1850.514855,-8808.450710,383.047749
392.057039,370.102971,-8438.347739,1149.143247
392.057366,2738.761985,-7698.141797,1991.848295
392.057694,3034.844362,-7624.121203,2145.067394
392.058022,2368.659014,-7772.162391,1685.410096
392.058349,962.267725,-8660.409521,1685.410096
392.058677,-1110.308913,-9696.697840,842.705048
392.059004,-3256.906145,-9770.718434,383.047749
392.059332,-3182.885551,-9474.636058,-536.266849
392.059660,-2960.823768,-9622.677246,-229.828649
392.059987,-1332.370696,-9104.533087,153.219100
392.060315,370.102971,-8660.409521,383.047749
392.060642,1850.514855,-7994.224174,689.485948
392.060970,2812.782580,-8068.244768,919.314598
392.061298,1850.514855,-9030.512492,766.095498
392.061625,-148.041188,-9326.594869,76.609550
392.061953,-1850.514855,-10140.821405,-229.828649
392.062280,-2886.803174,-10214.842000,-306.438199
392.062608,-3034.844362,-9992.780217,-306.438199
392.062936,-2368.659014,-9474.636058,-229.828649
392.063263,-518.144159,-9326.594869,536.266849
392.063591,1036.288319,-8808.450710,842.705048
392.063918,2442.679609,-8364.327145,1225.752797
392.064246,3182.885551,-8216.285956,1455.581446
392.064574,2664.741391,-8956.491898,1685.410096
392.064901,1184.329507,-9474.636058,919.314598
392.065229,-592.164754,-9770.718434,536.266849
392.065556,-1924.535449,-10436.903782,229.828649
392.065884,-1998.556043,-10288.862594,153.219100
392.066212,-1628.453072,-9252.574275,229.828649
392.066539,74.020594,-9474.636058,383.047749
392.066867,814.226536,-9178.553681,689.485948
392.067194,2072.576638,-8512.368333,995.924147
392.067522,2442.679609,-8734.430116,1149.143247
392.067850,1036.288319,-8660.409521,1149.143247
392.068177,-518.144159,-9548.656652,689.485948
392.068505,-2368.659014,-10140.821405,0.000000
392.068833,-3627.009116,-10362.883188,-612.876398
392.069160,-3182.885551,-10066.800811,0.000000
392.069488,-2590.720797,-8512.368333,383.047749
392.069815,-444.123565,-8882.471304,229.828649
392.070143,1406.391290,-7994.224174,1378.971896
392.070471,2146.597232,-7624.121203,1378.971896
392.070798,2368.659014,-7772.162391,1685.410096
392.071126,1702.473667,-8734.430116,1991.848295
392.071453,-740.205942,-9178.553681,459.657299
392.071781,-2146.597232,-9770.718434,229.828649
392.072109,-2960.823768,-9918.759623,0.000000
392.072436,-3256.906145,-9474.636058,-459.657299
392.072764,-1554.432478,-9252.574275,0.000000
392.073091,148.041188,-8364.327145,536.266849
392.073419,1332.370696,-8660.409521,1225.752797
392.073747,2072.576638,-8290.306550,1225.752797
392.074074,2146.597232,-8586.388927,1072.533697
392.074402,1110.308913,-8882.471304,842.705048
392.074729,-814.226536,-9696.697840,459.657299
392.075057,-2294.638420,-9844.739029,0.000000
392.075385,-2738.761985,-9696.697840,-306.438199
392.075712,-2294.638420,-9400.615463,306.438199
392.076040,-1332.370696,-8882.471304,459.657299
392.076367,370.102971,-8068.244768,919.314598
392.076695,1702.473667,-7772.162391,1455.581446
392.077023,2442.679609,-8438.347739,1915.238745
392.077350,1628.453072,-7846.182985,1608.800546
392.077678,888.247130,-8364.327145,1302.362347
392.078006,-740.205942,-8882.471304,919.314598
392.078333,-2220.617826,-9474.636058,536.266849
392.078661,-2738.761985,-9622.677246,76.609550
392.078988,-2516.700203,-9252.574275,0.000000
392.079316,-1406.391290,-9030.512492,383.047749
392.079644,222.061783,-8734.430116,612.876398
392.079971,1258.350101,-8290.306550,689.485948
392.080299,1924.535449,-8438.347739,1149.143247
392.080626,1628.453072,-8586.388927,919.314598
392.080954,74.020594,-9178.553681,612.876398
392.081282,-1702.473667,-9918.759623,0.000000
392.081609,-2664.741391,-9992.780217,-306.438199
392.081937,-3034.844362,-9918.759623,-229.828649
392.082264,-2442.679609,-9474.636058,-229.828649
392.082592,-814.226536,-9252.574275,229.828649
392.082920,1184.329507,-8586.388927,995.924147
392.083247,2368.659014,-7846.182985,1991.848295
392.083575,3627.009116,-8364.327145,1532.190996
392.083902,2442.679609,-8808.450710,1455.581446
392.084230,888.247130,-9474.636058,766.095498
392.084558,-814.226536,-10362.883188,536.266849
392.084885,-2664.741391,-10510.924376,229.828649
392.085213,-2590.720797,-10732.986159,383.047749
392.085540,-2516.700203,-10140.821405,0.000000
392.085868,-1036.288319,-9622.677246,0.000000
392.086196,888.247130,-9252.574275,153.219100
392.086523,1924.535449,-8956.491898,536.266849
392.086851,2812.782580,-8660.409521,842.705048
392.087178,1406.391290,-9178.553681,306.438199
392.087506,0.000000,-9918.759623,0.000000
392.087834,-1924.535449,-10140.821405,-536.266849
392.088161,-3108.864956,-9992.780217,-919.314598
392.088489,-2960.823768,-9992.780217,-383.047749
392.088817,-2368.659014,-9474.636058,0.000000
392.089144,-592.164754,-8586.388927,536.266849
392.089472,1554.432478,-7994.224174,1225.752797
392.089799,2590.720797,-7772.162391,1378.971896
392.090127,2812.782580,-7772.162391,1915.238745
392.090455,1998.556043,-8068.244768,1532.190996
392.090782,296.082377,-8882.471304,1225.752797
392.091110,-1480.411884,-9622.677246,842.705048
392.091437,-2590.720797,-9622.677246,306.438199
392.091765,-2738.761985,-9696.697840,153.219100
392.092093,-1702.473667,-9326.594869,1072.533697
392.092420,0.000000,-8808.450710,919.314598
392.092748,1628.453072,-9030.512492,1455.581446
392.093075,1998.556043,-8438.347739,1608.800546
392.093403,2072.576638,-8586.388927,1838.629195
392.093731,888.247130,-9104.533087,1225.752797
392.094058,-1332.370696,-9400.615463,766.095498
392.094386,-2812.782580,-9844.739029,459.657299
392.094713,-3627.009116,-9548.656652,0.000000
392.095041,-3404.947333,-9104.533087,0.000000
392.095369,-1406.391290,-8438.347739,1225.752797
392.095696,-148.041188,-7550.100608,919.314598
392.096024,1480.411884,-7105.977043,1378.971896
392.096351,2664.741391,-7772.162391,1915.238745
392.096679,1776.494261,-7994.224174,1608.800546
392.097007,740.205942,-8364.327145,1838.629195
392.097334,-592.164754,-9104.533087,1225.752797
392.097662,-2886.803174,-9474.636058,306.438199
392.097990,-3552.988522,-9770.718434,76.609550
392.098317,-2886.803174,-9548.656652,76.609550
392.098645,-1628.453072,-8734.430116,459.657299
392.098972,-222.061783,-8364.327145,383.047749
392.099300,1406.391290,-8512.368333,229.828649
392.099628,1998.556043,-8586.388927,459.657299
392.099955,1628.453072,-8364.327145,76.609550
392.100283,740.205942,-9178.553681,229.828649
392.100610,-444.123565,-9474.636058,-306.438199
392.100938,-2516.700203,-9992.780217,-919.314598
392.101266,-2960.823768,-10362.883188,-536.266849
392.101593,-2442.679609,-9770.718434,-459.657299
392.101921,-1406.391290,-9326.594869,-306.438199
392.102248,740.205942,-8512.368333,766.095498
392.102576,2368.659014,-8068.244768,459.657299
392.102904,3330.926739,-8068.244768,1072.533697
392.103231,3775.050304,-8290.306550,1455.581446
392.103559,1998.556043,-8438.347739,1149.143247
392.103886,148.041188,-9178.553681,0.000000
392.104214,-1258.350101,-9844.739029,0.000000
392.104542,-2368.659014,-10436.903782,-383.047749
392.104869,-1998.556043,-10288.862594,0.000000
392.105197,-740.205942,-9474.636058,0.000000
392.105524,814.226536,-9622.677246,612.876398
392.105852,2368.659014,-8808.450710,1532.190996
392.106180,2442.679609,-8734.430116,919.314598
392.106507,2294.638420,-9252.574275,1149.143247
392.106835,370.102971,-9844.739029,612.876398
392.107163,-2368.659014,-10436.903782,0.000000
392.107490,-3849.070898,-10066.800811,-383.047749
392.107818,-4071.132681,-10288.862594,-766.095498
392.108145,-3330.926739,-9622.677246,-306.438199
392.108473,-1184.329507,-8586.388927,229.828649
392.108801,1258.350101,-8068.244768,1378.971896
392.109128,2368.659014,-7179.997637,2757.943793
392.109456,2664.741391,-7402.059420,2604.724693
392.109783,1258.350101,-8438.347739,1838.629195
392.110111,-666.185348,-8956.491898,1225.752797
392.110439,-2294.638420,-9844.739029,459.657299
392.110766,-3701.029710,-9844.739029,383.047749
392.111094,-3849.070898,-9696.697840,536.266849
392.111421,-2516.700203,-10066.800811,459.657299
392.111749,-148.041188,-9474.636058,689.485948
392.112077,1036.288319,-8438.347739,1072.533697
392.112404,2072.576638,-8364.327145,1302.362347
392.112732,1998.556043,-9104.533087,1532.190996
392.113059,740.205942,-8956.491898,612.876398
392.113387,-814.226536,-9622.677246,0.000000
392.113715,-2146.597232,-10066.800811,-153.219100
392.114042,-2960.823768,-9992.780217,-306.438199
392.114370,-2516.700203,-9770.718434,383.047749
392.114697,-1776.494261,-9474.636058,306.438199
392.115025,-444.123565,-8660.409521,383.047749
392.115353,1480.411884,-8216.285956,1225.752797
392.115680,2516.700203,-7772.162391,1225.752797
392.116008,2442.679609,-7179.997637,1685.410096
392.116335,1850.514855,-8142.265362,1302.362347
392.116663,592.164754,-9252.574275,612.876398
392.116991,-1332.370696,-9696.697840,153.219100
392.117318,-2368.659014,-9844.739029,0.000000
392.117646,-2072.576638,-9400.615463,-229.828649
392.117974,-1406.391290,-9252.574275,0.000000
392.118301,444.123565,-8956.491898,306.438199
392.118629,1628.453072,-8512.368333,689.485948
392.118956,2664.741391,-8586.388927,919.314598
392.119284,2516.700203,-9030.512492,1072.533697
392.119612,1184.329507,-9548.656652,536.266849
392.119939,-1110.308913,-10214.842000,306.438199
392.120267,-2442.679609,-10510.924376,0.000000
392.120594,-3108.864956,-10214.842000,-306.438199
392.120922,-2590.720797,-9548.656652,0.000000
392.121250,-1036.288319,-8956.491898,1302.362347
392.121577,962.267725,-7994.224174,766.095498
392.121905,2516.700203,-7624.121203,2145.067394
392.122232,2738.761985,-8142.265362,2068.457845
392.122560,1702.473667,-8068.244768,1838.629195
392.122888,370.102971,-8882.471304,1532.190996
392.123215,-1110.308913,-9844.739029,919.314598
392.123543,-3330.926739,-9770.718434,383.047749
392.123870,-3701.029710,-9474.636058,229.828649
392.124198,-3478.967927,-9400.615463,-306.438199
392.124526,-1998.556043,-8882.471304,306.438199
392.124853,0.000000,-8586.388927,383.047749
392.125181,444.123565,-8586.388927,383.047749
392.125508,1406.391290,-8216.285956,536.266849
392.125836,888.247130,-8808.450710,306.438199
392.126164,-370.102971,-9400.615463,306.438199
392.126491,-1924.535449,-9326.594869,-229.828649
392.126819,-2886.803174,-9918.759623,-766.095498
392.127147,-3627.009116,-9918.759623,-842.705048
392.127474,-2738.761985,-9252.574275,-766.095498
392.127802,-666.185348,-8882.471304,229.828649
392.128129,1184.329507,-8438.347739,689.485948
392.128457,2664.741391,-7624.121203,1302.362347
392.128785,3849.070898,-8364.327145,1532.190996
392.129112,3182.885551,-8438.347739,1455.581446
392.129440,2072.576638,-8734.430116,1072.533697
392.129767,518.144159,-9474.636058,306.438199
392.130095,-1628.453072,-9622.677246,0.000000
392.130423,-1480.411884,-9992.780217,229.828649
392.130750,-740.205942,-9474.636058,0.000000
392.131078,74.020594,-8956.491898,153.219100
392.131405,1850.514855,-8660.409521,995.924147
392.131733,2664.741391,-8734.430116,1762.019645
392.132061,2368.659014,-8438.347739,1072.533697
392.132388,1924.535449,-9104.533087,1072.533697
392.132716,0.000000,-9696.697840,536.266849
392.133043,-2664.741391,-10510.924376,0.000000
392.133371,-3775.050304,-10140.821405,-383.047749
392.133699,-3034.844362,-9622.677246,0.000000
392.134026,-2294.638420,-9104.533087,459.657299
392.134354,-370.102971,-8216.285956,995.924147
392.134681,962.267725,-7624.121203,1685.410096
392.135009,1702.473667,-7254.018232,1991.848295
392.135337,1924.535449,-7698.141797,2068.457845
392.135664,518.144159,-8068.244768,1915.238745
392.135992,-1406.391290,-8660.409521,1072.533697
392.136319,-2664.741391,-9548.656652,766.095498
392.136647,-2812.782580,-9474.636058,536.266849
392.136975,-3478.967927,-9474.636058,1072.533697
392.137302,-2146.597232,-9326.594869,1072.533697
392.137630,-444.123565,-8882.471304,1149.143247
392.137958,592.164754,-8660.409521,1149.143247
392.138285,1110.308913,-8364.327145,1685.410096
392.138613,1258.350101,-8142.265362,1532.190996
392.138940,444.123565,-9104.533087,995.924147
392.139268,-1480.411884,-9548.656652,459.657299
392.139596,-2960.823768,-10066.800811,153.219100
392.139923,-3478.967927,-10214.842000,-383.047749
392.140251,-3108.864956,-10140.821405,459.657299
392.140578,-2516.700203,-9622.677246,-306.438199
392.140906,-148.041188,-8660.409521,0.000000
392.141234,1850.514855,-8068.244768,306.438199
392.141561,3182.885551,-8068.244768,1149.143247
392.141889,3404.947333,-7698.141797,1225.752797
392.142216,2442.679609,-8290.306550,689.485948
392.142544,740.205942,-9104.533087,459.657299
392.142872,-1406.391290,-9474.636058,0.000000
392.143199,-2368.659014,-9548.656652,-459.657299
392.143527,-1850.514855,-9992.780217,-536.266849
392.143854,-444.123565,-9474.636058,-383.047749
392.144182,962.267725,-8882.471304,383.047749
392.144510,2368.659014,-8660.409521,383.047749
392.144837,3404.947333,-8808.450710,919.314598
392.145165,3034.844362,-8956.491898,1072.533697
392.145492,1406.391290,-9400.615463,1378.971896
392.145820,-740.205942,-10214.842000,-153.219100
392.146148,-2442.679609,-10214.842000,-383.047749
392.146475,-2960.823768,-9992.780217,-919.314598
392.146803,-2442.679609,-9474.636058,-229.828649
392.147131,-370.102971,-9178.553681,229.828649
392.147458,1258.350101,-8290.306550,1072.533697
392.147786,1924.535449,-7846.182985,1608.800546
392.148113,2294.638420,-8068.244768,1685.410096
392.148441,1776.494261,-8290.306550,1685.410096
392.148769,-222.061783,-7920.203579,1455.581446
392.149096,-1776.494261,-9400.615463,612.876398
392.149424,-3108.864956,-9844.739029,536.266849
392.149751,-3478.967927,-9474.636058,153.219100
392.150079,-3034.844362,-9400.615463,536.266849
392.150407,-1554.432478,-8660.409521,229.828649
392.150734,0.000000,-8956.491898,1378.971896
392.151062,888.247130,-8290.306550,919.314598
392.151389,1184.329507,-8808.450710,919.314598
392.151717,814.226536,-9400.615463,459.657299
392.152045,-518.144159,-10066.800811,76.609550
392.152372,-2368.659014,-10584.944971,0.000000
392.152700,-3701.029710,-10732.986159,-383.047749
392.153027,-3404.947333,-10436.903782,-536.266849
392.153355,-2146.597232,-9844.739029,0.000000
392.153683,-1332.370696,-9104.533087,0.000000
392.154010,1110.308913,-8364.327145,689.485948
392.154338,2738.761985,-8142.265362,1072.533697
392.154665,3404.947333,-7994.224174,1072.533697
392.154993,2812.782580,-8512.368333,1072.533697
392.155321,1036.288319,-9474.636058,766.095498
392.155648,-962.267725,-10140.821405,536.266849
392.155976,-1776.494261,-10140.821405,-153.219100
392.156303,-2368.659014,-9992.780217,0.000000
392.156631,-2146.597232,-9400.615463,-153.219100
392.156959,740.205942,-9696.697840,766.095498
392.157286,2368.659014,-8956.491898,1302.362347
392.157614,3034.844362,-7772.162391,1302.362347
392.157942,3552.988522,-9030.512492,1991.848295
392.158269,1850.514855,-9252.574275,1225.752797
392.158597,-1036.288319,-9844.739029,536.266849
392.158924,-2368.659014,-10436.903782,0.000000
392.159251,-3627.009116,-9844.739029,0.000000
392.159579,-3478.967927,-9770.718434,0.000000
392.159906,-1924.535449,-8734.430116,689.485948
392.160234,296.082377,-8586.388927,1302.362347
392.160561,1924.535449,-7920.203579,2221.676944
392.160889,2664.741391,-7698.141797,2298.286494
392.161216,1776.494261,-8142.265362,2451.505594
392.161544,148.041188,-8882.471304,1455.581446
392.161871,-1924.535449,-9178.553681,1072.533697
392.162199,-2960.823768,-9622.677246,229.828649
392.162526,-3034.844362,-9474.636058,383.047749
392.162853,-2442.679609,-9030.512492,459.657299
392.163181,-1628.453072,-8290.306550,689.485948
392.163508,370.102971,-7772.162391,1072.533697
392.163836,1184.329507,-8364.327145,1532.190996
392.164163,1332.370696,-7994.224174,995.924147
392.164491,1110.308913,-8808.450710,1225.752797
392.164818,74.020594,-9178.553681,612.876398
392.165146,-1998.556043,-9844.739029,0.000000
392.165473,-2516.700203,-10436.903782,0.000000
392.165801,-2812.782580,-10140.821405,-306.438199
392.166128,-2442.679609,-9622.677246,0.000000
392.166455,-1258.350101,-9178.553681,0.000000
392.166783,518.144159,-8882.471304,383.047749
392.167110,1850.514855,-8216.285956,689.485948
392.167438,2220.617826,-8142.265362,612.876398
392.167765,2960.823768,-8438.347739,612.876398
392.168093,1406.391290,-8290.306550,306.438199
392.168420,-444.123565,-9326.594869,0.000000
392.168748,-1480.411884,-9622.677246,-689.485948
392.169075,-2220.617826,-9770.718434,-766.095498
392.169403,-2664.741391,-9474.636058,-995.924147
392.169730,-814.226536,-8808.450710,-459.657299
392.170057,1332.370696,-8808.450710,-153.219100
392.170385,2812.782580,-8216.285956,536.266849
392.170712,3552.988522,-8290.306550,689.485948
392.171040,3552.988522,-8734.430116,1149.143247
392.171367,1924.535449,-9252.574275,383.047749
392.171695,-518.144159,-10066.800811,0.000000
392.172022,-2146.597232,-10066.800811,-306.438199
392.172350,-2368.659014,-9844.739029,-536.266849
392.172677,-1036.288319,-9622.677246,153.219100
392.173004,888.247130,-8956.491898,1149.143247
392.173332,2072.576638,-8364.327145,1838.629195
392.173659,2886.803174,-8290.306550,2221.676944
392.173987,3034.844362,-8512.368333,2528.115143
392.174314,1406.391290,-9030.512492,1915.238745
392.174642,-740.205942,-9178.553681,1072.533697
392.174969,-2590.720797,-9770.718434,536.266849
392.175297,-3330.926739,-9696.697840,153.219100
392.175624,-3701.029710,-9326.594869,383.047749
392.175952,-2812.782580,-9030.512492,383.047749
392.176279,-1036.288319,-8142.265362,1378.971896
392.176606,148.041188,-8068.244768,1378.971896
392.176934,444.123565,-8290.306550,1455.581446
392.177261,0.000000,-8438.347739,842.705048
392.177589,-814.226536,-8660.409521,459.657299
392.177916,-2368.659014,-9252.574275,383.047749
392.178244,-3404.947333,-9548.656652,766.095498
392.178571,-3849.070898,-9770.718434,76.609550
392.178899,-3404.947333,-9474.636058,0.000000
392.179226,-1998.556043,-8956.491898,459.657299
392.179554,-444.123565,-8512.368333,689.485948
392.179881,1184.329507,-8068.244768,1838.629195
392.180208,2442.679609,-8512.368333,1072.533697
392.180536,2812.782580,-8216.285956,1302.362347
392.180863,1850.514855,-8586.388927,1072.533697
392.181191,592.164754,-9622.677246,842.705048
392.181518,-888.247130,-9770.718434,153.219100
392.181846,-1702.473667,-9992.780217,229.828649
392.182173,-1702.473667,-10510.924376,-229.828649
392.182501,-1702.473667,-9474.636058,-306.438199
392.182828,518.144159,-9474.636058,0.000000
392.183156,1924.535449,-8808.450710,76.609550
392.183483,2220.617826,-8364.327145,612.876398
392.183810,3256.906145,-8808.450710,919.314598
392.184138,2294.638420,-9178.553681,612.876398
392.184465,-740.205942,-9252.574275,0.000000
392.184793,-1702.473667,-9918.759623,-383.047749
392.185120,-2516.700203,-9548.656652,-689.485948
392.185448,-2664.741391,-9326.594869,-689.485948
392.185775,-740.205942,-8660.409521,0.000000
392.186103,962.267725,-8734.430116,919.314598
392.186430,1776.494261,-8142.265362,1762.019645
392.186757,2664.741391,-8586.388927,1149.143247
392.187085,1924.535449,-8512.368333,1455.581446
392.187412,518.144159,-9178.553681,995.924147
392.187740,-1406.391290,-9844.739029,612.876398
392.188067,-3330.926739,-9918.759623,0.000000
392.188395,-3627.009116,-9918.759623,153.219100
392.188722,-2590.720797,-9474.636058,612.876398
392.189050,-1406.391290,-9030.512492,612.876398
392.189377,0.000000,-8216.285956,919.314598
392.189705,1480.411884,-8660.409521,1455.581446
392.190032,1110.308913,-8290.306550,1532.190996
392.190359,74.020594,-8660.409521,842.705048
392.190687,-1036.288319,-9474.636058,536.266849
392.191014,-2368.659014,-9770.718434,0.000000
392.191342,-3330.926739,-10066.800811,0.000000
392.191669,-3256.906145,-9696.697840,-153.219100
392.191997,-2886.803174,-8882.471304,153.219100
392.192324,-1110.308913,-8734.430116,536.266849
392.192652,592.164754,-8586.388927,842.705048
392.192979,1850.514855,-8068.244768,919.314598
392.193307,2442.679609,-8068.244768,995.924147
392.193634,2294.638420,-8290.306550,1149.143247
392.193961,1184.329507,-9104.533087,383.047749
392.194289,-888.247130,-9770.718434,76.609550
392.194616,-2072.576638,-10584.944971,-306.438199
392.194944,-2664.741391,-10288.862594,-536.266849
392.195271,-2590.720797,-9548.656652,-459.657299
392.195599,-740.205942,-9474.636058,-306.438199
392.195926,1406.391290,-8808.450710,0.000000
392.196254,2664.741391,-8142.265362,229.828649
392.196581,3627.009116,-8512.368333,612.876398
392.196909,3034.844362,-9030.512492,459.657299
392.197236,1406.391290,-9326.594869,153.219100
392.197563,-888.247130,-9844.739029,0.000000
392.197891,-2590.720797,-10214.842000,-229.828649
392.198218,-2590.720797,-10066.800811,-153.219100
392.198546,-1628.453072,-9400.615463,306.438199
392.198873,740.205942,-8512.368333,766.095498
392.199201,2368.659014,-7994.224174,1991.848295
392.199528,3404.947333,-8216.285956,2298.286494
392.199856,2960.823768,-8068.244768,2068.457845
392.200183,1628.453072,-8734.430116,1915.238745
392.200510,-518.144159,-9400.615463,1608.800546
392.200838,-2738.761985,-9400.615463,766.095498
392.201165,-3478.967927,-9548.656652,536.266849
392.201493,-3182.885551,-9326.594869,612.876398
392.201820,-1924.535449,-8956.491898,1302.362347
392.202148,-592.164754,-8290.306550,1762.019645
392.202475,74.020594,-7994.224174,1608.800546
392.202803,370.102971,-8512.368333,1762.019645
392.203130,0.000000,-8882.471304,1685.410096
392.203458,-1480.411884,-9400.615463,995.924147
392.203785,-2960.823768,-9696.697840,383.047749
392.204112,-3997.112087,-9474.636058,-153.219100
392.204440,-4515.256246,-9474.636058,-229.828649
392.204767,-3849.070898,-9104.533087,0.000000
392.205095,-2516.700203,-8438.347739,-153.219100
392.205422,-592.164754,-7920.203579,153.219100
392.205750,1110.308913,-7772.162391,689.485948
392.206077,1998.556043,-7698.141797,612.876398
392.206405,2590.720797,-8142.265362,919.314598
392.206732,1850.514855,-8808.450710,842.705048
392.207060,148.041188,-9844.739029,536.266849
392.207387,-1184.329507,-10066.800811,383.047749
392.207714,-2146.597232,-10214.842000,-153.219100
392.208042,-1554.432478,-10436.903782,-229.828649
392.208369,-740.205942,-9474.636058,-689.485948
392.208697,1258.350101,-9474.636058,229.828649
392.209024,3552.988522,-8512.368333,536.266849
392.209352,4145.153275,-8660.409521,919.314598
392.209679,4071.132681,-8808.450710,766.095498
392.210007,2664.741391,-9474.636058,766.095498
392.210334,-296.082377,-9474.636058,-383.047749
392.210661,-2368.659014,-10066.800811,-1072.533697
392.210989,-2960.823768,-9844.739029,-842.705048
392.211316,-3034.844362,-9696.697840,-995.924147
392.211644,-962.267725,-8808.450710,-229.828649
392.211971,1036.288319,-8290.306550,689.485948
392.212299,2812.782580,-8068.244768,1685.410096
392.212626,3182.885551,-7698.141797,1991.848295
392.212954,1850.514855,-8142.265362,1455.581446
392.213281,296.082377,-9030.512492,995.924147
392.213609,-2146.597232,-9252.574275,459.657299
392.213936,-3478.967927,-9474.636058,0.000000
392.214263,-2886.803174,-9326.594869,383.047749
392.214591,-2294.638420,-9104.533087,459.657299
392.214918,-296.082377,-8438.347739,1225.752797
392.215246,888.247130,-8438.347739,1532.190996
392.215573,1628.453072,-8660.409521,1762.019645
392.215901,1332.370696,-8808.450710,1608.800546
392.216228,518.144159,-8956.491898,919.314598
392.216556,-1184.329507,-9474.636058,536.266849
392.216883,-2664.741391,-10510.924376,153.219100
392.217211,-3552.988522,-10140.821405,0.000000
392.217538,-3552.988522,-9474.636058,0.000000
392.217865,-2368.659014,-8956.491898,459.657299
392.218193,-962.267725,-9030.512492,842.705048
392.218520,222.061783,-7994.224174,995.924147
392.218848,1480.411884,-8290.306550,1149.143247
392.219175,2072.576638,-8512.368333,1455.581446
392.219503,1406.391290,-8290.306550,536.266849
392.219830,0.000000,-8956.491898,842.705048
392.220158,-1258.350101,-9918.759623,0.000000
392.220485,-2442.679609,-10066.800811,-306.438199
392.220813,-2886.803174,-9844.739029,-766.095498
392.221140,-2146.597232,-9770.718434,-689.485948
392.221467,0.000000,-9474.636058,-306.438199
392.221795,1480.411884,-8808.450710,76.609550
392.222122,3034.844362,-8586.388927,612.876398
392.222450,3552.988522,-8882.471304,536.266849
392.222777,2738.761985,-9252.574275,459.657299
392.223105,814.226536,-10066.800811,229.828649
392.223432,-1628.453072,-10362.883188,-383.047749
392.223760,-2516.700203,-10732.986159,-612.876398
392.224087,-2146.597232,-10436.903782,-536.266849
392.224414,-1332.370696,-9622.677246,0.000000
392.224742,1480.411884,-9252.574275,995.924147
392.225069,2590.720797,-8290.306550,1915.238745
392.225397,3330.926739,-8364.327145,2068.457845
392.225724,2886.803174,-8438.347739,1915.238745
392.226052,1480.411884,-9400.615463,1608.800546
392.226379,-296.082377,-9326.594869,536.266849
392.226707,-2146.597232,-9696.697840,459.657299
392.227034,-2738.761985,-9474.636058,383.047749
392.227362,-2368.659014,-9252.574275,459.657299
392.227689,-1110.308913,-8808.450710,842.705048
392.228016,0.000000,-8586.388927,1762.019645
392.228344,888.247130,-8290.306550,1378.971896
392.228671,962.267725,-8586.388927,1378.971896
392.228999,222.061783,-9030.512492,1149.143247
392.229326,-1184.329507,-9474.636058,842.705048
392.229654,-2664.741391,-9696.697840,612.876398
392.229981,-3849.070898,-9770.718434,76.609550
392.230309,-3997.112087,-9400.615463,153.219100
392.230636,-3256.906145,-9030.512492,229.828649
392.230964,-1702.473667,-8586.388927,612.876398
392.231291,0.000000,-7994.224174,766.095498
392.231618,888.247130,-7624.121203,1532.190996
392.231946,1924.535449,-8216.285956,1302.362347
392.232273,1110.308913,-8364.327145,1149.143247
392.232601,222.061783,-9326.594869,1149.143247
392.232928,-1184.329507,-9474.636058,612.876398
392.233256,-2072.576638,-9178.553681,0.000000
392.233583,-2738.761985,-9844.739029,0.000000
392.233911,-2146.597232,-9622.677246,-306.438199
392.234238,-1110.308913,-8734.430116,-383.047749
392.234566,1184.329507,-8586.388927,0.000000
392.234893,2738.761985,-8364.327145,842.705048
392.235220,3108.864956,-7846.182985,842.705048
392.235548,3182.885551,-8660.409521,689.485948
392.235875,1702.473667,-8882.471304,306.438199
392.236203,-518.144159,-9474.636058,-153.219100
392.236530,-1628.453072,-10362.883188,-459.657299
392.236858,-1850.514855,-10066.800811,-612.876398
392.237185,-1480.411884,-9400.615463,-383.047749
392.237513,592.164754,-9178.553681,306.438199
392.237840,2368.659014,-8586.388927,842.705048
392.238167,3701.029710,-8512.368333,1915.238745
392.238495,4071.132681,-8660.409521,1991.848295
392.238822,2442.679609,-8660.409521,2068.457845
392.239150,740.205942,-9252.574275,919.314598
392.239477,-1332.370696,-9770.718434,842.705048
392.239805,-2590.720797,-9622.677246,76.609550
392.240132,-2294.638420,-9474.636058,0.000000
392.240460,-1702.473667,-9030.512492,1072.533697
392.240787,-444.123565,-8956.491898,1455.581446
392.241115,444.123565,-8882.471304,1608.800546
392.241442,666.185348,-8808.450710,1532.190996
392.241769,148.041188,-8882.471304,1532.190996
392.242097,-1036.288319,-8734.430116,1072.533697
392.242424,-2442.679609,-9326.594869,153.219100
392.242752,-3849.070898,-9548.656652,0.000000
392.243079,-4367.215058,-9770.718434,-153.219100
392.243407,-4145.153275,-9178.553681,-153.219100
392.243734,-3182.885551,-8512.368333,0.000000
392.244062,-1406.391290,-8660.409521,459.657299
392.244389,222.061783,-8068.244768,689.485948
392.244717,962.267725,-7772.162391,689.485948
392.245044,1628.453072,-8142.265362,1302.362347
392.245371,1480.411884,-8586.388927,1149.143247
392.245699,0.000000,-9030.512492,612.876398
392.246026,-1702.473667,-9696.697840,229.828649
392.246354,-2442.679609,-10288.862594,0.000000
392.246681,-2220.617826,-10066.800811,-153.219100
392.247009,-518.144159,-8956.491898,-306.438199
392.247336,1110.308913,-9474.636058,153.219100
392.247664,2368.659014,-8882.471304,536.266849
392.247991,3775.050304,-8808.450710,766.095498
392.248319,3552.988522,-8956.491898,1072.533697
392.248646,2738.761985,-9326.594869,459.657299
392.248973,370.102971,-9770.718434,919.314598
392.249301,-1776.494261,-10584.944971,-306.438199
392.249628,-2368.659014,-10214.842000,-995.924147
392.249956,-2146.597232,-9918.759623,-383.047749
392.250283,-888.247130,-9400.615463,-306.438199
392.250611,814.226536,-8882.471304,612.876398
392.250938,2664.741391,-7994.224174,1302.362347
392.251266,3256.906145,-8142.265362,1685.410096
392.251593,2516.700203,-8512.368333,1532.190996
392.251920,666.185348,-8734.430116,1149.143247
392.252248,-1406.391290,-9400.615463,536.266849
392.252575,-2738.761985,-9622.677246,0.000000
392.252903,-3256.906145,-9622.677246,306.438199
392.253230,-2738.761985,-9326.594869,229.828649
392.253558,-1332.370696,-8882.471304,689.485948
392.253885,0.000000,-8290.306550,1149.143247
392.254213,1110.308913,-8142.265362,1608.800546
392.254540,740.205942,-8734.430116,1762.019645
392.254868,518.144159,-9030.512492,1225.752797
392.255195,-1184.329507,-9770.718434,536.266849
392.255522,-2590.720797,-10066.800811,459.657299
392.255850,-3627.009116,-9696.697840,306.438199
392.256177,-3330.926739,-9844.739029,153.219100
392.256505,-2442.679609,-9474.636058,459.657299
392.256832,-1110.308913,-8808.450710,842.705048
392.257160,888.247130,-8660.409521,1455.581446
392.257487,1480.411884,-8142.265362,1685.410096
392.257815,1850.514855,-8142.265362,1302.362347
392.258143,1332.370696,-8734.430116,1455.581446
392.258470,296.082377,-9178.553681,1149.143247
392.258798,-1036.288319,-9844.739029,459.657299
392.259125,-1998.556043,-9474.636058,0.000000
392.259453,-2368.659014,-9844.739029,0.000000
392.259780,-1850.514855,-9918.759623,-306.438199
392.260108,-370.102971,-8956.491898,-153.219100
392.260435,1258.350101,-8808.450710,0.000000
392.260763,2442.679609,-9178.553681,0.000000
392.261090,2812.782580,-8808.450710,612.876398
392.261418,2294.638420,-9030.512492,229.828649
392.261746,888.247130,-9474.636058,0.000000
392.262073,-888.247130,-10066.800811,-153.219100
392.262401,-2294.638420,-10288.862594,-766.095498
392.262728,-2294.638420,-9844.739029,-919.314598
392.263056,-1554.432478,-9400.615463,-459.657299
392.263383,444.123565,-9030.512492,0.000000
392.263711,2146.597232,-8216.285956,842.705048
392.264038,3552.988522,-8068.244768,1455.581446
392.264366,3552.988522,-7476.080014,1915.238745
392.264693,2220.617826,-8438.347739,1532.190996
392.265021,296.082377,-9326.594869,1225.752797
392.265349,-1332.370696,-9474.636058,766.095498
392.265676,-2442.679609,-9622.677246,383.047749
392.266004,-2368.659014,-9474.636058,919.314598
392.266331,-1776.494261,-8586.388927,536.266849
392.266659,0.000000,-9104.533087,1149.143247
392.266986,814.226536,-8216.285956,1685.410096
392.267314,1258.350101,-8216.285956,1762.019645
392.267641,888.247130,-8364.327145,1685.410096
392.267969,-296.082377,-8660.409521,995.924147
392.268296,-1998.556043,-9326.594869,536.266849
392.268624,-3627.009116,-9326.594869,229.828649
392.268952,-4145.153275,-9474.636058,153.219100
392.269279,-3404.947333,-9178.553681,153.219100
392.269607,-2146.597232,-8364.327145,459.657299
392.269934,-962.267725,-7772.162391,1225.752797
392.270262,962.267725,-8216.285956,1608.800546
392.270589,1332.370696,-7920.203579,1838.629195
392.270917,1036.288319,-8068.244768,1762.019645
392.271244,148.041188,-8586.388927,1149.143247
392.271572,-888.247130,-9400.615463,995.924147
392.271899,-2442.679609,-9622.677246,306.438199
392.272227,-3108.864956,-9770.718434,0.000000
392.272555,-2812.782580,-9622.677246,-383.047749
392.272882,-1258.350101,-9400.615463,153.219100
392.273210,148.041188,-9030.512492,-383.047749
392.273537,1702.473667,-8512.368333,-153.219100
392.273865,2516.700203,-8512.368333,383.047749
392.274192,2738.761985,-8882.471304,229.828649
392.274520,1406.391290,-9326.594869,459.657299
392.274847,-444.123565,-9696.697840,0.000000
392.275175,-1850.514855,-10658.965565,-842.705048
392.275502,-2812.782580,-10732.986159,-1149.143247
392.275830,-2442.679609,-9844.739029,-995.924147
392.276157,-888.247130,-9474.636058,-612.876398
392.276485,1702.473667,-8734.430116,76.609550
392.276813,3478.967927,-8068.244768,842.705048
392.277140,4663.297435,-8142.265362,1378.971896
392.277468,4071.132681,-8216.285956,1225.752797
392.277795,2368.659014,-8882.471304,842.705048
392.278123,296.082377,-9770.718434,-459.657299
392.278450,-2072.576638,-9918.759623,0.000000
392.278778,-2516.700203,-10214.842000,-153.219100
392.279105,-1850.514855,-9844.739029,153.219100
392.279433,-518.144159,-9326.594869,459.657299
392.279760,962.267725,-9178.553681,1608.800546
392.280088,2294.638420,-8586.388927,1685.410096
392.280416,1998.556043,-8956.491898,1532.190996
392.280743,444.123565,-9030.512492,1149.143247
392.281071,-1110.308913,-9770.718434,689.485948
392.281398,-3034.844362,-9844.739029,306.438199
392.281726,-4071.132681,-9548.656652,0.000000
392.282053,-3775.050304,-9474.636058,306.438199
392.282381,-2516.700203,-9030.512492,689.485948
392.282708,-962.267725,-8512.368333,1455.581446
392.283036,592.164754,-8216.285956,1685.410096
392.283363,1554.432478,-8142.265362,2068.457845
392.283691,888.247130,-8364.327145,1302.362347
392.284019,-148.041188,-8808.450710,1302.362347
392.284346,-1332.370696,-9252.574275,995.924147
392.284674,-2368.659014,-9474.636058,689.485948
392.285001,-2960.823768,-9326.594869,-383.047749
392.285329,-2738.761985,-9474.636058,76.609550
392.285656,-2146.597232,-8808.450710,0.000000
392.285984,-666.185348,-8734.430116,76.609550
392.286311,814.226536,-7994.224174,76.609550
392.286639,1628.453072,-7994.224174,459.657299
392.286966,2886.803174,-8142.265362,612.876398
392.287294,1998.556043,-8956.491898,689.485948
392.287622,0.000000,-9474.636058,459.657299
392.287949,-1258.350101,-10288.862594,0.000000
392.288277,-2368.659014,-10214.842000,-229.828649
392.288604,-2368.659014,-9844.739029,76.609550
392.288932,-888.247130,-9178.553681,-153.219100
392.289259,888.247130,-8660.409521,459.657299
392.289587,3182.885551,-8216.285956,1302.362347
392.289914,3923.091493,-7772.162391,1685.410096
392.290242,3775.050304,-7550.100608,1991.848295
392.290569,2664.741391,-8512.368333,2068.457845
392.290897,370.102971,-9252.574275,689.485948
392.291225,-1702.473667,-9696.697840,459.657299
392.291552,-2220.617826,-9992.780217,229.828649
392.291880,-2516.700203,-9474.636058,229.828649
392.292207,-1332.370696,-9178.553681,459.657299
392.292535,296.082377,-8956.491898,1378.971896
392.292862,1036.288319,-8956.491898,1608.800546
392.293190,888.247130,-8586.388927,1149.143247
392.293517,592.164754,-8290.306550,1225.752797
392.293845,-814.226536,-9252.574275,612.876398
392.294172,-3034.844362,-9918.759623,153.219100
392.294500,-3997.112087,-9696.697840,-383.047749
392.294828,-3923.091493,-9474.636058,-383.047749
392.295155,-2960.823768,-9252.574275,0.000000
392.295483,-1332.370696,-8882.471304,919.314598
392.295810,-222.061783,-8142.265362,995.924147
392.296138,1036.288319,-8438.347739,1302.362347
392.296465,1480.411884,-8512.368333,1608.800546
392.296793,1184.329507,-8586.388927,1072.533697
392.297120,370.102971,-8660.409521,995.924147
392.297448,-1036.288319,-9844.739029,689.485948
392.297775,-2072.576638,-10140.821405,0.000000
392.298103,-2590.720797,-10140.821405,-76.609550
392.298431,-2220.617826,-9844.739029,-229.828649
392.298758,-888.247130,-9474.636058,229.828649
392.299086,1184.329507,-9252.574275,76.609550
392.299413,2294.638420,-9030.512492,229.828649
392.299741,3034.844362,-8586.388927,383.047749
392.300068,2590.720797,-9030.512492,612.876398
392.300396,1110.308913,-9400.615463,229.828649
392.300723,-666.185348,-10140.821405,0.000000
392.301051,-2368.659014,-10807.006753,-842.705048
392.301378,-2960.823768,-10584.944971,-1149.143247
392.301706,-2664.741391,-9770.718434,-689.485948
392.302034,-740.205942,-9252.574275,-229.828649
392.302361,1776.494261,-8068.244768,459.657299
392.302689,3701.029710,-7846.182985,1302.362347
392.303016,4145.153275,-7624.121203,1378.971896
392.303344,3108.864956,-8068.244768,1378.971896
392.303671,1184.329507,-8956.491898,995.924147
392.303999,-888.247130,-9548.656652,0.000000
392.304326,-2664.741391,-9770.718434,0.000000
392.304654,-2812.782580,-10066.800811,76.609550
392.304981,-2072.576638,-9474.636058,689.485948
392.305309,0.000000,-8808.450710,1378.971896
392.305636,1110.308913,-8586.388927,1685.410096
392.305964,1702.473667,-8438.347739,2145.067394
392.306292,1406.391290,-8660.409521,1915.238745
392.306619,370.102971,-9104.533087,1225.752797
392.306947,-1406.391290,-9474.636058,995.924147
392.307274,-3330.926739,-9474.636058,459.657299
392.307602,-3997.112087,-9252.574275,306.438199
392.307929,-3997.112087,-9252.574275,153.219100
392.308257,-2220.617826,-8734.430116,689.485948
392.308584,-888.247130,-7772.162391,995.924147
392.308912,666.185348,-7920.203579,1608.800546
392.309239,1332.370696,-7698.141797,1762.019645
392.309567,814.226536,-7920.203579,1455.581446
392.309895,444.123565,-8808.450710,1532.190996
392.310222,-666.185348,-8808.450710,919.314598
392.310550,-2294.638420,-9178.553681,229.828649
392.310877,-2442.679609,-9622.677246,0.000000
392.311205,-2442.679609,-9030.512492,76.609550
392.311532,-1776.494261,-8586.388927,-459.657299
392.311860,-222.061783,-8882.471304,229.828649
392.312187,1702.473667,-8734.430116,383.047749
392.312515,1850.514855,-8216.285956,0.000000
392.312842,2812.782580,-9178.553681,612.876398
392.313170,2072.576638,-9474.636058,459.657299
392.313498,-444.123565,-9770.718434,-689.485948
392.313825,-1850.514855,-10658.965565,-612.876398
392.314153,-2368.659014,-10807.006753,-842.705048
392.314480,-2886.803174,-10362.883188,-1302.362347
392.314808,-1332.370696,-9622.677246,-1072.533697
392.315135,1480.411884,-9030.512492,-306.438199
392.315463,3108.864956,-8142.265362,459.657299
392.315790,4441.235652,-7994.224174,1378.971896
392.316118,4145.153275,-8068.244768,1455.581446
392.316445,2516.700203,-8808.450710,842.705048
392.316773,518.144159,-9548.656652,459.657299
392.317101,-1332.370696,-9918.759623,-306.438199
392.317428,-2294.638420,-9844.739029,-612.876398
392.317756,-1480.411884,-9844.739029,0.000000
392.318083,-370.102971,-9474.636058,1072.533697
392.318411,740.205942,-8956.491898,1302.362347
392.318738,1850.514855,-8512.368333,1532.190996
392.319066,2516.700203,-9030.512492,1838.629195
392.319393,962.267725,-9178.553681,766.095498
392.319721,-592.164754,-9548.656652,612.876398
392.320048,-2368.659014,-10066.800811,306.438199
392.320376,-3330.926739,-10140.821405,0.000000
392.320704,-3627.009116,-9844.739029,76.609550
392.321031,-2886.803174,-9474.636058,995.924147
392.321359,-1480.411884,-9104.533087,919.314598
392.321686,-222.061783,-8290.306550,1455.581446
392.322014,592.164754,-8142.265362,1608.800546
392.322341,444.123565,-8364.327145,1532.190996
392.322669,148.041188,-8438.347739,1072.533697
392.322996,-1036.288319,-8734.430116,1378.971896
392.323324,-1998.556043,-9104.533087,689.485948
392.323651,-2590.720797,-9326.594869,459.657299
392.323979,-2960.823768,-8956.491898,153.219100
392.324307,-2294.638420,-8734.430116,306.438199
392.324634,-222.061783,-8660.409521,612.876398
392.324962,888.247130,-8734.430116,1072.533697
392.325289,2146.597232,-8438.347739,1149.143247
392.325617,2516.700203,-8734.430116,1225.752797
392.325944,2146.597232,-9252.574275,1225.752797
392.326272,518.144159,-9474.636058,1915.238745
392.326599,-814.226536,-9992.780217,0.000000
392.326927,-2442.679609,-10510.924376,-306.438199
392.327254,-2294.638420,-10362.883188,0.000000
392.327582,-1702.473667,-9178.553681,-229.828649
392.327910,370.102971,-8808.450710,1149.143247
392.328237,2368.659014,-8216.285956,1302.362347
392.328565,2960.823768,-8142.265362,1455.581446
392.328892,2738.761985,-8290.306550,2068.457845
392.329220,1628.453072,-8364.327145,1302.362347
392.329547,-370.102971,-9326.594869,919.314598
392.329875,-1776.494261,-9178.553681,459.657299
392.330202,-3404.947333,-9326.594869,-383.047749
392.330530,-3108.864956,-9474.636058,-153.219100
392.330857,-2368.659014,-8956.491898,0.000000
392.331185,-814.226536,-8068.244768,153.219100
392.331513,888.247130,-7994.224174,995.924147
392.331840,1332.370696,-8290.306550,995.924147
392.332168,740.205942,-8142.265362,612.876398
392.332495,148.041188,-8808.450710,459.657299
392.332823,-1184.329507,-9622.677246,76.609550
392.333150,-2220.617826,-9696.697840,0.000000
392.333478,-2516.700203,-9474.636058,153.219100
392.333805,-2072.576638,-9622.677246,153.219100
392.334133,-962.267725,-9548.656652,612.876398
392.334460,962.267725,-8956.491898,1225.752797
392.334788,1850.514855,-8586.388927,1685.410096
392.335115,2442.679609,-8660.409521,1915.238745
392.335443,2146.597232,-9104.533087,1838.629195
392.335771,888.247130,-8882.471304,1302.362347
392.336098,0.000000,-9400.615463,766.095498
392.336426,-1332.370696,-9400.615463,306.438199
392.336753,-2220.617826,-9178.553681,76.609550
392.337081,-2220.617826,-9178.553681,0.000000
392.337408,-888.247130,-9252.574275,153.219100
392.337736,296.082377,-8734.430116,306.438199
392.338063,1036.288319,-8660.409521,766.095498
392.338391,2072.576638,-8512.368333,995.924147
392.338718,1480.411884,-8660.409521,1072.533697
392.339046,444.123565,-9326.594869,689.485948
392.339374,-1258.350101,-9770.718434,153.219100
392.339701,-2960.823768,-10214.842000,-383.047749
392.340029,-3478.967927,-10066.800811,-612.876398
392.340356,-3182.885551,-9474.636058,-459.657299
392.340684,-1628.453072,-9104.533087,0.000000
392.341011,518.144159,-8512.368333,689.485948
392.341339,1998.556043,-8068.244768,1225.752797
392.341666,3256.906145,-7846.182985,1378.971896
392.341994,3034.844362,-8068.244768,1608.800546
392.342321,1184.329507,-8882.471304,842.705048
392.342649,-592.164754,-9474.636058,612.876398
392.342977,-2368.659014,-9696.697840,-383.047749
392.343304,-2886.803174,-9992.780217,0.000000
392.343632,-2516.700203,-9474.636058,306.438199
392.343959,-1036.288319,-8734.430116,229.828649
392.344287,1184.329507,-8438.347739,459.657299
392.344614,1924.535449,-8438.347739,919.314598
392.344942,2738.761985,-8290.306550,1225.752797
392.345269,1406.391290,-8068.244768,689.485948
392.345597,148.041188,-9030.512492,383.047749
392.345924,-1406.391290,-9844.739029,76.609550
392.346252,-3034.844362,-9770.718434,-383.047749
392.346580,-2886.803174,-9844.739029,-306.438199
392.346907,-1702.473667,-9400.615463,153.219100
392.347235,0.000000,-9400.615463,1072.533697
392.347562,666.185348,-8660.409521,1225.752797
392.347890,1776.494261,-8512.368333,1225.752797
392.348217,2220.617826,-8734.430116,1532.190996
392.348545,1184.329507,-8660.409521,1225.752797
392.348872,-444.123565,-8734.430116,459.657299
392.349200,-1776.494261,-9474.636058,229.828649
392.349527,-2812.782580,-9548.656652,-459.657299
392.349855,-2886.803174,-9474.636058,-612.876398
392.350183,-2516.700203,-9030.512492,-536.266849
392.350510,-518.144159,-8438.347739,383.047749
392.350838,740.205942,-8512.368333,153.219100
392.351165,2072.576638,-8364.327145,459.657299
392.351493,2368.659014,-8438.347739,919.314598
392.351820,1480.411884,-9400.615463,612.876398
392.352148,-370.102971,-10140.821405,306.438199
392.352475,-2368.659014,-10436.903782,-306.438199
392.352803,-3627.009116,-10658.965565,-612.876398
392.353130,-3182.885551,-10658.965565,-689.485948
392.353458,-1628.453072,-9474.636058,-536.266849
392.353786,518.144159,-9622.677246,306.438199
392.354113,2590.720797,-8290.306550,842.705048
392.354441,3701.029710,-8068.244768,1149.143247
392.354768,3701.029710,-8216.285956,1378.971896
392.355096,2442.679609,-9474.636058,842.705048
392.355423,296.082377,-9548.656652,459.657299
392.355751,-962.267725,-9918.759623,306.438199
392.356078,-2368.659014,-10288.862594,-229.828649
392.356406,-2220.617826,-10362.883188,383.047749
392.356733,-1406.391290,-9992.780217,612.876398
392.357061,222.061783,-9548.656652,1302.362347
392.357389,1628.453072,-8956.491898,1991.848295
392.357716,2072.576638,-9030.512492,1302.362347
392.358044,1628.453072,-8882.471304,1149.143247
392.358371,518.144159,-9178.553681,766.095498
392.358699,-1332.370696,-9918.759623,536.266849
392.359026,-2738.761985,-9474.636058,383.047749
392.359354,-3330.926739,-9252.574275,229.828649
392.359681,-2812.782580,-9252.574275,229.828649
392.360009,-1554.432478,-8956.491898,459.657299
392.360336,-296.082377,-8734.430116,919.314598
392.360664,1554.432478,-8438.347739,2221.676944
392.360992,1998.556043,-8586.388927,1915.238745
392.361319,1184.329507,-8586.388927,1532.190996
392.361647,74.020594,-9326.594869,1302.362347
392.361974,-1258.350101,-9548.656652,1072.533697
392.362302,-2516.700203,-9696.697840,76.609550
392.362629,-2664.741391,-9474.636058,612.876398
392.362957,-1776.494261,-9104.533087,459.657299
392.363284,-592.164754,-8956.491898,766.095498
392.363612,1776.494261,-8364.327145,1378.971896
392.363939,2664.741391,-8438.347739,1838.629195
392.364267,2738.761985,-8586.388927,1838.629195
392.364595,1924.535449,-8808.450710,2145.067394
392.364922,148.041188,-9622.677246,1149.143247
392.365250,-1850.514855,-9770.718434,306.438199
392.365577,-2886.803174,-10140.821405,0.000000
392.365905,-3404.947333,-9178.553681,-536.266849
392.366232,-2442.679609,-8808.450710,0.000000
392.366560,-592.164754,-8290.306550,76.609550
392.366887,1258.350101,-7624.121203,612.876398
392.367215,2442.679609,-7476.080014,995.924147
392.367542,2590.720797,-7698.141797,995.924147
392.367870,1924.535449,-8068.244768,1762.019645
392.368198,0.000000,-8882.471304,306.438199
392.368525,-2072.576638,-9474.636058,0.000000
392.368853,-3108.864956,-9770.718434,-536.266849
392.369180,-3404.947333,-9474.636058,-536.266849
392.369508,-1924.535449,-9252.574275,-383.047749
392.369835,-740.205942,-8586.388927,153.219100
392.370163,1258.350101,-8142.265362,306.438199
392.370490,2442.679609,-8364.327145,689.485948
392.370818,2146.597232,-8290.306550,536.266849
392.371146,1628.453072,-8586.388927,919.314598
392.371473,0.000000,-9252.574275,153.219100
392.371801,-1702.473667,-9474.636058,-536.266849
392.372128,-2220.617826,-9992.780217,-383.047749
392.372456,-2220.617826,-9918.759623,-306.438199
392.372783,-1480.411884,-9104.533087,-306.438199
392.373111,370.102971,-9104.533087,689.485948
392.373438,1406.391290,-8808.450710,1149.143247
392.373766,2072.576638,-8586.388927,1762.019645
392.374093,2368.659014,-8808.450710,1455.581446
392.374421,1406.391290,-9030.512492,1455.581446
392.374749,-296.082377,-8660.409521,1072.533697
392.375076,-1924.535449,-9622.677246,383.047749
392.375404,-2812.782580,-9474.636058,0.000000
392.375731,-2812.782580,-9252.574275,0.000000
392.376059,-1702.473667,-8660.409521,0.000000
392.376386,0.000000,-8438.347739,1072.533697
392.376714,1258.350101,-8438.347739,842.705048
392.377041,1628.453072,-8438.347739,1378.971896
392.377369,1480.411884,-8808.450710,1455.581446
392.377696,0.000000,-9104.533087,919.314598
392.378024,-2146.597232,-10362.883188,612.876398
392.378352,-3182.885551,-10584.944971,0.000000
392.378679,-3997.112087,-10362.883188,-612.876398
392.379007,-2738.761985,-10288.862594,0.000000
392.379334,-1628.453072,-9400.615463,306.438199
392.379662,370.102971,-7920.203579,842.705048
392.379989,2516.700203,-8290.306550,1455.581446
392.380317,2812.782580,-8364.327145,1532.190996
392.380644,1924.535449,-8512.368333,1608.800546
392.380972,888.247130,-9030.512492,995.924147
392.381300,-1036.288319,-9622.677246,459.657299
392.381627,-2442.679609,-10436.903782,689.485948
392.381955,-3108.864956,-10362.883188,0.000000
392.382282,-2664.741391,-9992.780217,0.000000
392.382610,-814.226536,-9474.636058,459.657299
392.382937,814.226536,-8808.450710,689.485948
392.383265,1924.535449,-8290.306550,1378.971896
392.383592,2294.638420,-8512.368333,842.705048
392.383920,1850.514855,-8956.491898,919.314598
392.384247,370.102971,-8956.491898,383.047749
392.384575,-1332.370696,-9474.636058,-153.219100
392.384903,-2812.782580,-9918.759623,76.609550
392.385230,-2368.659014,-9696.697840,229.828649
392.385558,-2220.617826,-9474.636058,229.828649
392.385885,-518.144159,-8660.409521,612.876398
392.386213,1110.308913,-8364.327145,1302.362347
392.386540,1776.494261,-8290.306550,2221.676944
392.386868,2220.617826,-8216.285956,2068.457845
392.387195,1702.473667,-8660.409521,1302.362347
392.387523,296.082377,-8660.409521,995.924147
392.387850,-1110.308913,-9400.615463,536.266849
392.388178,-2294.638420,-9178.553681,0.000000
392.388506,-2368.659014,-8882.471304,536.266849
392.388833,-1406.391290,-9178.553681,153.219100
392.389161,-222.061783,-8660.409521,459.657299
392.389488,666.185348,-7994.224174,612.876398
392.389816,1702.473667,-8586.388927,1072.533697
392.390143,1628.453072,-8586.388927,1685.410096
392.390471,888.247130,-8956.491898,995.924147
392.390798,-444.123565,-9400.615463,689.485948
392.391126,-2294.638420,-9696.697840,0.000000
392.391453,-3478.967927,-9622.677246,-383.047749
392.391781,-3404.947333,-9252.574275,-919.314598
392.392109,-2368.659014,-8808.450710,-306.438199
392.392436,-370.102971,-8068.244768,76.609550
392.392764,1998.556043,-7920.203579,766.095498
392.393091,2812.782580,-7772.162391,1072.533697
392.393419,2886.803174,-8290.306550,1455.581446
392.393746,2294.638420,-8586.388927,1838.629195
392.394074,0.000000,-9326.594869,842.705048
392.394401,-1850.514855,-9844.739029,306.438199
392.394729,-2590.720797,-9992.780217,0.000000
392.395057,-2516.700203,-9992.780217,0.000000
392.395384,-1924.535449,-9178.553681,153.219100
392.395712,888.247130,-9252.574275,919.314598
392.396039,1406.391290,-8882.471304,1149.143247
392.396367,2072.576638,-8438.347739,1149.143247
392.396694,1924.535449,-9030.512492,1072.533697
392.397022,370.102971,-8512.368333,536.266849
392.397349,-518.144159,-10140.821405,536.266849
392.397677,-2220.617826,-9844.739029,-306.438199
392.398004,-3108.864956,-10066.800811,-536.266849
392.398332,-2886.803174,-10140.821405,-229.828649
392.398660,-1702.473667,-9252.574275,0.000000
392.398987,0.000000,-8956.491898,766.095498
392.399315,1258.350101,-8660.409521,1225.752797
392.399642,2146.597232,-8586.388927,1455.581446
392.399970,1776.494261,-8438.347739,995.924147
392.400297,962.267725,-8512.368333,842.705048
392.400625,-296.082377,-9030.512492,306.438199
392.400952,-2220.617826,-9474.636058,76.609550
392.401280,-2664.741391,-9474.636058,0.000000
392.401607,-1850.514855,-9474.636058,383.047749
392.401935,-888.247130,-9474.636058,383.047749
392.402263,296.082377,-8956.491898,1302.362347
392.402590,1850.514855,-8882.471304,1455.581446
392.402918,1924.535449,-8882.471304,1302.362347
392.403245,1554.432478,-8956.491898,1532.190996
392.403573,296.082377,-9326.594869,689.485948
392.403900,-1850.514855,-9696.697840,306.438199
392.404228,-2738.761985,-10066.800811,-76.609550
392.404555,-3404.947333,-9844.739029,0.000000
392.404883,-2664.741391,-9178.553681,0.000000
392.405210,-740.205942,-8808.450710,306.438199
392.405538,962.267725,-7920.203579,1225.752797
392.405866,2220.617826,-7550.100608,1072.533697
392.406193,2442.679609,-7920.203579,1991.848295
392.406521,1998.556043,-8438.347739,1915.238745
392.406848,74.020594,-8586.388927,1302.362347
392.407176,-1924.535449,-9474.636058,842.705048
392.407503,-2442.679609,-10066.800811,612.876398
392.407831,-2664.741391,-9992.780217,536.266849
392.408158,-2146.597232,-9030.512492,306.438199
392.408486,-962.267725,-9400.615463,919.314598
392.408814,222.061783,-8882.471304,919.314598
392.409141,1332.370696,-8290.306550,1072.533697
392.409469,2072.576638,-8438.347739,766.095498
392.409796,1110.308913,-8586.388927,306.438199
392.410124,-518.144159,-9326.594869,0.000000
392.410451,-2146.597232,-9400.615463,-459.657299
392.410779,-3182.885551,-9918.759623,-459.657299
392.411106,-3182.885551,-9400.615463,-689.485948
392.411434,-2516.700203,-9326.594869,-919.314598
392.411761,-1110.308913,-9030.512492,-306.438199
392.412089,666.185348,-8660.409521,76.609550
392.412417,1702.473667,-8290.306550,612.876398
392.412744,2220.617826,-7846.182985,766.095498
392.413072,2294.638420,-8808.450710,766.095498
392.413399,1036.288319,-8734.430116,306.438199
392.413727,-444.123565,-9548.656652,229.828649
392.414054,-1480.411884,-9548.656652,-306.438199
392.414382,-1406.391290,-9770.718434,0.000000
392.414709,-888.247130,-9030.512492,-229.828649
392.415037,518.144159,-9178.553681,229.828649
392.415364,1998.556043,-8808.450710,766.095498
392.415692,3182.885551,-8660.409521,1302.362347
392.416020,2886.803174,-8808.450710,1455.581446
392.416347,1554.432478,-9548.656652,995.924147
392.416675,-592.164754,-10510.924376,153.219100
392.417002,-2220.617826,-10955.047942,-383.047749
392.417330,-3404.947333,-11029.068536,-689.485948
392.417657,-3330.926739,-9548.656652,-229.828649
392.417985,-1850.514855,-9622.677246,-306.438199
392.418312,296.082377,-8364.327145,612.876398
392.418640,1702.473667,-7994.224174,995.924147
392.418968,2886.803174,-7994.224174,1762.019645
392.419295,2368.659014,-8216.285956,2068.457845
392.419623,740.205942,-8068.244768,1455.581446
392.419950,-1628.453072,-9770.718434,536.266849
392.420278,-2738.761985,-9992.780217,459.657299
392.420605,-3849.070898,-9844.739029,536.266849
392.420933,-2664.741391,-9622.677246,612.876398
392.421260,-1110.308913,-9326.594869,1608.800546
392.421588,74.020594,-9104.533087,1762.019645
392.421915,1702.473667,-8956.491898,2068.457845
392.422243,1924.535449,-8660.409521,1915.238745
392.422571,1480.411884,-9178.553681,1149.143247
392.422898,592.164754,-9548.656652,1149.143247
392.423226,-1628.453072,-9696.697840,229.828649
392.423553,-2812.782580,-10140.821405,0.000000
392.423881,-2812.782580,-9844.739029,0.000000
392.424208,-2442.679609,-9844.739029,306.438199
392.424536,-1258.350101,-9326.594869,919.314598
392.424863,222.061783,-8734.430116,1225.752797
392.425191,1406.391290,-8216.285956,1302.362347
392.425518,1850.514855,-8216.285956,1225.752797
392.425846,1628.453072,-8956.491898,1225.752797
392.426174,666.185348,-9104.533087,1378.971896
392.426501,-444.123565,-8808.450710,0.000000
392.426829,-1924.535449,-9400.615463,229.828649
392.427156,-1702.473667,-9548.656652,306.438199
392.427484,-1776.494261,-8882.471304,0.000000
392.427811,148.041188,-8734.430116,459.657299
392.428139,1628.453072,-8586.388927,995.924147
392.428466,2072.576638,-7920.203579,1072.533697
392.428794,2738.761985,-8808.450710,1455.581446
392.429121,2368.659014,-8882.471304,1225.752797
392.429449,0.000000,-9400.615463,306.438199
392.429777,-1554.432478,-10066.800811,76.609550
392.430104,-1998.556043,-10510.924376,-383.047749
392.430432,-2738.761985,-9844.739029,-459.657299
392.430759,-1850.514855,-9252.574275,76.609550
392.431087,222.061783,-8808.450710,612.876398
392.431414,1554.432478,-7920.203579,1378.971896
392.431742,2664.741391,-8734.430116,1532.190996
392.432069,2368.659014,-8216.285956,1455.581446
392.432397,1480.411884,-8216.285956,1302.362347
392.432725,-370.102971,-9178.553681,842.705048
392.433052,-2294.638420,-9030.512492,0.000000
392.433380,-3034.844362,-8882.471304,-536.266849
392.433707,-2812.782580,-9474.636058,-153.219100
392.434035,-2072.576638,-8808.450710,0.000000
392.434362,-518.144159,-8068.244768,76.609550
392.434690,666.185348,-8142.265362,459.657299
392.435017,1554.432478,-8512.368333,919.314598
392.435345,1406.391290,-8068.244768,306.438199
392.435672,888.247130,-8364.327145,459.657299
392.436000,-518.144159,-9474.636058,0.000000
392.436328,-2220.617826,-9770.718434,-306.438199
392.436655,-2516.700203,-10066.800811,-536.266849
392.436983,-2220.617826,-9844.739029,-229.828649
392.437310,-1480.411884,-9474.636058,-229.828649
392.437638,0.000000,-9252.574275,153.219100
392.437965,1036.288319,-8438.347739,459.657299
392.438293,2516.700203,-8364.327145,766.095498
392.438620,3034.844362,-8586.388927,1762.019645
392.438948,1406.391290,-8586.388927,842.705048
392.439275,0.000000,-9474.636058,766.095498
392.439603,-1036.288319,-9770.718434,536.266849
392.439931,-2368.659014,-9474.636058,-153.219100
392.440258,-1702.473667,-9548.656652,0.000000
392.440586,-1036.288319,-9178.553681,459.657299
392.440913,222.061783,-8956.491898,919.314598
392.441241,1406.391290,-8290.306550,1378.971896
392.441568,2220.617826,-8586.388927,1532.190996
392.441896,2146.597232,-8586.388927,1762.019645
392.442223,592.164754,-9252.574275,1225.752797
392.442551,-1184.329507,-9770.718434,612.876398
392.442878,-3034.844362,-9918.759623,0.000000
392.443206,-3404.947333,-9844.739029,-153.219100
392.443534,-2516.700203,-9400.615463,0.000000
392.443861,-1258.350101,-8586.388927,459.657299
392.444189,888.247130,-7994.224174,1532.190996
392.444516,2738.761985,-7920.203579,2145.067394
392.444844,2442.679609,-8290.306550,2145.067394
392.445171,1628.453072,-8660.409521,2145.067394
392.445499,148.041188,-9326.594869,1838.629195
392.445826,-1850.514855,-9696.697840,919.314598
392.446154,-3256.906145,-9696.697840,689.485948
392.446482,-3256.906145,-10066.800811,459.657299
392.446809,-2738.761985,-9474.636058,689.485948
392.447137,-1332.370696,-8956.491898,919.314598
392.447464,444.123565,-8586.388927,1302.362347
392.447792,1406.391290,-8512.368333,995.924147
392.448119,1554.432478,-8512.368333,1149.143247
392.448447,592.164754,-8660.409521,612.876398
392.448774,-296.082377,-9326.594869,76.609550
392.449102,-2072.576638,-9400.615463,0.000000
392.449429,-2812.782580,-10214.842000,-383.047749
392.449757,-3404.947333,-9918.759623,-612.876398
392.450085,-2664.741391,-9548.656652,-842.705048
392.450412,-1036.288319,-8956.491898,0.000000
392.450740,888.247130,-8808.450710,153.219100
392.451067,1776.494261,-8142.265362,229.828649
392.451395,3034.844362,-8290.306550,919.314598
392.451722,2738.761985,-8660.409521,919.314598
392.452050,962.267725,-8660.409521,612.876398
392.452377,74.020594,-9474.636058,-612.876398
392.452705,-1258.350101,-9918.759623,-229.828649
392.453032,-1850.514855,-9918.759623,-766.095498
392.453360,-814.226536,-9474.636058,-383.047749
392.453688,296.082377,-9548.656652,76.609550
392.454015,1258.350101,-8956.491898,842.705048
392.454343,2812.782580,-8586.388927,842.705048
392.454670,2664.741391,-9104.533087,995.924147
392.454998,2368.659014,-9474.636058,1072.533697
392.455325,74.020594,-9770.718434,153.219100
392.455653,-1850.514855,-10140.821405,-383.047749
392.455980,-2812.782580,-10214.842000,-383.047749
392.456308,-2960.823768,-9918.759623,-383.047749
392.456636,-1554.432478,-9030.512492,229.828649
392.456963,222.061783,-8586.388927,995.924147
392.457291,1850.514855,-8142.265362,2757.943793
392.457618,2516.700203,-7550.100608,2374.896044
392.457946,1924.535449,-7772.162391,2068.457845
392.458273,666.185348,-8586.388927,1991.848295
392.458601,-1184.329507,-9326.594869,1762.019645
392.458928,-2960.823768,-9326.594869,842.705048
392.459256,-3182.885551,-8808.450710,689.485948
392.459583,-2738.761985,-9326.594869,1149.143247
392.459911,-1998.556043,-9030.512492,1455.581446
392.460239,-518.144159,-8216.285956,1378.971896
392.460566,592.164754,-8142.265362,1685.410096
392.460894,1110.308913,-8068.244768,1838.629195
392.461221,296.082377,-8290.306550,1149.143247
392.461549,-518.144159,-8808.450710,995.924147
392.461877,-2072.576638,-9474.636058,306.438199
392.462204,-3256.906145,-9918.759623,-153.219100
392.462532,-3478.967927,-9474.636058,-459.657299
392.462859,-3775.050304,-9622.677246,-919.314598
392.463187,-2368.659014,-9474.636058,-153.219100
392.463515,-444.123565,-8438.347739,0.000000
392.463842,1036.288319,-8216.285956,76.609550
392.464170,2590.720797,-8068.244768,383.047749
392.464497,3034.844362,-8068.244768,1072.533697
392.464825,2072.576638,-8734.430116,383.047749
392.465152,296.082377,-9326.594869,0.000000
392.465480,-666.185348,-9696.697840,-229.828649
392.465808,-1258.350101,-10066.800811,-689.485948
392.466135,-1332.370696,-9696.697840,-383.047749
392.466463,148.041188,-9548.656652,-153.219100
392.466790,1998.556043,-9252.574275,459.657299
392.467118,3256.906145,-8882.471304,995.924147
392.467446,4145.153275,-8586.388927,1302.362347
392.467773,3404.947333,-8882.471304,612.876398
392.468101,1850.514855,-9770.718434,383.047749
392.468428,-444.123565,-10214.842000,0.000000
392.468756,-2886.803174,-10510.924376,-536.266849
392.469084,-3330.926739,-10510.924376,-229.828649
392.469411,-2590.720797,-9474.636058,-383.047749
392.469739,-1332.370696,-8438.347739,612.876398
392.470066,814.226536,-8364.327145,1225.752797
392.470394,1998.556043,-7920.203579,1838.629195
392.470721,2072.576638,-7994.224174,1838.629195
392.471049,888.247130,-7994.224174,1762.019645
392.471377,-592.164754,-8734.430116,1225.752797
392.471704,-3034.844362,-9474.636058,536.266849
392.472032,-4145.153275,-9622.677246,306.438199
392.472359,-4293.194464,-9400.615463,306.438199
392.472687,-2960.823768,-8882.471304,536.266849
392.473015,-1406.391290,-8290.306550,1302.362347
392.473342,148.041188,-8660.409521,1302.362347
392.473670,888.247130,-8512.368333,1455.581446
392.473997,962.267725,-8808.450710,1302.362347
392.474325,148.041188,-9326.594869,995.924147
392.474653,-1332.370696,-9844.739029,459.657299
392.474980,-2294.638420,-10214.842000,76.609550
392.475308,-3034.844362,-10658.965565,-612.876398
392.475635,-2738.761985,-10510.924376,-383.047749
392.475963,-1850.514855,-8956.491898,-153.219100
392.476290,74.020594,-8808.450710,306.438199
392.476618,2146.597232,-8808.450710,766.095498
392.476946,2072.576638,-8142.265362,689.485948
392.477273,2812.782580,-8364.327145,919.314598
392.477601,2368.659014,-9030.512492,1302.362347
392.477928,962.267725,-8586.388927,229.828649
392.478256,-592.164754,-9696.697840,-306.438199
392.478584,-1184.329507,-10140.821405,-306.438199
392.478911,-1850.514855,-9474.636058,-383.047749
392.479239,-592.164754,-9326.594869,0.000000
392.479566,444.123565,-9030.512492,229.828649
392.479894,1628.453072,-7846.182985,995.924147
392.480222,2886.803174,-8586.388927,1302.362347
392.480549,3108.864956,-8660.409521,1149.143247
392.480877,1850.514855,-8956.491898,842.705048
392.481204,-222.061783,-9474.636058,153.219100
392.481532,-2294.638420,-9622.677246,-383.047749
392.481860,-2960.823768,-9400.615463,0.000000
392.482187,-2664.741391,-9770.718434,153.219100
392.482515,-1332.370696,-8808.450710,612.876398
392.482842,222.061783,-8142.265362,1302.362347
392.483170,1850.514855,-8660.409521,2145.067394
392.483497,2072.576638,-8216.285956,2145.067394
392.483825,1184.329507,-8364.327145,1915.238745
392.484153,148.041188,-8956.491898,1532.190996
392.484480,-1776.494261,-9400.615463,689.485948
392.484808,-3108.864956,-9400.615463,766.095498
392.485135,-3108.864956,-9030.512492,306.438199
392.485463,-2368.659014,-8882.471304,689.485948
392.485791,-1554.432478,-8660.409521,842.705048
392.486118,-370.102971,-7920.203579,1149.143247
392.486446,444.123565,-8142.265362,1225.752797
392.486773,518.144159,-8586.388927,1149.143247
392.487101,74.020594,-8660.409521,842.705048
392.487429,-666.185348,-9030.512492,229.828649
392.487756,-1702.473667,-9992.780217,306.438199
392.488084,-2442.679609,-9992.780217,153.219100
392.488411,-2368.659014,-9622.677246,0.000000
392.488739,-2368.659014,-9548.656652,-383.047749
392.489066,-1036.288319,-9104.533087,153.219100
392.489394,444.123565,-8882.471304,383.047749
392.489722,1924.535449,-8290.306550,459.657299
392.490049,2664.741391,-8290.306550,766.095498
392.490377,2812.782580,-8512.368333,1302.362347
392.490704,1628.453072,-8956.491898,459.657299
392.491032,222.061783,-9400.615463,229.828649
392.491360,-1110.308913,-10066.800811,0.000000
392.491687,-2146.597232,-9770.718434,-153.219100
392.492015,-2220.617826,-9474.636058,-995.924147
392.492342,-666.185348,-9474.636058,-383.047749
392.492670,740.205942,-9030.512492,0.000000
392.492998,2368.659014,-8882.471304,919.314598
392.493325,2812.782580,-8512.368333,919.314598
392.493653,2664.741391,-8956.491898,1225.752797
392.493980,888.247130,-9252.574275,766.095498
392.494308,-1110.308913,-9770.718434,0.000000
392.494635,-2738.761985,-9992.780217,-689.485948
392.494963,-3034.844362,-10140.821405,-612.876398
392.495291,-2146.597232,-9918.759623,306.438199
392.495618,0.000000,-8882.471304,995.924147
392.495946,1554.432478,-8512.368333,1685.410096
392.496273,2738.761985,-8364.327145,2221.676944
392.496601,2442.679609,-8586.388927,2374.896044
392.496929,1258.350101,-8734.430116,2068.457845
392.497256,-592.164754,-9178.553681,1608.800546
392.497584,-2368.659014,-9622.677246,459.657299
392.497911,-3330.926739,-9622.677246,459.657299
392.498239,-2812.782580,-9474.636058,383.047749
392.498567,-1554.432478,-9326.594869,995.924147
392.498894,0.000000,-8438.347739,1378.971896
392.499222,888.247130,-8512.368333,1762.019645
392.499549,1258.350101,-8364.327145,1838.629195
392.499877,814.226536,-8808.450710,1072.533697
392.500204,-370.102971,-9474.636058,842.705048
392.500532,-1628.453072,-9918.759623,383.047749
392.500860,-3478.967927,-9622.677246,-383.047749
392.501187,-3997.112087,-10066.800811,-306.438199
392.501515,-3478.967927,-9770.718434,-306.438199
392.501842,-2812.782580,-8882.471304,-536.266849
392.502170,-592.164754,-8660.409521,-153.219100
392.502498,888.247130,-8512.368333,306.438199
392.502825,1702.473667,-7772.162391,76.609550
392.503153,2368.659014,-8216.285956,536.266849
392.503480,1998.556043,-8808.450710,612.876398
392.503808,666.185348,-8956.491898,76.609550
392.504136,-814.226536,-9622.677246,-459.657299
392.504463,-1258.350101,-10362.883188,-383.047749
392.504791,-1850.514855,-9844.739029,-689.485948
392.505118,-740.205942,-9548.656652,-383.047749
392.505446,814.226536,-9622.677246,0.000000
392.505774,1850.514855,-8882.471304,1072.533697
392.506101,3182.885551,-8512.368333,842.705048
392.506429,3552.988522,-8364.327145,1149.143247
392.506756,2294.638420,-8808.450710,459.657299
392.507084,296.082377,-9770.718434,229.828649
392.507411,-1554.432478,-9770.718434,-383.047749
392.507739,-2072.576638,-9770.718434,-766.095498
392.508067,-2072.576638,-9622.677246,-383.047749
392.508394,-370.102971,-9474.636058,689.485948
392.508722,888.247130,-8734.430116,1378.971896
392.509049,2220.617826,-8364.327145,1991.848295
392.509377,2516.700203,-8586.388927,2604.724693
392.509705,1702.473667,-9104.533087,2451.505594
392.510032,-444.123565,-9030.512492,1455.581446
392.510360,-2220.617826,-9770.718434,1072.533697
392.510687,-3034.844362,-9696.697840,842.705048
392.511015,-3478.967927,-8882.471304,536.266849
392.511343,-2442.679609,-8660.409521,766.095498
392.511670,-814.226536,-8512.368333,1302.362347
392.511998,74.020594,-7994.224174,1532.190996
392.512325,666.185348,-8290.306550,1685.410096
392.512653,592.164754,-7994.224174,1455.581446
392.512980,0.000000,-9030.512492,1149.143247
392.513308,-1332.370696,-9844.739029,842.705048
392.513636,-3330.926739,-10140.821405,229.828649
392.513963,-3923.091493,-10288.862594,-229.828649
392.514291,-3849.070898,-10140.821405,76.609550
392.514618,-3108.864956,-9326.594869,76.609550
392.514946,-1702.473667,-9104.533087,76.609550
392.515274,444.123565,-8438.347739,459.657299
392.515601,1628.453072,-8068.244768,153.219100
392.515929,2368.659014,-7698.141797,383.047749
392.516256,2368.659014,-7920.203579,842.705048
392.516584,1036.288319,-8808.450710,459.657299
392.516912,-370.102971,-9104.533087,-153.219100
392.517239,-1332.370696,-9548.656652,-459.657299
392.517567,-1924.535449,-10362.883188,-766.095498
392.517894,-1184.329507,-9474.636058,-612.876398
392.518222,222.061783,-9252.574275,0.000000
392.518549,1406.391290,-8956.491898,383.047749
392.518877,2812.782580,-8734.430116,1149.143247
392.519205,3034.844362,-8290.306550,689.485948
392.519532,2812.782580,-8290.306550,459.657299
392.519860,814.226536,-9104.533087,689.485948
392.520187,-1184.329507,-9548.656652,-536.266849
392.520515,-2664.741391,-9252.574275,-1072.533697
392.520843,-2590.720797,-9474.636058,-842.705048
392.521170,-1776.494261,-8882.471304,-1225.752797
392.521498,148.041188,-8586.388927,919.314598
392.521825,1776.494261,-7994.224174,1302.362347
392.522153,2590.720797,-7994.224174,1915.238745
392.522481,2368.659014,-8216.285956,2298.286494
392.522808,592.164754,-8438.347739,2298.286494
392.523136,-1406.391290,-9104.533087,995.924147
392.523463,-2812.782580,-9696.697840,536.266849
392.523791,-3552.988522,-9474.636058,306.438199
392.524119,-2960.823768,-9400.615463,689.485948
392.524446,-1480.411884,-8660.409521,995.924147
392.524774,148.041188,-8068.244768,1532.190996
392.525101,1480.411884,-8068.244768,1915.238745
392.525429,1702.473667,-8438.347739,1915.238745
392.525756,814.226536,-8734.430116,1302.362347
392.526084,-222.061783,-9474.636058,842.705048
392.526412,-1850.514855,-10066.800811,229.828649
392.526739,-2812.782580,-10362.883188,153.219100
392.527067,-3182.885551,-10510.924376,76.609550
392.527394,-2738.761985,-10436.903782,0.000000
392.527722,-1850.514855,-9918.759623,153.219100
392.528050,0.000000,-9252.574275,306.438199
392.528377,814.226536,-9030.512492,766.095498
392.528705,1628.453072,-8808.450710,612.876398
392.529032,1554.432478,-8808.450710,536.266849
392.529360,1258.350101,-9178.553681,536.266849
392.529688,-148.041188,-9548.656652,76.609550
392.530015,-1850.514855,-9474.636058,0.000000
392.530343,-2368.659014,-9992.780217,-842.705048
392.530670,-1924.535449,-10066.800811,-689.485948
392.530998,-1480.411884,-9548.656652,-689.485948
392.531325,444.123565,-8956.491898,-306.438199
392.531653,2368.659014,-8438.347739,459.657299
392.531981,3330.926739,-8882.471304,766.095498
392.532308,3108.864956,-9252.574275,842.705048
392.532636,1924.535449,-9474.636058,612.876398
392.532963,-222.061783,-9696.697840,153.219100
392.533291,-1554.432478,-10214.842000,-689.485948
392.533619,-2220.617826,-9992.780217,-459.657299
392.533946,-1332.370696,-9400.615463,153.219100
392.534274,222.061783,-9030.512492,842.705048
392.534601,2072.576638,-8586.388927,1915.238745
392.534929,2812.782580,-8512.368333,1991.848295
392.535257,2812.782580,-7920.203579,2834.553343
392.535584,1406.391290,-8660.409521,2451.505594
392.535912,-444.123565,-8882.471304,1838.629195
392.536239,-2442.679609,-9400.615463,1225.752797
392.536567,-3552.988522,-9030.512492,536.266849
392.536894,-3404.947333,-8290.306550,1455.581446
392.537222,-2368.659014,-8216.285956,919.314598
392.537550,-1406.391290,-7550.100608,1149.143247
392.537877,0.000000,-7476.080014,1378.971896
392.538205,296.082377,-7476.080014,1455.581446
392.538532,0.000000,-7698.141797,1685.410096
392.538860,-1110.308913,-7920.203579,689.485948
392.539188,-2146.597232,-8734.430116,229.828649
392.539515,-3256.906145,-9326.594869,0.000000
392.539843,-3923.091493,-9178.553681,-306.438199
392.540170,-3108.864956,-9104.533087,0.000000
392.540498,-1776.494261,-8882.471304,-229.828649
392.540826,-740.205942,-8734.430116,76.609550
392.541153,1110.308913,-8808.450710,536.266849
392.541481,2294.638420,-8660.409521,612.876398
392.541808,2886.803174,-8438.347739,919.314598
392.542136,2368.659014,-8808.450710,689.485948
392.542464,1332.370696,-9400.615463,0.000000
392.542791,0.000000,-9770.718434,0.000000
392.543119,-1184.329507,-10140.821405,-536.266849
392.543446,-962.267725,-9918.759623,-919.314598
392.543774,-518.144159,-9622.677246,0.000000
392.544101,370.102971,-9548.656652,-459.657299
392.544429,2368.659014,-8808.450710,0.000000
392.544757,2738.761985,-8808.450710,153.219100
392.545084,3108.864956,-8956.491898,306.438199
392.545412,2146.597232,-8882.471304,842.705048
392.545739,0.000000,-9548.656652,-229.828649
392.546067,-1554.432478,-10140.821405,-842.705048
392.546395,-2738.761985,-10288.862594,-919.314598
392.546722,-3256.906145,-10140.821405,-689.485948
392.547050,-1628.453072,-9400.615463,-153.219100
392.547377,222.061783,-9104.533087,1072.533697
392.547705,2220.617826,-8660.409521,1762.019645
392.548033,2368.659014,-8364.327145,1915.238745
392.548360,2368.659014,-8586.388927,2451.505594
392.548688,814.226536,-8882.471304,2221.676944
392.549015,-1702.473667,-9770.718434,459.657299
392.549343,-3182.885551,-9844.739029,536.266849
392.549670,-3552.988522,-9770.718434,459.657299
392.549998,-2442.679609,-9844.739029,1225.752797
392.550326,-1406.391290,-9326.594869,1762.019645
392.550653,0.000000,-8882.471304,2451.505594
392.550981,1406.391290,-8734.430116,2374.896044
392.551308,814.226536,-8956.491898,2298.286494
392.551636,0.000000,-9104.533087,1302.362347
392.551964,-1184.329507,-9474.636058,1072.533697
392.552291,-2812.782580,-9474.636058,612.876398
392.552619,-3330.926739,-9844.739029,229.828649
392.552946,-3627.009116,-9696.697840,0.000000
392.553274,-2960.823768,-9252.574275,0.000000
392.553602,-1406.391290,-8808.450710,459.657299
392.553929,0.000000,-8142.265362,766.095498
392.554257,962.267725,-8438.347739,536.266849
392.554584,1998.556043,-8290.306550,919.314598
392.554912,1850.514855,-8512.368333,919.314598
392.555239,666.185348,-8956.491898,229.828649
392.555567,-592.164754,-9622.677246,229.828649
392.555895,-1110.308913,-10066.800811,229.828649
392.556222,-1850.514855,-9548.656652,-536.266849
392.556550,-1480.411884,-9474.636058,-459.657299
392.556877,-296.082377,-9252.574275,-153.219100
392.557205,1628.453072,-9178.553681,306.438199
392.557533,3108.864956,-8290.306550,536.266849
392.557860,3034.844362,-8068.244768,612.876398
392.558186,2664.741391,-8882.471304,459.657299
392.558514,1110.308913,-9474.636058,306.438199
392.558841,-666.185348,-9622.677246,-229.828649
392.559169,-2368.659014,-9696.697840,-153.219100
392.559496,-2442.679609,-9622.677246,-459.657299
392.559824,-1332.370696,-9844.739029,-153.219100
392.560151,0.000000,-8882.471304,536.266849
392.560478,1776.494261,-8586.388927,1225.752797
392.560806,2442.679609,-7920.203579,2221.676944
392.561133,2738.761985,-8586.388927,2068.457845
392.561461,1406.391290,-9178.553681,1608.800546
392.561788,-592.164754,-9326.594869,1072.533697
392.562116,-2146.597232,-9696.697840,689.485948
392.562443,-2886.803174,-9474.636058,306.438199
392.562771,-2516.700203,-9696.697840,689.485948
392.563098,-1850.514855,-9178.553681,766.095498
392.563426,-592.164754,-8882.471304,1225.752797
392.563753,1036.288319,-8586.388927,1762.019645
392.564081,962.267725,-8364.327145,1685.410096
392.564408,444.123565,-8808.450710,1685.410096
392.564735,-222.061783,-9326.594869,1149.143247
392.565063,-2072.576638,-9696.697840,383.047749
392.565390,-3478.967927,-9696.697840,76.609550
392.565718,-3552.988522,-9918.759623,0.000000
392.566045,-3256.906145,-9252.574275,0.000000
392.566373,-1702.473667,-9030.512492,766.095498
392.566700,-222.061783,-8512.368333,459.657299
392.567028,888.247130,-8660.409521,995.924147
392.567355,1628.453072,-8512.368333,995.924147
392.567683,1628.453072,-8586.388927,919.314598
392.568010,1258.350101,-8808.450710,612.876398
392.568338,222.061783,-9622.677246,536.266849
392.568665,-1406.391290,-9844.739029,-153.219100
392.568993,-2220.617826,-9770.718434,-612.876398
392.569320,-1924.535449,-9548.656652,-766.095498
392.569647,-666.185348,-9252.574275,-229.828649
392.569975,666.185348,-9104.533087,-383.047749
392.570302,2072.576638,-8734.430116,229.828649
392.570630,3034.844362,-8660.409521,459.657299
392.570957,3108.864956,-8586.388927,612.876398
392.571285,2220.617826,-9030.512492,612.876398
392.571612,0.000000,-9474.636058,0.000000
392.571940,-1776.494261,-9844.739029,-995.924147
392.572267,-2590.720797,-9992.780217,-612.876398
392.572595,-2368.659014,-9252.574275,-612.876398
392.572922,-592.164754,-8586.388927,-153.219100
392.573250,1628.453072,-8068.244768,919.314598
392.573577,3108.864956,-7920.203579,1915.238745
392.573905,3404.947333,-7920.203579,2145.067394
392.574232,2664.741391,-8438.347739,1991.848295
392.574559,962.267725,-9252.574275,995.924147
392.574887,-1332.370696,-9030.512492,536.266849
392.575214,-3034.844362,-9696.697840,306.438199
392.575542,-3108.864956,-9474.636058,459.657299
392.575869,-2516.700203,-9104.533087,689.485948
392.576197,-962.267725,-8290.306550,1455.581446
392.576524,518.144159,-8068.244768,1838.629195
392.576852,1036.288319,-8142.265362,1838.629195
392.577179,962.267725,-8364.327145,1608.800546
392.577507,-148.041188,-8660.409521,1072.533697
392.577834,-1628.453072,-9030.512492,306.438199
392.578162,-3034.844362,-9474.636058,229.828649
392.578489,-3849.070898,-9400.615463,-383.047749
392.578817,-3330.926739,-9030.512492,153.219100
392.579144,-1776.494261,-8882.471304,536.266849
392.579471,-740.205942,-8290.306550,766.095498
392.579799,814.226536,-8512.368333,1149.143247
392.580126,1480.411884,-8216.285956,1149.143247
392.580454,1628.453072,-8290.306550,1455.581446
392.580781,1258.350101,-8586.388927,689.485948
392.581109,370.102971,-9622.677246,842.705048
392.581436,-962.267725,-9844.739029,383.047749
392.581764,-1924.535449,-9474.636058,-383.047749
392.582091,-2294.638420,-10066.800811,-306.438199
392.582419,-2220.617826,-9326.594869,-919.314598
392.582746,0.000000,-9178.553681,-306.438199
392.583074,1258.350101,-8882.471304,153.219100
392.583401,1850.514855,-8216.285956,0.000000
392.583728,2812.782580,-8660.409521,612.876398
392.584056,2442.679609,-9178.553681,612.876398
392.584383,0.000000,-9474.636058,-306.438199
392.584711,-1110.308913,-10066.800811,-383.047749
392.585038,-1776.494261,-10658.965565,-536.266849
392.585366,-2590.720797,-9992.780217,-689.485948
392.585693,-1332.370696,-9548.656652,0.000000
392.586021,592.164754,-9326.594869,766.095498
392.586348,2146.597232,-8586.388927,1532.190996
392.586676,3034.844362,-8142.265362,2298.286494
392.587003,2960.823768,-8068.244768,1762.019645
392.587331,1702.473667,-8808.450710,1455.581446
392.587658,-296.082377,-9326.594869,1072.533697
392.587986,-2220.617826,-9622.677246,76.609550
392.588313,-2516.700203,-9844.739029,153.219100
392.588640,-2220.617826,-9474.636058,689.485948
392.588968,-962.267725,-9178.553681,612.876398
392.589295,148.041188,-8734.430116,1225.752797
392.589623,1184.329507,-8586.388927,1532.190996
392.589950,1110.308913,-8956.491898,2068.457845
392.590278,740.205942,-8882.471304,1991.848295
392.590605,-1110.308913,-8956.491898,536.266849
392.590933,-2368.659014,-9770.718434,306.438199
392.591260,-3256.906145,-9696.697840,76.609550
392.591588,-3775.050304,-9400.615463,0.000000
392.591915,-2664.741391,-8808.450710,536.266849
392.592243,-888.247130,-8438.347739,842.705048
392.592570,370.102971,-8216.285956,1072.533697
392.592898,1332.370696,-7994.224174,1378.971896
392.593225,1850.514855,-8290.306550,1378.971896
392.593552,1776.494261,-8660.409521,1072.533697
392.593880,592.164754,-8512.368333,1072.533697
392.594207,-1036.288319,-9474.636058,612.876398
392.594535,-1998.556043,-9992.780217,76.609550
392.594862,-2368.659014,-9844.739029,0.000000
392.595190,-2220.617826,-9622.677246,-383.047749
392.595517,-1110.308913,-9030.512492,459.657299
392.595845,0.000000,-9030.512492,-153.219100
392.596172,1480.411884,-8660.409521,76.609550
392.596500,2146.597232,-8512.368333,306.438199
392.596827,2072.576638,-8512.368333,383.047749
392.597155,888.247130,-9030.512492,0.000000
392.597482,-888.247130,-9326.594869,-536.266849
392.597809,-2220.617826,-9696.697840,-536.266849
392.598137,-2664.741391,-9770.718434,-689.485948
392.598464,-1924.535449,-9474.636058,-612.876398
392.598792,-518.144159,-8660.409521,0.000000
392.599119,1332.370696,-8586.388927,995.924147
392.599447,2738.761985,-8364.327145,1378.971896
392.599774,3404.947333,-8068.244768,1685.410096
392.600102,2368.659014,-8438.347739,1838.629195
392.600429,1036.288319,-9030.512492,1685.410096
392.600757,-1184.329507,-9400.615463,842.705048
392.601084,-2516.700203,-9844.739029,306.438199
392.601412,-2886.803174,-9770.718434,153.219100
392.601739,-2146.597232,-9252.574275,306.438199
392.602067,-148.041188,-8808.450710,1072.533697
392.602394,888.247130,-8660.409521,1378.971896
392.602721,1332.370696,-8290.306550,1685.410096
392.603049,1332.370696,-8660.409521,1685.410096
392.603376,222.061783,-9178.553681,1378.971896
392.603704,-1850.514855,-9474.636058,689.485948
392.604031,-3552.988522,-9252.574275,306.438199
392.604359,-3627.009116,-9548.656652,0.000000
392.604686,-3256.906145,-9252.574275,76.609550
392.605014,-1850.514855,-8956.491898,536.266849
392.605341,-370.102971,-8142.265362,1072.533697
392.605669,1258.350101,-8142.265362,1915.238745
392.605996,1776.494261,-8216.285956,1455.581446
392.606324,1036.288319,-8364.327145,842.705048
392.606651,592.164754,-8808.450710,1072.533697
392.606979,-444.123565,-9474.636058,689.485948
392.607306,-2368.659014,-9770.718434,612.876398
392.607633,-2516.700203,-9548.656652,-459.657299
392.607961,-1850.514855,-9844.739029,0.000000
392.608288,-1702.473667,-9474.636058,-536.266849
392.608616,-296.082377,-9326.594869,0.000000
392.608943,1332.370696,-9178.553681,76.609550
392.609271,1850.514855,-8586.388927,919.314598
392.609598,2146.597232,-8956.491898,459.657299
392.609926,1702.473667,-9400.615463,459.657299
392.610253,-296.082377,-9696.697840,-306.438199
392.610581,-1850.514855,-10288.862594,-459.657299
392.610908,-2664.741391,-10510.924376,-1225.752797
392.611236,-3108.864956,-9918.759623,-919.314598
392.611563,-1258.350101,-9400.615463,-689.485948
392.611891,1110.308913,-8882.471304,383.047749
392.612218,2886.803174,-7920.203579,842.705048
392.612545,4145.153275,-7624.121203,1915.238745
392.612873,3923.091493,-8216.285956,1762.019645
392.613200,2220.617826,-8808.450710,1378.971896
392.613528,0.000000,-9326.594869,842.705048
392.613855,-1924.535449,-9992.780217,229.828649
392.614183,-2294.638420,-9918.759623,766.095498
392.614510,-1628.453072,-9474.636058,766.095498
392.614838,-592.164754,-9474.636058,1149.143247
392.615165,666.185348,-8808.450710,1762.019645
392.615493,1850.514855,-8808.450710,2374.896044
392.615820,1406.391290,-8660.409521,2145.067394
392.616148,0.000000,-8660.409521,1991.848295
392.616475,-1184.329507,-9474.636058,766.095498
392.616802,-3108.864956,-9696.697840,76.609550
392.617130,-4367.215058,-9400.615463,153.219100
392.617457,-3997.112087,-9326.594869,153.219100
392.617785,-3478.967927,-7994.224174,536.266849
392.618112,-1628.453072,-8512.368333,995.924147
392.618440,0.000000,-8142.265362,1302.362347
392.618767,740.205942,-7698.141797,1685.410096
392.619095,666.185348,-7994.224174,1685.410096
392.619422,296.082377,-7846.182985,1685.410096
392.619750,-370.102971,-8882.471304,919.314598
392.620077,-1554.432478,-9252.574275,536.266849
392.620405,-2442.679609,-9622.677246,229.828649
392.620732,-2590.720797,-9548.656652,0.000000
392.621060,-1850.514855,-9326.594869,459.657299
392.621387,0.000000,-9326.594869,0.000000
392.621714,1258.350101,-9030.512492,383.047749
392.622042,2590.720797,-8808.450710,383.047749
392.622369,2886.803174,-8808.450710,383.047749
392.622697,2294.638420,-9474.636058,229.828649
392.623024,1184.329507,-9622.677246,383.047749
392.623352,-888.247130,-10066.800811,-689.485948
392.623679,-2590.720797,-10584.944971,-1302.362347
392.624007,-2516.700203,-10436.903782,-1455.581446
392.624334,-2072.576638,-9474.636058,-1225.752797
392.624662,74.020594,-8734.430116,76.609550
392.624989,2072.576638,-8216.285956,536.266849
392.625317,3775.050304,-7920.203579,1072.533697
392.625644,3849.070898,-7920.203579,1302.362347
392.625972,2960.823768,-8142.265362,1149.143247
392.626299,962.267725,-8808.450710,995.924147
392.626626,-1406.391290,-9474.636058,-306.438199
392.626954,-2368.659014,-9696.697840,-153.219100
392.627281,-1850.514855,-9992.780217,0.000000
392.627609,-1036.288319,-9474.636058,383.047749
392.627936,888.247130,-8956.491898,1225.752797
392.628264,2220.617826,-8882.471304,1532.190996
392.628591,1924.535449,-8808.450710,1838.629195
392.628919,1924.535449,-9252.574275,1838.629195
392.629246,-148.041188,-9548.656652,919.314598
392.629574,-2220.617826,-9992.780217,459.657299
392.629901,-3182.885551,-9918.759623,0.000000
392.630229,-4071.132681,-9696.697840,0.000000
392.630556,-3478.967927,-9178.553681,229.828649
392.630883,-1702.473667,-8808.450710,995.924147
392.631211,-370.102971,-8512.368333,1225.752797
392.631538,518.144159,-7698.141797,2298.286494
392.631866,814.226536,-7328.038826,2068.457845
392.632193,666.185348,-8364.327145,1532.190996
392.632521,-296.082377,-8660.409521,1149.143247
392.632848,-1480.411884,-9178.553681,689.485948
392.633176,-2516.700203,-9030.512492,306.438199
392.633503,-2664.741391,-9252.574275,306.438199
392.633831,-2590.720797,-9474.636058,0.000000
392.634158,-1406.391290,-9474.636058,306.438199
392.634486,0.000000,-8660.409521,306.438199
392.634813,1480.411884,-8734.430116,689.485948
392.635141,2146.597232,-8660.409521,995.924147
392.635468,1702.473667,-8734.430116,306.438199
392.635795,1258.350101,-9548.656652,306.438199
392.636123,-740.205942,-9992.780217,-229.828649
392.636450,-2146.597232,-10288.862594,-766.095498
392.636778,-2220.617826,-9992.780217,-919.314598
392.637105,-2220.617826,-9844.739029,-766.095498
392.637433,-666.185348,-9252.574275,-229.828649
392.637760,1184.329507,-8808.450710,612.876398
392.638088,2886.803174,-8290.306550,995.924147
392.638415,3775.050304,-8290.306550,1685.410096
392.638743,3404.947333,-8364.327145,1302.362347
392.639070,1332.370696,-8808.450710,995.924147
392.639398,-592.164754,-9326.594869,153.219100
392.639725,-1702.473667,-9622.677246,0.000000
392.640053,-1998.556043,-9252.574275,-153.219100
392.640380,-1036.288319,-9178.553681,536.266849
392.640707,222.061783,-9030.512492,995.924147
392.641035,1406.391290,-8882.471304,1302.362347
392.641362,1924.535449,-8734.430116,1685.410096
392.641690,2072.576638,-8734.430116,1608.800546
392.642017,518.144159,-8882.471304,919.314598
392.642345,-1110.308913,-9474.636058,612.876398
392.642672,-2738.761985,-9918.759623,0.000000
392.643000,-3997.112087,-9844.739029,-459.657299
392.643327,-3701.029710,-9400.615463,0.000000
392.643655,-2738.761985,-9030.512492,76.609550
392.643982,-1184.329507,-8438.347739,766.095498
392.644310,296.082377,-8216.285956,1378.971896
392.644637,1036.288319,-8290.306550,1532.190996
392.644965,1110.308913,-8290.306550,1225.752797
392.645292,740.205942,-9326.594869,1302.362347
392.645619,-592.164754,-9252.574275,919.314598
392.645947,-2072.576638,-9622.677246,459.657299
392.646274,-2812.782580,-9770.718434,0.000000
392.646602,-2368.659014,-9474.636058,229.828649
392.646929,-1628.453072,-9178.553681,-153.219100
392.647257,0.000000,-8956.491898,612.876398
392.647584,1702.473667,-8438.347739,766.095498
392.647912,2220.617826,-8364.327145,612.876398
392.648239,2664.741391,-8586.388927,1149.143247
392.648567,1850.514855,-9326.594869,919.314598
392.648894,-296.082377,-9252.574275,536.266849
392.649222,-1554.432478,-10288.862594,0.000000
392.649549,-2368.659014,-10584.944971,-612.876398
392.649876,-2516.700203,-10288.862594,-383.047749
392.650204,-1332.370696,-9474.636058,-306.438199
392.650531,370.102971,-8734.430116,1149.143247
392.650859,2146.597232,-8438.347739,995.924147
392.651186,2738.761985,-8142.265362,1302.362347
392.651514,2886.803174,-8290.306550,1532.190996
392.651841,1628.453072,-8734.430116,1225.752797
392.652169,-740.205942,-8586.388927,536.266849
392.652496,-2294.638420,-9400.615463,-229.828649
392.652824,-2738.761985,-9622.677246,0.000000
392.653151,-2886.803174,-9400.615463,0.000000
392.653479,-1480.411884,-8882.471304,229.828649
392.653806,370.102971,-8586.388927,612.876398
392.654134,1184.329507,-8290.306550,1532.190996
392.654461,1850.514855,-8438.347739,1455.581446
392.654788,1332.370696,-8586.388927,1378.971896
392.655116,-222.061783,-9030.512492,1072.533697
392.655443,-1924.535449,-10066.800811,383.047749
392.655771,-2368.659014,-9918.759623,229.828649
392.656098,-2886.803174,-9622.677246,-153.219100
392.656426,-1924.535449,-9622.677246,383.047749
392.656753,-888.247130,-9030.512492,995.924147
392.657081,518.144159,-8290.306550,1302.362347
392.657408,1776.494261,-7846.182985,1991.848295
392.657736,1480.411884,-8068.244768,1608.800546
392.658063,1332.370696,-8586.388927,1608.800546
392.658391,148.041188,-8956.491898,766.095498
392.658718,-1332.370696,-9548.656652,536.266849
392.659046,-2220.617826,-9696.697840,0.000000
392.659373,-2664.741391,-9474.636058,0.000000
392.659701,-2368.659014,-9400.615463,-229.828649
392.660028,-814.226536,-9178.553681,0.000000
392.660356,592.164754,-8660.409521,306.438199
392.660683,1480.411884,-8290.306550,766.095498
392.661011,2146.597232,-7920.203579,306.438199
392.661338,1776.494261,-8660.409521,383.047749
392.661666,222.061783,-9400.615463,0.000000
392.661993,-1332.370696,-9696.697840,-459.657299
392.662321,-2664.741391,-10140.821405,-689.485948
392.662648,-2516.700203,-10288.862594,-919.314598
392.662976,-1924.535449,-9622.677246,-383.047749
392.663303,0.000000,-9252.574275,76.609550
392.663631,1702.473667,-8512.368333,689.485948
392.663958,2960.823768,-8512.368333,1149.143247
392.664286,2960.823768,-8142.265362,1378.971896
392.664613,1628.453072,-8438.347739,1225.752797
392.664941,518.144159,-9622.677246,612.876398
392.665268,-1258.350101,-9696.697840,229.828649
392.665596,-2368.659014,-9918.759623,-153.219100
392.665923,-2960.823768,-9844.739029,0.000000
392.666251,-2072.576638,-9918.759623,153.219100
392.666578,-592.164754,-8956.491898,459.657299
392.666906,740.205942,-8660.409521,536.266849
392.667233,1628.453072,-8438.347739,1149.143247
392.667561,1924.535449,-8660.409521,842.705048
392.667888,518.144159,-8808.450710,919.314598
392.668216,-814.226536,-9474.636058,536.266849
392.668543,-2368.659014,-9548.656652,0.000000
392.668871,-2738.761985,-9770.718434,153.219100
392.669199,-2442.679609,-9548.656652,612.876398
392.669526,-1480.411884,-8586.388927,612.876398
392.669854,296.082377,-8586.388927,1608.800546
392.670181,1480.411884,-8364.327145,1685.410096
392.670509,2072.576638,-8290.306550,1991.848295
392.670836,1628.453072,-8290.306550,1915.238745
392.671164,592.164754,-8660.409521,1149.143247
392.671491,-518.144159,-9252.574275,995.924147
392.671819,-2146.597232,-9252.574275,842.705048
392.672146,-2516.700203,-9326.594869,459.657299
392.672474,-2516.700203,-9030.512492,306.438199
392.672801,-1332.370696,-9104.533087,306.438199
392.673129,-370.102971,-8586.388927,153.219100
392.673456,814.226536,-8438.347739,842.705048
392.673784,1406.391290,-8586.388927,1302.362347
392.674111,1184.329507,-9030.512492,1072.533697
392.674439,0.000000,-9474.636058,536.266849
392.674766,-1406.391290,-9696.697840,76.609550
392.675094,-2664.741391,-9696.697840,0.000000
392.675421,-3182.885551,-9770.718434,-306.438199
392.675749,-2738.761985,-9178.553681,-459.657299
392.676076,-1110.308913,-8734.430116,0.000000
392.676404,592.164754,-7698.141797,689.485948
392.676731,2072.576638,-7772.162391,536.266849
392.677059,2738.761985,-7772.162391,766.095498
392.677386,2812.782580,-8438.347739,1149.143247
392.677714,1184.329507,-9030.512492,766.095498
392.678042,-370.102971,-9326.594869,919.314598
392.678369,-1406.391290,-10214.842000,229.828649
392.678697,-2442.679609,-10288.862594,-229.828649
392.679024,-2590.720797,-10214.842000,0.000000
392.679352,-888.247130,-9474.636058,0.000000
392.679679,518.144159,-9178.553681,612.876398
392.680007,2220.617826,-8290.306550,1378.971896
392.680334,2368.659014,-8586.388927,995.924147
392.680662,1776.494261,-8586.388927,383.047749
392.680989,444.123565,-9030.512492,383.047749
392.681317,-1480.411884,-9622.677246,0.000000
392.681644,-2368.659014,-9400.615463,229.828649
392.681972,-2886.803174,-9622.677246,-306.438199
392.682299,-1924.535449,-9622.677246,153.219100
392.682627,-666.185348,-9178.553681,689.485948
392.682954,814.226536,-8586.388927,1378.971896
392.683282,1924.535449,-8290.306550,1838.629195
392.683609,2368.659014,-8512.368333,1915.238745
392.683937,1332.370696,-8660.409521,1455.581446
392.684264,-148.041188,-9104.533087,919.314598
392.684592,-1776.494261,-9474.636058,306.438199
392.684919,-2664.741391,-9474.636058,383.047749
392.685247,-2368.659014,-9622.677246,0.000000
392.685574,-1850.514855,-9252.574275,0.000000
392.685902,-444.123565,-8882.471304,536.266849
392.686229,1258.350101,-8660.409521,689.485948
392.686557,1554.432478,-8290.306550,995.924147
392.686884,1702.473667,-8142.265362,1149.143247
392.687212,666.185348,-8734.430116,766.095498
392.687540,-740.205942,-9474.636058,459.657299
392.687867,-2368.659014,-9918.759623,0.000000
392.688195,-3034.844362,-10214.842000,-153.219100
392.688522,-2886.803174,-9474.636058,76.609550
392.688850,-1554.432478,-9326.594869,306.438199
392.689177,0.000000,-8882.471304,612.876398
392.689505,1332.370696,-8290.306550,1072.533697
392.689832,2442.679609,-7846.182985,1455.581446
392.690160,2516.700203,-7920.203579,1532.190996
392.690487,1406.391290,-8216.285956,995.924147
392.690815,0.000000,-9400.615463,612.876398
392.691142,-1776.494261,-9844.739029,306.438199
392.691470,-2960.823768,-9992.780217,0.000000
392.691797,-2664.741391,-10066.800811,306.438199
392.692125,-1554.432478,-9622.677246,306.438199
392.692452,0.000000,-8956.491898,689.485948
392.692780,1258.350101,-8660.409521,995.924147
392.693107,2368.659014,-8512.368333,1149.143247
392.693435,1924.535449,-8438.347739,995.924147
392.693762,740.205942,-8734.430116,689.485948
392.694090,-888.247130,-9400.615463,612.876398
392.694417,-2664.741391,-9696.697840,-459.657299
392.694745,-3108.864956,-9622.677246,-459.657299
392.695072,-2442.679609,-9548.656652,-229.828649
392.695400,-1702.473667,-8660.409521,306.438199
392.695727,222.061783,-8216.285956,459.657299
392.696055,1554.432478,-8142.265362,1302.362347
392.696383,2368.659014,-8290.306550,1378.971896
392.696710,2220.617826,-8438.347739,1378.971896
392.697038,962.267725,-8586.388927,1072.533697
392.697365,-740.205942,-8808.450710,1225.752797
392.697693,-2294.638420,-9622.677246,229.828649
392.698020,-2812.782580,-9918.759623,0.000000
392.698348,-2368.659014,-9548.656652,0.000000
392.698675,-1036.288319,-9252.574275,306.438199
392.699003,592.164754,-9178.553681,689.485948
392.699330,1628.453072,-8808.450710,1072.533697
392.699658,1998.556043,-8660.409521,995.924147
392.699985,1776.494261,-8956.491898,536.266849
392.700313,518.144159,-9474.636058,383.047749
392.700640,-1110.308913,-9622.677246,612.876398
392.700968,-2590.720797,-9918.759623,-153.219100
392.701295,-2812.782580,-10066.800811,-306.438199
392.701623,-2442.679609,-9252.574275,-459.657299
392.701950,-814.226536,-8734.430116,229.828649
392.702278,1184.329507,-8438.347739,1149.143247
392.702605,2516.700203,-7846.182985,1532.190996
392.702933,2960.823768,-7920.203579,1608.800546
392.703260,2072.576638,-8586.388927,1608.800546
392.703588,370.102971,-9178.553681,995.924147
392.703915,-1184.329507,-9696.697840,306.438199
392.704243,-3182.885551,-9474.636058,0.000000
392.704570,-3330.926739,-10066.800811,-229.828649
392.704898,-2368.659014,-9548.656652,76.609550
392.705226,-814.226536,-8882.471304,229.828649
392.705553,962.267725,-8660.409521,689.485948
392.705881,2442.679609,-8364.327145,1532.190996
392.706208,1998.556043,-8586.388927,1225.752797
392.706536,1036.288319,-9178.553681,766.095498
392.706863,-592.164754,-9400.615463,0.000000
392.707191,-2146.597232,-9844.739029,0.000000
392.707518,-2886.803174,-9770.718434,383.047749
392.707846,-3034.844362,-9548.656652,306.438199
392.708173,-1924.535449,-9252.574275,383.047749
392.708501,-222.061783,-8882.471304,1072.533697
392.708828,1332.370696,-8512.368333,1838.629195
392.709156,2220.617826,-8586.388927,1455.581446
392.709483,2738.761985,-8586.388927,1608.800546
392.709811,1258.350101,-8882.471304,1225.752797
392.710138,0.000000,-9178.553681,842.705048
392.710466,-1702.473667,-9548.656652,306.438199
392.710793,-2442.679609,-9548.656652,459.657299
392.711121,-2664.741391,-9178.553681,229.828649
392.711448,-1554.432478,-9474.636058,459.657299
392.711776,-296.082377,-9252.574275,612.876398
392.712103,1110.308913,-8660.409521,995.924147
392.712431,1850.514855,-8364.327145,1072.533697
392.712758,1850.514855,-8808.450710,1302.362347
392.713086,666.185348,-9252.574275,919.314598
392.713413,-740.205942,-9622.677246,383.047749
392.713741,-2368.659014,-9770.718434,-229.828649
392.714068,-3404.947333,-9918.759623,-459.657299
392.714396,-2664.741391,-9474.636058,536.266849
392.714724,-1258.350101,-8882.471304,229.828649
392.715051,444.123565,-8512.368333,689.485948
392.715379,2294.638420,-8068.244768,1685.410096
392.715706,2516.700203,-8068.244768,1378.971896
392.716034,2368.659014,-8364.327145,1991.848295
392.716361,1110.308913,-9030.512492,766.095498
392.716689,-1036.288319,-9474.636058,76.609550
392.717016,-2220.617826,-9474.636058,0.000000
392.717344,-2738.761985,-10066.800811,-153.219100
392.717671,-3182.885551,-9326.594869,-383.047749
392.717999,-1480.411884,-9104.533087,383.047749
392.718326,0.000000,-8956.491898,459.657299
392.718654,1110.308913,-8290.306550,766.095498
392.718981,1850.514855,-8660.409521,1072.533697
392.719309,1406.391290,-9104.533087,689.485948
392.719636,296.082377,-8808.450710,153.219100
392.719964,-1184.329507,-9474.636058,0.000000
392.720291,-2516.700203,-9770.718434,-383.047749
392.720619,-2812.782580,-9548.656652,-306.438199
