#time,accel_x,accel_y,accel_z
505.038978,-370.102971,-8956.491898,306.438199
505.039306,-370.102971,-9104.533087,612.876398
505.039634,-370.102971,-9104.533087,536.266849
505.039962,-370.102971,-9178.553681,766.095498
505.040291,0.000000,-8734.430116,766.095498
505.040619,0.000000,-8808.450710,689.485948
505.040947,-370.102971,-9030.512492,612.876398
505.041275,-296.082377,-9104.533087,689.485948
505.041603,-296.082377,-9104.533087,536.266849
505.041931,-296.082377,-8882.471304,689.485948
505.042259,-222.061783,-8808.450710,383.047749
505.042587,-296.082377,-9104.533087,612.876398
505.042915,-296.082377,-9178.553681,536.266849
505.043243,-296.082377,-9104.533087,689.485948
505.043571,-296.082377,-8956.491898,383.047749
505.043899,0.000000,-8734.430116,689.485948
505.044227,-370.102971,-9326.594869,306.438199
505.044555,-148.041188,-9104.533087,689.485948
505.044883,-296.082377,-9030.512492,459.657299
505.045211,0.000000,-9252.574275,612.876398
505.045539,-148.041188,-8882.471304,612.876398
505.045867,-444.123565,-9474.636058,766.095498
505.046195,-222.061783,-9030.512492,459.657299
505.046523,0.000000,-8882.471304,612.876398
505.046851,-148.041188,-9178.553681,459.657299
505.047179,0.000000,-9178.553681,919.314598
505.047508,0.000000,-9104.533087,536.266849
505.047836,-370.102971,-8956.491898,536.266849
505.048164,-296.082377,-9252.574275,306.438199
505.048492,-740.205942,-9326.594869,76.609550
505.048820,-1258.350101,-9474.636058,153.219100
505.049148,-1184.329507,-9474.636058,-306.438199
505.049476,-1036.288319,-9252.574275,-536.266849
505.049804,-814.226536,-8956.491898,-383.047749
505.050132,-518.144159,-8882.471304,-536.266849
505.050460,-888.247130,-9252.574275,-842.705048
505.050788,-1110.308913,-9252.574275,-1149.143247
505.051116,-1036.288319,-8956.491898,-842.705048
505.051444,-1184.329507,-9104.533087,-1455.581446
505.051772,-814.226536,-8956.491898,-1302.362347
505.052100,-518.144159,-9252.574275,-1072.533697
505.052428,-370.102971,-9326.594869,-1302.362347
505.052756,-370.102971,-8882.471304,-689.485948
505.053084,-222.061783,-9252.574275,-1225.752797
505.053412,0.000000,-9474.636058,-1532.190996
505.053740,74.020594,-9400.615463,-1685.410096
505.054068,666.185348,-9474.636058,-1608.800546
505.054396,518.144159,-9030.512492,-1378.971896
505.054725,518.144159,-9474.636058,-1838.629195
505.055053,222.061783,-9400.615463,-1608.800546
505.055381,444.123565,-9178.553681,-1838.629195
505.055709,444.123565,-9178.553681,-1685.410096
505.056037,592.164754,-9030.512492,-1685.410096
505.056365,222.061783,-9326.594869,-2068.457845
505.056693,0.000000,-9252.574275,-1608.800546
505.057021,148.041188,-9104.533087,-1455.581446
505.057349,222.061783,-9104.533087,-1608.800546
505.057677,222.061783,-9326.594869,-1378.971896
505.058005,-444.123565,-9178.553681,-1608.800546
505.058333,-888.247130,-9104.533087,-1991.848295
505.058661,-962.267725,-9178.553681,-2068.457845
505.058989,-1184.329507,-8956.491898,-1991.848295
505.059317,-1332.370696,-8660.409521,-2068.457845
505.059645,-1258.350101,-8956.491898,-2451.505594
505.059973,-1924.535449,-8882.471304,-2757.943793
505.060301,-2294.638420,-8734.430116,-2987.772442
505.060629,-2146.597232,-8882.471304,-3294.210641
505.060957,-2368.659014,-8512.368333,-3524.039291
505.061285,-1776.494261,-8438.347739,-3753.867940
505.061613,-2072.576638,-8808.450710,-4060.306139
505.061942,-1850.514855,-8956.491898,-4366.744339
505.062270,-1628.453072,-8808.450710,-4060.306139
505.062598,-1332.370696,-8956.491898,-4060.306139
505.062926,-74.020594,-8734.430116,-4443.353888
505.063254,444.123565,-8956.491898,-3217.601092
505.063582,962.267725,-8956.491898,-3064.381992
505.063910,1924.535449,-8956.491898,-2757.943793
505.064238,2516.700203,-9104.533087,-2451.505594
505.064566,2590.720797,-9030.512492,-1915.238745
505.064894,2220.617826,-9474.636058,-2068.457845
505.065222,1406.391290,-9992.780217,-1991.848295
505.065550,518.144159,-10288.862594,-2374.896044
505.065878,-518.144159,-10140.821405,-3447.429741
505.066206,-1480.411884,-10140.821405,-3524.039291
505.066534,-1628.453072,-10436.903782,-4060.306139
505.066862,-1850.514855,-9992.780217,-4903.011187
505.067190,-1036.288319,-8882.471304,-4826.401637
505.067518,444.123565,-7846.182985,-4519.963438
505.067846,1924.535449,-7105.977043,-3447.429741
505.068174,2812.782580,-7624.121203,-2757.943793
505.068502,2812.782580,-7328.038826,-2451.505594
505.068830,1628.453072,-8364.327145,-1991.848295
505.069159,0.000000,-9252.574275,-2068.457845
505.069487,-2368.659014,-9992.780217,-2068.457845
505.069815,-3775.050304,-10436.903782,-2528.115143
505.070143,-3997.112087,-10955.047942,-2681.334243
505.070471,-2516.700203,-9992.780217,-2221.676944
505.070799,1924.535449,-7846.182985,-306.438199
505.071127,7105.977043,-5995.668130,1838.629195
505.071455,10658.965565,-5181.441594,4366.744339
505.071783,10066.800811,-6735.874072,4443.353888
505.072111,5921.647536,-8882.471304,4213.525239
505.072439,0.000000,-11399.171507,2374.896044
505.072767,-6069.688724,-13175.665768,536.266849
505.073095,-9844.739029,-14137.933492,-1532.190996
505.073423,-12583.501014,-13841.851115,-3370.820191
505.073751,-11399.171507,-12139.377449,-3600.648841
505.074079,-9030.512492,-10140.821405,-4060.306139
505.074407,-4219.173869,-7476.080014,-2987.772442
505.074735,-2146.597232,-4293.194464,-3830.477490
505.075063,1332.370696,-4145.153275,-3677.258390
505.075391,-1924.535449,-5255.462188,-5439.278036
505.075719,-4885.359217,-6883.915261,-6205.373534
505.076047,-9696.697840,-8808.450710,-8044.002729
505.076376,-12287.418637,-9474.636058,-9269.755526
505.076704,-9178.553681,-10066.800811,-7967.393179
505.077032,-6661.853478,-8956.491898,-7277.907231
505.077360,740.205942,-7846.182985,-5362.668486
505.077688,5847.626942,-7179.997637,-3447.429741
505.078016,7920.203579,-7328.038826,-3753.867940
505.078344,8290.306550,-9030.512492,-3907.087040
505.078672,5625.565159,-11103.089130,-5439.278036
505.079000,4293.194464,-11177.109724,-6281.983084
505.079328,5773.606348,-11029.068536,-6052.154434
505.079656,9844.739029,-9622.677246,-4290.134789
505.079984,12435.459826,-8956.491898,-1455.581446
505.080312,13027.624579,-9992.780217,0.000000
505.080640,11325.150913,-10362.883188,-153.219100
505.080968,9030.512492,-11251.130318,-612.876398
505.081296,5995.668130,-11103.089130,-2145.067394
505.081624,4811.338623,-10658.965565,-1762.019645
505.081952,4589.276840,-10362.883188,-1532.190996
505.082280,-1554.432478,-12657.521608,-2451.505594
505.082608,-7994.224174,-13249.686362,-4749.792088
505.082936,-13175.665768,-11769.274478,-7354.516781
505.083264,-13249.686362,-7476.080014,-8120.612279
505.083593,-9030.512492,-3478.967927,-6971.469032
505.083921,-1184.329507,-1036.288319,-5822.325785
505.084249,1850.514855,-814.226536,-2911.162892
505.084577,3552.988522,-1554.432478,-2451.505594
505.084905,1036.288319,-3701.029710,-842.705048
505.085233,-2368.659014,-4737.318029,-1685.410096
505.085561,-3034.844362,-7328.038826,-612.876398
505.085889,-3330.926739,-10140.821405,766.095498
505.086217,-3256.906145,-11473.192101,2528.115143
505.086545,-2368.659014,-11695.253884,4060.306139
505.086873,0.000000,-11547.212695,6818.249932
505.087201,2886.803174,-9992.780217,8044.002729
505.087529,3404.947333,-10140.821405,6052.154434
505.087857,2442.679609,-11547.212695,4136.915689
505.088185,-592.164754,-12731.542202,1762.019645
505.088513,-3552.988522,-12139.377449,153.219100
505.088841,-2960.823768,-8734.430116,536.266849
505.089169,518.144159,-7994.224174,842.705048
505.089497,2516.700203,-7254.018232,1991.848295
505.089825,888.247130,-8808.450710,2528.115143
505.090153,-4811.338623,-9844.739029,766.095498
505.090481,-7402.059420,-8956.491898,1455.581446
505.090809,-6587.832884,-8512.368333,383.047749
505.091138,-6217.729913,-10362.883188,153.219100
505.091466,-5551.544565,-10584.944971,-612.876398
505.091794,-6143.709319,-10510.924376,-1991.848295
505.092122,-6735.874072,-8808.450710,-1991.848295
505.092450,-4663.297435,-6143.709319,-1608.800546
505.092778,-2442.679609,-5107.421000,-1608.800546
505.093106,0.000000,-5847.626942,-2681.334243
505.093434,1184.329507,-7772.162391,-4290.134789
505.093762,2368.659014,-8660.409521,-3370.820191
505.094090,4663.297435,-7772.162391,-2451.505594
505.094418,7550.100608,-7994.224174,-842.705048
505.094746,8438.347739,-10955.047942,229.828649
505.095074,7772.162391,-14434.015869,459.657299
505.095402,4959.379811,-15618.345376,1225.752797
505.095730,3034.844362,-13915.871710,459.657299
505.096058,3182.885551,-12509.480420,689.485948
505.096386,3256.906145,-12657.521608,1302.362347
505.096714,3034.844362,-12879.583391,1225.752797
505.097042,4219.173869,-11621.233289,1532.190996
505.097370,5477.523971,-8512.368333,1532.190996
505.097698,5625.565159,-6661.853478,2298.286494
505.098026,2072.576638,-6291.750507,459.657299
505.098354,-1184.329507,-7476.080014,-842.705048
505.098682,-3923.091493,-7402.059420,-2451.505594
505.099010,-5995.668130,-7402.059420,-1915.238745
505.099338,-5477.523971,-5255.462188,-2068.457845
505.099665,-4219.173869,-5699.585753,-842.705048
505.099993,-5255.462188,-7402.059420,-306.438199
505.100321,-4515.256246,-8216.285956,-842.705048
505.100649,-4515.256246,-8216.285956,-383.047749
505.100977,-2664.741391,-6439.791695,-76.609550
505.101305,-3256.906145,-7179.997637,-306.438199
505.101633,-5403.503377,-8438.347739,-383.047749
505.101961,-5625.565159,-9178.553681,-689.485948
505.102289,-4145.153275,-8660.409521,-229.828649
505.102616,-888.247130,-6957.935855,0.000000
505.102944,1850.514855,-7254.018232,1685.410096
505.103272,1924.535449,-9178.553681,2068.457845
505.103600,2072.576638,-9992.780217,2068.457845
505.103928,3182.885551,-10214.842000,1915.238745
505.104256,3627.009116,-9548.656652,1915.238745
505.104584,2886.803174,-9474.636058,2374.896044
505.104912,1924.535449,-10214.842000,1455.581446
505.105239,370.102971,-10807.006753,1225.752797
505.105567,1110.308913,-9400.615463,1532.190996
505.105895,2516.700203,-8734.430116,2221.676944
505.106223,1702.473667,-7698.141797,1378.971896
505.106551,-518.144159,-8142.265362,459.657299
505.106879,-666.185348,-9178.553681,689.485948
505.107207,1258.350101,-7105.977043,536.266849
505.107535,1850.514855,-6661.853478,1072.533697
505.107863,3182.885551,-7105.977043,1225.752797
505.108190,148.041188,-9178.553681,536.266849
505.108518,-2442.679609,-10955.047942,766.095498
505.108846,-3701.029710,-10584.944971,612.876398
505.109174,-2812.782580,-9918.759623,919.314598
505.109502,-2220.617826,-10066.800811,1762.019645
505.109830,-1554.432478,-11177.109724,536.266849
505.110158,-2146.597232,-10807.006753,229.828649
505.110486,-444.123565,-9400.615463,536.266849
505.110814,518.144159,-8734.430116,1072.533697
505.111141,-518.144159,-8808.450710,1225.752797
505.111469,-2220.617826,-9770.718434,0.000000
505.111797,-4515.256246,-10584.944971,-1072.533697
505.112125,-4589.276840,-9326.594869,-1225.752797
505.112453,-2368.659014,-8068.244768,-229.828649
505.112781,-444.123565,-7698.141797,612.876398
505.113109,148.041188,-9030.512492,536.266849
505.113437,814.226536,-10066.800811,919.314598
505.113764,1036.288319,-9030.512492,1225.752797
505.114092,1776.494261,-8512.368333,1762.019645
505.114420,1554.432478,-9844.739029,1762.019645
505.114748,296.082377,-11473.192101,1072.533697
505.115076,-1036.288319,-11843.295072,689.485948
505.115404,-666.185348,-11177.109724,1225.752797
505.115732,666.185348,-9770.718434,1532.190996
505.116060,888.247130,-9400.615463,1072.533697
505.116388,1258.350101,-9622.677246,1225.752797
505.116715,1702.473667,-9474.636058,536.266849
505.117043,592.164754,-8808.450710,383.047749
505.117371,2220.617826,-8364.327145,459.657299
505.117699,740.205942,-8364.327145,842.705048
505.118027,-1110.308913,-9770.718434,536.266849
505.118355,-2516.700203,-10436.903782,0.000000
505.118683,-2812.782580,-9770.718434,0.000000
505.119011,-2368.659014,-8734.430116,-229.828649
505.119339,-592.164754,-8512.368333,153.219100
505.119666,-1628.453072,-8808.450710,0.000000
505.119994,-1184.329507,-8512.368333,-766.095498
505.120322,0.000000,-7994.224174,76.609550
505.120650,888.247130,-6735.874072,229.828649
505.120978,1036.288319,-6513.812290,459.657299
505.121306,-148.041188,-7698.141797,229.828649
505.121634,-1332.370696,-9474.636058,0.000000
505.121962,-1924.535449,-8586.388927,-459.657299
505.122289,0.000000,-7772.162391,229.828649
505.122617,888.247130,-7846.182985,0.000000
505.122945,888.247130,-9030.512492,612.876398
505.123273,888.247130,-9474.636058,995.924147
505.123601,1924.535449,-8956.491898,1302.362347
505.123929,2738.761985,-8586.388927,1915.238745
505.124257,2516.700203,-8882.471304,1762.019645
505.124585,740.205942,-9992.780217,919.314598
505.124913,-1110.308913,-10436.903782,689.485948
505.125240,-1110.308913,-9400.615463,0.000000
505.125568,-1184.329507,-8808.450710,842.705048
505.125896,444.123565,-8364.327145,306.438199
505.126224,-962.267725,-9770.718434,0.000000
505.126552,-814.226536,-9474.636058,0.000000
505.126880,0.000000,-7550.100608,-229.828649
505.127208,1258.350101,-6439.791695,306.438199
505.127536,1554.432478,-6957.935855,-306.438199
505.127864,444.123565,-8660.409521,0.000000
505.128191,-2072.576638,-9622.677246,-229.828649
505.128519,-2368.659014,-8956.491898,-229.828649
505.128847,-962.267725,-8734.430116,306.438199
505.129175,-370.102971,-9474.636058,383.047749
505.129503,-444.123565,-10584.944971,229.828649
505.129831,-888.247130,-10807.006753,459.657299
505.130159,370.102971,-9326.594869,766.095498
505.130487,814.226536,-8956.491898,1225.752797
505.130814,666.185348,-9326.594869,1302.362347
505.131142,-1110.308913,-10881.027347,536.266849
505.131470,-2590.720797,-11843.295072,229.828649
505.131798,-2886.803174,-10955.047942,-229.828649
505.132126,-1702.473667,-9178.553681,76.609550
505.132454,-592.164754,-9252.574275,995.924147
505.132782,-444.123565,-9992.780217,842.705048
505.133110,-740.205942,-9992.780217,1149.143247
505.133438,74.020594,-8734.430116,1302.362347
505.133765,1628.453072,-7031.956449,2604.724693
505.134093,1702.473667,-7846.182985,2145.067394
505.134421,-222.061783,-9622.677246,1378.971896
505.134749,-2516.700203,-10807.006753,1378.971896
505.135077,-2516.700203,-9622.677246,995.924147
505.135405,-1924.535449,-8882.471304,1838.629195
505.135733,-296.082377,-8142.265362,1991.848295
505.136061,74.020594,-9474.636058,1455.581446
505.136389,-370.102971,-9622.677246,1225.752797
505.136716,296.082377,-8364.327145,1072.533697
505.137044,1998.556043,-7179.997637,1225.752797
505.137372,1776.494261,-7698.141797,1378.971896
505.137700,0.000000,-9326.594869,536.266849
505.138028,-1924.535449,-10140.821405,0.000000
505.138356,-1628.453072,-9548.656652,0.000000
505.138684,-888.247130,-8068.244768,383.047749
505.139012,0.000000,-8660.409521,306.438199
505.139339,-814.226536,-9770.718434,229.828649
505.139667,-1480.411884,-10214.842000,383.047749
505.139995,-666.185348,-9326.594869,306.438199
505.140323,444.123565,-8438.347739,766.095498
505.140651,888.247130,-8142.265362,689.485948
505.140979,-666.185348,-9400.615463,383.047749
505.141307,-1850.514855,-9992.780217,-459.657299
505.141635,-2146.597232,-8956.491898,-842.705048
505.141963,0.000000,-7624.121203,-306.438199
505.142290,1332.370696,-7031.956449,-689.485948
505.142618,1702.473667,-8216.285956,-229.828649
505.142946,1184.329507,-8660.409521,0.000000
505.143274,1776.494261,-8660.409521,459.657299
505.143602,2294.638420,-7994.224174,689.485948
505.143930,2368.659014,-8216.285956,1455.581446
505.144258,1036.288319,-10214.842000,0.000000
505.144586,-962.267725,-11547.212695,0.000000
505.144914,-1480.411884,-10658.965565,0.000000
505.145241,0.000000,-9474.636058,459.657299
505.145569,888.247130,-8956.491898,689.485948
505.145897,1628.453072,-9844.739029,612.876398
505.146225,296.082377,-10288.862594,0.000000
505.146553,888.247130,-9252.574275,459.657299
505.146881,1628.453072,-8142.265362,689.485948
505.147209,1702.473667,-7772.162391,1455.581446
505.147537,148.041188,-9474.636058,612.876398
505.147864,-1924.535449,-10807.006753,229.828649
505.148192,-2516.700203,-10140.821405,153.219100
505.148520,-2146.597232,-8956.491898,306.438199
505.148848,-1480.411884,-8882.471304,536.266849
505.149176,-1480.411884,-9548.656652,229.828649
505.149504,-2220.617826,-10214.842000,306.438199
505.149832,-1850.514855,-9030.512492,229.828649
505.150160,-592.164754,-8364.327145,995.924147
505.150488,74.020594,-8068.244768,1072.533697
505.150815,-962.267725,-8808.450710,1072.533697
505.151143,-2072.576638,-9918.759623,383.047749
505.151471,-2368.659014,-9548.656652,306.438199
505.151799,-1554.432478,-8586.388927,536.266849
505.152127,-740.205942,-8290.306550,612.876398
505.152455,-444.123565,-8956.491898,153.219100
505.152783,-296.082377,-9400.615463,1072.533697
505.153111,592.164754,-9030.512492,1302.362347
505.153439,2072.576638,-8216.285956,1685.410096
505.153766,2146.597232,-8216.285956,2068.457845
505.154094,74.020594,-9770.718434,1302.362347
505.154422,-2146.597232,-10362.883188,842.705048
505.154750,-2812.782580,-10066.800811,383.047749
505.155078,-1480.411884,-9030.512492,459.657299
505.155406,-222.061783,-8734.430116,689.485948
505.155734,444.123565,-9030.512492,459.657299
505.156062,74.020594,-9326.594869,995.924147
505.156389,962.267725,-8512.368333,612.876398
505.156717,1850.514855,-7328.038826,995.924147
505.157045,1850.514855,-7624.121203,842.705048
505.157373,148.041188,-9474.636058,306.438199
505.157701,-1554.432478,-10955.047942,459.657299
505.158029,-1480.411884,-10362.883188,306.438199
505.158357,-592.164754,-9178.553681,536.266849
505.158685,444.123565,-9030.512492,1302.362347
505.159013,740.205942,-9844.739029,1225.752797
505.159340,370.102971,-9696.697840,1225.752797
505.159668,1258.350101,-8734.430116,1608.800546
505.159996,2368.659014,-8068.244768,2145.067394
505.160324,2220.617826,-7920.203579,1608.800546
505.160652,888.247130,-9252.574275,1149.143247
505.160980,-1332.370696,-9992.780217,306.438199
505.161308,-2516.700203,-9474.636058,459.657299
505.161636,-1332.370696,-8364.327145,459.657299
505.161964,-888.247130,-8290.306550,383.047749
505.162291,-1480.411884,-8956.491898,-153.219100
505.162619,-2072.576638,-9548.656652,-306.438199
505.162947,-1332.370696,-8290.306550,-459.657299
505.163275,-370.102971,-7402.059420,229.828649
505.163603,0.000000,-7550.100608,306.438199
505.163931,-1258.350101,-8808.450710,-383.047749
505.164259,-2886.803174,-9992.780217,-689.485948
505.164587,-3034.844362,-9474.636058,-689.485948
505.164914,-1628.453072,-7920.203579,-536.266849
505.165242,-592.164754,-8068.244768,76.609550
505.165570,0.000000,-8734.430116,76.609550
505.165898,518.144159,-9696.697840,612.876398
505.166226,1628.453072,-8364.327145,842.705048
505.166554,2442.679609,-7624.121203,1838.629195
505.166882,2664.741391,-8586.388927,1532.190996
505.167210,1036.288319,-10066.800811,842.705048
505.167538,-1258.350101,-11251.130318,536.266849
505.167865,-1850.514855,-10362.883188,76.609550
505.168193,148.041188,-8808.450710,459.657299
505.168521,518.144159,-8808.450710,306.438199
505.168849,444.123565,-9548.656652,0.000000
505.169177,370.102971,-9918.759623,0.000000
505.169505,814.226536,-8882.471304,0.000000
505.169833,1850.514855,-7624.121203,1302.362347
505.170161,1850.514855,-8142.265362,766.095498
505.170489,222.061783,-9696.697840,612.876398
505.170816,-1628.453072,-10658.965565,306.438199
505.171144,-2368.659014,-10214.842000,689.485948
505.171472,-1406.391290,-8956.491898,1378.971896
505.171800,-518.144159,-8956.491898,689.485948
505.172128,-592.164754,-9770.718434,995.924147
505.172456,-592.164754,-10140.821405,842.705048
505.172784,296.082377,-9178.553681,1149.143247
505.173112,1480.411884,-7772.162391,1991.848295
505.173439,2146.597232,-8290.306550,2068.457845
505.173767,370.102971,-10140.821405,1378.971896
505.174095,-1776.494261,-11473.192101,689.485948
505.174423,-2812.782580,-11251.130318,612.876398
505.174751,-2590.720797,-10066.800811,612.876398
505.175079,-1850.514855,-9770.718434,919.314598
505.175407,-1924.535449,-10658.965565,459.657299
505.175735,-2220.617826,-10658.965565,0.000000
505.176063,-1406.391290,-9474.636058,0.000000
505.176390,0.000000,-7920.203579,536.266849
505.176718,814.226536,-7550.100608,76.609550
505.177046,-740.205942,-7846.182985,229.828649
505.177374,-2146.597232,-8808.450710,-229.828649
505.177702,-2146.597232,-8216.285956,-459.657299
505.178030,-1184.329507,-7179.997637,306.438199
505.178358,666.185348,-7105.977043,919.314598
505.178686,1332.370696,-7624.121203,2068.457845
505.179014,2072.576638,-8586.388927,2068.457845
505.179341,2590.720797,-8068.244768,2451.505594
505.179669,3552.988522,-7846.182985,3064.381992
505.179997,3404.947333,-7994.224174,3217.601092
505.180325,1480.411884,-9474.636058,2068.457845
505.180653,-518.144159,-10658.965565,1378.971896
505.180981,-1998.556043,-10214.842000,1149.143247
505.181309,-1554.432478,-9252.574275,919.314598
505.181637,-1036.288319,-9030.512492,766.095498
505.181964,-1258.350101,-9474.636058,842.705048
505.182292,-2220.617826,-9548.656652,0.000000
505.182620,-1924.535449,-8660.409521,-459.657299
505.182948,-814.226536,-7550.100608,-383.047749
505.183276,-666.185348,-7328.038826,-459.657299
505.183604,-1998.556043,-7624.121203,-1072.533697
505.183932,-3775.050304,-8808.450710,-1302.362347
505.184260,-4367.215058,-8586.388927,-1302.362347
505.184588,-3256.906145,-7402.059420,-842.705048
505.184915,-1480.411884,-7105.977043,-459.657299
505.185243,-666.185348,-7328.038826,-306.438199
505.185571,-666.185348,-7550.100608,-229.828649
505.185899,1110.308913,-7994.224174,306.438199
505.186227,2368.659014,-6883.915261,689.485948
505.186555,3182.885551,-7402.059420,919.314598
505.186883,2812.782580,-10362.883188,842.705048
505.187211,370.102971,-10288.862594,-383.047749
505.187539,740.205942,-11695.253884,612.876398
505.187866,370.102971,-10066.800811,-459.657299
505.188194,2886.803174,-10436.903782,1225.752797
505.188522,1924.535449,-11251.130318,-229.828649
505.188850,2072.576638,-11769.274478,76.609550
505.189178,1776.494261,-11325.150913,76.609550
505.189506,2220.617826,-9918.759623,612.876398
505.189834,1628.453072,-9770.718434,383.047749
505.190162,-370.102971,-11547.212695,0.000000
505.190489,-1998.556043,-11621.233289,0.000000
505.190817,-2738.761985,-10214.842000,-536.266849
505.191145,-1850.514855,-8956.491898,0.000000
505.191473,-148.041188,-7476.080014,383.047749
505.191801,296.082377,-8290.306550,919.314598
505.192129,666.185348,-8512.368333,1455.581446
505.192457,518.144159,-8438.347739,1762.019645
505.192785,1258.350101,-7698.141797,2068.457845
505.193113,740.205942,-8586.388927,2145.067394
505.193440,-666.185348,-9770.718434,1915.238745
505.193768,-2294.638420,-11325.150913,1302.362347
505.194096,-2516.700203,-10510.924376,1915.238745
505.194424,-1702.473667,-9474.636058,1762.019645
505.194752,-740.205942,-9474.636058,1991.848295
505.195080,-1258.350101,-10510.924376,1608.800546
505.195408,-2072.576638,-11103.089130,1149.143247
505.195736,-1554.432478,-9622.677246,1455.581446
505.196064,-1184.329507,-9104.533087,1225.752797
505.196391,-1258.350101,-9400.615463,842.705048
505.196719,-2442.679609,-10214.842000,766.095498
505.197047,-3849.070898,-10584.944971,0.000000
505.197375,-3627.009116,-8956.491898,306.438199
505.197703,-1850.514855,-7254.018232,306.438199
505.198031,-296.082377,-6809.894666,766.095498
505.198359,666.185348,-7254.018232,842.705048
505.198687,1036.288319,-7698.141797,1225.752797
505.199014,1924.535449,-7031.956449,1838.629195
505.199342,2738.761985,-6069.688724,2298.286494
505.199670,2960.823768,-6587.832884,2374.896044
505.199998,1628.453072,-8364.327145,1762.019645
505.200325,0.000000,-9474.636058,1225.752797
505.200653,-444.123565,-8956.491898,1225.752797
505.200981,1036.288319,-8068.244768,1455.581446
505.201309,1628.453072,-8438.347739,1532.190996
505.201637,1110.308913,-9474.636058,612.876398
505.201964,222.061783,-10140.821405,0.000000
505.202292,222.061783,-9474.636058,-229.828649
505.202620,888.247130,-8142.265362,-536.266849
505.202948,666.185348,-8364.327145,0.000000
505.203275,-814.226536,-9400.615463,-919.314598
505.203603,-3108.864956,-9992.780217,-1532.190996
505.203931,-4145.153275,-9474.636058,-1838.629195
505.204259,-3182.885551,-8142.265362,-2068.457845
505.204587,-2220.617826,-6883.915261,-1302.362347
505.204914,-1702.473667,-7624.121203,-1302.362347
505.205242,-1480.411884,-8216.285956,-1149.143247
505.205570,-222.061783,-7476.080014,-766.095498
505.205898,1332.370696,-6143.709319,766.095498
505.206225,2442.679609,-6439.791695,766.095498
505.206553,1628.453072,-8364.327145,689.485948
505.206881,296.082377,-9844.739029,76.609550
505.207209,296.082377,-10214.842000,383.047749
505.207537,1110.308913,-9918.759623,1072.533697
505.207864,2368.659014,-9844.739029,1455.581446
505.208192,2146.597232,-11029.068536,919.314598
505.208520,1332.370696,-12065.356855,689.485948
505.208848,962.267725,-11473.192101,383.047749
505.209175,1776.494261,-10288.862594,459.657299
505.209503,1702.473667,-9400.615463,612.876398
505.209831,296.082377,-11029.068536,0.000000
505.210159,-2220.617826,-11917.315666,-612.876398
505.210487,-3108.864956,-11251.130318,-919.314598
505.210814,-2220.617826,-9178.553681,-229.828649
505.211142,-962.267725,-8438.347739,919.314598
505.211470,-666.185348,-8586.388927,536.266849
505.211798,-740.205942,-9326.594869,842.705048
505.212125,0.000000,-8660.409521,1378.971896
505.212453,1110.308913,-7105.977043,2145.067394
505.212781,1332.370696,-7105.977043,2681.334243
505.213109,296.082377,-8734.430116,2451.505594
505.213437,-1406.391290,-9770.718434,2298.286494
505.213764,-1998.556043,-9844.739029,2068.457845
505.214092,-1480.411884,-9326.594869,2298.286494
505.214420,-962.267725,-9474.636058,1991.848295
505.214748,-888.247130,-10362.883188,1838.629195
505.215075,-1998.556043,-10881.027347,1302.362347
505.215403,-1628.453072,-10214.842000,1149.143247
505.215731,-518.144159,-9178.553681,1302.362347
505.216059,-370.102971,-9252.574275,1378.971896
505.216387,-1998.556043,-10510.924376,0.000000
505.216714,-4219.173869,-10807.006753,-536.266849
505.217042,-4367.215058,-9844.739029,-689.485948
505.217370,-2886.803174,-8068.244768,-229.828649
505.217698,-1110.308913,-7254.018232,229.828649
505.218025,-222.061783,-7624.121203,919.314598
505.218353,0.000000,-8290.306550,1378.971896
505.218681,222.061783,-7328.038826,1685.410096
505.219009,1628.453072,-6513.812290,2068.457845
505.219337,2294.638420,-6735.874072,2451.505594
505.219664,1480.411884,-8068.244768,1762.019645
505.219992,222.061783,-8586.388927,1685.410096
505.220320,0.000000,-8290.306550,1455.581446
505.220648,1184.329507,-7476.080014,1378.971896
505.220975,2368.659014,-7698.141797,1455.581446
505.221303,2072.576638,-8660.409521,612.876398
505.221631,1036.288319,-9844.739029,383.047749
505.221959,666.185348,-9474.636058,0.000000
505.222287,962.267725,-8956.491898,0.000000
505.222614,592.164754,-9474.636058,-153.219100
505.222942,-1110.308913,-10881.027347,-1149.143247
505.223270,-3552.988522,-11843.295072,-1915.238745
505.223598,-3923.091493,-10658.965565,-2451.505594
505.223925,-3108.864956,-8956.491898,-2145.067394
505.224253,-1480.411884,-8290.306550,-1608.800546
505.224581,-962.267725,-8068.244768,-1532.190996
505.224909,-740.205942,-8734.430116,-1608.800546
505.225237,0.000000,-7920.203579,-1225.752797
505.225564,1110.308913,-6587.832884,-612.876398
505.225892,2368.659014,-6069.688724,0.000000
505.226220,2442.679609,-7402.059420,153.219100
505.226548,1332.370696,-9252.574275,612.876398
505.226875,592.164754,-9400.615463,689.485948
505.227203,1184.329507,-9252.574275,995.924147
505.227531,2072.576638,-9474.636058,1149.143247
505.227859,1702.473667,-10732.986159,1149.143247
505.228187,1036.288319,-11991.336260,842.705048
505.228514,1628.453072,-11177.109724,1302.362347
505.228842,2442.679609,-10362.883188,1072.533697
505.229170,2072.576638,-10214.842000,919.314598
505.229498,0.000000,-11473.192101,689.485948
505.229825,-2072.576638,-11695.253884,-153.219100
505.230153,-3404.947333,-11251.130318,-153.219100
505.230481,-2664.741391,-9474.636058,-229.828649
505.230809,-1628.453072,-8808.450710,153.219100
505.231137,-1332.370696,-8882.471304,536.266849
505.231464,-1332.370696,-8956.491898,919.314598
505.231792,-1184.329507,-8290.306550,766.095498
505.232120,0.000000,-6883.915261,2681.334243
505.232448,444.123565,-6883.915261,2528.115143
505.232775,-666.185348,-8142.265362,2298.286494
505.233103,-2368.659014,-9252.574275,1838.629195
505.233431,-2738.761985,-9178.553681,2451.505594
505.233759,-2368.659014,-8068.244768,2374.896044
505.234087,-814.226536,-7698.141797,2068.457845
505.234414,-444.123565,-8734.430116,1762.019645
505.234742,-888.247130,-9622.677246,1455.581446
505.235070,-740.205942,-9326.594869,1302.362347
505.235398,592.164754,-8068.244768,1455.581446
505.235725,296.082377,-8734.430116,995.924147
505.236053,-1258.350101,-10362.883188,229.828649
505.236381,-3330.926739,-11843.295072,-306.438199
505.236709,-4219.173869,-11103.089130,-459.657299
505.237037,-2960.823768,-9400.615463,-383.047749
505.237364,-888.247130,-8660.409521,-383.047749
505.237692,-1110.308913,-9326.594869,0.000000
505.238020,-370.102971,-9252.574275,76.609550
505.238348,222.061783,-7772.162391,76.609550
505.238675,1998.556043,-6143.709319,1149.143247
505.239003,3182.885551,-5847.626942,1225.752797
505.239331,1998.556043,-7476.080014,919.314598
505.239659,962.267725,-8734.430116,766.095498
505.239987,962.267725,-8438.347739,766.095498
505.240314,1184.329507,-8068.244768,1149.143247
505.240642,2442.679609,-8142.265362,1455.581446
505.240970,2664.741391,-9326.594869,1072.533697
505.241298,2146.597232,-10214.842000,689.485948
505.241625,2220.617826,-10436.903782,689.485948
505.241953,2368.659014,-9918.759623,766.095498
505.242281,1628.453072,-10140.821405,1225.752797
505.242609,222.061783,-11769.274478,0.000000
505.242936,-2368.659014,-12879.583391,-1378.971896
505.243264,-3849.070898,-11843.295072,-1991.848295
505.243592,-2886.803174,-10362.883188,-1762.019645
505.243920,-1850.514855,-9474.636058,-1378.971896
505.244248,-888.247130,-9104.533087,-1225.752797
505.244575,-1554.432478,-9252.574275,-1225.752797
505.244903,-962.267725,-8364.327145,-919.314598
505.245231,0.000000,-7105.977043,-229.828649
505.245559,666.185348,-6365.771101,383.047749
505.245886,0.000000,-7179.997637,536.266849
505.246214,-888.247130,-8660.409521,766.095498
505.246542,-1480.411884,-8956.491898,689.485948
505.246870,-740.205942,-8956.491898,1532.190996
505.247198,148.041188,-8660.409521,1762.019645
505.247525,888.247130,-9104.533087,2145.067394
505.247853,1258.350101,-9992.780217,1838.629195
505.248181,1480.411884,-9844.739029,2068.457845
505.248509,2368.659014,-9400.615463,2298.286494
505.248836,1998.556043,-9622.677246,2221.676944
505.249164,444.123565,-10807.006753,995.924147
505.249492,-2368.659014,-11547.212695,0.000000
505.249820,-3775.050304,-11177.109724,0.000000
505.250148,-2886.803174,-9400.615463,0.000000
505.250475,-2220.617826,-8586.388927,229.828649
505.250803,-1480.411884,-8438.347739,76.609550
505.251131,-1850.514855,-8734.430116,459.657299
505.251459,-1924.535449,-7402.059420,383.047749
505.251786,-296.082377,-5921.647536,842.705048
505.252114,74.020594,-5995.668130,919.314598
505.252442,-148.041188,-6957.935855,919.314598
505.252770,-1998.556043,-7698.141797,306.438199
505.253098,-2886.803174,-7550.100608,306.438199
505.253425,-1924.535449,-6661.853478,766.095498
505.253753,0.000000,-6735.874072,995.924147
505.254081,962.267725,-7476.080014,1149.143247
505.254409,1332.370696,-8586.388927,1072.533697
505.254736,2072.576638,-8808.450710,1378.971896
505.255064,2590.720797,-8660.409521,1378.971896
505.255392,2442.679609,-9400.615463,1225.752797
505.255720,518.144159,-11103.089130,0.000000
505.256048,-1480.411884,-12509.480420,-766.095498
505.256375,-1998.556043,-11917.315666,-1072.533697
505.256703,-1480.411884,-10510.924376,-842.705048
505.257031,-148.041188,-9844.739029,-306.438199
505.257359,1110.308913,-10510.924376,0.000000
505.257686,592.164754,-10955.047942,0.000000
505.258014,666.185348,-9252.574275,306.438199
505.258342,1776.494261,-7994.224174,612.876398
505.258670,2294.638420,-7476.080014,919.314598
505.258998,1036.288319,-8586.388927,1149.143247
505.259325,-592.164754,-8956.491898,1378.971896
505.259653,-1480.411884,-8808.450710,1149.143247
505.259981,-1628.453072,-8068.244768,1225.752797
505.260309,-518.144159,-8142.265362,1608.800546
505.260636,-518.144159,-8808.450710,995.924147
505.260964,-296.082377,-9622.677246,842.705048
505.261292,296.082377,-9474.636058,1072.533697
505.261620,1332.370696,-8660.409521,1072.533697
505.261948,1850.514855,-8956.491898,1685.410096
505.262275,296.082377,-10214.842000,689.485948
505.262603,-2368.659014,-11769.274478,-229.828649
505.262931,-3182.885551,-11769.274478,-383.047749
505.263259,-3478.967927,-10658.965565,-689.485948
505.263586,-2368.659014,-10288.862594,-306.438199
505.263914,-2368.659014,-10881.027347,-612.876398
505.264242,-2516.700203,-11399.171507,-459.657299
505.264570,-1480.411884,-9770.718434,-459.657299
505.264898,0.000000,-8290.306550,1149.143247
505.265225,1406.391290,-7179.997637,995.924147
505.265553,444.123565,-7994.224174,842.705048
505.265881,-1036.288319,-9326.594869,689.485948
505.266209,-1924.535449,-9104.533087,766.095498
505.266536,-962.267725,-7550.100608,919.314598
505.266864,222.061783,-7105.977043,1072.533697
505.267192,1406.391290,-7698.141797,1455.581446
505.267520,1554.432478,-9252.574275,1378.971896
505.267848,1850.514855,-9030.512492,1991.848295
505.268175,2738.761985,-8290.306550,1991.848295
505.268503,3034.844362,-8882.471304,2068.457845
505.268831,740.205942,-10362.883188,842.705048
505.269159,-1776.494261,-11695.253884,0.000000
505.269486,-2738.761985,-11325.150913,-306.438199
505.269814,-2294.638420,-9474.636058,-229.828649
505.270142,-592.164754,-9474.636058,76.609550
505.270470,-666.185348,-9622.677246,76.609550
505.270798,-1258.350101,-9844.739029,-459.657299
505.271125,-1036.288319,-8660.409521,-229.828649
505.271453,592.164754,-7031.956449,0.000000
505.271781,740.205942,-6365.771101,536.266849
505.272109,148.041188,-7179.997637,229.828649
505.272436,-1406.391290,-8290.306550,0.000000
505.272764,-2516.700203,-8216.285956,0.000000
505.273092,-1776.494261,-7179.997637,612.876398
505.273420,-740.205942,-6957.935855,536.266849
505.273748,-148.041188,-7550.100608,842.705048
505.274075,0.000000,-8956.491898,536.266849
505.274403,666.185348,-8660.409521,766.095498
505.274731,2072.576638,-7772.162391,1072.533697
505.275059,2664.741391,-7624.121203,842.705048
505.275386,1776.494261,-9252.574275,689.485948
505.275714,0.000000,-11325.150913,0.000000
505.276042,-1184.329507,-11547.212695,-459.657299
505.276370,-814.226536,-10584.944971,-306.438199
505.276698,592.164754,-10362.883188,689.485948
505.277025,888.247130,-10881.027347,-383.047749
505.277353,0.000000,-11473.192101,153.219100
505.277681,222.061783,-10881.027347,229.828649
505.278009,1184.329507,-9474.636058,995.924147
505.278336,1480.411884,-8586.388927,1762.019645
505.278664,518.144159,-9252.574275,1149.143247
505.278992,-1850.514855,-9844.739029,306.438199
505.279320,-2960.823768,-9326.594869,0.000000
505.279648,-2294.638420,-7994.224174,383.047749
505.279975,-962.267725,-6957.935855,612.876398
505.280303,740.205942,-7179.997637,842.705048
505.280631,444.123565,-8364.327145,1225.752797
505.280959,666.185348,-8068.244768,1378.971896
505.281286,1184.329507,-8216.285956,1378.971896
505.281614,814.226536,-8586.388927,1685.410096
505.281942,-1258.350101,-9548.656652,842.705048
505.282270,-3182.885551,-11325.150913,459.657299
505.282598,-3923.091493,-11399.171507,0.000000
505.282925,-2516.700203,-10436.903782,766.095498
505.283253,-962.267725,-9696.697840,1225.752797
505.283581,-444.123565,-9400.615463,1532.190996
505.283909,-1258.350101,-10362.883188,919.314598
505.284236,-1258.350101,-9696.697840,919.314598
505.284564,-444.123565,-8142.265362,919.314598
505.284892,666.185348,-7624.121203,1378.971896
505.285220,222.061783,-7846.182985,1225.752797
505.285548,-1332.370696,-8586.388927,1225.752797
505.285875,-2294.638420,-8586.388927,383.047749
505.286203,-1776.494261,-7402.059420,766.095498
505.286531,-222.061783,-6809.894666,1302.362347
505.286859,1036.288319,-7476.080014,1378.971896
505.287186,888.247130,-8142.265362,1149.143247
505.287514,592.164754,-8364.327145,1225.752797
505.287842,1184.329507,-7920.203579,1455.581446
505.288170,1554.432478,-7994.224174,1455.581446
505.288497,666.185348,-9030.512492,612.876398
505.288825,-1554.432478,-10436.903782,0.000000
505.289153,-2294.638420,-10362.883188,-383.047749
505.289481,-1554.432478,-9400.615463,-612.876398
505.289809,0.000000,-8956.491898,-536.266849
505.290136,296.082377,-10066.800811,-536.266849
505.290464,-518.144159,-10881.027347,-536.266849
505.290792,-444.123565,-10066.800811,-1072.533697
505.291120,518.144159,-8956.491898,-919.314598
505.291447,1332.370696,-8290.306550,-306.438199
505.291775,1110.308913,-9178.553681,76.609550
505.292103,-1036.288319,-10362.883188,-306.438199
505.292431,-1924.535449,-9696.697840,-766.095498
505.292759,-1480.411884,-9030.512492,-459.657299
505.293086,-370.102971,-8068.244768,-153.219100
505.293414,296.082377,-8586.388927,0.000000
505.293742,592.164754,-9474.636058,0.000000
505.294070,1406.391290,-9030.512492,383.047749
505.294397,1924.535449,-8290.306550,766.095498
505.294725,3034.844362,-8586.388927,1149.143247
505.295053,1776.494261,-9326.594869,766.095498
505.295381,222.061783,-11103.089130,383.047749
505.295709,-666.185348,-11103.089130,383.047749
505.296036,-666.185348,-10436.903782,766.095498
505.296364,222.061783,-10288.862594,919.314598
505.296692,740.205942,-10732.986159,1072.533697
505.297020,-148.041188,-11399.171507,1225.752797
505.297347,74.020594,-10362.883188,1838.629195
505.297675,888.247130,-8956.491898,1915.238745
505.298002,1406.391290,-8586.388927,2068.457845
505.298330,148.041188,-9252.574275,1915.238745
505.298657,-2442.679609,-9918.759623,1225.752797
505.298985,-3775.050304,-9770.718434,1072.533697
505.299312,-3256.906145,-8290.306550,689.485948
505.299639,-2886.803174,-7550.100608,919.314598
505.299967,-2146.597232,-7550.100608,1378.971896
505.300294,-2220.617826,-8438.347739,842.705048
505.300622,-1850.514855,-8068.244768,1149.143247
505.300949,-1184.329507,-6883.915261,1225.752797
505.301277,-592.164754,-6883.915261,1225.752797
505.301604,-1406.391290,-8068.244768,612.876398
505.301932,-2886.803174,-9696.697840,0.000000
505.302259,-3256.906145,-9770.718434,0.000000
505.302587,-1628.453072,-8956.491898,306.438199
505.302914,0.000000,-8068.244768,689.485948
505.303242,1110.308913,-9326.594869,919.314598
505.303569,666.185348,-9844.739029,612.876398
505.303897,1110.308913,-9474.636058,1072.533697
505.304224,2220.617826,-8068.244768,612.876398
505.304552,3108.864956,-8068.244768,1532.190996
505.304879,2220.617826,-9474.636058,1378.971896
505.305207,444.123565,-10140.821405,689.485948
505.305534,-888.247130,-9918.759623,306.438199
505.305861,0.000000,-8586.388927,766.095498
505.306189,1332.370696,-8068.244768,1149.143247
505.306516,962.267725,-8586.388927,689.485948
505.306844,74.020594,-8956.491898,153.219100
505.307171,0.000000,-8364.327145,76.609550
505.307499,666.185348,-7031.956449,-153.219100
505.307826,1554.432478,-7031.956449,919.314598
505.308154,1480.411884,-7772.162391,-153.219100
505.308481,-814.226536,-9178.553681,-459.657299
505.308809,-2294.638420,-9548.656652,-766.095498
505.309136,-2146.597232,-8882.471304,-459.657299
505.309464,-1628.453072,-8364.327145,0.000000
505.309791,-888.247130,-9474.636058,0.000000
505.310119,-1702.473667,-10214.842000,-459.657299
505.310446,-962.267725,-9844.739029,0.000000
505.310774,0.000000,-8660.409521,383.047749
505.311101,1406.391290,-8142.265362,1455.581446
505.311429,666.185348,-9104.533087,842.705048
505.311756,-1184.329507,-10140.821405,76.609550
505.312084,-2368.659014,-10140.821405,-306.438199
505.312411,-1850.514855,-8734.430116,-306.438199
505.312738,-296.082377,-8216.285956,153.219100
505.313066,1036.288319,-8364.327145,919.314598
505.313393,740.205942,-9400.615463,306.438199
505.313721,814.226536,-9474.636058,459.657299
505.314048,1332.370696,-8364.327145,766.095498
505.314376,1702.473667,-8290.306550,1225.752797
505.314703,888.247130,-8660.409521,1455.581446
505.315031,-296.082377,-10140.821405,842.705048
505.315358,-1554.432478,-10362.883188,306.438199
505.315686,-814.226536,-9474.636058,536.266849
505.316013,0.000000,-9252.574275,842.705048
505.316341,0.000000,-9252.574275,1072.533697
505.316668,-592.164754,-10214.842000,229.828649
505.316996,-444.123565,-10140.821405,689.485948
505.317323,444.123565,-8882.471304,919.314598
505.317651,1554.432478,-8882.471304,1685.410096
505.317978,518.144159,-9474.636058,1532.190996
505.318306,-1480.411884,-11251.130318,689.485948
505.318633,-3478.967927,-11029.068536,229.828649
505.318960,-3182.885551,-9622.677246,383.047749
505.319288,-1850.514855,-8882.471304,306.438199
505.319615,-1110.308913,-9030.512492,536.266849
505.319943,-1258.350101,-9474.636058,919.314598
505.320270,-1480.411884,-9178.553681,306.438199
505.320598,-444.123565,-7698.141797,383.047749
505.320925,296.082377,-7772.162391,229.828649
505.321253,0.000000,-8290.306550,-383.047749
505.321580,-1850.514855,-9696.697840,-459.657299
505.321908,-2516.700203,-9548.656652,-1149.143247
505.322235,-1850.514855,-9030.512492,-229.828649
505.322563,0.000000,-9030.512492,383.047749
505.322890,1110.308913,-9474.636058,383.047749
505.323218,1110.308913,-9696.697840,766.095498
505.323545,1850.514855,-9326.594869,1149.143247
505.323873,2812.782580,-8438.347739,1608.800546
505.324200,3478.967927,-8512.368333,1991.848295
505.324528,2368.659014,-9326.594869,1455.581446
505.324855,1332.370696,-10658.965565,1838.629195
505.325182,-518.144159,-10510.924376,1225.752797
505.325510,-814.226536,-9474.636058,1532.190996
505.325837,0.000000,-9178.553681,1302.362347
505.326165,592.164754,-9252.574275,919.314598
505.326492,-370.102971,-9622.677246,536.266849
505.326820,-148.041188,-9030.512492,306.438199
505.327147,148.041188,-8290.306550,459.657299
505.327475,518.144159,-7846.182985,536.266849
505.327802,-296.082377,-8364.327145,383.047749
505.328130,-2072.576638,-9548.656652,-306.438199
505.328457,-3330.926739,-9030.512492,-536.266849
505.328785,-2146.597232,-8216.285956,0.000000
505.329112,-962.267725,-7772.162391,229.828649
505.329440,0.000000,-8808.450710,842.705048
505.329767,-592.164754,-9400.615463,919.314598
505.330095,-148.041188,-8882.471304,1302.362347
505.330422,962.267725,-8734.430116,1455.581446
505.330750,1776.494261,-8438.347739,1991.848295
505.331077,888.247130,-9326.594869,1455.581446
505.331404,-1184.329507,-10658.965565,612.876398
505.331732,-2516.700203,-10732.986159,153.219100
505.332059,-2220.617826,-9252.574275,0.000000
505.332387,0.000000,-8438.347739,229.828649
505.332714,814.226536,-8586.388927,459.657299
505.333042,370.102971,-9474.636058,229.828649
505.333369,-296.082377,-9474.636058,-229.828649
505.333697,0.000000,-8586.388927,689.485948
505.334024,222.061783,-8956.491898,536.266849
505.334352,-592.164754,-9326.594869,153.219100
505.334679,-2368.659014,-10288.862594,-536.266849
505.335007,-2738.761985,-10510.924376,-766.095498
505.335334,-2146.597232,-9104.533087,0.000000
505.335662,-370.102971,-7772.162391,0.000000
505.335989,666.185348,-7698.141797,383.047749
505.336317,1036.288319,-8586.388927,383.047749
505.336644,1332.370696,-7994.224174,612.876398
505.336972,2442.679609,-6587.832884,995.924147
505.337299,3330.926739,-7254.018232,1378.971896
505.337626,1924.535449,-8512.368333,1532.190996
505.337954,-444.123565,-10510.924376,919.314598
505.338281,-1998.556043,-10658.965565,766.095498
505.338609,-1332.370696,-9844.739029,995.924147
505.338936,0.000000,-9104.533087,1378.971896
505.339264,222.061783,-9400.615463,1072.533697
505.339591,-370.102971,-9844.739029,459.657299
505.339919,-962.267725,-9252.574275,153.219100
505.340246,-370.102971,-7846.182985,0.000000
505.340574,296.082377,-7179.997637,306.438199
505.340901,-592.164754,-8216.285956,-459.657299
505.341229,-2516.700203,-9326.594869,-842.705048
505.341556,-3849.070898,-9400.615463,-919.314598
505.341884,-2960.823768,-8586.388927,-536.266849
505.342211,-1036.288319,-8438.347739,536.266849
505.342539,74.020594,-9030.512492,1072.533697
505.342866,296.082377,-9696.697840,1302.362347
505.343194,592.164754,-9770.718434,1378.971896
505.343521,2072.576638,-8956.491898,2528.115143
505.343848,2590.720797,-8882.471304,2604.724693
505.344176,2516.700203,-9474.636058,2451.505594
505.344503,370.102971,-10658.965565,1762.019645
505.344831,-962.267725,-10658.965565,1225.752797
505.345158,-740.205942,-9696.697840,1072.533697
505.345486,0.000000,-9252.574275,1149.143247
505.345813,-296.082377,-9400.615463,1072.533697
505.346141,-1036.288319,-10732.986159,229.828649
505.346468,-1998.556043,-10362.883188,-229.828649
505.346796,-1184.329507,-9400.615463,0.000000
505.347123,-296.082377,-8512.368333,76.609550
505.347451,-962.267725,-8882.471304,536.266849
505.347778,-2220.617826,-9622.677246,-383.047749
505.348106,-4145.153275,-9696.697840,-689.485948
505.348433,-3478.967927,-8512.368333,-536.266849
505.348761,-1776.494261,-7846.182985,-306.438199
505.349088,-1332.370696,-7624.121203,919.314598
505.349416,-666.185348,-8586.388927,0.000000
505.349743,74.020594,-8660.409521,995.924147
505.350070,1554.432478,-7550.100608,1532.190996
505.350398,2664.741391,-7254.018232,2221.676944
505.350725,3108.864956,-7920.203579,2221.676944
505.351053,1184.329507,-9696.697840,1225.752797
505.351380,-518.144159,-10436.903782,612.876398
505.351708,-666.185348,-9844.739029,612.876398
505.352035,592.164754,-9326.594869,612.876398
505.352363,814.226536,-9770.718434,383.047749
505.352690,888.247130,-10584.944971,383.047749
505.353018,0.000000,-10362.883188,0.000000
505.353345,888.247130,-8660.409521,0.000000
505.353673,1036.288319,-8586.388927,383.047749
505.354000,296.082377,-8808.450710,76.609550
505.354328,-1702.473667,-9548.656652,612.876398
505.354655,-3034.844362,-9548.656652,-1149.143247
505.354983,-2664.741391,-8290.306550,-1149.143247
505.355310,-888.247130,-7476.080014,-383.047749
505.355638,74.020594,-7328.038826,229.828649
505.355965,148.041188,-7328.038826,459.657299
505.356293,962.267725,-7328.038826,995.924147
505.356620,2146.597232,-7031.956449,1532.190996
505.356947,2516.700203,-7105.977043,1915.238745
505.357275,1924.535449,-8142.265362,1762.019645
505.357602,296.082377,-9696.697840,995.924147
505.357930,-1184.329507,-10955.047942,229.828649
505.358257,-1184.329507,-10362.883188,919.314598
505.358585,-222.061783,-10436.903782,1225.752797
505.358912,0.000000,-10214.842000,1225.752797
505.359240,-888.247130,-11029.068536,612.876398
505.359567,-1702.473667,-10510.924376,459.657299
505.359895,-888.247130,-9252.574275,0.000000
505.360222,0.000000,-8512.368333,229.828649
505.360550,-296.082377,-8364.327145,153.219100
505.360877,-2220.617826,-9474.636058,-153.219100
505.361205,-3404.947333,-9622.677246,-76.609550
505.361532,-3552.988522,-8438.347739,-459.657299
505.361860,-2294.638420,-7920.203579,229.828649
505.362187,-1184.329507,-8068.244768,536.266849
505.362515,-740.205942,-8882.471304,842.705048
505.362842,0.000000,-8068.244768,1455.581446
505.363169,1628.453072,-7698.141797,1532.190996
505.363497,2368.659014,-7105.977043,2451.505594
505.363824,2368.659014,-8142.265362,2221.676944
505.364152,370.102971,-9844.739029,1455.581446
505.364479,-296.082377,-9622.677246,612.876398
505.364807,-518.144159,-9474.636058,842.705048
505.365134,592.164754,-9178.553681,766.095498
505.365462,1184.329507,-9992.780217,1378.971896
505.365789,814.226536,-11325.150913,689.485948
505.366117,-296.082377,-11177.109724,536.266849
505.366444,74.020594,-10140.821405,306.438199
505.366772,370.102971,-9770.718434,229.828649
505.367099,-444.123565,-10436.903782,153.219100
505.367427,-2886.803174,-11621.233289,-612.876398
505.367754,-3775.050304,-11103.089130,-1225.752797
505.368082,-3552.988522,-9178.553681,-229.828649
505.368409,-1332.370696,-7846.182985,-536.266849
505.368737,0.000000,-7550.100608,-383.047749
505.369064,74.020594,-8438.347739,-306.438199
505.369391,222.061783,-7846.182985,76.609550
505.369719,1332.370696,-7105.977043,1072.533697
505.370046,2368.659014,-7105.977043,1378.971896
505.370374,2368.659014,-7846.182985,1608.800546
505.370701,1110.308913,-9474.636058,1302.362347
505.371029,0.000000,-10362.883188,919.314598
505.371356,370.102971,-10140.821405,1608.800546
505.371684,592.164754,-9326.594869,1838.629195
505.372011,1036.288319,-9992.780217,1532.190996
505.372339,296.082377,-10881.027347,766.095498
505.372666,-666.185348,-11177.109724,0.000000
505.372994,222.061783,-9918.759623,0.000000
505.373321,1110.308913,-8660.409521,536.266849
505.373649,592.164754,-8956.491898,536.266849
505.373976,-1184.329507,-9918.759623,-229.828649
505.374304,-2812.782580,-9918.759623,-689.485948
505.374631,-3849.070898,-9252.574275,-919.314598
505.374959,-2368.659014,-7698.141797,-383.047749
505.375286,-1924.535449,-7254.018232,0.000000
505.375613,-1702.473667,-7550.100608,0.000000
505.375941,-1332.370696,-7328.038826,383.047749
505.376268,222.061783,-6365.771101,995.924147
505.376596,1480.411884,-5847.626942,1915.238745
505.376923,1776.494261,-6439.791695,1838.629195
505.377251,0.000000,-7920.203579,1378.971896
505.377578,-1036.288319,-8660.409521,919.314598
505.377906,-666.185348,-8734.430116,919.314598
505.378233,962.267725,-8438.347739,1532.190996
505.378561,1628.453072,-8808.450710,2068.457845
505.378888,1258.350101,-10658.965565,1225.752797
505.379216,444.123565,-10881.027347,919.314598
505.379543,592.164754,-9770.718434,612.876398
505.379871,962.267725,-9622.677246,536.266849
505.380198,0.000000,-9474.636058,153.219100
505.380526,-1850.514855,-10955.047942,-306.438199
505.380853,-3404.947333,-10732.986159,-1378.971896
505.381181,-3404.947333,-9770.718434,-842.705048
505.381508,-1554.432478,-8216.285956,-229.828649
505.381835,518.144159,-7772.162391,459.657299
505.382163,148.041188,-8586.388927,153.219100
505.382490,592.164754,-8364.327145,842.705048
505.382818,518.144159,-7772.162391,1149.143247
505.383145,1480.411884,-7254.018232,1685.410096
505.383473,1258.350101,-7624.121203,1915.238745
505.383800,74.020594,-9104.533087,1378.971896
505.384128,-1110.308913,-9992.780217,1225.752797
505.384455,-962.267725,-9326.594869,1072.533697
505.384783,444.123565,-8660.409521,1532.190996
505.385110,888.247130,-9474.636058,1378.971896
505.385438,74.020594,-10510.924376,766.095498
505.385765,-814.226536,-10955.047942,229.828649
505.386093,-518.144159,-9918.759623,0.000000
505.386420,148.041188,-9696.697840,153.219100
505.386748,-370.102971,-10214.842000,0.000000
505.387075,-2220.617826,-11029.068536,-842.705048
505.387403,-3849.070898,-10732.986159,-1378.971896
505.387730,-3552.988522,-9474.636058,-995.924147
505.388057,-2220.617826,-8216.285956,-689.485948
505.388385,-518.144159,-8142.265362,0.000000
505.388712,0.000000,-8364.327145,-229.828649
505.389040,0.000000,-8142.265362,76.609550
505.389367,1110.308913,-7179.997637,1302.362347
505.389695,2294.638420,-7105.977043,1762.019645
505.390022,2072.576638,-7550.100608,1762.019645
505.390350,666.185348,-8882.471304,1838.629195
505.390677,-666.185348,-9104.533087,1302.362347
505.391005,-518.144159,-8956.491898,919.314598
505.391332,888.247130,-8734.430116,1225.752797
505.391660,1702.473667,-9178.553681,1378.971896
505.391987,1406.391290,-10214.842000,612.876398
505.392315,370.102971,-10732.986159,76.609550
505.392642,444.123565,-9696.697840,383.047749
505.392970,888.247130,-9474.636058,766.095498
505.393297,296.082377,-10510.924376,153.219100
505.393625,-1554.432478,-11325.150913,-153.219100
505.393952,-2960.823768,-11399.171507,-1532.190996
505.394279,-3701.029710,-9770.718434,-612.876398
505.394607,-2442.679609,-9178.553681,-306.438199
505.394934,-1702.473667,-9104.533087,0.000000
505.395262,-1924.535449,-9326.594869,0.000000
505.395589,-1184.329507,-9030.512492,0.000000
505.395917,592.164754,-6883.915261,612.876398
505.396244,1776.494261,-6661.853478,1378.971896
505.396572,2220.617826,-6957.935855,1838.629195
505.396899,1184.329507,-8364.327145,1532.190996
505.397227,-370.102971,-8808.450710,1455.581446
505.397554,0.000000,-8512.368333,1455.581446
505.397882,148.041188,-9030.512492,1532.190996
505.398209,592.164754,-10066.800811,1532.190996
505.398537,0.000000,-11251.130318,842.705048
505.398864,0.000000,-11103.089130,919.314598
505.399192,1036.288319,-10362.883188,919.314598
505.399519,1184.329507,-10140.821405,1072.533697
505.399847,740.205942,-11029.068536,1072.533697
505.400174,-1628.453072,-11843.295072,-306.438199
505.400502,-3849.070898,-11769.274478,-1225.752797
505.400829,-3330.926739,-10510.924376,-612.876398
505.401157,-1776.494261,-8956.491898,-612.876398
505.401484,-444.123565,-8808.450710,-306.438199
505.401812,0.000000,-8586.388927,0.000000
505.402139,0.000000,-8438.347739,153.219100
505.402467,814.226536,-6883.915261,766.095498
505.402794,2294.638420,-6439.791695,1455.581446
505.403122,1702.473667,-6883.915261,1455.581446
505.403449,666.185348,-8216.285956,1532.190996
505.403777,-740.205942,-9030.512492,995.924147
505.404104,-888.247130,-8808.450710,1225.752797
505.404432,148.041188,-8216.285956,1378.971896
505.404759,814.226536,-8586.388927,1608.800546
505.405087,370.102971,-9474.636058,689.485948
505.405414,222.061783,-9622.677246,459.657299
505.405742,740.205942,-8734.430116,383.047749
505.406069,1110.308913,-8290.306550,229.828649
505.406397,592.164754,-9030.512492,0.000000
505.406724,-1702.473667,-10584.944971,-689.485948
505.407052,-3552.988522,-10732.986159,-1455.581446
505.407379,-3256.906145,-9400.615463,-1225.752797
505.407707,-1480.411884,-8512.368333,-766.095498
505.408034,-1110.308913,-7994.224174,-995.924147
505.408362,-814.226536,-8660.409521,0.000000
505.408689,-962.267725,-8364.327145,229.828649
505.409017,0.000000,-7105.977043,766.095498
505.409344,444.123565,-6883.915261,1608.800546
505.409672,1480.411884,-6809.894666,1608.800546
505.409999,0.000000,-7994.224174,995.924147
505.410327,-814.226536,-8364.327145,919.314598
505.410654,-592.164754,-7846.182985,842.705048
505.410982,1184.329507,-7624.121203,1378.971896
505.411309,2220.617826,-8142.265362,1915.238745
505.411637,2072.576638,-9030.512492,1378.971896
505.411964,1554.432478,-9770.718434,1149.143247
505.412291,1258.350101,-9178.553681,1225.752797
505.412619,1776.494261,-9400.615463,1532.190996
505.412946,888.247130,-10288.862594,919.314598
505.413274,-1332.370696,-11769.274478,153.219100
505.413601,-3478.967927,-12065.356855,-612.876398
505.413929,-3997.112087,-10436.903782,-842.705048
505.414256,-2738.761985,-9326.594869,-229.828649
505.414584,-1554.432478,-9104.533087,0.000000
505.414911,-1924.535449,-9104.533087,0.000000
505.415239,-1702.473667,-8512.368333,0.000000
505.415566,-814.226536,-7698.141797,306.438199
505.415894,0.000000,-7254.018232,919.314598
505.416221,0.000000,-7476.080014,1608.800546
505.416549,-1258.350101,-8734.430116,459.657299
505.416876,-1998.556043,-9252.574275,383.047749
505.417204,-2072.576638,-8660.409521,995.924147
505.417531,74.020594,-8438.347739,1455.581446
505.417859,888.247130,-8438.347739,1532.190996
505.418186,1332.370696,-9474.636058,995.924147
505.418514,1258.350101,-10066.800811,1762.019645
505.418841,1702.473667,-9770.718434,1838.629195
505.419169,1702.473667,-9844.739029,1608.800546
505.419496,888.247130,-10732.986159,1302.362347
505.419824,-962.267725,-11325.150913,0.000000
505.420151,-2590.720797,-11843.295072,0.000000
505.420479,-2516.700203,-10955.047942,-153.219100
505.420806,-1332.370696,-9992.780217,0.000000
505.421134,-740.205942,-9548.656652,76.609550
505.421461,-296.082377,-9844.739029,0.000000
505.421789,0.000000,-9104.533087,306.438199
505.422116,370.102971,-7994.224174,689.485948
505.422444,1184.329507,-7328.038826,1149.143247
505.422771,888.247130,-7846.182985,1532.190996
505.423099,-518.144159,-8068.244768,995.924147
505.423426,-1702.473667,-8216.285956,689.485948
505.423754,-1628.453072,-8290.306550,766.095498
505.424081,-814.226536,-7994.224174,1149.143247
505.424409,0.000000,-8808.450710,1378.971896
505.424736,222.061783,-9030.512492,1072.533697
505.425064,296.082377,-9548.656652,919.314598
505.425391,1036.288319,-9178.553681,995.924147
505.425719,1924.535449,-9104.533087,1149.143247
505.426046,1480.411884,-9622.677246,919.314598
505.426374,-296.082377,-10658.965565,536.266849
505.426701,-1924.535449,-11473.192101,76.609550
505.427029,-2294.638420,-10140.821405,-306.438199
505.427356,-1850.514855,-9992.780217,-229.828649
505.427684,-1554.432478,-9474.636058,-459.657299
505.428011,-1480.411884,-9696.697840,-536.266849
505.428339,-962.267725,-8956.491898,-153.219100
505.428666,444.123565,-7031.956449,153.219100
505.428994,1702.473667,-6809.894666,536.266849
505.429321,1998.556043,-7031.956449,995.924147
505.429649,814.226536,-7550.100608,919.314598
505.429976,-814.226536,-8068.244768,153.219100
505.430304,-740.205942,-7772.162391,919.314598
505.430631,0.000000,-7772.162391,536.266849
505.430959,666.185348,-8142.265362,612.876398
505.431286,888.247130,-8882.471304,612.876398
505.431614,1184.329507,-9252.574275,536.266849
505.431941,1702.473667,-8216.285956,1149.143247
505.432269,2368.659014,-9104.533087,1302.362347
505.432596,1554.432478,-9770.718434,842.705048
505.432924,-666.185348,-11177.109724,0.000000
505.433251,-2664.741391,-11769.274478,-612.876398
505.433579,-3404.947333,-10881.027347,-536.266849
505.433906,-2368.659014,-10436.903782,-383.047749
505.434234,-1554.432478,-10214.842000,-306.438199
505.434561,-1406.391290,-10066.800811,-536.266849
505.434889,-1036.288319,-9844.739029,0.000000
505.435216,0.000000,-8438.347739,0.000000
505.435544,666.185348,-7772.162391,995.924147
505.435871,814.226536,-7846.182985,383.047749
505.436199,-518.144159,-8586.388927,229.828649
505.436526,-1702.473667,-8956.491898,153.219100
505.436854,-1554.432478,-7920.203579,229.828649
505.437181,370.102971,-7550.100608,689.485948
505.437509,666.185348,-7624.121203,1072.533697
505.437836,740.205942,-8364.327145,1149.143247
505.438164,814.226536,-8808.450710,919.314598
505.438491,1332.370696,-8956.491898,1455.581446
505.438819,2072.576638,-9326.594869,1149.143247
505.439146,1332.370696,-9770.718434,1532.190996
505.439474,-148.041188,-11251.130318,689.485948
505.439801,-1554.432478,-11325.150913,153.219100
505.440129,-1924.535449,-10658.965565,76.609550
505.440456,-1184.329507,-10436.903782,153.219100
505.440784,-444.123565,-10658.965565,306.438199
505.441111,-1036.288319,-10362.883188,229.828649
505.441439,-1258.350101,-9474.636058,0.000000
505.441766,0.000000,-8216.285956,612.876398
505.442094,666.185348,-7624.121203,1685.410096
505.442421,814.226536,-7920.203579,1225.752797
505.442749,-666.185348,-8216.285956,1072.533697
505.443076,-2220.617826,-8660.409521,766.095498
505.443404,-2368.659014,-7772.162391,842.705048
505.443731,-1554.432478,-7698.141797,919.314598
505.444059,-518.144159,-7994.224174,995.924147
505.444386,-814.226536,-8290.306550,1072.533697
505.444714,148.041188,-8512.368333,1072.533697
505.445041,1184.329507,-7920.203579,1225.752797
505.445369,1480.411884,-8586.388927,1455.581446
505.445696,1554.432478,-9252.574275,2068.457845
505.446024,-740.205942,-10584.944971,306.438199
505.446351,-2220.617826,-10584.944971,-459.657299
505.446679,-1924.535449,-9918.759623,0.000000
505.447006,-666.185348,-9622.677246,0.000000
505.447334,222.061783,-9474.636058,153.219100
505.447661,296.082377,-9622.677246,383.047749
505.447989,0.000000,-9844.739029,536.266849
505.448316,444.123565,-8512.368333,612.876398
505.448644,740.205942,-8438.347739,842.705048
505.448971,592.164754,-8808.450710,842.705048
505.449299,-1480.411884,-9474.636058,0.000000
505.449626,-2220.617826,-9252.574275,0.000000
505.449954,-2146.597232,-7994.224174,76.609550
505.450281,-444.123565,-7550.100608,536.266849
505.450609,666.185348,-7624.121203,995.924147
505.450936,1110.308913,-8216.285956,689.485948
505.451264,814.226536,-8068.244768,536.266849
505.451591,888.247130,-7550.100608,612.876398
505.451919,1406.391290,-8142.265362,919.314598
505.452246,592.164754,-9030.512492,612.876398
505.452574,-518.144159,-10140.821405,536.266849
505.452901,-2220.617826,-10140.821405,76.609550
505.453228,-2220.617826,-9918.759623,0.000000
505.453556,-1480.411884,-9992.780217,306.438199
505.453883,-148.041188,-10140.821405,689.485948
505.454211,-1184.329507,-9696.697840,383.047749
505.454538,-148.041188,-9622.677246,153.219100
505.454866,0.000000,-8882.471304,383.047749
505.455193,370.102971,-8364.327145,536.266849
505.455521,444.123565,-8586.388927,919.314598
505.455848,-296.082377,-8660.409521,536.266849
505.456176,-2146.597232,-8586.388927,229.828649
505.456503,-1924.535449,-7994.224174,306.438199
505.456831,-740.205942,-7920.203579,689.485948
505.457158,0.000000,-7920.203579,536.266849
505.457486,222.061783,-8734.430116,842.705048
505.457813,518.144159,-8660.409521,1072.533697
505.458141,962.267725,-8290.306550,1072.533697
505.458468,1554.432478,-8438.347739,1455.581446
505.458796,1332.370696,-9400.615463,1455.581446
505.459123,0.000000,-10362.883188,459.657299
505.459451,-1332.370696,-10066.800811,153.219100
505.459778,-1332.370696,-9770.718434,153.219100
505.460106,-370.102971,-9474.636058,383.047749
505.460433,814.226536,-9770.718434,842.705048
505.460761,370.102971,-9992.780217,229.828649
505.461088,222.061783,-9770.718434,919.314598
505.461416,962.267725,-8956.491898,306.438199
505.461743,518.144159,-9030.512492,995.924147
505.462071,0.000000,-9548.656652,1072.533697
505.462398,-1924.535449,-9992.780217,459.657299
505.462726,-3256.906145,-9474.636058,766.095498
505.463053,-2812.782580,-8956.491898,229.828649
505.463381,-1332.370696,-8216.285956,459.657299
505.463708,-222.061783,-7920.203579,689.485948
505.464036,222.061783,-7994.224174,612.876398
505.464363,518.144159,-7698.141797,919.314598
505.464691,888.247130,-7476.080014,1149.143247
505.465018,1110.308913,-7476.080014,919.314598
505.465346,592.164754,-8660.409521,689.485948
505.465673,-888.247130,-10214.842000,536.266849
505.466001,-1998.556043,-10881.027347,76.609550
505.466328,-1554.432478,-10362.883188,536.266849
505.466656,-518.144159,-10436.903782,919.314598
505.466983,518.144159,-10732.986159,1225.752797
505.467311,370.102971,-11029.068536,842.705048
505.467638,296.082377,-10436.903782,689.485948
505.467966,814.226536,-9474.636058,1378.971896
505.468293,1628.453072,-8512.368333,766.095498
505.468621,1036.288319,-9104.533087,689.485948
505.468948,0.000000,-9252.574275,459.657299
505.469276,-1258.350101,-9474.636058,229.828649
505.469603,-1776.494261,-8512.368333,306.438199
505.469931,-962.267725,-8364.327145,383.047749
505.470258,-888.247130,-8364.327145,153.219100
505.470586,-962.267725,-8734.430116,76.609550
505.470913,-1184.329507,-8734.430116,0.000000
505.471241,-444.123565,-8068.244768,153.219100
505.471568,592.164754,-7476.080014,842.705048
505.471896,962.267725,-8068.244768,995.924147
505.472223,0.000000,-9104.533087,766.095498
505.472551,-1628.453072,-9548.656652,383.047749
505.472878,-1480.411884,-9622.677246,153.219100
505.473206,-592.164754,-9474.636058,229.828649
505.473533,-962.267725,-9548.656652,229.828649
505.473861,-222.061783,-10658.965565,229.828649
505.474188,-592.164754,-10066.800811,383.047749
505.474516,888.247130,-8808.450710,612.876398
505.474843,2220.617826,-8882.471304,1149.143247
505.475171,1924.535449,-8808.450710,1532.190996
505.475498,222.061783,-9474.636058,612.876398
505.475826,-888.247130,-9844.739029,383.047749
505.476153,-1776.494261,-9326.594869,229.828649
505.476481,-1332.370696,-8956.491898,383.047749
505.476808,-1036.288319,-8808.450710,766.095498
505.477136,-148.041188,-9104.533087,459.657299
505.477463,-296.082377,-8512.368333,766.095498
505.477791,592.164754,-7402.059420,689.485948
505.478118,1332.370696,-7254.018232,1072.533697
505.478446,814.226536,-7476.080014,1225.752797
505.478773,-592.164754,-8882.471304,153.219100
505.479101,-2368.659014,-9252.574275,-383.047749
505.479428,-2146.597232,-8808.450710,0.000000
505.479756,-1258.350101,-8956.491898,153.219100
505.480083,0.000000,-9326.594869,919.314598
505.480411,148.041188,-9326.594869,766.095498
505.480738,518.144159,-9696.697840,919.314598
505.481066,1036.288319,-9104.533087,1225.752797
505.481393,1480.411884,-9178.553681,1455.581446
505.481721,1554.432478,-9474.636058,1685.410096
505.482048,-148.041188,-9696.697840,919.314598
505.482376,-962.267725,-10214.842000,689.485948
505.482703,-1480.411884,-9400.615463,689.485948
505.483031,-888.247130,-9104.533087,919.314598
505.483358,0.000000,-9030.512492,766.095498
505.483686,-666.185348,-8956.491898,612.876398
505.484013,-814.226536,-8512.368333,76.609550
505.484341,-444.123565,-7772.162391,76.609550
505.484668,370.102971,-7846.182985,612.876398
505.484996,592.164754,-8438.347739,229.828649
505.485323,-148.041188,-9252.574275,229.828649
505.485651,-1554.432478,-9252.574275,0.000000
505.485978,-1924.535449,-9474.636058,0.000000
505.486306,-1554.432478,-9400.615463,76.609550
505.486633,-962.267725,-9474.636058,0.000000
505.486961,-740.205942,-9400.615463,383.047749
505.487288,0.000000,-9104.533087,383.047749
505.487616,740.205942,-8364.327145,306.438199
505.487943,1924.535449,-8660.409521,919.314598
505.488271,1480.411884,-9104.533087,1149.143247
505.488598,-74.020594,-9844.739029,459.657299
505.488926,-1628.453072,-10214.842000,76.609550
505.489253,-2368.659014,-9770.718434,-229.828649
505.489581,-1480.411884,-9400.615463,76.609550
505.489908,-222.061783,-9474.636058,153.219100
505.490236,0.000000,-9326.594869,229.828649
505.490563,-148.041188,-9104.533087,1149.143247
505.490891,740.205942,-8216.285956,689.485948
505.491218,1258.350101,-8068.244768,689.485948
505.491546,1110.308913,-8882.471304,766.095498
505.491873,-296.082377,-9400.615463,76.609550
505.492201,-1628.453072,-10362.883188,229.828649
505.492528,-1998.556043,-9474.636058,0.000000
505.492856,-814.226536,-9178.553681,689.485948
505.493183,222.061783,-9252.574275,919.314598
505.493510,814.226536,-9252.574275,1072.533697
505.493838,1184.329507,-8956.491898,1455.581446
505.494165,1406.391290,-7550.100608,1532.190996
505.494493,2220.617826,-8068.244768,1838.629195
505.494820,1554.432478,-9030.512492,1685.410096
505.495148,0.000000,-9696.697840,1378.971896
505.495475,-1628.453072,-10362.883188,1072.533697
505.495803,-2368.659014,-9696.697840,689.485948
505.496130,-2294.638420,-9474.636058,995.924147
505.496458,-1776.494261,-9400.615463,536.266849
505.496785,-1702.473667,-9622.677246,459.657299
505.497113,-2072.576638,-9178.553681,0.000000
505.497440,-1406.391290,-7772.162391,306.438199
505.497768,-666.185348,-7402.059420,153.219100
505.498095,0.000000,-7698.141797,0.000000
505.498423,-1110.308913,-8364.327145,-383.047749
505.498750,-2516.700203,-8956.491898,-689.485948
505.499078,-2146.597232,-8290.306550,-229.828649
505.499405,-1850.514855,-8216.285956,-383.047749
505.499733,-518.144159,-8734.430116,229.828649
505.500060,296.082377,-9252.574275,459.657299
505.500388,666.185348,-9548.656652,1072.533697
505.500715,1850.514855,-8438.347739,1532.190996
505.501043,2886.803174,-8586.388927,1532.190996
505.501370,2960.823768,-9474.636058,2298.286494
505.501698,1850.514855,-10066.800811,1608.800546
505.502025,0.000000,-10362.883188,919.314598
505.502353,-740.205942,-9770.718434,459.657299
505.502680,-518.144159,-9252.574275,383.047749
505.503008,-370.102971,-9474.636058,229.828649
505.503335,-296.082377,-9696.697840,0.000000
505.503663,-666.185348,-9548.656652,-306.438199
505.503990,0.000000,-8660.409521,0.000000
505.504318,814.226536,-7920.203579,153.219100
505.504645,296.082377,-8216.285956,0.000000
505.504972,-740.205942,-9104.533087,-306.438199
505.505300,-2368.659014,-9770.718434,-536.266849
505.505627,-2812.782580,-9104.533087,-459.657299
505.505955,-1480.411884,-8438.347739,-229.828649
505.506282,-666.185348,-8364.327145,536.266849
505.506610,-148.041188,-8438.347739,229.828649
505.506937,296.082377,-8734.430116,842.705048
505.507265,1406.391290,-7920.203579,1149.143247
505.507592,2294.638420,-7328.038826,1915.238745
505.507920,2368.659014,-8364.327145,1532.190996
505.508247,814.226536,-9844.739029,1225.752797
505.508575,-666.185348,-10436.903782,1072.533697
505.508902,-1036.288319,-10214.842000,919.314598
505.509230,-814.226536,-10288.862594,995.924147
505.509557,-888.247130,-9770.718434,1149.143247
505.509885,-814.226536,-10658.965565,459.657299
505.510212,-1036.288319,-10288.862594,76.609550
505.510540,-592.164754,-8956.491898,0.000000
505.510867,148.041188,-8586.388927,229.828649
505.511194,222.061783,-8660.409521,0.000000
505.511522,-1332.370696,-9326.594869,-536.266849
505.511849,-2812.782580,-9400.615463,-766.095498
505.512177,-3330.926739,-8586.388927,-766.095498
505.512504,-2220.617826,-7846.182985,0.000000
505.512832,-444.123565,-7994.224174,459.657299
505.513159,296.082377,-7920.203579,1072.533697
505.513487,1110.308913,-8512.368333,1608.800546
505.513814,1628.453072,-7920.203579,1915.238745
505.514142,2220.617826,-7994.224174,2221.676944
505.514469,1702.473667,-8512.368333,1991.848295
505.514797,518.144159,-9696.697840,2068.457845
505.515124,-888.247130,-10732.986159,995.924147
505.515452,-1258.350101,-10066.800811,842.705048
505.515779,-296.082377,-9696.697840,689.485948
505.516107,518.144159,-10066.800811,919.314598
505.516434,0.000000,-10807.006753,919.314598
505.516761,-518.144159,-10510.924376,229.828649
505.517089,-370.102971,-9622.677246,76.609550
505.517416,-518.144159,-9326.594869,536.266849
505.517744,-740.205942,-9474.636058,0.000000
505.518071,-1924.535449,-9844.739029,-689.485948
505.518399,-3108.864956,-9844.739029,-689.485948
505.518726,-3478.967927,-8734.430116,-766.095498
505.519054,-2294.638420,-7846.182985,-229.828649
505.519381,-518.144159,-7920.203579,153.219100
505.519709,444.123565,-7624.121203,766.095498
505.520036,1332.370696,-7476.080014,536.266849
505.520364,1406.391290,-7328.038826,1149.143247
505.520691,2442.679609,-7328.038826,1762.019645
505.521019,2368.659014,-8660.409521,1991.848295
505.521346,1480.411884,-9770.718434,1608.800546
505.521674,0.000000,-10436.903782,2298.286494
505.522001,-962.267725,-10066.800811,1455.581446
505.522328,0.000000,-9992.780217,1149.143247
505.522656,222.061783,-10362.883188,1378.971896
505.522983,-296.082377,-10510.924376,459.657299
505.523311,-814.226536,-10140.821405,919.314598
505.523638,-444.123565,-9178.553681,0.000000
505.523966,0.000000,-8882.471304,153.219100
505.524293,0.000000,-9178.553681,0.000000
505.524621,-1110.308913,-9474.636058,-153.219100
505.524948,-3034.844362,-9178.553681,-766.095498
505.525276,-3478.967927,-8734.430116,-995.924147
505.525603,-2664.741391,-7846.182985,-612.876398
505.525931,-1406.391290,-7550.100608,0.000000
505.526258,-592.164754,-7846.182985,459.657299
505.526586,0.000000,-8068.244768,536.266849
505.526913,740.205942,-7105.977043,1532.190996
505.527241,1924.535449,-6957.935855,1838.629195
505.527568,2220.617826,-7550.100608,2145.067394
505.527895,1184.329507,-8808.450710,1608.800546
505.528223,-222.061783,-9104.533087,1455.581446
505.528550,-222.061783,-9104.533087,1685.410096
505.528878,518.144159,-8660.409521,1378.971896
505.529205,1332.370696,-9252.574275,1608.800546
505.529533,1184.329507,-10214.842000,1455.581446
505.529860,296.082377,-10362.883188,842.705048
505.530188,740.205942,-10066.800811,1225.752797
505.530515,666.185348,-9104.533087,1149.143247
505.530843,0.000000,-9992.780217,612.876398
505.531170,-1850.514855,-10955.047942,229.828649
505.531498,-3552.988522,-10807.006753,-383.047749
505.531825,-3849.070898,-9030.512492,-306.438199
505.532153,-2516.700203,-7846.182985,-153.219100
505.532480,-1258.350101,-7550.100608,0.000000
505.532808,-666.185348,-7550.100608,76.609550
505.533135,-444.123565,-7254.018232,383.047749
505.533462,0.000000,-6439.791695,76.609550
505.533790,666.185348,-5699.585753,919.314598
505.534117,1332.370696,-7105.977043,1378.971896
505.534445,222.061783,-8956.491898,842.705048
505.534772,-962.267725,-9992.780217,919.314598
505.535100,-1332.370696,-9992.780217,1225.752797
505.535427,-592.164754,-9918.759623,1225.752797
505.535755,444.123565,-10436.903782,1302.362347
505.536082,444.123565,-11029.068536,689.485948
505.536410,0.000000,-11103.089130,306.438199
505.536737,444.123565,-9918.759623,229.828649
505.537065,1924.535449,-9474.636058,0.000000
505.537392,2146.597232,-9400.615463,766.095498
505.537720,888.247130,-10140.821405,612.876398
505.538047,-666.185348,-10732.986159,153.219100
505.538375,-2220.617826,-10732.986159,76.609550
505.538702,-1184.329507,-9548.656652,383.047749
505.539030,-444.123565,-8956.491898,1685.410096
505.539357,444.123565,-9548.656652,1838.629195
505.539684,962.267725,-9548.656652,1991.848295
505.540012,888.247130,-8586.388927,2528.115143
505.540339,2220.617826,-7105.977043,4060.306139
505.540667,3478.967927,-7105.977043,3600.648841
505.540994,2960.823768,-8438.347739,3983.696590
505.541322,518.144159,-9474.636058,3447.429741
505.541649,-1332.370696,-9770.718434,2834.553343
505.541977,-1406.391290,-9400.615463,2987.772442
505.542304,-518.144159,-8956.491898,3370.820191
505.542632,-592.164754,-9844.739029,2834.553343
505.542959,-1480.411884,-10955.047942,2528.115143
505.543287,-2812.782580,-11103.089130,1915.238745
505.543614,-3108.864956,-10066.800811,1838.629195
505.543942,-1628.453072,-9474.636058,2068.457845
505.544269,-666.185348,-9474.636058,2374.896044
505.544597,-1776.494261,-10214.842000,2374.896044
505.544924,-3404.947333,-10510.924376,1762.019645
505.545251,-4219.173869,-9474.636058,1455.581446
505.545579,-2442.679609,-7772.162391,2451.505594
505.545906,-814.226536,-7031.956449,2604.724693
505.546234,296.082377,-7105.977043,2757.943793
505.546561,370.102971,-7772.162391,3064.381992
505.546889,0.000000,-8216.285956,3064.381992
505.547216,592.164754,-7105.977043,3370.820191
505.547544,2442.679609,-6069.688724,4749.792088
505.547871,4737.318029,-7254.018232,5132.839837
505.548199,4811.338623,-8512.368333,5515.887586
505.548526,3034.844362,-10288.862594,5286.058936
505.548854,666.185348,-10881.027347,4903.011187
505.549181,296.082377,-10288.862594,4979.620737
505.549509,1184.329507,-10288.862594,4519.963438
505.549836,1924.535449,-10658.965565,4366.744339
505.550164,1702.473667,-11399.171507,4136.915689
505.550491,-222.061783,-11621.233289,3524.039291
505.550818,-2664.741391,-11029.068536,2604.724693
505.551146,-3923.091493,-9474.636058,2604.724693
505.551473,-2812.782580,-8586.388927,2221.676944
505.551801,-1184.329507,-8142.265362,2298.286494
505.552128,-666.185348,-8216.285956,2681.334243
505.552456,-2072.576638,-8364.327145,2374.896044
505.552783,-4219.173869,-7476.080014,2911.162892
505.553111,-5403.503377,-7624.121203,1838.629195
505.553438,-5181.441594,-7550.100608,995.924147
505.553766,-2960.823768,-7402.059420,1149.143247
505.554093,-296.082377,-7105.977043,2221.676944
505.554421,1184.329507,-6365.771101,3600.648841
505.554748,888.247130,-7179.997637,3677.258390
505.555076,148.041188,-8438.347739,3294.210641
505.555403,0.000000,-9696.697840,2451.505594
505.555731,148.041188,-10436.903782,1762.019645
505.556058,1702.473667,-9918.759623,2374.896044
505.556385,3849.070898,-9844.739029,3600.648841
505.556713,5181.441594,-9770.718434,5056.230287
505.557040,5625.565159,-10881.027347,5745.716235
505.557368,4737.318029,-12065.356855,5439.278036
505.557695,1554.432478,-11991.336260,4136.915689
505.558023,-592.164754,-12065.356855,3524.039291
505.558350,-1554.432478,-11399.171507,2757.943793
505.558678,-1480.411884,-10955.047942,3370.820191
505.559005,962.267725,-9474.636058,4290.134789
505.559333,3108.864956,-8142.265362,5592.497135
505.559660,2516.700203,-7698.141797,5592.497135
505.559988,-518.144159,-7698.141797,4903.011187
505.560315,-4071.132681,-8438.347739,3370.820191
505.560643,-6735.874072,-8142.265362,1762.019645
505.560970,-6661.853478,-8068.244768,1225.752797
505.561298,-4293.194464,-7105.977043,842.705048
505.561625,-1998.556043,-6365.771101,2757.943793
505.561953,666.185348,-6069.688724,4903.011187
505.562280,962.267725,-6513.812290,5209.449386
505.562607,0.000000,-7846.182985,4979.620737
505.562935,-2220.617826,-8734.430116,3370.820191
505.563262,-4515.256246,-10510.924376,1838.629195
505.563590,-4737.318029,-11621.233289,1225.752797
505.563917,-3997.112087,-11621.233289,1685.410096
505.564245,-1702.473667,-10658.965565,2681.334243
505.564572,1776.494261,-9474.636058,3677.258390
505.564900,4145.153275,-8882.471304,5132.839837
505.565227,4515.256246,-8808.450710,4596.572988
505.565555,3108.864956,-9178.553681,3907.087040
505.565882,1850.514855,-9992.780217,3064.381992
505.566210,888.247130,-10140.821405,2374.896044
505.566537,814.226536,-9844.739029,2451.505594
505.566865,666.185348,-9770.718434,3140.991542
505.567192,1184.329507,-9474.636058,4519.963438
505.567520,1480.411884,-8734.430116,4213.525239
505.567847,-444.123565,-8512.368333,4213.525239
505.568174,444.123565,-8290.306550,2911.162892
505.568502,-814.226536,-8216.285956,2298.286494
505.568829,-962.267725,-8216.285956,1378.971896
505.569157,0.000000,-7994.224174,1685.410096
505.569484,444.123565,-7698.141797,2374.896044
505.569812,1258.350101,-7105.977043,2911.162892
505.570139,1850.514855,-8512.368333,3830.477490
505.570467,962.267725,-9326.594869,3907.087040
505.570794,-444.123565,-9844.739029,3600.648841
505.571122,-1258.350101,-10288.862594,3370.820191
505.571449,-2368.659014,-10436.903782,3140.991542
505.571777,-2294.638420,-10732.986159,2911.162892
505.572104,-1998.556043,-10436.903782,3217.601092
505.572432,-1332.370696,-9696.697840,3294.210641
505.572759,-518.144159,-8956.491898,3447.429741
505.573087,-296.082377,-8438.347739,3677.258390
505.573414,-518.144159,-7994.224174,3447.429741
505.573741,-444.123565,-7624.121203,2757.943793
505.574069,-888.247130,-7698.141797,2604.724693
505.574396,-888.247130,-8068.244768,2834.553343
505.574724,-666.185348,-8068.244768,3064.381992
505.575051,148.041188,-8438.347739,3524.039291
505.575379,740.205942,-8956.491898,3983.696590
505.575706,740.205942,-9696.697840,4443.353888
505.576034,444.123565,-10066.800811,4290.134789
505.576361,-370.102971,-10436.903782,4443.353888
505.576689,-1554.432478,-10140.821405,3677.258390
505.577016,-1184.329507,-10140.821405,3370.820191
505.577344,-666.185348,-9326.594869,2911.162892
505.577671,222.061783,-9326.594869,2987.772442
505.577999,1036.288319,-9252.574275,2757.943793
505.578326,1036.288319,-9326.594869,3370.820191
505.578654,296.082377,-9770.718434,2911.162892
505.578981,-444.123565,-9696.697840,2451.505594
505.579308,-1332.370696,-9844.739029,2145.067394
505.579636,-1184.329507,-9622.677246,1838.629195
505.579963,-518.144159,-9252.574275,2145.067394
505.580291,-518.144159,-8734.430116,2528.115143
505.580618,-370.102971,-8660.409521,1838.629195
505.580946,-740.205942,-8882.471304,2374.896044
505.581273,-1184.329507,-8956.491898,1838.629195
505.581601,-1406.391290,-8956.491898,1762.019645
505.581928,-1110.308913,-8364.327145,1302.362347
505.582256,-592.164754,-8142.265362,1225.752797
505.582583,0.000000,-8068.244768,1302.362347
505.582911,518.144159,-8438.347739,1072.533697
505.583238,740.205942,-8438.347739,1225.752797
505.583566,666.185348,-9178.553681,1225.752797
505.583893,444.123565,-9844.739029,1302.362347
505.584221,296.082377,-10658.965565,1225.752797
505.584548,518.144159,-10807.006753,1225.752797
505.584875,1036.288319,-10584.944971,1225.752797
505.585203,1776.494261,-10658.965565,1685.410096
505.585530,1184.329507,-9696.697840,1149.143247
505.585858,1110.308913,-9474.636058,1762.019645
505.586185,592.164754,-9104.533087,1762.019645
505.586513,-444.123565,-9030.512492,1378.971896
505.586840,-1036.288319,-8660.409521,842.705048
505.587168,-888.247130,-8290.306550,1072.533697
505.587495,-1036.288319,-8512.368333,536.266849
505.587823,-592.164754,-8068.244768,766.095498
505.588150,-740.205942,-8142.265362,689.485948
505.588478,-666.185348,-7772.162391,689.485948
505.588805,-666.185348,-7550.100608,459.657299
505.589133,-666.185348,-7920.203579,612.876398
505.589460,-814.226536,-8512.368333,459.657299
505.589788,-814.226536,-8660.409521,612.876398
505.590115,-518.144159,-9474.636058,766.095498
505.590443,-814.226536,-9326.594869,766.095498
505.590770,-1184.329507,-9400.615463,1072.533697
505.591097,-518.144159,-9474.636058,995.924147
505.591425,-518.144159,-9474.636058,995.924147
505.591752,0.000000,-9252.574275,1072.533697
505.592080,74.020594,-9252.574275,612.876398
505.592407,296.082377,-8512.368333,612.876398
505.592735,148.041188,-9104.533087,919.314598
505.593062,0.000000,-9030.512492,1072.533697
505.593390,0.000000,-9104.533087,1225.752797
505.593717,74.020594,-8882.471304,1762.019645
505.594045,74.020594,-8734.430116,919.314598
505.594372,-222.061783,-8808.450710,995.924147
505.594700,0.000000,-8586.388927,842.705048
505.595027,-296.082377,-8660.409521,766.095498
505.595355,-296.082377,-8512.368333,766.095498
505.595682,-370.102971,-8660.409521,1072.533697
505.596010,-592.164754,-8956.491898,766.095498
505.596337,-740.205942,-9030.512492,689.485948
505.596664,-666.185348,-9326.594869,612.876398
505.596992,-1110.308913,-9326.594869,459.657299
505.597319,-518.144159,-9400.615463,383.047749
505.597647,-592.164754,-9178.553681,306.438199
505.597974,-370.102971,-9400.615463,153.219100
505.598302,-296.082377,-9326.594869,383.047749
505.598630,-148.041188,-9548.656652,536.266849
505.598958,148.041188,-9474.636058,459.657299
505.599285,0.000000,-9178.553681,383.047749
505.599613,-370.102971,-9548.656652,536.266849
505.599940,-518.144159,-9918.759623,612.876398
505.600268,-592.164754,-9770.718434,689.485948
505.600596,-370.102971,-9326.594869,919.314598
505.600923,148.041188,-9474.636058,536.266849
505.601251,0.000000,-9104.533087,536.266849
505.601578,148.041188,-8882.471304,612.876398
505.601906,296.082377,-8734.430116,459.657299
505.602233,444.123565,-8882.471304,766.095498
505.602561,888.247130,-8956.491898,766.095498
505.602888,0.000000,-9030.512492,459.657299
505.603216,-148.041188,-9474.636058,459.657299
505.603543,0.000000,-9252.574275,689.485948
505.603871,0.000000,-9326.594869,612.876398
505.604198,0.000000,-9178.553681,842.705048
505.604526,296.082377,-9178.553681,153.219100
505.604853,0.000000,-9252.574275,229.828649
505.605181,-296.082377,-8956.491898,229.828649
505.605509,-370.102971,-8882.471304,383.047749
505.605836,-444.123565,-8734.430116,536.266849
505.606164,-740.205942,-8882.471304,612.876398
505.606491,-666.185348,-8882.471304,229.828649
505.606819,-740.205942,-8808.450710,76.609550
505.607146,-666.185348,-8808.450710,0.000000
505.607474,-740.205942,-8512.368333,306.438199
505.607801,-518.144159,-8364.327145,0.000000
505.608129,-444.123565,-8512.368333,229.828649
505.608456,-444.123565,-8808.450710,153.219100
505.608784,-592.164754,-8882.471304,383.047749
505.609111,-666.185348,-9104.533087,459.657299
505.609439,-1036.288319,-8808.450710,842.705048
505.609767,-740.205942,-9548.656652,842.705048
505.610094,-740.205942,-9474.636058,842.705048
505.610422,-444.123565,-9326.594869,919.314598
505.610749,0.000000,-9030.512492,689.485948
505.611077,0.000000,-8660.409521,612.876398
505.611404,-296.082377,-8882.471304,76.609550
505.611732,-148.041188,-8882.471304,689.485948
505.612059,-370.102971,-9326.594869,842.705048
505.612387,-592.164754,-9400.615463,919.314598
505.612714,-592.164754,-9178.553681,1225.752797
505.613042,-666.185348,-9104.533087,612.876398
505.613369,-444.123565,-9252.574275,766.095498
505.613697,0.000000,-9104.533087,689.485948
505.614024,-148.041188,-8882.471304,612.876398
505.614352,-518.144159,-8660.409521,689.485948
505.614680,-518.144159,-8734.430116,229.828649
505.615007,-592.164754,-8882.471304,612.876398
505.615335,-592.164754,-9104.533087,612.876398
505.615662,-814.226536,-9104.533087,689.485948
505.615990,-444.123565,-9178.553681,536.266849
505.616317,74.020594,-9474.636058,306.438199
505.616645,-296.082377,-8660.409521,306.438199
505.616972,-222.061783,-8882.471304,306.438199
505.617300,-370.102971,-9252.574275,229.828649
505.617627,-370.102971,-9326.594869,459.657299
505.617955,0.000000,-9622.677246,1225.752797
505.618282,0.000000,-9326.594869,536.266849
505.618610,-444.123565,-9474.636058,612.876398
505.618938,-666.185348,-9474.636058,689.485948
505.619265,-148.041188,-9548.656652,459.657299
505.619593,-296.082377,-8882.471304,766.095498
505.619920,0.000000,-8364.327145,612.876398
505.620248,-296.082377,-8586.388927,306.438199
505.620575,-666.185348,-8586.388927,306.438199
505.620903,-888.247130,-8882.471304,459.657299
505.621230,-888.247130,-8734.430116,383.047749
505.621558,-814.226536,-8660.409521,306.438199
505.621885,-370.102971,-9030.512492,459.657299
505.622213,-148.041188,-8956.491898,536.266849
505.622540,74.020594,-8734.430116,459.657299
505.622868,370.102971,-8512.368333,536.266849
505.623195,370.102971,-8290.306550,229.828649
505.623523,0.000000,-9030.512492,383.047749
505.623851,-148.041188,-9696.697840,459.657299
505.624178,-296.082377,-9992.780217,995.924147
505.624506,-370.102971,-9918.759623,919.314598
505.624833,0.000000,-9918.759623,995.924147
505.625161,296.082377,-9178.553681,306.438199
505.625488,370.102971,-8956.491898,612.876398
505.625816,592.164754,-8512.368333,383.047749
505.626143,592.164754,-8290.306550,0.000000
505.626471,0.000000,-7994.224174,459.657299
505.626798,-370.102971,-8438.347739,612.876398
505.627126,-518.144159,-8808.450710,459.657299
505.627453,-518.144159,-9104.533087,995.924147
505.627781,-370.102971,-9252.574275,842.705048
505.628108,0.000000,-8882.471304,612.876398
505.628436,148.041188,-8438.347739,536.266849
505.628764,296.082377,-8364.327145,306.438199
505.629091,222.061783,-8364.327145,306.438199
505.629419,74.020594,-8512.368333,153.219100
505.629746,0.000000,-9252.574275,536.266849
505.630074,-148.041188,-9548.656652,612.876398
505.630401,-370.102971,-9696.697840,919.314598
505.630729,-296.082377,-9696.697840,766.095498
505.631056,-222.061783,-9474.636058,612.876398
505.631384,0.000000,-9474.636058,536.266849
505.631711,148.041188,-8808.450710,612.876398
505.632039,0.000000,-8660.409521,0.000000
505.632366,148.041188,-8882.471304,306.438199
505.632694,0.000000,-9474.636058,536.266849
505.633022,0.000000,-9844.739029,919.314598
505.633349,74.020594,-9844.739029,1072.533697
505.633677,0.000000,-9474.636058,1149.143247
505.634004,0.000000,-9770.718434,995.924147
505.634332,0.000000,-9474.636058,842.705048
505.634659,0.000000,-9252.574275,383.047749
505.634987,-148.041188,-8882.471304,536.266849
505.635314,-222.061783,-8512.368333,766.095498
505.635642,-370.102971,-9474.636058,383.047749
505.635969,-740.205942,-9770.718434,536.266849
505.636297,-518.144159,-9770.718434,689.485948
505.636624,-296.082377,-9548.656652,766.095498
505.636952,-370.102971,-9474.636058,383.047749
505.637279,-222.061783,-9474.636058,459.657299
505.637607,0.000000,-9400.615463,459.657299
505.637935,-370.102971,-8808.450710,459.657299
505.638262,-666.185348,-8956.491898,383.047749
505.638590,-1110.308913,-9622.677246,229.828649
505.638917,-1110.308913,-9696.697840,766.095498
505.639245,-962.267725,-9918.759623,842.705048
505.639572,-814.226536,-9326.594869,766.095498
505.639900,-592.164754,-9252.574275,612.876398
505.640227,-518.144159,-9030.512492,383.047749
505.640555,-296.082377,-8734.430116,1302.362347
505.640882,-222.061783,-8512.368333,536.266849
505.641210,-370.102971,-8438.347739,612.876398
505.641537,-666.185348,-8512.368333,766.095498
505.641865,-740.205942,-9400.615463,689.485948
505.642193,-1036.288319,-9252.574275,1378.971896
505.642520,-370.102971,-8956.491898,689.485948
505.642848,-592.164754,-8956.491898,842.705048
505.643175,-518.144159,-8660.409521,306.438199
505.643503,-296.082377,-8512.368333,536.266849
505.643830,-592.164754,-7624.121203,536.266849
505.644158,222.061783,-8586.388927,536.266849
505.644485,-296.082377,-8882.471304,459.657299
505.644813,-592.164754,-9030.512492,766.095498
505.645140,-592.164754,-9178.553681,612.876398
505.645468,-370.102971,-8660.409521,1072.533697
505.645795,-148.041188,-8808.450710,612.876398
505.646123,-222.061783,-8734.430116,383.047749
505.646450,0.000000,-8734.430116,306.438199
505.646778,148.041188,-8660.409521,306.438199
505.647106,222.061783,-8660.409521,306.438199
505.647433,222.061783,-8660.409521,995.924147
505.647761,0.000000,-9252.574275,536.266849
505.648088,0.000000,-9252.574275,766.095498
505.648416,0.000000,-9252.574275,612.876398
505.648743,0.000000,-9400.615463,842.705048
505.649071,0.000000,-9104.533087,1762.019645
505.649398,222.061783,-9178.553681,229.828649
505.649726,296.082377,-8956.491898,153.219100
505.650053,0.000000,-8734.430116,153.219100
505.650381,0.000000,-8882.471304,536.266849
505.650708,-296.082377,-8438.347739,919.314598
505.651036,0.000000,-9030.512492,842.705048
505.651364,-444.123565,-9252.574275,536.266849
505.651691,-444.123565,-9030.512492,536.266849
505.652019,-518.144159,-9178.553681,306.438199
505.652346,0.000000,-9474.636058,0.000000
505.652674,-296.082377,-9252.574275,766.095498
505.653001,0.000000,-9178.553681,536.266849
505.653329,0.000000,-9252.574275,306.438199
505.653656,0.000000,-9474.636058,612.876398
505.653984,0.000000,-9474.636058,689.485948
505.654311,0.000000,-9326.594869,995.924147
505.654639,0.000000,-9326.594869,536.266849
505.654966,74.020594,-9548.656652,842.705048
505.655294,0.000000,-9400.615463,459.657299
505.655621,0.000000,-9400.615463,612.876398
505.655949,74.020594,-8956.491898,1149.143247
505.656277,0.000000,-9252.574275,536.266849
505.656604,0.000000,-9474.636058,766.095498
505.656932,-296.082377,-9474.636058,766.095498
505.657259,-222.061783,-9252.574275,459.657299
505.657587,-518.144159,-9030.512492,689.485948
505.657914,-222.061783,-9400.615463,306.438199
505.658242,-444.123565,-9400.615463,383.047749
505.658569,-444.123565,-9252.574275,689.485948
505.658897,-444.123565,-9400.615463,459.657299
505.659224,-222.061783,-8956.491898,459.657299
505.659552,148.041188,-9178.553681,306.438199
505.659879,0.000000,-9252.574275,536.266849
505.660207,0.000000,-9252.574275,612.876398
505.660534,-148.041188,-9178.553681,689.485948
505.660862,-148.041188,-9252.574275,919.314598
505.661190,0.000000,-8956.491898,536.266849
505.661517,-222.061783,-9474.636058,612.876398
505.661845,-444.123565,-9178.553681,536.266849
505.662172,-296.082377,-9178.553681,459.657299
505.662500,0.000000,-9252.574275,766.095498
505.662827,-370.102971,-8808.450710,995.924147
505.663155,0.000000,-8882.471304,383.047749
505.663482,-370.102971,-8734.430116,612.876398
505.663810,-222.061783,-8882.471304,459.657299
505.664137,-296.082377,-8956.491898,459.657299
505.664465,-222.061783,-9030.512492,536.266849
505.664792,-296.082377,-9030.512492,612.876398
505.665120,-518.144159,-9030.512492,459.657299
505.665448,-518.144159,-9104.533087,612.876398
505.665775,-518.144159,-9178.553681,459.657299
505.666103,-296.082377,-9030.512492,995.924147
505.666430,-222.061783,-8956.491898,919.314598
505.666758,-222.061783,-9030.512492,689.485948
505.667085,0.000000,-9178.553681,689.485948
505.667413,-222.061783,-9030.512492,612.876398
505.667740,-148.041188,-9252.574275,612.876398
505.668068,0.000000,-8956.491898,842.705048
505.668395,-296.082377,-9030.512492,612.876398
505.668723,-296.082377,-9252.574275,612.876398
505.669050,-222.061783,-8956.491898,689.485948
505.669378,-518.144159,-8808.450710,612.876398
505.669705,0.000000,-8882.471304,842.705048
505.670033,-518.144159,-8882.471304,536.266849
505.670361,-444.123565,-8808.450710,689.485948
505.670688,-518.144159,-8882.471304,919.314598
505.671016,-592.164754,-8882.471304,536.266849
505.671343,-444.123565,-8586.388927,689.485948
505.671671,-814.226536,-8660.409521,689.485948
505.671998,-666.185348,-8882.471304,689.485948
505.672326,-592.164754,-9178.553681,536.266849
505.672653,-518.144159,-9104.533087,459.657299
505.672981,-296.082377,-9178.553681,842.705048
505.673308,-222.061783,-9104.533087,842.705048
505.673636,0.000000,-9252.574275,842.705048
505.673963,-444.123565,-9252.574275,689.485948
505.674291,-222.061783,-9326.594869,536.266849
505.674619,-148.041188,-9178.553681,689.485948
505.674946,148.041188,-9400.615463,229.828649
505.675274,0.000000,-9474.636058,306.438199
505.675601,-370.102971,-9030.512492,383.047749
505.675929,-444.123565,-8882.471304,536.266849
505.676256,-222.061783,-8956.491898,536.266849
505.676584,-222.061783,-8734.430116,459.657299
505.676911,-370.102971,-8882.471304,612.876398
505.677239,-296.082377,-8882.471304,536.266849
505.677566,-518.144159,-8882.471304,306.438199
505.677894,-666.185348,-9178.553681,459.657299
505.678221,-592.164754,-8882.471304,153.219100
505.678549,-814.226536,-8734.430116,306.438199
505.678876,-518.144159,-8882.471304,612.876398
505.679204,-518.144159,-8956.491898,383.047749
505.679532,-592.164754,-9104.533087,536.266849
505.679859,-370.102971,-9252.574275,383.047749
505.680187,-370.102971,-9178.553681,536.266849
505.680514,-444.123565,-8956.491898,689.485948
505.680842,-518.144159,-9030.512492,459.657299
505.681169,-296.082377,-9104.533087,536.266849
505.681497,-148.041188,-8882.471304,383.047749
505.681824,-222.061783,-8660.409521,689.485948
505.682152,-296.082377,-8808.450710,842.705048
505.682479,-296.082377,-9178.553681,689.485948
505.682807,-296.082377,-9030.512492,612.876398
505.683134,-222.061783,-8882.471304,536.266849
505.683462,-444.123565,-8882.471304,1072.533697
505.683789,0.000000,-8808.450710,229.828649
505.684117,-296.082377,-9030.512492,536.266849
505.684445,-296.082377,-9104.533087,383.047749
505.684772,-296.082377,-9030.512492,459.657299
505.685100,0.000000,-9030.512492,766.095498
505.685427,-296.082377,-9104.533087,459.657299
505.685755,-296.082377,-9326.594869,459.657299
505.686082,0.000000,-9400.615463,536.266849
505.686410,0.000000,-9252.574275,459.657299
505.686737,148.041188,-9622.677246,459.657299
505.687065,0.000000,-9696.697840,229.828649
505.687392,370.102971,-9474.636058,459.657299
505.687720,74.020594,-9474.636058,459.657299
505.688047,0.000000,-9770.718434,459.657299
505.688375,0.000000,-9770.718434,842.705048
505.688703,222.061783,-9326.594869,76.609550
505.689030,0.000000,-9252.574275,383.047749
505.689358,0.000000,-9400.615463,383.047749
505.689685,0.000000,-9474.636058,536.266849
505.690013,-148.041188,-9400.615463,459.657299
505.690340,-370.102971,-9178.553681,1072.533697
505.690668,0.000000,-8956.491898,306.438199
505.690995,-296.082377,-9178.553681,383.047749
505.691323,-444.123565,-9400.615463,536.266849
505.691650,-518.144159,-9252.574275,459.657299
505.691978,-370.102971,-9252.574275,842.705048
505.692305,-296.082377,-8956.491898,995.924147
505.692633,-370.102971,-9474.636058,689.485948
505.692960,-296.082377,-9548.656652,612.876398
505.693288,-222.061783,-9474.636058,766.095498
505.693616,-296.082377,-9400.615463,459.657299
505.693943,0.000000,-9178.553681,612.876398
505.694271,-592.164754,-9474.636058,842.705048
505.694598,-296.082377,-9400.615463,612.876398
505.694926,-296.082377,-9400.615463,766.095498
505.695253,-370.102971,-8882.471304,766.095498
505.695581,-222.061783,-9030.512492,306.438199
505.695908,-666.185348,-9030.512492,689.485948
505.696236,-444.123565,-8808.450710,689.485948
505.696563,-592.164754,-8734.430116,689.485948
505.696891,-296.082377,-8882.471304,536.266849
505.697218,-592.164754,-8438.347739,612.876398
505.697546,-518.144159,-8586.388927,383.047749
505.697874,-592.164754,-8808.450710,689.485948
505.698201,-666.185348,-8586.388927,229.828649
505.698529,-518.144159,-8734.430116,383.047749
505.698856,-444.123565,-8512.368333,689.485948
505.699184,-444.123565,-8956.491898,229.828649
505.699511,-222.061783,-8882.471304,306.438199
505.699839,0.000000,-8882.471304,76.609550
505.700166,-148.041188,-9030.512492,536.266849
505.700494,-370.102971,-8808.450710,383.047749
505.700821,74.020594,-9104.533087,842.705048
505.701149,-296.082377,-9030.512492,306.438199
505.701477,-296.082377,-9030.512492,383.047749
505.701804,-444.123565,-8882.471304,383.047749
505.702132,-148.041188,-9030.512492,536.266849
505.702459,0.000000,-8956.491898,-306.438199
505.702787,-370.102971,-8438.347739,383.047749
505.703115,-296.082377,-8660.409521,536.266849
505.703442,-370.102971,-8734.430116,612.876398
505.703770,-518.144159,-8586.388927,459.657299
505.704097,-518.144159,-8734.430116,766.095498
505.704425,0.000000,-8364.327145,842.705048
505.704752,-296.082377,-8956.491898,536.266849
505.705080,-592.164754,-8882.471304,383.047749
505.705408,-444.123565,-9252.574275,459.657299
505.705735,-296.082377,-9104.533087,612.876398
505.706063,0.000000,-9104.533087,1072.533697
505.706390,-222.061783,-9252.574275,536.266849
505.706718,0.000000,-9474.636058,842.705048
505.707046,0.000000,-9326.594869,459.657299
505.707373,-148.041188,-9400.615463,536.266849
505.707701,-222.061783,-9326.594869,229.828649
505.708028,-222.061783,-9474.636058,306.438199
505.708356,-296.082377,-9326.594869,612.876398
505.708684,-370.102971,-9326.594869,612.876398
505.709011,-296.082377,-9252.574275,766.095498
505.709339,0.000000,-8956.491898,536.266849
505.709666,-148.041188,-9104.533087,536.266849
505.709994,0.000000,-9030.512492,459.657299
505.710321,0.000000,-9104.533087,536.266849
505.710649,-148.041188,-9104.533087,689.485948
505.710977,-296.082377,-9326.594869,459.657299
505.711304,-666.185348,-8882.471304,1072.533697
505.711632,-444.123565,-9474.636058,459.657299
505.711959,-222.061783,-9474.636058,536.266849
505.712287,0.000000,-9400.615463,612.876398
505.712615,0.000000,-9474.636058,612.876398
505.712942,74.020594,-9474.636058,1149.143247
505.713270,0.000000,-9400.615463,383.047749
505.713597,0.000000,-9474.636058,536.266849
505.713925,148.041188,-9474.636058,689.485948
505.714252,148.041188,-9474.636058,842.705048
505.714580,222.061783,-9696.697840,689.485948
505.714908,74.020594,-9548.656652,689.485948
505.715235,-148.041188,-9400.615463,689.485948
505.715563,-148.041188,-9178.553681,536.266849
505.715890,0.000000,-9252.574275,459.657299
505.716218,0.000000,-9030.512492,842.705048
505.716546,-148.041188,-8808.450710,536.266849
505.716873,0.000000,-8956.491898,689.485948
505.717201,0.000000,-9178.553681,612.876398
505.717528,-370.102971,-9104.533087,536.266849
505.717856,-370.102971,-9104.533087,536.266849
505.718183,-740.205942,-8512.368333,766.095498
505.718511,0.000000,-9400.615463,306.438199
505.718839,-148.041188,-8882.471304,536.266849
505.719166,0.000000,-9178.553681,306.438199
505.719494,0.000000,-9030.512492,459.657299
505.719821,222.061783,-8808.450710,459.657299
505.720149,-222.061783,-9178.553681,153.219100
505.720477,-222.061783,-9400.615463,612.876398
505.720804,-370.102971,-9400.615463,459.657299
505.721132,-296.082377,-9474.636058,842.705048
505.721459,0.000000,-9252.574275,689.485948
505.721787,-222.061783,-9104.533087,689.485948
505.722114,-296.082377,-9326.594869,536.266849
505.722442,-148.041188,-9030.512492,536.266849
505.722770,-592.164754,-8808.450710,306.438199
505.723097,0.000000,-8586.388927,306.438199
505.723425,-444.123565,-8290.306550,919.314598
505.723752,-370.102971,-8882.471304,689.485948
505.724080,-592.164754,-8956.491898,536.266849
505.724408,-666.185348,-9030.512492,459.657299
505.724735,-518.144159,-9178.553681,612.876398
505.725063,-888.247130,-8882.471304,459.657299
505.725390,-518.144159,-8956.491898,459.657299
505.725718,-148.041188,-9178.553681,383.047749
505.726046,-592.164754,-8882.471304,612.876398
505.726373,-296.082377,-9030.512492,612.876398
505.726701,-814.226536,-8956.491898,995.924147
505.727028,-296.082377,-9252.574275,383.047749
505.727356,-222.061783,-9252.574275,383.047749
505.727683,-148.041188,-9326.594869,383.047749
505.728011,-296.082377,-9252.574275,306.438199
505.728339,0.000000,-8660.409521,383.047749
505.728666,-370.102971,-8882.471304,306.438199
505.728994,-222.061783,-8956.491898,612.876398
505.729321,-148.041188,-9252.574275,383.047749
505.729649,-296.082377,-8808.450710,459.657299
505.729977,-222.061783,-8956.491898,306.438199
505.730304,-518.144159,-8660.409521,689.485948
505.730632,-444.123565,-8882.471304,459.657299
505.730959,-370.102971,-9030.512492,229.828649
505.731287,-370.102971,-8808.450710,306.438199
505.731614,-444.123565,-8586.388927,689.485948
505.731942,0.000000,-8882.471304,842.705048
505.732270,-148.041188,-9252.574275,689.485948
505.732597,0.000000,-9030.512492,459.657299
505.732925,-148.041188,-9104.533087,612.876398
505.733252,-148.041188,-9030.512492,766.095498
505.733580,0.000000,-9178.553681,1302.362347
505.733908,-518.144159,-9252.574275,612.876398
505.734235,-222.061783,-9474.636058,842.705048
505.734563,-370.102971,-9178.553681,689.485948
505.734890,-296.082377,-9030.512492,842.705048
505.735218,-222.061783,-8956.491898,383.047749
505.735545,-222.061783,-9030.512492,766.095498
505.735873,-296.082377,-9030.512492,919.314598
505.736201,-296.082377,-8808.450710,536.266849
505.736528,-444.123565,-8882.471304,689.485948
505.736856,-666.185348,-8734.430116,612.876398
505.737183,0.000000,-9252.574275,842.705048
505.737511,-370.102971,-9030.512492,536.266849
505.737839,-148.041188,-9252.574275,306.438199
505.738166,-296.082377,-9326.594869,536.266849
505.738494,-222.061783,-8882.471304,536.266849
505.738821,-296.082377,-9474.636058,76.609550
505.739149,-148.041188,-9326.594869,383.047749
505.739476,0.000000,-9474.636058,612.876398
505.739804,-148.041188,-9326.594869,536.266849
505.740132,0.000000,-9474.636058,459.657299
505.740459,0.000000,-9474.636058,459.657299
505.740787,0.000000,-9474.636058,536.266849
505.741114,0.000000,-9474.636058,536.266849
505.741442,0.000000,-9474.636058,383.047749
505.741770,-222.061783,-9252.574275,229.828649
505.742097,0.000000,-9400.615463,0.000000
505.742425,-148.041188,-8882.471304,383.047749
505.742752,-370.102971,-8956.491898,536.266849
505.743080,-370.102971,-9030.512492,229.828649
505.743408,-518.144159,-9252.574275,306.438199
505.743735,-740.205942,-9252.574275,536.266849
505.744063,-592.164754,-8808.450710,842.705048
505.744390,-222.061783,-8882.471304,306.438199
505.744718,-148.041188,-9252.574275,459.657299
505.745045,-148.041188,-9400.615463,536.266849
505.745373,0.000000,-9178.553681,766.095498
505.745701,0.000000,-8660.409521,689.485948
505.746028,0.000000,-9178.553681,306.438199
505.746356,-296.082377,-9400.615463,459.657299
505.746683,-370.102971,-9474.636058,612.876398
505.747011,-296.082377,-9326.594869,689.485948
505.747339,0.000000,-9252.574275,995.924147
505.747666,-370.102971,-9178.553681,612.876398
505.747994,-370.102971,-9252.574275,842.705048
505.748321,-444.123565,-9030.512492,536.266849
505.748649,-148.041188,-8882.471304,689.485948
505.748976,0.000000,-8660.409521,383.047749
505.749304,-370.102971,-8808.450710,1149.143247
505.749632,-444.123565,-8956.491898,459.657299
505.749959,-370.102971,-9030.512492,612.876398
505.750287,-370.102971,-9178.553681,383.047749
505.750614,-296.082377,-9104.533087,536.266849
505.750942,-518.144159,-8734.430116,229.828649
505.751270,0.000000,-9252.574275,229.828649
505.751597,0.000000,-9030.512492,536.266849
505.751925,-148.041188,-9104.533087,536.266849
505.752252,0.000000,-9252.574275,536.266849
505.752580,0.000000,-9104.533087,919.314598
505.752907,0.000000,-9400.615463,536.266849
505.753235,0.000000,-9326.594869,689.485948
505.753563,0.000000,-9474.636058,766.095498
505.753890,74.020594,-9400.615463,612.876398
505.754218,-370.102971,-9178.553681,766.095498
505.754545,0.000000,-9326.594869,536.266849
505.754873,-148.041188,-9030.512492,612.876398
505.755201,-296.082377,-9030.512492,536.266849
505.755528,-444.123565,-8956.491898,459.657299
505.755856,-444.123565,-8882.471304,766.095498
505.756183,-518.144159,-8660.409521,459.657299
505.756511,-592.164754,-8956.491898,536.266849
505.756838,-592.164754,-8956.491898,306.438199
505.757166,-518.144159,-8882.471304,612.876398
505.757494,-370.102971,-9030.512492,766.095498
505.757821,-888.247130,-8364.327145,919.314598
505.758149,-740.205942,-8882.471304,612.876398
505.758476,-518.144159,-9178.553681,459.657299
505.758804,-370.102971,-9178.553681,612.876398
505.759132,-296.082377,-9400.615463,689.485948
505.759459,-370.102971,-8734.430116,689.485948
505.759787,-370.102971,-8956.491898,536.266849
505.760114,-370.102971,-9104.533087,689.485948
505.760442,-592.164754,-8882.471304,689.485948
505.760769,-518.144159,-8956.491898,612.876398
505.761097,0.000000,-9030.512492,1378.971896
505.761425,-296.082377,-8956.491898,536.266849
505.761752,-444.123565,-8956.491898,536.266849
505.762080,-592.164754,-8808.450710,459.657299
505.762407,-296.082377,-8882.471304,612.876398
505.762735,0.000000,-9104.533087,1149.143247
505.763063,-814.226536,-8586.388927,459.657299
505.763390,-444.123565,-8808.450710,536.266849
505.763718,-666.185348,-8882.471304,536.266849
505.764045,-592.164754,-8808.450710,612.876398
505.764373,-222.061783,-8660.409521,612.876398
505.764701,0.000000,-9104.533087,153.219100
505.765028,-148.041188,-9400.615463,612.876398
505.765356,-444.123565,-8882.471304,459.657299
505.765683,-296.082377,-9400.615463,536.266849
505.766011,-148.041188,-9326.594869,536.266849
505.766338,0.000000,-9178.553681,536.266849
505.766666,-444.123565,-9474.636058,459.657299
505.766994,0.000000,-9474.636058,536.266849
505.767321,0.000000,-9474.636058,612.876398
505.767649,-296.082377,-9326.594869,536.266849
505.767976,148.041188,-9474.636058,383.047749
505.768304,-296.082377,-9252.574275,536.266849
505.768632,-148.041188,-9178.553681,306.438199
505.768959,0.000000,-9104.533087,306.438199
505.769287,0.000000,-9030.512492,536.266849
505.769614,0.000000,-9030.512492,766.095498
505.769942,0.000000,-9104.533087,383.047749
505.770269,0.000000,-9474.636058,383.047749
505.770597,-148.041188,-9400.615463,689.485948
505.770925,-148.041188,-9326.594869,612.876398
505.771252,-296.082377,-9104.533087,842.705048
505.771580,444.123565,-9252.574275,766.095498
505.771907,0.000000,-9474.636058,459.657299
505.772235,0.000000,-9252.574275,536.266849
505.772563,0.000000,-9252.574275,536.266849
505.772890,0.000000,-9252.574275,612.876398
505.773218,0.000000,-9474.636058,459.657299
505.773545,-148.041188,-9252.574275,383.047749
505.773873,0.000000,-9400.615463,612.876398
505.774200,-222.061783,-9474.636058,536.266849
505.774528,0.000000,-9252.574275,766.095498
505.774856,0.000000,-9104.533087,306.438199
505.775183,0.000000,-9030.512492,766.095498
505.775511,0.000000,-9252.574275,459.657299
505.775838,-222.061783,-9104.533087,536.266849
505.776166,-592.164754,-9030.512492,612.876398
505.776494,-518.144159,-9030.512492,1149.143247
505.776821,-444.123565,-9104.533087,689.485948
505.777149,-370.102971,-9326.594869,536.266849
505.777476,-222.061783,-9326.594869,383.047749
505.777804,-370.102971,-9178.553681,536.266849
505.778131,-296.082377,-8956.491898,995.924147
505.778459,-296.082377,-9252.574275,76.609550
505.778787,-370.102971,-9104.533087,536.266849
505.779114,-222.061783,-9030.512492,536.266849
505.779442,0.000000,-9030.512492,766.095498
505.779769,-222.061783,-9252.574275,612.876398
505.780097,222.061783,-9326.594869,766.095498
505.780425,0.000000,-9104.533087,612.876398
505.780752,-444.123565,-9030.512492,766.095498
505.781080,-444.123565,-9104.533087,459.657299
505.781407,-370.102971,-9030.512492,689.485948
505.781735,0.000000,-9252.574275,383.047749
505.782063,-444.123565,-8734.430116,459.657299
505.782390,-222.061783,-8734.430116,689.485948
505.782718,-296.082377,-8882.471304,459.657299
505.783045,-370.102971,-8956.491898,842.705048
505.783373,-444.123565,-8808.450710,689.485948
505.783700,-370.102971,-8438.347739,842.705048
505.784028,-592.164754,-8882.471304,383.047749
505.784356,-666.185348,-9178.553681,612.876398
505.784683,-296.082377,-9178.553681,536.266849
505.785011,-222.061783,-8808.450710,842.705048
505.785338,0.000000,-8586.388927,689.485948
505.785666,-518.144159,-9030.512492,459.657299
505.785994,-370.102971,-9252.574275,536.266849
505.786321,-296.082377,-9030.512492,842.705048
505.786649,-444.123565,-9104.533087,689.485948
505.786976,-148.041188,-9030.512492,689.485948
505.787304,-444.123565,-9104.533087,536.266849
505.787631,-518.144159,-9030.512492,612.876398
505.787959,-592.164754,-9104.533087,536.266849
505.788287,-666.185348,-8882.471304,689.485948
505.788614,-518.144159,-8586.388927,306.438199
505.788942,-370.102971,-8512.368333,842.705048
505.789269,-296.082377,-9030.512492,612.876398
505.789597,-518.144159,-8808.450710,689.485948
505.789925,-444.123565,-9178.553681,689.485948
505.790252,-592.164754,-8808.450710,689.485948
505.790580,-666.185348,-9030.512492,306.438199
505.790907,-444.123565,-9400.615463,459.657299
505.791235,-370.102971,-9178.553681,306.438199
505.791562,-296.082377,-8956.491898,536.266849
505.791890,-148.041188,-9252.574275,459.657299
505.792218,-518.144159,-9104.533087,766.095498
505.792545,-296.082377,-9326.594869,612.876398
505.792873,0.000000,-9548.656652,536.266849
505.793200,-148.041188,-9474.636058,536.266849
505.793528,-222.061783,-9622.677246,306.438199
505.793856,0.000000,-9252.574275,766.095498
505.794183,-222.061783,-9326.594869,459.657299
505.794511,0.000000,-9178.553681,459.657299
505.794838,74.020594,-8956.491898,153.219100
505.795166,74.020594,-9104.533087,229.828649
505.795493,0.000000,-8882.471304,459.657299
505.795821,-222.061783,-8734.430116,76.609550
505.796149,-296.082377,-8882.471304,153.219100
505.796476,-296.082377,-9030.512492,229.828649
505.796804,-370.102971,-9326.594869,153.219100
505.797131,0.000000,-9326.594869,919.314598
505.797459,0.000000,-8808.450710,459.657299
505.797787,0.000000,-8956.491898,536.266849
505.798114,0.000000,-9104.533087,536.266849
505.798442,0.000000,-9030.512492,459.657299
505.798769,0.000000,-9326.594869,842.705048
505.799097,-222.061783,-9104.533087,1072.533697
505.799424,-222.061783,-9474.636058,919.314598
505.799752,-444.123565,-9474.636058,612.876398
505.800080,-296.082377,-9400.615463,766.095498
505.800407,-518.144159,-9178.553681,919.314598
505.800735,0.000000,-8808.450710,1685.410096
505.801062,-148.041188,-8956.491898,766.095498
505.801390,-222.061783,-8882.471304,766.095498
505.801718,-444.123565,-9030.512492,995.924147
505.802045,-592.164754,-8882.471304,919.314598
505.802373,-740.205942,-9030.512492,919.314598
505.802700,-444.123565,-9030.512492,842.705048
505.803028,-592.164754,-9178.553681,689.485948
505.803355,-370.102971,-9178.553681,842.705048
505.803683,-370.102971,-9104.533087,842.705048
505.804010,0.000000,-9104.533087,536.266849
505.804338,0.000000,-8882.471304,842.705048
505.804666,0.000000,-9252.574275,612.876398
505.804993,0.000000,-9252.574275,536.266849
505.805321,-296.082377,-9326.594869,536.266849
505.805648,-222.061783,-9474.636058,919.314598
505.805976,-222.061783,-9252.574275,919.314598
505.806303,0.000000,-9696.697840,536.266849
505.806631,-296.082377,-9474.636058,766.095498
505.806958,-222.061783,-9400.615463,459.657299
505.807286,-296.082377,-9252.574275,306.438199
505.807614,-148.041188,-8882.471304,306.438199
505.807941,-370.102971,-8882.471304,229.828649
505.808269,-296.082377,-8956.491898,383.047749
505.808596,-370.102971,-8956.491898,459.657299
505.808924,-370.102971,-9252.574275,306.438199
505.809251,-296.082377,-9178.553681,0.000000
505.809579,-370.102971,-8734.430116,612.876398
505.809906,-518.144159,-8734.430116,383.047749
505.810234,-592.164754,-8882.471304,383.047749
505.810562,-296.082377,-8956.491898,536.266849
505.810889,-222.061783,-8956.491898,459.657299
505.811217,148.041188,-8956.491898,1149.143247
505.811544,0.000000,-9252.574275,842.705048
505.811872,-444.123565,-9326.594869,689.485948
505.812199,-370.102971,-9178.553681,919.314598
505.812527,-370.102971,-9178.553681,689.485948
505.812854,-888.247130,-8956.491898,536.266849
505.813182,-148.041188,-8734.430116,536.266849
505.813510,-370.102971,-9030.512492,842.705048
505.813837,-518.144159,-8882.471304,612.876398
505.814165,-592.164754,-8808.450710,842.705048
505.814492,-888.247130,-8290.306550,383.047749
505.814820,0.000000,-9030.512492,689.485948
505.815147,-666.185348,-8438.347739,459.657299
505.815475,-592.164754,-8660.409521,459.657299
505.815802,-592.164754,-8660.409521,459.657299
505.816130,-296.082377,-8364.327145,459.657299
505.816458,-222.061783,-8734.430116,459.657299
505.816785,-296.082377,-8734.430116,536.266849
505.817113,0.000000,-9104.533087,383.047749
505.817440,0.000000,-9030.512492,459.657299
505.817768,0.000000,-9326.594869,536.266849
505.818095,222.061783,-8882.471304,459.657299
505.818423,74.020594,-9326.594869,459.657299
505.818750,0.000000,-9474.636058,383.047749
505.819078,0.000000,-9400.615463,383.047749
505.819406,0.000000,-9400.615463,459.657299
505.819733,-222.061783,-9252.574275,536.266849
505.820061,0.000000,-9326.594869,383.047749
505.820388,-148.041188,-9104.533087,153.219100
505.820716,-148.041188,-9178.553681,766.095498
505.821043,-518.144159,-9030.512492,383.047749
505.821371,-592.164754,-8734.430116,306.438199
505.821698,-370.102971,-8808.450710,383.047749
505.822026,-518.144159,-9252.574275,612.876398
505.822354,-814.226536,-9030.512492,459.657299
505.822681,-740.205942,-8956.491898,612.876398
505.823009,-518.144159,-9252.574275,153.219100
505.823336,-518.144159,-9178.553681,459.657299
505.823664,-592.164754,-9178.553681,766.095498
505.823991,-518.144159,-9252.574275,612.876398
505.824319,-444.123565,-9326.594869,612.876398
505.824646,-296.082377,-9252.574275,842.705048
505.824974,0.000000,-9252.574275,689.485948
505.825301,-296.082377,-9474.636058,689.485948
505.825629,-592.164754,-9474.636058,689.485948
505.825957,-296.082377,-9622.677246,766.095498
505.826284,-444.123565,-9326.594869,689.485948
505.826612,0.000000,-9104.533087,766.095498
505.826939,0.000000,-9252.574275,306.438199
505.827267,-296.082377,-9178.553681,612.876398
505.827594,-370.102971,-9030.512492,689.485948
505.827922,-370.102971,-9030.512492,306.438199
505.828249,-592.164754,-8808.450710,842.705048
505.828577,-222.061783,-8882.471304,459.657299
505.828905,-296.082377,-8882.471304,459.657299
505.829232,-222.061783,-8956.491898,536.266849
505.829560,-370.102971,-9030.512492,459.657299
505.829887,-74.020594,-9030.512492,766.095498
505.830215,-148.041188,-8882.471304,842.705048
505.830542,0.000000,-9252.574275,536.266849
505.830870,-148.041188,-9252.574275,306.438199
505.831197,0.000000,-9326.594869,612.876398
505.831525,0.000000,-9400.615463,612.876398
505.831853,0.000000,-9252.574275,919.314598
505.832180,0.000000,-9178.553681,306.438199
505.832508,0.000000,-9326.594869,383.047749
505.832835,-148.041188,-9104.533087,383.047749
505.833163,-148.041188,-9178.553681,383.047749
505.833490,-592.164754,-8882.471304,459.657299
505.833818,-148.041188,-9104.533087,766.095498
505.834145,-370.102971,-9030.512492,612.876398
505.834473,-296.082377,-8956.491898,459.657299
505.834801,-518.144159,-8734.430116,536.266849
505.835128,-222.061783,-9252.574275,383.047749
505.835456,-444.123565,-8660.409521,995.924147
505.835783,-370.102971,-8734.430116,383.047749
505.836111,-518.144159,-8586.388927,536.266849
505.836438,-444.123565,-8808.450710,459.657299
505.836766,-296.082377,-8956.491898,229.828649
505.837093,-296.082377,-8808.450710,1302.362347
505.837421,-296.082377,-9326.594869,842.705048
505.837749,-296.082377,-9326.594869,766.095498
505.838076,-148.041188,-9104.533087,459.657299
505.838404,0.000000,-9178.553681,689.485948
505.838731,0.000000,-9030.512492,842.705048
505.839059,-296.082377,-9326.594869,536.266849
505.839386,-222.061783,-9252.574275,612.876398
505.839714,-148.041188,-9178.553681,612.876398
505.840041,-370.102971,-9326.594869,459.657299
505.840369,-370.102971,-9030.512492,536.266849
505.840697,-444.123565,-9030.512492,536.266849
505.841024,-296.082377,-8956.491898,536.266849
505.841352,-444.123565,-8882.471304,153.219100
505.841679,-592.164754,-8882.471304,153.219100
505.842007,-370.102971,-8660.409521,459.657299
505.842334,0.000000,-8808.450710,766.095498
505.842662,-370.102971,-8660.409521,153.219100
505.842989,-370.102971,-8956.491898,536.266849
505.843317,-296.082377,-9178.553681,383.047749
505.843645,-222.061783,-9252.574275,459.657299
505.843972,-296.082377,-8808.450710,229.828649
505.844300,-222.061783,-9178.553681,612.876398
505.844627,0.000000,-9252.574275,536.266849
505.844955,-148.041188,-9178.553681,612.876398
505.845282,-222.061783,-9030.512492,689.485948
505.845610,-666.185348,-9252.574275,766.095498
505.845937,-444.123565,-9326.594869,919.314598
505.846265,-444.123565,-9474.636058,766.095498
505.846593,-592.164754,-9104.533087,842.705048
505.846920,-592.164754,-9030.512492,383.047749
505.847248,-518.144159,-8660.409521,766.095498
505.847575,-518.144159,-9030.512492,459.657299
505.847903,-444.123565,-8808.450710,919.314598
505.848230,-444.123565,-8512.368333,536.266849
505.848558,-444.123565,-8660.409521,612.876398
505.848885,-740.205942,-8808.450710,919.314598
505.849213,-592.164754,-8956.491898,995.924147
505.849541,-444.123565,-8956.491898,995.924147
505.849868,-444.123565,-8956.491898,766.095498
505.850196,-222.061783,-9252.574275,842.705048
505.850523,0.000000,-9326.594869,612.876398
505.850851,0.000000,-9326.594869,536.266849
505.851178,0.000000,-9104.533087,612.876398
505.851506,0.000000,-9252.574275,766.095498
505.851833,0.000000,-9400.615463,842.705048
505.852161,-148.041188,-9400.615463,612.876398
505.852489,0.000000,-9622.677246,153.219100
505.852816,-370.102971,-9326.594869,689.485948
505.853144,-222.061783,-9474.636058,612.876398
505.853471,0.000000,-9400.615463,612.876398
505.853799,0.000000,-9104.533087,459.657299
505.854126,-148.041188,-9104.533087,689.485948
505.854454,0.000000,-9104.533087,459.657299
505.854781,0.000000,-8882.471304,689.485948
505.855109,0.000000,-9400.615463,459.657299
505.855437,-296.082377,-9104.533087,536.266849
505.855764,0.000000,-8956.491898,459.657299
505.856092,-222.061783,-9252.574275,612.876398
505.856419,-148.041188,-9326.594869,459.657299
505.856747,-296.082377,-9252.574275,612.876398
505.857074,0.000000,-9252.574275,383.047749
505.857402,74.020594,-9474.636058,459.657299
505.857729,0.000000,-9030.512492,76.609550
505.858057,74.020594,-9548.656652,689.485948
505.858385,0.000000,-9474.636058,383.047749
505.858712,0.000000,-9474.636058,689.485948
505.859040,-370.102971,-9548.656652,383.047749
505.859367,-296.082377,-9030.512492,1072.533697
505.859695,0.000000,-9252.574275,459.657299
505.860022,-296.082377,-9178.553681,536.266849
505.860350,-370.102971,-8956.491898,229.828649
505.860677,-148.041188,-9104.533087,536.266849
505.861005,-592.164754,-8586.388927,612.876398
505.861333,0.000000,-8882.471304,536.266849
505.861660,-296.082377,-8808.450710,536.266849
505.861988,-666.185348,-9030.512492,459.657299
505.862315,-666.185348,-9104.533087,459.657299
505.862643,-296.082377,-9326.594869,612.876398
505.862970,-222.061783,-8586.388927,383.047749
505.863298,-370.102971,-9030.512492,689.485948
505.863625,0.000000,-9104.533087,612.876398
505.863953,-148.041188,-9178.553681,612.876398
505.864281,0.000000,-9030.512492,536.266849
505.864608,0.000000,-8808.450710,459.657299
505.864936,-296.082377,-9030.512492,459.657299
505.865263,-518.144159,-9400.615463,536.266849
505.865591,-222.061783,-9326.594869,612.876398
505.865918,-370.102971,-9104.533087,459.657299
505.866246,-444.123565,-8586.388927,919.314598
505.866573,-74.020594,-8956.491898,306.438199
505.866901,-592.164754,-8734.430116,612.876398
505.867228,-518.144159,-8438.347739,612.876398
505.867556,-370.102971,-8512.368333,612.876398
505.867884,-148.041188,-8734.430116,689.485948
505.868211,-740.205942,-8216.285956,459.657299
505.868539,-370.102971,-8808.450710,383.047749
505.868866,-518.144159,-8734.430116,229.828649
505.869194,-370.102971,-8882.471304,842.705048
505.869521,-296.082377,-8956.491898,766.095498
505.869849,-222.061783,-8660.409521,766.095498
505.870176,-296.082377,-9104.533087,459.657299
505.870504,-222.061783,-9030.512492,612.876398
505.870832,-148.041188,-9104.533087,383.047749
505.871159,-222.061783,-9326.594869,689.485948
505.871487,74.020594,-9696.697840,919.314598
505.871814,0.000000,-9548.656652,536.266849
505.872142,-222.061783,-9548.656652,689.485948
505.872469,-444.123565,-9474.636058,536.266849
