#time,accel_x,accel_y,accel_z
455.059195,-296.082377,-9178.553681,689.485948
455.059522,-444.123565,-9030.512492,766.095498
455.059849,-296.082377,-9104.533087,536.266849
455.060177,-222.061783,-8882.471304,536.266849
455.060504,-296.082377,-8956.491898,383.047749
455.060832,-296.082377,-9104.533087,459.657299
455.061159,-222.061783,-9030.512492,536.266849
455.061486,-222.061783,-8808.450710,612.876398
455.061814,-148.041188,-9252.574275,536.266849
455.062141,-148.041188,-8882.471304,995.924147
455.062468,-296.082377,-9104.533087,306.438199
455.062796,-370.102971,-9030.512492,459.657299
455.063123,-370.102971,-9030.512492,383.047749
455.063450,-148.041188,-9326.594869,766.095498
455.063778,0.000000,-9548.656652,689.485948
455.064105,-148.041188,-9030.512492,536.266849
455.064433,-296.082377,-9326.594869,306.438199
455.064760,-296.082377,-9252.574275,459.657299
455.065087,-222.061783,-9400.615463,536.266849
455.065415,0.000000,-8808.450710,153.219100
455.065742,0.000000,-9252.574275,383.047749
455.066069,-222.061783,-9178.553681,229.828649
455.066397,-370.102971,-9178.553681,459.657299
455.066724,-296.082377,-9030.512492,459.657299
455.067052,-592.164754,-8882.471304,612.876398
455.067379,0.000000,-9178.553681,766.095498
455.067706,-222.061783,-9252.574275,612.876398
455.068034,-296.082377,-9030.512492,306.438199
455.068361,-222.061783,-9030.512492,459.657299
455.068688,-222.061783,-8660.409521,612.876398
455.069016,-148.041188,-8956.491898,842.705048
455.069343,0.000000,-9400.615463,766.095498
455.069671,0.000000,-9178.553681,612.876398
455.069998,-296.082377,-8882.471304,612.876398
455.070325,-222.061783,-9178.553681,612.876398
455.070653,-222.061783,-8808.450710,995.924147
455.070980,-148.041188,-9178.553681,459.657299
455.071307,-148.041188,-8956.491898,689.485948
455.071635,-296.082377,-9030.512492,766.095498
455.071962,-370.102971,-9326.594869,536.266849
455.072289,-370.102971,-9030.512492,383.047749
455.072617,0.000000,-8808.450710,689.485948
455.072944,0.000000,-9030.512492,689.485948
455.073272,-222.061783,-9030.512492,612.876398
455.073599,-370.102971,-9326.594869,842.705048
455.073926,-222.061783,-9178.553681,459.657299
455.074254,-296.082377,-8734.430116,229.828649
455.074581,-222.061783,-9104.533087,383.047749
455.074908,-370.102971,-9326.594869,612.876398
455.075236,-296.082377,-9104.533087,612.876398
455.075563,-444.123565,-9104.533087,306.438199
455.075891,-666.185348,-9326.594869,76.609550
455.076218,-1332.370696,-9326.594869,0.000000
455.076545,-1554.432478,-9474.636058,-383.047749
455.076873,-1184.329507,-9030.512492,-689.485948
455.077200,-592.164754,-8882.471304,-383.047749
455.077527,-296.082377,-8734.430116,153.219100
455.077855,-740.205942,-9178.553681,-612.876398
455.078182,-1036.288319,-9178.553681,-1072.533697
455.078509,-1184.329507,-9252.574275,-1149.143247
455.078837,-1110.308913,-8956.491898,-1149.143247
455.079164,-962.267725,-9252.574275,-1072.533697
455.079492,-444.123565,-8808.450710,-919.314598
455.079819,-222.061783,-9104.533087,-1149.143247
455.080146,0.000000,-9252.574275,-1072.533697
455.080474,0.000000,-9326.594869,-1302.362347
455.080801,0.000000,-9104.533087,-1532.190996
455.081128,-148.041188,-9252.574275,-1072.533697
455.081456,148.041188,-9252.574275,-1762.019645
455.081783,74.020594,-9474.636058,-1838.629195
455.082111,0.000000,-9400.615463,-1991.848295
455.082438,222.061783,-9178.553681,-1762.019645
455.082765,518.144159,-9030.512492,-1685.410096
455.083093,592.164754,-9252.574275,-1838.629195
455.083420,444.123565,-9474.636058,-1762.019645
455.083747,222.061783,-9252.574275,-1915.238745
455.084075,222.061783,-9178.553681,-1915.238745
455.084402,444.123565,-9030.512492,-1915.238745
455.084730,0.000000,-9252.574275,-1608.800546
455.085057,-148.041188,-9252.574275,-1685.410096
455.085384,-370.102971,-9252.574275,-1838.629195
455.085712,-592.164754,-9252.574275,-1991.848295
455.086039,-740.205942,-8808.450710,-2451.505594
455.086366,-592.164754,-8660.409521,-2145.067394
455.086694,-1184.329507,-9030.512492,-2451.505594
455.087021,-1554.432478,-9030.512492,-2911.162892
455.087348,-1850.514855,-9030.512492,-2911.162892
455.087676,-1924.535449,-8808.450710,-3753.867940
455.088003,-2368.659014,-8586.388927,-3524.039291
455.088331,-1850.514855,-9030.512492,-3370.820191
455.088658,-1850.514855,-9030.512492,-3983.696590
455.088985,-1554.432478,-9030.512492,-3753.867940
455.089313,-1406.391290,-8734.430116,-4060.306139
455.089640,-1554.432478,-8734.430116,-3753.867940
455.089967,-740.205942,-9104.533087,-4060.306139
455.090295,-296.082377,-9252.574275,-3600.648841
455.090622,148.041188,-8956.491898,-3524.039291
455.090950,1184.329507,-9104.533087,-3370.820191
455.091277,1924.535449,-9400.615463,-2987.772442
455.091604,2220.617826,-8660.409521,-2068.457845
455.091932,2368.659014,-9104.533087,-1991.848295
455.092259,2220.617826,-9400.615463,-1915.238745
455.092586,1184.329507,-9770.718434,-1915.238745
455.092914,296.082377,-9992.780217,-2451.505594
455.093241,-962.267725,-9548.656652,-3370.820191
455.093568,-1850.514855,-10436.903782,-3830.477490
455.093896,-1924.535449,-10214.842000,-4673.182538
455.094223,-1998.556043,-9770.718434,-4903.011187
455.094551,-1406.391290,-8956.491898,-4826.401637
455.094878,296.082377,-7550.100608,-4443.353888
455.095205,1628.453072,-7105.977043,-3524.039291
455.095533,2590.720797,-7105.977043,-2681.334243
455.095860,2664.741391,-7550.100608,-2145.067394
455.096187,1554.432478,-8364.327145,-1915.238745
455.096515,0.000000,-8882.471304,-1378.971896
455.096842,-2368.659014,-10288.862594,-2068.457845
455.097170,-3552.988522,-11029.068536,-2451.505594
455.097497,-2886.803174,-10732.986159,-2221.676944
455.097824,518.144159,-9030.512492,-612.876398
455.098152,5255.462188,-7254.018232,766.095498
455.098479,7994.224174,-6291.750507,2987.772442
455.098806,8068.244768,-7105.977043,3830.477490
455.099134,5255.462188,-8734.430116,3140.991542
455.099461,1036.288319,-10214.842000,1762.019645
455.099789,-3182.885551,-11251.130318,612.876398
455.100116,-6513.812290,-12583.501014,-1532.190996
455.100443,-9400.615463,-13101.645173,-2528.115143
455.100771,-10658.965565,-12805.562797,-3600.648841
455.101098,-9696.697840,-10732.986159,-4213.525239
455.101425,-7105.977043,-8216.285956,-4443.353888
455.101753,-4219.173869,-5995.668130,-3447.429741
455.102080,-1480.411884,-4959.379811,-4979.620737
455.102407,148.041188,-5625.565159,-3983.696590
455.102735,-2664.741391,-5995.668130,-5439.278036
455.103062,-4145.153275,-7920.203579,-5056.230287
455.103390,-8216.285956,-9252.574275,-6818.249932
455.103717,-9622.677246,-9770.718434,-7431.126331
455.104044,-7105.977043,-10288.862594,-6741.640382
455.104372,-3034.844362,-8364.327145,-5822.325785
455.104699,3404.947333,-7105.977043,-3830.477490
455.105026,8956.491898,-5995.668130,-1149.143247
455.105354,10955.047942,-7772.162391,-1608.800546
455.105681,10288.862594,-9400.615463,-1762.019645
455.106009,6587.832884,-11103.089130,-3064.381992
455.106336,4811.338623,-11399.171507,-4366.744339
455.106663,5255.462188,-11177.109724,-3447.429741
455.106991,9918.759623,-9918.759623,-1225.752797
455.107318,11917.315666,-8660.409521,689.485948
455.107645,12657.521608,-9696.697840,1915.238745
455.107973,10288.862594,-10955.047942,3140.991542
455.108300,5773.606348,-10955.047942,766.095498
455.108627,1258.350101,-12435.459826,-459.657299
455.108955,-518.144159,-11473.192101,-1225.752797
455.109282,-1332.370696,-10510.924376,-995.924147
455.109610,-740.205942,-9474.636058,0.000000
455.109937,-1850.514855,-9104.533087,306.438199
455.110264,-6513.812290,-7920.203579,153.219100
455.110592,-12509.480420,-8068.244768,-2834.553343
455.110919,-14878.139434,-6809.894666,-5362.668486
455.111246,-12805.562797,-3923.091493,-6435.202183
455.111574,-5847.626942,-2590.720797,-4749.792088
455.111901,148.041188,-2072.576638,-1072.533697
455.112229,962.267725,-2368.659014,0.000000
455.112556,1110.308913,-5477.523971,2374.896044
455.112883,-2368.659014,-7402.059420,2068.457845
455.113211,-4071.132681,-8956.491898,2221.676944
455.113538,-3404.947333,-9918.759623,2298.286494
455.113865,-1406.391290,-11547.212695,3907.087040
455.114193,0.000000,-12583.501014,5669.106685
455.114520,1998.556043,-13101.645173,7354.516781
455.114848,2886.803174,-12065.356855,6971.469032
455.115175,5255.462188,-11399.171507,6894.859482
455.115502,6439.791695,-10436.903782,5822.325785
455.115830,5329.482782,-10214.842000,4903.011187
455.116157,3997.112087,-9992.780217,3677.258390
455.116484,2738.761985,-10066.800811,3140.991542
455.116812,-962.267725,-9548.656652,1455.581446
455.117139,-4515.256246,-9770.718434,2604.724693
455.117466,-1702.473667,-9696.697840,2298.286494
455.117794,-3478.967927,-10288.862594,1762.019645
455.118121,-4737.318029,-9178.553681,2451.505594
455.118449,-5477.523971,-10658.965565,842.705048
455.118776,-7328.038826,-9326.594869,0.000000
455.119103,-8808.450710,-9622.677246,-1838.629195
455.119431,-7105.977043,-8216.285956,-2145.067394
455.119758,-6587.832884,-6735.874072,-2528.115143
455.120085,-2368.659014,-5773.606348,-766.095498
455.120413,1702.473667,-5329.482782,153.219100
455.120740,962.267725,-6957.935855,0.000000
455.121068,1036.288319,-9400.615463,-689.485948
455.121396,-1332.370696,-11547.212695,-2451.505594
455.121723,-2812.782580,-11695.253884,-3447.429741
455.122051,-962.267725,-11991.336260,-2834.553343
455.122378,2664.741391,-11547.212695,-842.705048
455.122706,5921.647536,-10658.965565,0.000000
455.123034,7624.121203,-11547.212695,1378.971896
455.123361,6069.688724,-11695.253884,229.828649
455.123689,3552.988522,-11843.295072,-689.485948
455.124016,3108.864956,-11251.130318,-459.657299
455.124344,3182.885551,-9326.594869,-1762.019645
455.124671,5847.626942,-9178.553681,536.266849
455.124999,6587.832884,-8660.409521,1532.190996
455.125327,6143.709319,-8290.306550,2068.457845
455.125654,4145.153275,-8364.327145,536.266849
455.125982,444.123565,-8364.327145,612.876398
455.126309,296.082377,-8216.285956,-229.828649
455.126637,-962.267725,-8660.409521,0.000000
455.126965,-1184.329507,-7179.997637,229.828649
455.127292,-1332.370696,-8438.347739,766.095498
455.127620,-2368.659014,-7994.224174,689.485948
455.127947,-3849.070898,-7920.203579,0.000000
455.128275,-3108.864956,-7254.018232,-689.485948
455.128603,-4071.132681,-7105.977043,-766.095498
455.128930,-2368.659014,-6587.832884,-536.266849
455.129258,-2516.700203,-7105.977043,536.266849
455.129585,-3552.988522,-7550.100608,0.000000
455.129913,-4959.379811,-8438.347739,0.000000
455.130240,-6217.729913,-9326.594869,-689.485948
455.130568,-5403.503377,-8956.491898,-766.095498
455.130896,-2442.679609,-8068.244768,689.485948
455.131223,-666.185348,-7846.182985,459.657299
455.131551,148.041188,-8142.265362,1685.410096
455.131878,-296.082377,-8808.450710,1378.971896
455.132206,-1480.411884,-8808.450710,919.314598
455.132534,-962.267725,-8734.430116,612.876398
455.132861,962.267725,-7105.977043,459.657299
455.133189,3775.050304,-6957.935855,1838.629195
455.133516,5995.668130,-7476.080014,3370.820191
455.133844,5773.606348,-8512.368333,3830.477490
455.134172,3478.967927,-9696.697840,3677.258390
455.134499,1110.308913,-10510.924376,2451.505594
455.134827,-148.041188,-10658.965565,1532.190996
455.135154,148.041188,-10288.862594,76.609550
455.135482,1480.411884,-10584.944971,2604.724693
455.135809,3775.050304,-10066.800811,2528.115143
455.136137,1850.514855,-11695.253884,2987.772442
455.136465,-1702.473667,-11029.068536,1991.848295
455.136792,-2664.741391,-11695.253884,536.266849
455.137120,-3108.864956,-9844.739029,0.000000
455.137447,-2294.638420,-9400.615463,-689.485948
455.137775,518.144159,-8956.491898,0.000000
455.138103,-962.267725,-8808.450710,1072.533697
455.138430,-1554.432478,-9030.512492,459.657299
455.138758,-4219.173869,-9474.636058,0.000000
455.139085,-5699.585753,-9696.697840,-1378.971896
455.139413,-5181.441594,-9474.636058,-1685.410096
455.139741,-4071.132681,-7772.162391,-1991.848295
455.140068,-1776.494261,-7994.224174,-919.314598
455.140396,-740.205942,-8068.244768,-612.876398
455.140723,-1332.370696,-9104.533087,-383.047749
455.141051,-1628.453072,-9400.615463,-689.485948
455.141378,-888.247130,-9400.615463,-1072.533697
455.141706,740.205942,-8808.450710,-536.266849
455.142034,3256.906145,-8882.471304,383.047749
455.142361,4293.194464,-9770.718434,1455.581446
455.142689,4367.215058,-11103.089130,1532.190996
455.143016,2220.617826,-11695.253884,1762.019645
455.143344,814.226536,-12139.377449,842.705048
455.143672,666.185348,-11473.192101,306.438199
455.143999,2146.597232,-10288.862594,536.266849
455.144327,3182.885551,-9992.780217,1149.143247
455.144654,4145.153275,-9844.739029,2528.115143
455.144982,3256.906145,-9178.553681,995.924147
455.145310,-1554.432478,-9326.594869,766.095498
455.145637,-370.102971,-8142.265362,-536.266849
455.145965,-814.226536,-7624.121203,0.000000
455.146292,148.041188,-6883.915261,383.047749
455.146620,1850.514855,-6809.894666,919.314598
455.146947,222.061783,-7698.141797,1838.629195
455.147275,-2146.597232,-8364.327145,1072.533697
455.147603,-4219.173869,-8808.450710,153.219100
455.147930,-4885.359217,-8660.409521,-536.266849
455.148258,-4071.132681,-7476.080014,-306.438199
455.148585,-1924.535449,-7105.977043,153.219100
455.148913,-1036.288319,-6809.894666,689.485948
455.149241,-1036.288319,-7476.080014,766.095498
455.149568,-2516.700203,-7920.203579,0.000000
455.149896,-3330.926739,-8142.265362,-306.438199
455.150223,-2220.617826,-8290.306550,-689.485948
455.150551,-296.082377,-7328.038826,153.219100
455.150879,1554.432478,-8364.327145,1608.800546
455.151206,1480.411884,-9400.615463,2451.505594
455.151534,740.205942,-11029.068536,2298.286494
455.151861,-1480.411884,-11103.089130,1608.800546
455.152189,-2146.597232,-11251.130318,1149.143247
455.152516,-1036.288319,-10140.821405,1072.533697
455.152844,1110.308913,-9030.512492,1302.362347
455.153172,2812.782580,-8364.327145,1991.848295
455.153499,2960.823768,-8512.368333,2681.334243
455.153827,1850.514855,-8586.388927,1838.629195
455.154154,666.185348,-8586.388927,1455.581446
455.154482,222.061783,-7698.141797,-383.047749
455.154810,74.020594,-7772.162391,1149.143247
455.155137,2368.659014,-7254.018232,383.047749
455.155465,2072.576638,-9104.533087,2145.067394
455.155792,370.102971,-10214.842000,1991.848295
455.156120,-1036.288319,-11103.089130,1072.533697
455.156448,-3256.906145,-11325.150913,459.657299
455.156775,-3034.844362,-10658.965565,229.828649
455.157103,-1628.453072,-10066.800811,-383.047749
455.157430,-444.123565,-9918.759623,0.000000
455.157758,-296.082377,-9622.677246,76.609550
455.158085,-1480.411884,-10140.821405,-153.219100
455.158413,-2812.782580,-9844.739029,-1302.362347
455.158741,-2886.803174,-8808.450710,-1915.238745
455.159068,-1924.535449,-7994.224174,-2068.457845
455.159396,518.144159,-7698.141797,-766.095498
455.159723,2072.576638,-8142.265362,459.657299
455.160051,1554.432478,-9400.615463,1149.143247
455.160379,-444.123565,-10658.965565,995.924147
455.160706,-2368.659014,-11399.171507,0.000000
455.161034,-2590.720797,-11325.150913,-536.266849
455.161361,-740.205942,-10066.800811,-306.438199
455.161689,1702.473667,-9622.677246,995.924147
455.162017,3182.885551,-9252.574275,1762.019645
455.162344,2886.803174,-9474.636058,1685.410096
455.162672,1258.350101,-9252.574275,919.314598
455.162999,444.123565,-9178.553681,76.609550
455.163327,74.020594,-8216.285956,-459.657299
455.163654,2738.761985,-8142.265362,1302.362347
455.163982,3923.091493,-7772.162391,1225.752797
455.164310,2442.679609,-8882.471304,2068.457845
455.164637,1110.308913,-9622.677246,1838.629195
455.164965,-1998.556043,-10362.883188,1149.143247
455.165292,-3404.947333,-10066.800811,689.485948
455.165620,-2368.659014,-9400.615463,153.219100
455.165948,-1258.350101,-8512.368333,919.314598
455.166275,-740.205942,-8438.347739,766.095498
455.166603,-1258.350101,-9030.512492,1072.533697
455.166930,-3108.864956,-8956.491898,-842.705048
455.167258,-4219.173869,-7920.203579,-842.705048
455.167586,-3330.926739,-6809.894666,-1455.581446
455.167913,-888.247130,-6069.688724,-1072.533697
455.168241,1406.391290,-5921.647536,229.828649
455.168568,1554.432478,-7105.977043,995.924147
455.168896,0.000000,-8142.265362,995.924147
455.169224,-1998.556043,-9844.739029,536.266849
455.169551,-3478.967927,-10362.883188,-383.047749
455.169879,-2812.782580,-10140.821405,-383.047749
455.170206,0.000000,-9548.656652,306.438199
455.170534,2368.659014,-9326.594869,1378.971896
455.170861,3330.926739,-9474.636058,2145.067394
455.171189,2072.576638,-9992.780217,1991.848295
455.171517,814.226536,-9918.759623,1072.533697
455.171844,444.123565,-9030.512492,229.828649
455.172172,2072.576638,-8364.327145,0.000000
455.172499,3330.926739,-7550.100608,1302.362347
455.172827,3552.988522,-8586.388927,2145.067394
455.173155,2146.597232,-9474.636058,2604.724693
455.173482,148.041188,-10140.821405,1762.019645
455.173810,-2664.741391,-10436.903782,1149.143247
455.174137,-2442.679609,-9696.697840,689.485948
455.174465,-2220.617826,-9400.615463,153.219100
455.174793,-1184.329507,-9104.533087,919.314598
455.175120,-740.205942,-9474.636058,1225.752797
455.175448,-2146.597232,-9992.780217,919.314598
455.175775,-3775.050304,-9400.615463,0.000000
455.176103,-4071.132681,-9252.574275,-919.314598
455.176430,-2738.761985,-7772.162391,-1225.752797
455.176758,-592.164754,-7105.977043,-229.828649
455.177086,1258.350101,-7254.018232,383.047749
455.177413,814.226536,-8438.347739,1225.752797
455.177741,-1184.329507,-9918.759623,1072.533697
455.178068,-3256.906145,-10732.986159,0.000000
455.178396,-4145.153275,-10732.986159,-536.266849
455.178724,-2146.597232,-10140.821405,-153.219100
455.179051,814.226536,-9548.656652,1072.533697
455.179379,2220.617826,-9474.636058,1532.190996
455.179706,1850.514855,-9992.780217,1608.800546
455.180034,222.061783,-9992.780217,995.924147
455.180362,-814.226536,-9622.677246,0.000000
455.180689,0.000000,-8586.388927,-612.876398
455.181017,1924.535449,-7624.121203,383.047749
455.181344,4071.132681,-7920.203579,1072.533697
455.181672,4145.153275,-8808.450710,1685.410096
455.181999,1998.556043,-9622.677246,1685.410096
455.182327,-888.247130,-9918.759623,229.828649
455.182655,-2368.659014,-9696.697840,229.828649
455.182982,-1554.432478,-8956.491898,-306.438199
455.183310,370.102971,-8882.471304,536.266849
455.183637,1110.308913,-8438.347739,1149.143247
455.183965,1110.308913,-9400.615463,1455.581446
455.184293,0.000000,-9770.718434,536.266849
455.184620,-1850.514855,-9474.636058,153.219100
455.184948,-1628.453072,-8512.368333,-229.828649
455.185275,-148.041188,-8068.244768,0.000000
455.185603,1628.453072,-7698.141797,1072.533697
455.185931,1702.473667,-7920.203579,1302.362347
455.186258,0.000000,-8956.491898,1455.581446
455.186586,-1850.514855,-10066.800811,689.485948
455.186913,-3627.009116,-9696.697840,-306.438199
455.187241,-3330.926739,-9178.553681,-459.657299
455.187568,-1184.329507,-8438.347739,0.000000
455.187896,296.082377,-7846.182985,842.705048
455.188224,814.226536,-8290.306550,1072.533697
455.188551,-370.102971,-9104.533087,842.705048
455.188879,-2442.679609,-9326.594869,-153.219100
455.189206,-2664.741391,-8956.491898,-842.705048
455.189534,-1406.391290,-7772.162391,-842.705048
455.189862,1184.329507,-7698.141797,229.828649
455.190189,2886.803174,-8734.430116,1532.190996
455.190517,2368.659014,-9548.656652,1991.848295
455.190844,666.185348,-10436.903782,1762.019645
455.191172,-1258.350101,-10732.986159,459.657299
455.191500,-1184.329507,-10362.883188,0.000000
455.191827,-222.061783,-9770.718434,229.828649
455.192155,740.205942,-9326.594869,766.095498
455.192482,1998.556043,-9474.636058,1302.362347
455.192810,1036.288319,-9548.656652,1225.752797
455.193137,-1110.308913,-10140.821405,536.266849
455.193465,-1702.473667,-9992.780217,-459.657299
455.193793,-814.226536,-9252.574275,-612.876398
455.194120,740.205942,-8216.285956,76.609550
455.194448,2590.720797,-8216.285956,689.485948
455.194775,1776.494261,-9474.636058,1072.533697
455.195103,-296.082377,-10362.883188,919.314598
455.195431,-2590.720797,-10881.027347,0.000000
455.195758,-3775.050304,-10510.924376,-689.485948
455.196086,-2590.720797,-9326.594869,-689.485948
455.196413,-370.102971,-8882.471304,153.219100
455.196741,888.247130,-8068.244768,919.314598
455.197069,370.102971,-8660.409521,1302.362347
455.197396,-888.247130,-9252.574275,689.485948
455.197724,-1776.494261,-8882.471304,-459.657299
455.198051,-1628.453072,-8438.347739,-612.876398
455.198379,0.000000,-7328.038826,-842.705048
455.198706,1702.473667,-7920.203579,995.924147
455.199034,2368.659014,-8734.430116,1915.238745
455.199362,814.226536,-9696.697840,1915.238745
455.199689,-888.247130,-10732.986159,1762.019645
455.200017,-2220.617826,-10436.903782,766.095498
455.200344,-2220.617826,-9844.739029,0.000000
455.200672,0.000000,-8734.430116,536.266849
455.201000,1998.556043,-8290.306550,1532.190996
455.201327,1776.494261,-8734.430116,1991.848295
455.201655,962.267725,-8956.491898,1532.190996
455.201982,-814.226536,-9252.574275,842.705048
455.202310,-1258.350101,-8364.327145,306.438199
455.202638,-148.041188,-7624.121203,919.314598
455.202965,1258.350101,-7476.080014,1225.752797
455.203293,1554.432478,-8142.265362,2221.676944
455.203620,370.102971,-9770.718434,1685.410096
455.203948,-2220.617826,-10436.903782,1225.752797
455.204275,-3404.947333,-10140.821405,229.828649
455.204603,-3330.926739,-9548.656652,-383.047749
455.204931,-1776.494261,-8586.388927,0.000000
455.205258,962.267725,-8586.388927,229.828649
455.205586,1036.288319,-8364.327145,766.095498
455.205913,-148.041188,-8512.368333,536.266849
455.206241,-1776.494261,-9104.533087,-536.266849
455.206569,-2442.679609,-8882.471304,-1532.190996
455.206896,-1628.453072,-8142.265362,-919.314598
455.207224,1110.308913,-7846.182985,0.000000
455.207551,2294.638420,-7994.224174,995.924147
455.207879,1702.473667,-9548.656652,1915.238745
455.208207,-370.102971,-10955.047942,1378.971896
455.208534,-1554.432478,-11547.212695,766.095498
455.208862,-2294.638420,-10584.944971,-229.828649
455.209189,-444.123565,-9696.697840,-229.828649
455.209517,1924.535449,-9178.553681,842.705048
455.209844,2812.782580,-9104.533087,1225.752797
455.210172,2368.659014,-9252.574275,1302.362347
455.210500,740.205942,-9400.615463,766.095498
455.210827,-148.041188,-9400.615463,76.609550
455.211155,148.041188,-8586.388927,0.000000
455.211482,1332.370696,-8290.306550,536.266849
455.211810,2442.679609,-7920.203579,1455.581446
455.212138,2294.638420,-9252.574275,1991.848295
455.212465,-222.061783,-10362.883188,1608.800546
455.212793,-2664.741391,-10658.965565,766.095498
455.213120,-4219.173869,-10362.883188,-459.657299
455.213448,-3627.009116,-9252.574275,-306.438199
455.213776,-1702.473667,-8142.265362,0.000000
455.214103,-222.061783,-8068.244768,459.657299
455.214431,-888.247130,-8142.265362,229.828649
455.214758,-2146.597232,-8216.285956,0.000000
455.215086,-3552.988522,-8216.285956,-1455.581446
455.215414,-3182.885551,-7254.018232,-1302.362347
455.215741,-1258.350101,-7105.977043,-766.095498
455.216069,962.267725,-6809.894666,0.000000
455.216396,1702.473667,-7698.141797,1072.533697
455.216724,518.144159,-9178.553681,1608.800546
455.217051,-1554.432478,-9770.718434,1225.752797
455.217379,-2664.741391,-10436.903782,306.438199
455.217707,-2368.659014,-9622.677246,-459.657299
455.218034,74.020594,-9030.512492,229.828649
455.218362,2294.638420,-8808.450710,1225.752797
455.218689,3034.844362,-8882.471304,2068.457845
455.219017,2664.741391,-10066.800811,1378.971896
455.219345,1258.350101,-9696.697840,995.924147
455.219672,592.164754,-8956.491898,459.657299
455.220000,2294.638420,-8660.409521,995.924147
455.220327,2960.823768,-7994.224174,1378.971896
455.220655,3627.009116,-8660.409521,1915.238745
455.220983,2664.741391,-9844.739029,2681.334243
455.221310,-666.185348,-10955.047942,1991.848295
455.221638,-2960.823768,-11029.068536,1225.752797
455.221965,-3552.988522,-10140.821405,0.000000
455.222293,-1998.556043,-9844.739029,689.485948
455.222620,-740.205942,-8586.388927,689.485948
455.222947,-370.102971,-8734.430116,919.314598
455.223275,-1628.453072,-9030.512492,306.438199
455.223602,-3256.906145,-9474.636058,-383.047749
455.223929,-3701.029710,-8882.471304,-1225.752797
455.224257,-2590.720797,-7772.162391,-1532.190996
455.224584,-222.061783,-7328.038826,-306.438199
455.224912,1184.329507,-7550.100608,536.266849
455.225239,1036.288319,-9252.574275,1302.362347
455.225566,-962.267725,-10214.842000,1915.238745
455.225894,-2442.679609,-11029.068536,612.876398
455.226221,-3552.988522,-11325.150913,0.000000
455.226548,-2294.638420,-10658.965565,76.609550
455.226876,296.082377,-9918.759623,995.924147
455.227203,2294.638420,-9918.759623,1532.190996
455.227530,2146.597232,-9918.759623,2221.676944
455.227858,962.267725,-10066.800811,1225.752797
455.228185,296.082377,-9696.697840,612.876398
455.228512,1110.308913,-8808.450710,76.609550
455.228840,2738.761985,-7846.182985,306.438199
455.229167,4441.235652,-8068.244768,1225.752797
455.229495,3034.844362,-9474.636058,2221.676944
455.229822,888.247130,-10658.965565,2068.457845
455.230149,-1850.514855,-11103.089130,919.314598
455.230477,-3701.029710,-10807.006753,153.219100
455.230804,-2812.782580,-9622.677246,0.000000
455.231131,-1258.350101,-8882.471304,153.219100
455.231459,0.000000,-8438.347739,536.266849
455.231786,0.000000,-8216.285956,536.266849
455.232113,-1924.535449,-8290.306550,0.000000
455.232441,-3627.009116,-7772.162391,-1762.019645
455.232768,-3701.029710,-7031.956449,-1838.629195
455.233096,-1628.453072,-6513.812290,-1762.019645
455.233423,888.247130,-5995.668130,-842.705048
455.233750,1776.494261,-6735.874072,153.219100
455.234078,592.164754,-8290.306550,689.485948
455.234405,-1628.453072,-8882.471304,383.047749
455.234732,-3256.906145,-9844.739029,-689.485948
455.235060,-2960.823768,-9400.615463,-1072.533697
455.235387,-296.082377,-8364.327145,-229.828649
455.235714,2368.659014,-8216.285956,689.485948
455.236042,4071.132681,-8364.327145,2451.505594
455.236369,3108.864956,-8660.409521,1685.410096
455.236696,2294.638420,-8808.450710,1685.410096
455.237024,1702.473667,-8216.285956,1072.533697
455.237351,2220.617826,-7476.080014,1072.533697
455.237679,3552.988522,-7550.100608,2221.676944
455.238006,4737.318029,-8216.285956,3064.381992
455.238333,3034.844362,-9474.636058,2681.334243
455.238661,0.000000,-10288.862594,2681.334243
455.238988,-1702.473667,-10510.924376,1685.410096
455.239315,-2960.823768,-9474.636058,1225.752797
455.239643,-2368.659014,-9030.512492,1072.533697
455.239970,-1332.370696,-8956.491898,1149.143247
455.240297,-1258.350101,-8734.430116,1225.752797
455.240625,-3182.885551,-9474.636058,612.876398
455.240952,-4737.318029,-9252.574275,-383.047749
455.241280,-6217.729913,-8734.430116,-1378.971896
455.241607,-4663.297435,-7550.100608,-1762.019645
455.241934,-1924.535449,-7031.956449,-536.266849
455.242262,-296.082377,-6883.915261,76.609550
455.242589,0.000000,-8216.285956,842.705048
455.242916,-1702.473667,-9030.512492,306.438199
455.243244,-3997.112087,-10658.965565,-306.438199
455.243571,-4737.318029,-10436.903782,-1149.143247
455.243898,-2960.823768,-10066.800811,-995.924147
455.244226,222.061783,-9474.636058,0.000000
455.244553,3182.885551,-8882.471304,1762.019645
455.244880,3404.947333,-9844.739029,1685.410096
455.245208,2738.761985,-10584.944971,1532.190996
455.245535,1036.288319,-10140.821405,689.485948
455.245863,888.247130,-10066.800811,153.219100
455.246190,3627.009116,-9770.718434,612.876398
455.246517,4959.379811,-9030.512492,1378.971896
455.246845,4885.359217,-9844.739029,2145.067394
455.247172,3182.885551,-10881.027347,2451.505594
455.247499,888.247130,-12361.439231,2451.505594
455.247827,-1924.535449,-10436.903782,229.828649
455.248154,-2294.638420,-10214.842000,1225.752797
455.248481,74.020594,-9474.636058,229.828649
455.248809,-518.144159,-9252.574275,229.828649
455.249136,-296.082377,-9474.636058,536.266849
455.249464,-1702.473667,-8882.471304,0.000000
455.249791,-3627.009116,-9104.533087,-1072.533697
455.250118,-3849.070898,-9400.615463,-1991.848295
455.250446,-2072.576638,-7698.141797,-842.705048
455.250773,-666.185348,-7105.977043,-689.485948
455.251100,222.061783,-7328.038826,0.000000
455.251428,-888.247130,-9400.615463,229.828649
455.251755,-3552.988522,-10066.800811,0.000000
455.252082,-4441.235652,-10214.842000,-919.314598
455.252410,-3478.967927,-9252.574275,-1532.190996
455.252737,-962.267725,-8956.491898,-612.876398
455.253064,1554.432478,-8512.368333,842.705048
455.253392,2590.720797,-8438.347739,1991.848295
455.253719,2368.659014,-9178.553681,1608.800546
455.254047,814.226536,-9326.594869,842.705048
455.254374,740.205942,-9400.615463,612.876398
455.254701,1628.453072,-8956.491898,536.266849
455.255029,3775.050304,-7772.162391,1838.629195
455.255356,4663.297435,-8734.430116,2987.772442
455.255683,3775.050304,-9474.636058,3370.820191
455.256011,1628.453072,-10658.965565,3217.601092
455.256338,-1184.329507,-10436.903782,1455.581446
455.256665,-1406.391290,-9844.739029,2145.067394
455.256993,0.000000,-8512.368333,995.924147
455.257320,-592.164754,-8142.265362,1608.800546
455.257648,518.144159,-8364.327145,1532.190996
455.257975,-1406.391290,-8216.285956,1685.410096
455.258302,-3849.070898,-8882.471304,766.095498
455.258630,-4367.215058,-8216.285956,-612.876398
455.258957,-4071.132681,-8290.306550,-459.657299
455.259284,-3034.844362,-7179.997637,-459.657299
455.259612,-1184.329507,-7254.018232,0.000000
455.259939,-1628.453072,-8142.265362,383.047749
455.260266,-2590.720797,-8956.491898,153.219100
455.260594,-4737.318029,-9992.780217,-1149.143247
455.260921,-5181.441594,-9400.615463,-1762.019645
455.261249,-2960.823768,-8438.347739,-1455.581446
455.261576,0.000000,-7698.141797,-459.657299
455.261903,2664.741391,-7328.038826,536.266849
455.262231,2960.823768,-8438.347739,1302.362347
455.262558,1850.514855,-9326.594869,919.314598
455.262885,740.205942,-9474.636058,229.828649
455.263213,1332.370696,-9474.636058,459.657299
455.263540,2960.823768,-9030.512492,842.705048
455.263867,4885.359217,-8956.491898,2221.676944
455.264195,5403.503377,-9696.697840,2911.162892
455.264522,4071.132681,-11029.068536,2987.772442
455.264849,1702.473667,-11621.233289,2068.457845
455.265177,-518.144159,-11029.068536,1378.971896
455.265504,592.164754,-10436.903782,1302.362347
455.265832,1628.453072,-9474.636058,0.000000
455.266159,148.041188,-9030.512492,1608.800546
455.266486,1332.370696,-9030.512492,995.924147
455.266814,-1554.432478,-9622.677246,1302.362347
455.267141,-3552.988522,-9474.636058,-153.219100
455.267468,-3849.070898,-8512.368333,-1149.143247
455.267796,-3552.988522,-8290.306550,-766.095498
455.268123,-2146.597232,-7476.080014,-459.657299
455.268450,-962.267725,-7920.203579,153.219100
455.268778,-2886.803174,-8290.306550,153.219100
455.269105,-4367.215058,-9474.636058,-842.705048
455.269433,-6069.688724,-10066.800811,-1378.971896
455.269760,-5329.482782,-9104.533087,-2374.896044
455.270087,-2960.823768,-7846.182985,-1455.581446
455.270415,148.041188,-7254.018232,-229.828649
455.270742,2368.659014,-7846.182985,383.047749
455.271069,1850.514855,-8660.409521,612.876398
455.271397,814.226536,-8956.491898,306.438199
455.271724,592.164754,-9178.553681,153.219100
455.272051,1850.514855,-8956.491898,383.047749
455.272379,3701.029710,-9030.512492,1225.752797
455.272706,5033.400406,-9474.636058,2681.334243
455.273033,4885.359217,-10732.986159,3370.820191
455.273361,3256.906145,-11547.212695,3370.820191
455.273688,1480.411884,-11917.315666,2528.115143
455.274016,444.123565,-10436.903782,2068.457845
455.274343,888.247130,-9474.636058,842.705048
455.274670,962.267725,-9326.594869,1915.238745
455.274998,2664.741391,-8512.368333,1685.410096
455.275325,666.185348,-9622.677246,1762.019645
455.275652,-2294.638420,-8586.388927,1302.362347
455.275980,-3330.926739,-8882.471304,-306.438199
455.276307,-3330.926739,-7328.038826,-842.705048
455.276634,-2664.741391,-7179.997637,-612.876398
455.276962,-1184.329507,-7105.977043,306.438199
455.277289,-1998.556043,-7772.162391,1225.752797
455.277617,-3701.029710,-9030.512492,-229.828649
455.277944,-6587.832884,-9918.759623,-995.924147
455.278271,-7328.038826,-9770.718434,-2298.286494
455.278599,-5329.482782,-8808.450710,-2068.457845
455.278926,-2072.576638,-7624.121203,-1072.533697
455.279253,592.164754,-7105.977043,0.000000
455.279581,1850.514855,-7994.224174,842.705048
455.279908,1036.288319,-9104.533087,689.485948
455.280235,148.041188,-9548.656652,76.609550
455.280563,444.123565,-9474.636058,-153.219100
455.280890,2738.761985,-9104.533087,306.438199
455.281217,4589.276840,-8956.491898,2145.067394
455.281545,5625.565159,-10140.821405,2987.772442
455.281872,4885.359217,-11547.212695,3983.696590
455.282200,2886.803174,-11769.274478,3524.039291
455.282527,1110.308913,-11473.192101,3064.381992
455.282854,1110.308913,-10955.047942,1991.848295
455.283182,296.082377,-10140.821405,689.485948
455.283509,1628.453072,-10066.800811,2068.457845
455.283836,2146.597232,-9252.574275,1762.019645
455.284164,-1258.350101,-9918.759623,536.266849
455.284491,-2442.679609,-8956.491898,459.657299
455.284818,-3256.906145,-8438.347739,-612.876398
455.285146,-3330.926739,-7550.100608,-459.657299
455.285473,-1702.473667,-6661.853478,-383.047749
455.285801,-962.267725,-7328.038826,689.485948
455.286128,-3182.885551,-8216.285956,842.705048
455.286455,-4515.256246,-9252.574275,-306.438199
455.286783,-6587.832884,-9844.739029,-1302.362347
455.287110,-5995.668130,-8956.491898,-1991.848295
455.287437,-3404.947333,-8068.244768,-1455.581446
455.287765,-888.247130,-6883.915261,0.000000
455.288092,592.164754,-7328.038826,306.438199
455.288419,148.041188,-8364.327145,383.047749
455.288747,-814.226536,-8882.471304,-306.438199
455.289074,-1184.329507,-9030.512492,-766.095498
455.289401,148.041188,-8364.327145,-229.828649
455.289729,3478.967927,-8438.347739,0.000000
455.290056,5551.544565,-8882.471304,1762.019645
455.290384,5403.503377,-9844.739029,2987.772442
455.290711,3775.050304,-10955.047942,2757.943793
455.291038,1406.391290,-10881.027347,1991.848295
455.291366,740.205942,-10436.903782,1149.143247
455.291693,1184.329507,-9696.697840,612.876398
455.292020,2738.761985,-8586.388927,1072.533697
455.292348,3849.070898,-8438.347739,2221.676944
455.292675,1850.514855,-8956.491898,1378.971896
455.293002,-370.102971,-9178.553681,2068.457845
455.293330,-1554.432478,-7328.038826,0.000000
455.293657,-2442.679609,-8142.265362,-229.828649
455.293985,-1184.329507,-7031.956449,-383.047749
455.294312,0.000000,-7254.018232,153.219100
455.294639,-1258.350101,-8438.347739,612.876398
455.294967,-2886.803174,-9400.615463,153.219100
455.295294,-5107.421000,-10140.821405,-383.047749
455.295621,-6365.771101,-9918.759623,-1915.238745
455.295949,-5033.400406,-8808.450710,-1838.629195
455.296276,-2294.638420,-7846.182985,-1455.581446
455.296603,-370.102971,-7328.038826,-459.657299
455.296931,444.123565,-7624.121203,76.609550
455.297258,-666.185348,-8808.450710,-229.828649
455.297585,-1480.411884,-9252.574275,-919.314598
455.297913,-1554.432478,-8956.491898,-995.924147
455.298240,962.267725,-8734.430116,-459.657299
455.298568,3034.844362,-9178.553681,1072.533697
455.298895,4219.173869,-9844.739029,2374.896044
455.299222,3701.029710,-11177.109724,2834.553343
455.299550,2072.576638,-11991.336260,3294.210641
455.299877,888.247130,-11695.253884,2068.457845
455.300204,296.082377,-11103.089130,1532.190996
455.300532,1480.411884,-10066.800811,1455.581446
455.300859,3034.844362,-9474.636058,2298.286494
455.301186,2220.617826,-9622.677246,1685.410096
455.301514,888.247130,-9844.739029,2681.334243
455.301841,148.041188,-9252.574275,1455.581446
455.302169,-2590.720797,-9326.594869,383.047749
455.302496,-1406.391290,-8142.265362,76.609550
455.302823,-962.267725,-7846.182985,919.314598
455.303151,-1110.308913,-8586.388927,1072.533697
455.303478,-1850.514855,-9474.636058,1149.143247
455.303805,-4441.235652,-10362.883188,919.314598
455.304133,-6365.771101,-10066.800811,-306.438199
455.304460,-5921.647536,-9622.677246,-1072.533697
455.304787,-4071.132681,-8290.306550,-689.485948
455.305115,-1480.411884,-7179.997637,-995.924147
455.305442,296.082377,-7179.997637,306.438199
455.305769,-296.082377,-7624.121203,0.000000
455.306097,-1036.288319,-8364.327145,0.000000
455.306424,-1480.411884,-8290.306550,-689.485948
455.306752,-296.082377,-7550.100608,-383.047749
455.307079,1850.514855,-7920.203579,536.266849
455.307406,3997.112087,-8438.347739,2298.286494
455.307734,3997.112087,-9326.594869,3294.210641
455.308061,3108.864956,-10658.965565,3294.210641
455.308388,1776.494261,-10881.027347,2604.724693
455.308716,148.041188,-10807.006753,1838.629195
455.309043,370.102971,-10436.903782,1225.752797
455.309370,1480.411884,-9474.636058,1302.362347
455.309698,2590.720797,-9178.553681,1838.629195
455.310025,1628.453072,-8808.450710,1225.752797
455.310353,518.144159,-9474.636058,1991.848295
455.310680,-592.164754,-8512.368333,0.000000
455.311007,-3108.864956,-8068.244768,-689.485948
455.311335,-962.267725,-7328.038826,-919.314598
455.311662,-1110.308913,-7031.956449,-306.438199
455.311989,-1184.329507,-8290.306550,306.438199
455.312317,-2516.700203,-9252.574275,0.000000
455.312644,-5255.462188,-9918.759623,-612.876398
455.312971,-6661.853478,-9474.636058,-1991.848295
455.313299,-5033.400406,-8364.327145,-2374.896044
455.313626,-2294.638420,-7920.203579,-1762.019645
455.313953,222.061783,-6883.915261,-1149.143247
455.314281,1628.453072,-7624.121203,-229.828649
455.314608,444.123565,-8290.306550,-459.657299
455.314936,-888.247130,-8808.450710,-995.924147
455.315263,-740.205942,-8734.430116,-1838.629195
455.315590,1554.432478,-8660.409521,-536.266849
455.315918,3775.050304,-8882.471304,689.485948
455.316245,5033.400406,-9400.615463,2145.067394
455.316572,5033.400406,-11177.109724,2987.772442
455.316900,2960.823768,-11843.295072,1762.019645
455.317227,666.185348,-11843.295072,1915.238745
455.317554,222.061783,-11843.295072,995.924147
455.317882,962.267725,-11103.089130,689.485948
455.318209,2368.659014,-10436.903782,1608.800546
455.318537,2368.659014,-9992.780217,1991.848295
455.318864,1406.391290,-9696.697840,2834.553343
455.319191,370.102971,-9474.636058,1149.143247
455.319519,-2146.597232,-9400.615463,459.657299
455.319846,-1184.329507,-8438.347739,-383.047749
455.320173,-962.267725,-7846.182985,459.657299
455.320501,-814.226536,-8216.285956,842.705048
455.320828,-2072.576638,-9252.574275,995.924147
455.321156,-4293.194464,-10288.862594,689.485948
455.321483,-6143.709319,-10362.883188,-383.047749
455.321811,-6291.750507,-9622.677246,-1072.533697
455.322138,-4663.297435,-8882.471304,-919.314598
455.322466,-1924.535449,-7994.224174,-1072.533697
455.322793,0.000000,-7624.121203,153.219100
455.323121,0.000000,-8068.244768,0.000000
455.323448,-740.205942,-8882.471304,-229.828649
455.323776,-1258.350101,-8882.471304,-689.485948
455.324103,-1184.329507,-8438.347739,-842.705048
455.324430,1480.411884,-8660.409521,153.219100
455.324758,3701.029710,-8734.430116,1991.848295
455.325085,4663.297435,-9622.677246,3140.991542
455.325413,3627.009116,-10066.800811,2987.772442
455.325740,1480.411884,-11103.089130,1991.848295
455.326068,0.000000,-10955.047942,1762.019645
455.326395,74.020594,-10362.883188,1149.143247
455.326723,1480.411884,-9474.636058,1532.190996
455.327050,2664.741391,-8808.450710,2298.286494
455.327378,1998.556043,-8660.409521,2145.067394
455.327705,1110.308913,-9030.512492,2528.115143
455.328033,148.041188,-7846.182985,1072.533697
455.328360,-2146.597232,-7624.121203,536.266849
455.328688,-222.061783,-7105.977043,153.219100
455.329015,0.000000,-7179.997637,1302.362347
455.329342,-666.185348,-7402.059420,1685.410096
455.329670,-2664.741391,-8882.471304,1072.533697
455.329997,-4959.379811,-10066.800811,459.657299
455.330325,-7031.956449,-9474.636058,-612.876398
455.330652,-5773.606348,-8586.388927,-1455.581446
455.330980,-3997.112087,-7179.997637,-536.266849
455.331307,-1258.350101,-6587.832884,-995.924147
455.331635,-444.123565,-6957.935855,0.000000
455.331962,-1184.329507,-7254.018232,-612.876398
455.332290,-2294.638420,-7920.203579,-1378.971896
455.332617,-2590.720797,-7624.121203,-2451.505594
455.332945,-888.247130,-7402.059420,-1762.019645
455.333272,2146.597232,-7476.080014,-306.438199
455.333600,4515.256246,-8068.244768,1072.533697
455.333927,4515.256246,-9252.574275,2145.067394
455.334255,2960.823768,-10584.944971,1838.629195
455.334582,814.226536,-11325.150913,1225.752797
455.334909,0.000000,-11251.130318,383.047749
455.335237,740.205942,-10732.986159,76.609550
455.335564,2738.761985,-10214.842000,842.705048
455.335892,4071.132681,-10362.883188,1378.971896
455.336219,3478.967927,-9992.780217,1532.190996
455.336547,2368.659014,-10066.800811,1455.581446
455.336874,0.000000,-9548.656652,0.000000
455.337202,296.082377,-9178.553681,0.000000
455.337529,1554.432478,-7698.141797,0.000000
455.337857,962.267725,-9104.533087,1149.143247
455.338184,370.102971,-9992.780217,919.314598
455.338512,-1924.535449,-10732.986159,612.876398
455.338839,-4885.359217,-11103.089130,0.000000
455.339167,-5255.462188,-10362.883188,-1149.143247
455.339494,-4737.318029,-9548.656652,-766.095498
455.339822,-2516.700203,-8512.368333,-766.095498
455.340149,-1332.370696,-7994.224174,-153.219100
455.340476,-1554.432478,-8290.306550,-153.219100
455.340804,-2664.741391,-9104.533087,-995.924147
455.341131,-3108.864956,-9030.512492,-1685.410096
455.341459,-2590.720797,-7698.141797,-1378.971896
455.341786,296.082377,-7402.059420,-229.828649
455.342114,3330.926739,-7698.141797,1378.971896
455.342441,4145.153275,-8660.409521,2757.943793
455.342769,2590.720797,-10288.862594,3064.381992
455.343096,592.164754,-11251.130318,2068.457845
455.343424,-1184.329507,-11695.253884,1378.971896
455.343751,-666.185348,-11177.109724,1149.143247
455.344079,1110.308913,-10436.903782,1838.629195
455.344406,3182.885551,-9918.759623,3140.991542
455.344734,3478.967927,-10066.800811,4060.306139
455.345061,2220.617826,-9844.739029,3370.820191
455.345389,0.000000,-9252.574275,1149.143247
455.345716,-666.185348,-8512.368333,1378.971896
455.346043,1036.288319,-7328.038826,766.095498
455.346371,444.123565,-7624.121203,1838.629195
455.346698,518.144159,-7402.059420,2145.067394
455.347026,-1184.329507,-9104.533087,1762.019645
455.347353,-3775.050304,-9474.636058,1149.143247
455.347681,-5921.647536,-9474.636058,-383.047749
455.348008,-4959.379811,-8808.450710,-383.047749
455.348336,-4515.256246,-7772.162391,-842.705048
455.348663,-2146.597232,-7328.038826,0.000000
455.348991,-1628.453072,-7328.038826,0.000000
455.349318,-2146.597232,-7994.224174,-229.828649
455.349646,-2516.700203,-8438.347739,-1302.362347
455.349973,-2738.761985,-8142.265362,-919.314598
455.350301,-1406.391290,-7550.100608,-1302.362347
455.350628,1258.350101,-7254.018232,0.000000
455.350956,2664.741391,-7920.203579,1072.533697
455.351283,2812.782580,-9474.636058,2374.896044
455.351610,1480.411884,-10658.965565,1762.019645
455.351938,-444.123565,-11473.192101,459.657299
455.352265,-1036.288319,-11473.192101,0.000000
455.352593,296.082377,-10584.944971,153.219100
455.352920,2516.700203,-9844.739029,1072.533697
455.353248,3775.050304,-8882.471304,1991.848295
455.353575,4071.132681,-9770.718434,2451.505594
455.353903,2442.679609,-9770.718434,1915.238745
455.354230,0.000000,-9622.677246,306.438199
455.354558,0.000000,-9252.574275,306.438199
455.354885,1554.432478,-7920.203579,306.438199
455.355213,1110.308913,-8956.491898,612.876398
455.355540,1480.411884,-9548.656652,842.705048
455.355868,-1332.370696,-10288.862594,1149.143247
455.356195,-3997.112087,-10510.924376,0.000000
455.356523,-4737.318029,-9474.636058,-919.314598
455.356850,-3701.029710,-8660.409521,-995.924147
455.357177,-2368.659014,-7772.162391,-1378.971896
455.357505,-148.041188,-7698.141797,-383.047749
455.357832,-962.267725,-8216.285956,-153.219100
455.358160,-1628.453072,-8364.327145,0.000000
455.358487,-2738.761985,-8586.388927,-842.705048
455.358815,-2738.761985,-8290.306550,-1608.800546
455.359142,-148.041188,-7920.203579,-689.485948
455.359470,2146.597232,-7772.162391,306.438199
455.359797,2812.782580,-8586.388927,1685.410096
455.360125,1998.556043,-9918.759623,1608.800546
455.360452,74.020594,-10584.944971,1302.362347
455.360780,-1554.432478,-10807.006753,306.438199
455.361107,-814.226536,-10510.924376,0.000000
455.361435,888.247130,-9622.677246,383.047749
455.361762,2664.741391,-9252.574275,1991.848295
455.362090,3627.009116,-9622.677246,2374.896044
455.362417,2368.659014,-9844.739029,1991.848295
455.362744,888.247130,-9770.718434,1149.143247
455.363072,74.020594,-9178.553681,536.266849
455.363399,666.185348,-8882.471304,1302.362347
455.363727,2072.576638,-8142.265362,612.876398
455.364054,814.226536,-8586.388927,2068.457845
455.364382,888.247130,-8808.450710,1762.019645
455.364709,-1702.473667,-10510.924376,1991.848295
455.365037,-3404.947333,-10214.842000,766.095498
455.365364,-3701.029710,-9104.533087,0.000000
455.365692,-3034.844362,-9104.533087,536.266849
455.366019,-1258.350101,-8216.285956,536.266849
455.366347,-962.267725,-8660.409521,766.095498
455.366674,-2072.576638,-8808.450710,383.047749
455.367002,-2294.638420,-8512.368333,0.000000
455.367329,-2960.823768,-8438.347739,-689.485948
455.367656,-1998.556043,-7624.121203,-766.095498
455.367984,592.164754,-7328.038826,306.438199
455.368311,2072.576638,-7550.100608,1225.752797
455.368639,1924.535449,-8808.450710,2068.457845
455.368966,148.041188,-9696.697840,1838.629195
455.369294,-2220.617826,-10436.903782,842.705048
455.369621,-2886.803174,-10807.006753,76.609550
455.369949,-1850.514855,-10288.862594,229.828649
455.370276,296.082377,-9104.533087,766.095498
455.370604,2368.659014,-9326.594869,2221.676944
455.370931,2220.617826,-9474.636058,2068.457845
455.371259,1406.391290,-9770.718434,1685.410096
455.371586,0.000000,-9326.594869,536.266849
455.371914,-148.041188,-8512.368333,0.000000
455.372241,814.226536,-7846.182985,-459.657299
455.372569,2220.617826,-8068.244768,1149.143247
455.372896,2516.700203,-8512.368333,1991.848295
455.373223,0.000000,-9844.739029,1762.019645
455.373551,-1554.432478,-10288.862594,766.095498
455.373878,-2812.782580,-9622.677246,-306.438199
455.374206,-2960.823768,-9252.574275,-689.485948
455.374533,-1036.288319,-8512.368333,76.609550
455.374861,222.061783,-8438.347739,689.485948
455.375188,0.000000,-9104.533087,995.924147
455.375516,-1628.453072,-9474.636058,383.047749
455.375843,-3034.844362,-9252.574275,-689.485948
455.376171,-2738.761985,-8438.347739,-1378.971896
455.376498,-740.205942,-7254.018232,-766.095498
455.376826,1776.494261,-6883.915261,0.000000
455.377153,3552.988522,-7476.080014,1378.971896
455.377481,2146.597232,-8660.409521,1915.238745
455.377808,-296.082377,-9548.656652,1072.533697
455.378136,-2368.659014,-10732.986159,76.609550
455.378463,-2738.761985,-10214.842000,0.000000
455.378790,-1332.370696,-9770.718434,0.000000
455.379118,666.185348,-9030.512492,1532.190996
455.379445,2072.576638,-9030.512492,1762.019645
455.379773,1332.370696,-9622.677246,1838.629195
455.380100,0.000000,-9474.636058,689.485948
455.380428,-814.226536,-9252.574275,0.000000
455.380755,0.000000,-8216.285956,0.000000
455.381083,1628.453072,-7846.182985,0.000000
455.381410,2516.700203,-7846.182985,1072.533697
455.381738,1702.473667,-8808.450710,1072.533697
455.382065,0.000000,-9770.718434,1072.533697
455.382393,-1480.411884,-9474.636058,0.000000
455.382720,-2294.638420,-9178.553681,0.000000
455.383048,-1628.453072,-9030.512492,-383.047749
455.383375,0.000000,-8586.388927,0.000000
455.383703,148.041188,-9252.574275,459.657299
455.384030,-666.185348,-9622.677246,153.219100
455.384357,-2442.679609,-9770.718434,-459.657299
455.384685,-3108.864956,-9770.718434,-1302.362347
455.385012,-1480.411884,-8660.409521,-1532.190996
455.385340,444.123565,-7550.100608,-766.095498
455.385667,2886.803174,-7698.141797,153.219100
455.385995,2590.720797,-8660.409521,1532.190996
455.386322,592.164754,-10066.800811,459.657299
455.386650,-1924.535449,-10881.027347,0.000000
455.386977,-2738.761985,-10955.047942,-689.485948
455.387305,-1998.556043,-10362.883188,-536.266849
455.387632,296.082377,-9622.677246,536.266849
455.387960,2590.720797,-9548.656652,1455.581446
455.388287,2368.659014,-10214.842000,2298.286494
455.388615,1258.350101,-10510.924376,2068.457845
455.388942,-370.102971,-10288.862594,919.314598
455.389270,-296.082377,-9770.718434,766.095498
455.389597,1110.308913,-9252.574275,383.047749
455.389924,1924.535449,-8956.491898,1532.190996
455.390252,1998.556043,-9400.615463,1991.848295
455.390579,592.164754,-10362.883188,2604.724693
455.390907,-1184.329507,-10510.924376,1838.629195
455.391234,-2220.617826,-10362.883188,1378.971896
455.391562,-2368.659014,-9474.636058,766.095498
455.391889,-1036.288319,-8808.450710,919.314598
455.392217,-296.082377,-8438.347739,1378.971896
455.392544,-444.123565,-8586.388927,1915.238745
455.392872,-1776.494261,-8882.471304,1532.190996
455.393199,-2738.761985,-8808.450710,383.047749
455.393527,-2664.741391,-7994.224174,459.657299
455.393854,-1332.370696,-7402.059420,383.047749
455.394182,296.082377,-6957.935855,1455.581446
455.394509,1110.308913,-7772.162391,2298.286494
455.394837,-444.123565,-8586.388927,2068.457845
455.395164,-2886.803174,-9844.739029,612.876398
455.395491,-4293.194464,-10140.821405,0.000000
455.395819,-3923.091493,-9844.739029,-612.876398
455.396146,-1776.494261,-8734.430116,-383.047749
455.396474,1184.329507,-7698.141797,1149.143247
455.396801,2294.638420,-8068.244768,1762.019645
455.397129,1480.411884,-8290.306550,1378.971896
455.397456,0.000000,-8734.430116,153.219100
455.397784,-1036.288319,-8808.450710,306.438199
455.398111,-370.102971,-8068.244768,-1072.533697
455.398439,962.267725,-7772.162391,-153.219100
455.398766,2664.741391,-8438.347739,995.924147
455.399094,2294.638420,-9178.553681,1378.971896
455.399421,444.123565,-9474.636058,995.924147
455.399749,-740.205942,-9474.636058,612.876398
455.400076,-962.267725,-9030.512492,-766.095498
455.400403,-740.205942,-8364.327145,-995.924147
455.400731,1628.453072,-7624.121203,-306.438199
455.401058,2368.659014,-7846.182985,229.828649
455.401386,1554.432478,-8734.430116,612.876398
455.401713,518.144159,-9326.594869,-306.438199
455.402041,-888.247130,-9030.512492,-766.095498
455.402368,-518.144159,-8364.327145,-766.095498
455.402696,740.205942,-7920.203579,0.000000
455.403023,2146.597232,-7994.224174,842.705048
455.403351,1554.432478,-9178.553681,842.705048
455.403678,-666.185348,-10362.883188,766.095498
455.404006,-2738.761985,-10955.047942,0.000000
455.404333,-4145.153275,-10658.965565,-612.876398
455.404661,-2960.823768,-9992.780217,-919.314598
455.404988,-296.082377,-8808.450710,0.000000
455.405316,1110.308913,-8734.430116,766.095498
455.405643,962.267725,-9030.512492,842.705048
455.405970,-370.102971,-9326.594869,536.266849
455.406298,-1554.432478,-9474.636058,0.000000
455.406625,-1480.411884,-9252.574275,-153.219100
455.406953,-814.226536,-8734.430116,-229.828649
455.407280,1406.391290,-8660.409521,842.705048
455.407608,1628.453072,-9178.553681,1838.629195
455.407935,666.185348,-10362.883188,2221.676944
455.408263,-888.247130,-10732.986159,1685.410096
455.408590,-2146.597232,-10066.800811,459.657299
455.408918,-1924.535449,-9474.636058,153.219100
455.409245,-370.102971,-8808.450710,766.095498
455.409573,1628.453072,-8512.368333,1532.190996
455.409900,1332.370696,-9030.512492,1915.238745
455.410228,296.082377,-9622.677246,1455.581446
455.410555,-814.226536,-9474.636058,766.095498
455.410883,-1332.370696,-9104.533087,536.266849
455.411210,-518.144159,-8586.388927,766.095498
455.411537,1332.370696,-7920.203579,1532.190996
455.411865,1998.556043,-8808.450710,2451.505594
455.412192,444.123565,-9400.615463,2374.896044
455.412520,-1702.473667,-10288.862594,1838.629195
455.412847,-3478.967927,-10288.862594,766.095498
455.413175,-3256.906145,-9696.697840,306.438199
455.413502,-2368.659014,-8660.409521,842.705048
455.413830,-592.164754,-7772.162391,1225.752797
455.414157,296.082377,-7920.203579,1455.581446
455.414485,-296.082377,-8512.368333,995.924147
455.414812,-1850.514855,-8512.368333,153.219100
455.415140,-2590.720797,-7994.224174,-306.438199
455.415467,-1850.514855,-7476.080014,-842.705048
455.415795,0.000000,-7550.100608,0.000000
455.416122,1406.391290,-7772.162391,842.705048
455.416450,1332.370696,-8660.409521,1455.581446
455.416777,74.020594,-9770.718434,1149.143247
455.417104,-2220.617826,-10140.821405,383.047749
455.417432,-2368.659014,-9844.739029,-1149.143247
455.417759,-1036.288319,-8734.430116,-842.705048
455.418087,1554.432478,-8364.327145,0.000000
455.418414,3256.906145,-8364.327145,1149.143247
455.418742,3256.906145,-8882.471304,1685.410096
455.419069,1480.411884,-9474.636058,842.705048
455.419397,296.082377,-9178.553681,76.609550
455.419724,444.123565,-8808.450710,0.000000
455.420052,2294.638420,-8512.368333,383.047749
455.420379,3330.926739,-8808.450710,1532.190996
455.420707,2368.659014,-9622.677246,1838.629195
455.421034,296.082377,-10955.047942,1838.629195
455.421362,-2368.659014,-11621.233289,612.876398
455.421689,-3849.070898,-11473.192101,0.000000
455.422017,-3552.988522,-10140.821405,-919.314598
455.422344,-1554.432478,-8882.471304,-306.438199
455.422671,0.000000,-8142.265362,153.219100
455.422999,0.000000,-8216.285956,383.047749
455.423326,-1480.411884,-8438.347739,0.000000
455.423654,-3108.864956,-8290.306550,-919.314598
455.423981,-3552.988522,-8216.285956,-1455.581446
455.424309,-2442.679609,-7994.224174,-1608.800546
455.424636,-370.102971,-7698.141797,-383.047749
455.424964,148.041188,-8438.347739,459.657299
455.425291,-222.061783,-9474.636058,995.924147
455.425619,-1702.473667,-10214.842000,1149.143247
455.425946,-2738.761985,-9918.759623,-383.047749
455.426274,-2368.659014,-9474.636058,-766.095498
455.426601,148.041188,-9178.553681,-153.219100
455.426928,2072.576638,-8660.409521,306.438199
455.427256,3108.864956,-8956.491898,1532.190996
455.427583,2886.803174,-9474.636058,1302.362347
455.427911,1776.494261,-9770.718434,1072.533697
455.428238,1480.411884,-9474.636058,612.876398
455.428566,2368.659014,-8586.388927,995.924147
455.428893,4071.132681,-8586.388927,1762.019645
455.429221,3552.988522,-9326.594869,2528.115143
455.429548,2294.638420,-10436.903782,2834.553343
455.429875,-148.041188,-11399.171507,2298.286494
455.430203,-2442.679609,-11251.130318,1532.190996
455.430530,-3108.864956,-10436.903782,612.876398
455.430858,-1776.494261,-9252.574275,536.266849
455.431185,-222.061783,-8438.347739,1302.362347
455.431513,518.144159,-8142.265362,1838.629195
455.431840,-962.267725,-8364.327145,1378.971896
455.432168,-2738.761985,-8216.285956,0.000000
455.432495,-3404.947333,-8216.285956,-536.266849
455.432822,-3997.112087,-7179.997637,-842.705048
455.433150,-1850.514855,-7328.038826,-459.657299
455.433477,-296.082377,-7254.018232,842.705048
455.433805,296.082377,-8142.265362,1915.238745
455.434132,-814.226536,-9474.636058,1685.410096
455.434460,-2294.638420,-9474.636058,842.705048
455.434787,-3034.844362,-9992.780217,0.000000
455.435115,-1702.473667,-9474.636058,0.000000
455.435442,0.000000,-9104.533087,383.047749
455.435770,1924.535449,-8956.491898,995.924147
455.436097,1924.535449,-9992.780217,1762.019645
455.436424,1184.329507,-10140.821405,1149.143247
455.436752,888.247130,-9992.780217,536.266849
455.437079,1036.288319,-9474.636058,229.828649
455.437407,2368.659014,-9178.553681,995.924147
455.437734,3552.988522,-8808.450710,1685.410096
455.438062,2738.761985,-9622.677246,1838.629195
455.438389,888.247130,-10658.965565,1455.581446
455.438717,-1036.288319,-10732.986159,612.876398
455.439044,-3330.926739,-10658.965565,-459.657299
455.439371,-2368.659014,-9474.636058,-766.095498
455.439699,-740.205942,-8364.327145,76.609550
455.440026,518.144159,-7772.162391,612.876398
455.440354,444.123565,-8216.285956,612.876398
455.440681,-1258.350101,-8734.430116,0.000000
455.441009,-3034.844362,-8438.347739,-1532.190996
455.441336,-3330.926739,-8438.347739,-1532.190996
455.441664,-2146.597232,-7920.203579,-1838.629195
455.441991,-222.061783,-7772.162391,-459.657299
455.442318,962.267725,-7846.182985,612.876398
455.442646,962.267725,-8956.491898,1302.362347
455.442973,-1332.370696,-9918.759623,536.266849
455.443301,-2738.761985,-9918.759623,-766.095498
455.443628,-2886.803174,-9770.718434,-1225.752797
455.443956,-888.247130,-9326.594869,-612.876398
455.444283,1406.391290,-8586.388927,153.219100
455.444611,2590.720797,-8438.347739,1455.581446
455.444938,2220.617826,-8660.409521,1072.533697
455.445266,1110.308913,-9030.512492,766.095498
455.445593,740.205942,-8586.388927,459.657299
455.445920,1850.514855,-8142.265362,766.095498
455.446248,3034.844362,-7402.059420,1838.629195
455.446575,4071.132681,-8660.409521,2681.334243
455.446903,2146.597232,-9770.718434,2911.162892
455.447230,-222.061783,-10584.944971,2298.286494
455.447558,-2664.741391,-10807.006753,1532.190996
455.447885,-2442.679609,-9992.780217,1149.143247
455.448213,-1184.329507,-9326.594869,689.485948
455.448540,-666.185348,-8364.327145,1302.362347
455.448867,148.041188,-8364.327145,1532.190996
455.449195,-740.205942,-8364.327145,842.705048
455.449522,-2886.803174,-8216.285956,153.219100
455.449850,-3923.091493,-8068.244768,-995.924147
455.450177,-3701.029710,-7624.121203,-1532.190996
455.450505,-1924.535449,-7031.956449,-1225.752797
455.450832,0.000000,-7402.059420,459.657299
455.451160,74.020594,-7994.224174,842.705048
455.451487,-962.267725,-9474.636058,1608.800546
455.451814,-2664.741391,-10584.944971,0.000000
455.452142,-3775.050304,-10732.986159,-536.266849
455.452469,-2738.761985,-10140.821405,-919.314598
455.452797,-370.102971,-9622.677246,-153.219100
455.453124,1998.556043,-9104.533087,1072.533697
455.453452,2664.741391,-9474.636058,1532.190996
455.453779,1924.535449,-9844.739029,1072.533697
455.454107,1480.411884,-9770.718434,612.876398
455.454434,1702.473667,-9474.636058,0.000000
455.454761,3182.885551,-8808.450710,1302.362347
455.455089,4589.276840,-8882.471304,1455.581446
455.455416,4441.235652,-9992.780217,2604.724693
455.455744,2368.659014,-11177.109724,2911.162892
455.456071,0.000000,-12065.356855,2451.505594
455.456399,-2368.659014,-11547.212695,459.657299
455.456726,-2516.700203,-10584.944971,536.266849
455.457054,-666.185348,-9030.512492,689.485948
455.457381,-296.082377,-9030.512492,1455.581446
455.457709,-296.082377,-8882.471304,1685.410096
455.458036,-1628.453072,-8956.491898,919.314598
455.458363,-3404.947333,-8512.368333,-153.219100
455.458691,-4293.194464,-8068.244768,-1225.752797
455.459018,-3478.967927,-7624.121203,-995.924147
455.459346,-1554.432478,-7031.956449,-459.657299
455.459673,-444.123565,-7105.977043,536.266849
455.460001,-888.247130,-8290.306550,612.876398
455.460328,-2886.803174,-8216.285956,76.609550
455.460656,-3552.988522,-9104.533087,-1072.533697
455.460983,-3997.112087,-8808.450710,-1532.190996
455.461310,-1924.535449,-8290.306550,-1072.533697
455.461638,740.205942,-8068.244768,0.000000
455.461965,2738.761985,-8068.244768,1685.410096
455.462293,2812.782580,-9030.512492,1532.190996
455.462620,2220.617826,-9844.739029,1225.752797
455.462948,1554.432478,-9696.697840,536.266849
455.463275,1924.535449,-9178.553681,689.485948
455.463603,3849.070898,-8956.491898,1302.362347
455.463930,4145.153275,-9326.594869,2221.676944
455.464257,3701.029710,-10214.842000,2451.505594
455.464585,1480.411884,-10658.965565,2145.067394
455.464912,-962.267725,-10510.924376,153.219100
455.465240,-1850.514855,-10140.821405,383.047749
455.465567,-370.102971,-8660.409521,0.000000
455.465895,370.102971,-8586.388927,306.438199
455.466222,296.082377,-7402.059420,306.438199
455.466550,-222.061783,-8216.285956,306.438199
455.466877,-2220.617826,-8660.409521,0.000000
455.467205,-4441.235652,-8586.388927,-1225.752797
455.467532,-3478.967927,-7846.182985,-1225.752797
455.467859,-2590.720797,-7698.141797,-766.095498
455.468187,-592.164754,-7476.080014,0.000000
455.468514,-370.102971,-8068.244768,995.924147
455.468842,-1628.453072,-9474.636058,536.266849
455.469169,-3256.906145,-9992.780217,0.000000
455.469497,-4071.132681,-10140.821405,-766.095498
455.469824,-2812.782580,-9030.512492,-1225.752797
455.470152,296.082377,-8586.388927,0.000000
455.470479,2072.576638,-7846.182985,689.485948
455.470806,3034.844362,-9178.553681,1608.800546
455.471134,2146.597232,-9844.739029,1455.581446
455.471461,1332.370696,-10140.821405,766.095498
455.471789,1258.350101,-9622.677246,842.705048
455.472116,2738.761985,-9400.615463,1455.581446
455.472444,3997.112087,-9548.656652,2451.505594
455.472771,4071.132681,-10362.883188,3294.210641
455.473099,2442.679609,-11621.233289,3600.648841
455.473426,370.102971,-11843.295072,2911.162892
455.473753,-962.267725,-10881.027347,1838.629195
455.474081,-2812.782580,-10510.924376,1149.143247
455.474408,-888.247130,-9770.718434,919.314598
455.474736,-444.123565,-8290.306550,1608.800546
455.475063,-1332.370696,-8216.285956,1532.190996
455.475391,-2220.617826,-8438.347739,766.095498
455.475718,-3330.926739,-8290.306550,-229.828649
455.476046,-4811.338623,-7994.224174,-1532.190996
455.476373,-3256.906145,-7179.997637,-1378.971896
455.476700,-2294.638420,-6883.915261,-536.266849
455.477028,-740.205942,-7105.977043,383.047749
455.477355,-740.205942,-8512.368333,842.705048
455.477683,-3034.844362,-9178.553681,306.438199
455.478010,-4367.215058,-9844.739029,-995.924147
455.478338,-4367.215058,-9474.636058,-1225.752797
455.478665,-2516.700203,-9104.533087,-842.705048
455.478993,444.123565,-8660.409521,-459.657299
455.479320,2294.638420,-8438.347739,766.095498
455.479648,2738.761985,-9030.512492,995.924147
455.479975,2146.597232,-9104.533087,536.266849
455.480302,1554.432478,-9326.594869,0.000000
455.480630,2294.638420,-9030.512492,-306.438199
455.480957,4367.215058,-8142.265362,995.924147
455.481285,5773.606348,-8956.491898,2068.457845
455.481612,5255.462188,-10140.821405,2834.553343
455.481940,3256.906145,-11177.109724,2834.553343
455.482267,1332.370696,-11251.130318,2451.505594
455.482595,592.164754,-10807.006753,2298.286494
455.482922,-888.247130,-9844.739029,612.876398
455.483249,148.041188,-9548.656652,1608.800546
455.483577,1184.329507,-7920.203579,2068.457845
455.483904,-1036.288319,-9400.615463,1455.581446
455.484232,-2738.761985,-8956.491898,689.485948
455.484559,-4145.153275,-8290.306550,-1149.143247
455.484887,-4737.318029,-7920.203579,-1608.800546
455.485214,-2812.782580,-7031.956449,-1608.800546
455.485542,-1776.494261,-6957.935855,-459.657299
455.485869,-962.267725,-7179.997637,383.047749
455.486196,-1998.556043,-8142.265362,0.000000
455.486524,-3849.070898,-9252.574275,-459.657299
455.486851,-5255.462188,-9548.656652,-2145.067394
455.487179,-4367.215058,-9326.594869,-1838.629195
455.487506,-1998.556043,-8734.430116,-1149.143247
455.487834,592.164754,-8512.368333,0.000000
455.488161,1776.494261,-9252.574275,536.266849
455.488489,1554.432478,-9918.759623,612.876398
455.488816,888.247130,-9696.697840,76.609550
455.489144,1110.308913,-9326.594869,-1072.533697
455.489471,2960.823768,-9252.574275,306.438199
455.489798,5033.400406,-9400.615463,1378.971896
455.490126,5773.606348,-10214.842000,2604.724693
455.490453,4589.276840,-11177.109724,2834.553343
455.490781,2220.617826,-11695.253884,2451.505594
455.491108,444.123565,-11251.130318,2068.457845
455.491436,-296.082377,-10584.944971,0.000000
455.491763,518.144159,-9918.759623,1608.800546
455.492091,2738.761985,-8808.450710,1838.629195
455.492418,1554.432478,-9844.739029,1991.848295
455.492745,-1110.308913,-9326.594869,1608.800546
455.493073,-2738.761985,-9252.574275,306.438199
455.493400,-4367.215058,-8734.430116,-536.266849
455.493728,-4071.132681,-7772.162391,-842.705048
455.494055,-1776.494261,-7105.977043,153.219100
455.494383,-1406.391290,-6957.935855,842.705048
455.494710,-1110.308913,-7254.018232,1225.752797
455.495038,-3849.070898,-8808.450710,766.095498
455.495365,-5403.503377,-9104.533087,-612.876398
455.495692,-5847.626942,-9030.512492,-1225.752797
455.496020,-4441.235652,-8216.285956,-919.314598
455.496347,-1332.370696,-7550.100608,0.000000
455.496675,740.205942,-8068.244768,995.924147
455.497002,1184.329507,-8142.265362,1455.581446
455.497330,666.185348,-8438.347739,1302.362347
455.497657,444.123565,-8586.388927,612.876398
455.497985,666.185348,-8290.306550,919.314598
455.498312,2738.761985,-8512.368333,1149.143247
455.498639,4071.132681,-9030.512492,2298.286494
455.498967,4145.153275,-9992.780217,2987.772442
455.499294,2812.782580,-10955.047942,2987.772442
455.499622,1258.350101,-11029.068536,2298.286494
455.499949,888.247130,-11103.089130,1072.533697
455.500277,1258.350101,-9622.677246,1378.971896
455.500604,2442.679609,-8808.450710,2145.067394
455.500932,1332.370696,-8364.327145,995.924147
455.501259,888.247130,-8882.471304,1225.752797
455.501587,-888.247130,-7846.182985,842.705048
455.501914,-3330.926739,-8882.471304,0.000000
455.502241,-3256.906145,-8142.265362,-1225.752797
455.502569,-2220.617826,-7624.121203,-919.314598
455.502896,-1554.432478,-7846.182985,-306.438199
455.503224,-148.041188,-8068.244768,766.095498
455.503551,-2590.720797,-9326.594869,76.609550
455.503879,-4663.297435,-9844.739029,-1149.143247
455.504206,-5625.565159,-9770.718434,-2528.115143
455.504534,-4737.318029,-9252.574275,-2451.505594
455.504861,-1850.514855,-7846.182985,-2298.286494
455.505188,888.247130,-7550.100608,-383.047749
455.505516,2368.659014,-8216.285956,153.219100
455.505843,2294.638420,-9030.512492,459.657299
455.506171,1184.329507,-9548.656652,-153.219100
455.506498,592.164754,-9178.553681,0.000000
455.506826,1776.494261,-9622.677246,153.219100
455.507153,3552.988522,-10140.821405,1225.752797
455.507481,4515.256246,-10732.986159,2451.505594
455.507808,3849.070898,-11177.109724,3370.820191
455.508135,2220.617826,-11621.233289,2911.162892
455.508463,1184.329507,-11473.192101,2221.676944
455.508790,-74.020594,-10584.944971,1149.143247
455.509118,148.041188,-9548.656652,995.924147
455.509445,1406.391290,-8956.491898,1762.019645
455.509773,1776.494261,-8290.306550,1225.752797
455.510100,-1554.432478,-8882.471304,1455.581446
455.510428,-2072.576638,-8734.430116,383.047749
455.510755,-4219.173869,-8068.244768,0.000000
455.511083,-3701.029710,-7624.121203,0.000000
455.511410,-2368.659014,-7105.977043,76.609550
455.511737,-1480.411884,-7402.059420,1532.190996
455.512065,-2146.597232,-8068.244768,1225.752797
455.512392,-3330.926739,-9030.512492,842.705048
455.512720,-5699.585753,-9252.574275,-612.876398
455.513047,-5329.482782,-8956.491898,-995.924147
455.513375,-3701.029710,-7994.224174,-1149.143247
455.513702,-1110.308913,-7179.997637,-1072.533697
455.514030,1258.350101,-7328.038826,306.438199
455.514357,1258.350101,-7920.203579,612.876398
455.514684,518.144159,-8512.368333,153.219100
455.515012,-518.144159,-9178.553681,0.000000
455.515339,592.164754,-8882.471304,-1302.362347
455.515667,2368.659014,-8882.471304,383.047749
455.515994,4515.256246,-9178.553681,1762.019645
455.516322,4737.318029,-9918.759623,2834.553343
455.516649,3552.988522,-11103.089130,2987.772442
455.516977,1850.514855,-11843.295072,2374.896044
455.517304,0.000000,-11251.130318,1072.533697
455.517631,0.000000,-10658.965565,919.314598
455.517959,444.123565,-9622.677246,76.609550
455.518286,1480.411884,-9326.594869,1838.629195
455.518614,2146.597232,-8734.430116,1532.190996
455.518941,-740.205942,-9104.533087,919.314598
455.519269,-1628.453072,-8882.471304,-383.047749
455.519596,-2886.803174,-8438.347739,-1072.533697
455.519924,-2368.659014,-7920.203579,-842.705048
455.520251,-1036.288319,-7179.997637,-459.657299
455.520578,-370.102971,-7994.224174,306.438199
455.520906,-1924.535449,-9104.533087,153.219100
455.521233,-3034.844362,-10140.821405,-306.438199
455.521561,-5329.482782,-10140.821405,-1225.752797
455.521888,-4589.276840,-9770.718434,-1378.971896
455.522216,-2368.659014,-8808.450710,-1378.971896
455.522543,-518.144159,-8438.347739,-383.047749
455.522871,962.267725,-8808.450710,536.266849
455.523198,666.185348,-9400.615463,383.047749
455.523526,-370.102971,-9696.697840,-383.047749
455.523853,-370.102971,-9474.636058,-842.705048
455.524181,1480.411884,-9400.615463,0.000000
455.524508,3552.988522,-8956.491898,919.314598
455.524836,4885.359217,-9696.697840,2221.676944
455.525164,4219.173869,-10881.027347,2987.772442
455.525491,2442.679609,-11769.274478,3140.991542
455.525819,888.247130,-11843.295072,1915.238745
455.526146,74.020594,-11177.109724,1608.800546
455.526474,666.185348,-10436.903782,1532.190996
455.526801,1332.370696,-9844.739029,1225.752797
455.527129,740.205942,-9474.636058,2145.067394
455.527457,592.164754,-9030.512492,2221.676944
455.527784,-1998.556043,-9696.697840,612.876398
455.528112,-2960.823768,-8512.368333,229.828649
455.528439,-2886.803174,-7846.182985,-766.095498
455.528767,-1776.494261,-7105.977043,76.609550
455.529094,-740.205942,-7105.977043,612.876398
455.529422,-740.205942,-7698.141797,1302.362347
455.529750,-3108.864956,-8808.450710,536.266849
455.530077,-4293.194464,-9474.636058,-229.828649
455.530405,-5551.544565,-9474.636058,-995.924147
455.530732,-4441.235652,-8734.430116,-1378.971896
455.531060,-1998.556043,-7994.224174,-306.438199
455.531388,-148.041188,-7476.080014,459.657299
455.531715,444.123565,-7920.203579,536.266849
455.532043,0.000000,-8364.327145,76.609550
455.532370,-444.123565,-8142.265362,-1149.143247
455.532698,222.061783,-7476.080014,-689.485948
455.533025,2516.700203,-7624.121203,0.000000
455.533353,4589.276840,-7772.162391,1302.362347
455.533681,5403.503377,-8956.491898,2451.505594
455.534008,4071.132681,-10362.883188,2757.943793
455.534336,1554.432478,-11325.150913,2068.457845
455.534663,296.082377,-11103.089130,1149.143247
455.534991,592.164754,-10510.924376,842.705048
455.535318,1702.473667,-9326.594869,1149.143247
455.535646,2886.803174,-8808.450710,1149.143247
455.535974,1036.288319,-8586.388927,1685.410096
455.536301,1554.432478,-8882.471304,1225.752797
455.536629,-1036.288319,-8882.471304,0.000000
455.536956,-2072.576638,-7402.059420,-536.266849
455.537284,-1258.350101,-7179.997637,-612.876398
455.537611,0.000000,-6957.935855,0.000000
455.537939,-1258.350101,-7105.977043,229.828649
455.538267,-1480.411884,-8512.368333,612.876398
455.538594,-4589.276840,-9474.636058,0.000000
455.538922,-5477.523971,-9770.718434,-1225.752797
455.539249,-5329.482782,-9992.780217,-1532.190996
455.539577,-3330.926739,-8068.244768,-1608.800546
455.539905,-1036.288319,-7994.224174,-536.266849
455.540232,296.082377,-7994.224174,229.828649
455.540560,148.041188,-8438.347739,153.219100
455.540887,-370.102971,-8660.409521,-229.828649
455.541215,-1036.288319,-8808.450710,-383.047749
455.541542,148.041188,-8882.471304,-536.266849
455.541870,2368.659014,-9030.512492,383.047749
455.542198,3923.091493,-9400.615463,1838.629195
455.542525,3701.029710,-10510.924376,2681.334243
455.542853,2590.720797,-11769.274478,2987.772442
455.543180,666.185348,-11843.295072,1762.019645
455.543508,0.000000,-11769.274478,1302.362347
455.543835,666.185348,-10658.965565,1225.752797
455.544163,1924.535449,-9770.718434,1685.410096
455.544491,2294.638420,-9474.636058,1072.533697
455.544818,296.082377,-9770.718434,1302.362347
455.545146,74.020594,-9400.615463,995.924147
455.545473,-1702.473667,-9326.594869,0.000000
455.545801,-2368.659014,-7624.121203,153.219100
455.546128,-592.164754,-7698.141797,459.657299
455.546456,0.000000,-7624.121203,1762.019645
455.546784,-1036.288319,-8808.450710,1149.143247
455.547111,-2368.659014,-9474.636058,1072.533697
455.547439,-5107.421000,-10362.883188,229.828649
455.547766,-5477.523971,-10066.800811,-536.266849
455.548094,-4589.276840,-9104.533087,-689.485948
455.548422,-2442.679609,-8364.327145,-536.266849
455.548749,-518.144159,-7846.182985,459.657299
455.549077,0.000000,-7994.224174,766.095498
455.549404,-814.226536,-8660.409521,306.438199
455.549732,-1850.514855,-8586.388927,-383.047749
455.550059,-1332.370696,-8660.409521,-995.924147
455.550387,518.144159,-8438.347739,-383.047749
455.550715,2812.782580,-8586.388927,1225.752797
455.551042,3627.009116,-9252.574275,2451.505594
455.551370,2886.803174,-10214.842000,2604.724693
455.551697,1480.411884,-11029.068536,2298.286494
455.552025,-222.061783,-10955.047942,1455.581446
455.552352,-370.102971,-10584.944971,919.314598
455.552680,592.164754,-9400.615463,842.705048
455.553008,2294.638420,-8586.388927,1762.019645
455.553335,2072.576638,-8364.327145,1455.581446
455.553663,888.247130,-9252.574275,1991.848295
455.553990,148.041188,-8290.306550,383.047749
455.554318,-1850.514855,-7698.141797,0.000000
455.554645,74.020594,-6809.894666,0.000000
455.554973,296.082377,-6809.894666,766.095498
455.555301,0.000000,-7994.224174,919.314598
455.555628,-962.267725,-8956.491898,1072.533697
455.555956,-3182.885551,-9770.718434,459.657299
455.556283,-4737.318029,-9844.739029,-383.047749
455.556611,-4737.318029,-9474.636058,-459.657299
455.556939,-3627.009116,-8586.388927,-919.314598
455.557266,-1480.411884,-7846.182985,-689.485948
455.557594,-370.102971,-7920.203579,0.000000
455.557921,-888.247130,-8438.347739,0.000000
455.558249,-1480.411884,-8586.388927,-612.876398
455.558576,-1702.473667,-8438.347739,-1685.410096
455.558904,-592.164754,-7994.224174,-1455.581446
455.559232,1924.535449,-7994.224174,0.000000
455.559559,3701.029710,-8364.327145,1302.362347
455.559887,4071.132681,-9474.636058,1915.238745
455.560214,2516.700203,-11177.109724,1685.410096
455.560542,74.020594,-11547.212695,1225.752797
455.560869,-740.205942,-11473.192101,459.657299
455.561197,222.061783,-10658.965565,612.876398
455.561525,2294.638420,-9844.739029,1225.752797
455.561852,3034.844362,-9252.574275,2834.553343
455.562180,2886.803174,-9474.636058,2681.334243
455.562507,1850.514855,-9844.739029,2451.505594
455.562835,0.000000,-9400.615463,459.657299
455.563162,-740.205942,-8882.471304,766.095498
455.563490,296.082377,-7698.141797,229.828649
455.563818,148.041188,-8586.388927,1378.971896
455.564145,-370.102971,-9030.512492,1762.019645
455.564473,-1628.453072,-9992.780217,1685.410096
455.564800,-4441.235652,-10658.965565,919.314598
455.565128,-5107.421000,-10288.862594,-536.266849
455.565456,-5033.400406,-8956.491898,-612.876398
455.565783,-3034.844362,-8438.347739,-153.219100
455.566111,-1480.411884,-7994.224174,76.609550
455.566438,-1184.329507,-7994.224174,229.828649
455.566766,-2146.597232,-8068.244768,76.609550
455.567093,-2368.659014,-7994.224174,-842.705048
455.567421,-2220.617826,-7772.162391,-1149.143247
455.567749,0.000000,-7476.080014,-612.876398
455.568076,2294.638420,-7550.100608,612.876398
455.568404,3108.864956,-8512.368333,1608.800546
455.568731,2442.679609,-10066.800811,2374.896044
455.569059,1258.350101,-10955.047942,1685.410096
455.569386,-222.061783,-11473.192101,995.924147
455.569714,0.000000,-10955.047942,536.266849
455.570042,1480.411884,-10584.944971,1149.143247
455.570369,3256.906145,-9548.656652,1762.019645
455.570697,3404.947333,-9844.739029,2298.286494
455.571024,2294.638420,-9622.677246,1915.238745
455.571352,666.185348,-9326.594869,689.485948
455.571679,-962.267725,-8882.471304,-229.828649
455.572007,370.102971,-7920.203579,0.000000
455.572335,1258.350101,-7105.977043,153.219100
455.572662,962.267725,-7920.203579,1532.190996
455.572990,74.020594,-9030.512492,1532.190996
455.573317,-2072.576638,-9622.677246,919.314598
455.573645,-4885.359217,-9696.697840,-612.876398
455.573973,-4959.379811,-9104.533087,-612.876398
455.574300,-4589.276840,-8882.471304,-766.095498
455.574628,-2368.659014,-7772.162391,-459.657299
455.574955,-1332.370696,-7624.121203,0.000000
455.575283,-1628.453072,-8216.285956,-383.047749
455.575610,-2368.659014,-8290.306550,-612.876398
455.575938,-2368.659014,-8068.244768,-1608.800546
455.576266,-1554.432478,-7550.100608,-1762.019645
455.576593,888.247130,-7402.059420,-995.924147
455.576921,2738.761985,-7920.203579,383.047749
455.577248,3182.885551,-9252.574275,536.266849
455.577576,2072.576638,-10881.027347,1378.971896
455.577903,0.000000,-11473.192101,1072.533697
455.578231,-814.226536,-11325.150913,229.828649
455.578559,296.082377,-10658.965565,536.266849
455.578886,2220.617826,-9770.718434,1225.752797
455.579214,3701.029710,-9030.512492,2145.067394
455.579541,3404.947333,-9474.636058,1991.848295
455.579869,2220.617826,-9400.615463,1991.848295
455.580196,518.144159,-8586.388927,0.000000
455.580524,-296.082377,-8142.265362,842.705048
455.580852,2072.576638,-8142.265362,919.314598
455.581179,1702.473667,-8586.388927,1225.752797
455.581507,370.102971,-8512.368333,1762.019645
455.581834,-888.247130,-10214.842000,1608.800546
455.582162,-3330.926739,-10214.842000,612.876398
455.582490,-4663.297435,-10140.821405,-612.876398
455.582817,-3997.112087,-9252.574275,-536.266849
455.583145,-2738.761985,-8290.306550,-306.438199
455.583472,-1036.288319,-7772.162391,153.219100
455.583800,-1036.288319,-8290.306550,842.705048
455.584127,-1924.535449,-8586.388927,153.219100
455.584455,-2516.700203,-7994.224174,0.000000
455.584783,-2590.720797,-8142.265362,-689.485948
455.585110,-1036.288319,-7994.224174,0.000000
455.585438,814.226536,-8068.244768,766.095498
455.585765,1850.514855,-8882.471304,1991.848295
455.586093,1036.288319,-10140.821405,2451.505594
455.586420,-518.144159,-11177.109724,1838.629195
455.586748,-1850.514855,-11177.109724,689.485948
455.587076,-1480.411884,-10658.965565,306.438199
455.587403,370.102971,-9548.656652,689.485948
455.587731,2812.782580,-9474.636058,1455.581446
455.588058,2812.782580,-9474.636058,2145.067394
455.588386,2146.597232,-9622.677246,1532.190996
455.588713,740.205942,-9474.636058,1149.143247
455.589041,-740.205942,-9252.574275,153.219100
455.589369,592.164754,-9178.553681,919.314598
455.589696,1406.391290,-8290.306550,689.485948
455.590024,74.020594,-8956.491898,1762.019645
455.590351,814.226536,-9622.677246,1762.019645
455.590679,-1924.535449,-10510.924376,1608.800546
455.591007,-3182.885551,-10066.800811,306.438199
455.591334,-3182.885551,-9474.636058,-766.095498
455.591662,-2516.700203,-8882.471304,-536.266849
455.591989,-740.205942,-7698.141797,-153.219100
455.592317,518.144159,-7698.141797,229.828649
455.592644,-148.041188,-7698.141797,0.000000
455.592972,-1184.329507,-8068.244768,-153.219100
455.593300,-2072.576638,-8290.306550,-919.314598
455.593627,-1628.453072,-8068.244768,-1302.362347
455.593955,222.061783,-7476.080014,-383.047749
455.594282,1554.432478,-8068.244768,459.657299
455.594610,1776.494261,-8734.430116,919.314598
455.594937,518.144159,-10140.821405,1225.752797
455.595265,-1554.432478,-10658.965565,229.828649
455.595593,-2294.638420,-10436.903782,-383.047749
455.595920,-1554.432478,-9770.718434,-536.266849
455.596248,740.205942,-9178.553681,0.000000
455.596575,2294.638420,-9252.574275,995.924147
455.596903,2294.638420,-9326.594869,1072.533697
455.597230,1184.329507,-9474.636058,919.314598
455.597558,296.082377,-9104.533087,229.828649
455.597886,74.020594,-8512.368333,0.000000
455.598213,1332.370696,-8586.388927,842.705048
455.598541,1998.556043,-8216.285956,536.266849
455.598868,1554.432478,-8734.430116,2068.457845
455.599196,444.123565,-9104.533087,1608.800546
455.599524,-1776.494261,-10214.842000,1455.581446
455.599851,-3108.864956,-9844.739029,459.657299
455.600179,-2516.700203,-9326.594869,0.000000
455.600506,-1332.370696,-8586.388927,306.438199
455.600834,222.061783,-7698.141797,995.924147
455.601161,370.102971,-8586.388927,1302.362347
455.601489,-962.267725,-8586.388927,1685.410096
455.601817,-2368.659014,-8734.430116,153.219100
455.602144,-2664.741391,-8438.347739,-689.485948
455.602472,-1258.350101,-7772.162391,-383.047749
455.602799,666.185348,-7402.059420,766.095498
455.603127,1628.453072,-8364.327145,1532.190996
455.603454,370.102971,-9252.574275,1838.629195
455.603782,-1184.329507,-10510.924376,1455.581446
455.604110,-2960.823768,-10955.047942,306.438199
455.604437,-3182.885551,-10214.842000,0.000000
455.604765,-1554.432478,-9770.718434,306.438199
455.605092,814.226536,-8586.388927,842.705048
455.605420,1776.494261,-9252.574275,1532.190996
455.605747,1184.329507,-9400.615463,1302.362347
455.606075,148.041188,-9474.636058,766.095498
455.606403,-888.247130,-8438.347739,76.609550
455.606730,0.000000,-8438.347739,229.828649
455.607058,1554.432478,-8216.285956,612.876398
455.607385,2738.761985,-8512.368333,1838.629195
455.607713,2146.597232,-9400.615463,1915.238745
455.608041,0.000000,-10140.821405,1838.629195
455.608368,-1036.288319,-10436.903782,919.314598
455.608696,-2146.597232,-10066.800811,306.438199
455.609023,-1554.432478,-9400.615463,229.828649
455.609351,74.020594,-8660.409521,536.266849
455.609678,222.061783,-8882.471304,919.314598
455.610006,0.000000,-8956.491898,383.047749
455.610334,-1776.494261,-9252.574275,0.000000
455.610661,-2368.659014,-9104.533087,-612.876398
455.610989,-1998.556043,-8142.265362,-612.876398
455.611316,0.000000,-7624.121203,-383.047749
455.611644,1628.453072,-8142.265362,612.876398
455.611971,1628.453072,-8512.368333,383.047749
455.612299,-222.061783,-9918.759623,1302.362347
455.612627,-2516.700203,-10807.006753,306.438199
455.612954,-3404.947333,-10584.944971,-383.047749
455.613282,-2368.659014,-10066.800811,0.000000
455.613609,-148.041188,-8660.409521,1072.533697
455.613937,1554.432478,-8734.430116,842.705048
455.614264,2072.576638,-9030.512492,1608.800546
455.614592,888.247130,-9326.594869,842.705048
455.614920,-740.205942,-9104.533087,0.000000
455.615247,-370.102971,-8660.409521,229.828649
455.615575,444.123565,-7920.203579,-229.828649
455.615902,2072.576638,-8068.244768,536.266849
455.616230,2442.679609,-8734.430116,1532.190996
455.616558,1628.453072,-9548.656652,1762.019645
455.616885,-370.102971,-10066.800811,1072.533697
455.617213,-2072.576638,-10066.800811,459.657299
455.617540,-2294.638420,-9844.739029,76.609550
455.617868,-962.267725,-8882.471304,229.828649
455.618195,296.082377,-8734.430116,919.314598
455.618523,962.267725,-8586.388927,1302.362347
455.618851,296.082377,-8660.409521,919.314598
455.619178,-962.267725,-8882.471304,306.438199
455.619506,-1406.391290,-8438.347739,-229.828649
455.619833,-666.185348,-7772.162391,-153.219100
455.620161,592.164754,-7476.080014,536.266849
455.620488,1258.350101,-7772.162391,1225.752797
455.620816,0.000000,-9104.533087,1455.581446
455.621144,-1628.453072,-10066.800811,536.266849
455.621471,-3034.844362,-10214.842000,0.000000
455.621799,-3256.906145,-9622.677246,-459.657299
455.622126,-1628.453072,-8956.491898,-689.485948
455.622454,74.020594,-8438.347739,459.657299
455.622781,814.226536,-8660.409521,1225.752797
455.623109,370.102971,-9178.553681,995.924147
455.623437,-962.267725,-9400.615463,229.828649
455.623764,-1332.370696,-9104.533087,0.000000
455.624092,-1110.308913,-8660.409521,-689.485948
455.624419,888.247130,-8216.285956,229.828649
455.624747,2146.597232,-8512.368333,1608.800546
455.625075,1998.556043,-9474.636058,1838.629195
455.625403,666.185348,-10510.924376,1685.410096
455.625731,-1036.288319,-10955.047942,842.705048
455.626058,-1998.556043,-10436.903782,0.000000
455.626386,-1332.370696,-9548.656652,76.609550
455.626713,444.123565,-8808.450710,689.485948
455.627041,1850.514855,-8660.409521,1225.752797
455.627369,1480.411884,-8586.388927,1608.800546
455.627696,0.000000,-9400.615463,766.095498
455.628024,-962.267725,-9252.574275,306.438199
455.628351,-1110.308913,-8882.471304,76.609550
455.628679,222.061783,-8216.285956,536.266849
455.629007,1110.308913,-8142.265362,1225.752797
455.629334,1036.288319,-9474.636058,1685.410096
455.629662,-370.102971,-9992.780217,1532.190996
455.629989,-2294.638420,-10066.800811,995.924147
455.630317,-3256.906145,-10066.800811,0.000000
455.630645,-2738.761985,-9178.553681,383.047749
455.630972,-888.247130,-8512.368333,-383.047749
455.631300,148.041188,-8364.327145,612.876398
455.631627,370.102971,-8438.347739,995.924147
455.631955,-592.164754,-9030.512492,842.705048
455.632282,-1480.411884,-9104.533087,76.609550
455.632610,-1554.432478,-8586.388927,0.000000
455.632938,-518.144159,-8290.306550,0.000000
455.633265,1036.288319,-7994.224174,766.095498
455.633593,1776.494261,-8734.430116,1532.190996
455.633920,962.267725,-9474.636058,1685.410096
455.634248,-666.185348,-10214.842000,842.705048
455.634576,-2072.576638,-10288.862594,229.828649
455.634903,-2072.576638,-9474.636058,0.000000
455.635231,-148.041188,-8734.430116,153.219100
455.635558,1406.391290,-8438.347739,766.095498
455.635886,1924.535449,-8216.285956,1378.971896
455.636214,1258.350101,-9474.636058,1149.143247
455.636541,-222.061783,-9400.615463,689.485948
455.636869,-592.164754,-9104.533087,0.000000
455.637196,0.000000,-8512.368333,153.219100
455.637524,1406.391290,-7698.141797,1302.362347
455.637852,2368.659014,-8364.327145,1225.752797
455.638179,1406.391290,-9548.656652,1991.848295
455.638507,-518.144159,-10214.842000,1685.410096
455.638834,-2368.659014,-10066.800811,536.266849
455.639162,-3108.864956,-9622.677246,383.047749
455.639490,-2146.597232,-8660.409521,-229.828649
455.639817,-518.144159,-8364.327145,153.219100
455.640145,74.020594,-8142.265362,842.705048
455.640472,-296.082377,-8438.347739,766.095498
455.640800,-1480.411884,-8734.430116,0.000000
455.641128,-2368.659014,-8512.368333,-612.876398
455.641455,-2072.576638,-8216.285956,-919.314598
455.641783,-370.102971,-7920.203579,-383.047749
455.642110,1036.288319,-8290.306550,459.657299
455.642438,1480.411884,-9252.574275,1302.362347
455.642766,222.061783,-9844.739029,1225.752797
455.643093,-1258.350101,-10881.027347,995.924147
455.643421,-2442.679609,-10658.965565,-229.828649
455.643748,-1850.514855,-9992.780217,0.000000
455.644076,0.000000,-9326.594869,383.047749
455.644404,1850.514855,-8882.471304,1608.800546
455.644731,1776.494261,-9104.533087,995.924147
455.645059,518.144159,-9474.636058,536.266849
455.645386,-444.123565,-9104.533087,-383.047749
455.645714,-444.123565,-8586.388927,-612.876398
455.646042,1406.391290,-7550.100608,153.219100
455.646369,2590.720797,-7920.203579,842.705048
455.646697,2368.659014,-8882.471304,1685.410096
455.647024,444.123565,-10214.842000,1455.581446
455.647352,-1702.473667,-10955.047942,995.924147
455.647680,-3330.926739,-10881.027347,0.000000
455.648007,-2812.782580,-10510.924376,-612.876398
455.648335,-1258.350101,-9252.574275,153.219100
455.648662,222.061783,-8660.409521,689.485948
455.648990,814.226536,-8660.409521,1072.533697
455.649318,-370.102971,-8660.409521,689.485948
455.649645,-1850.514855,-9104.533087,-306.438199
455.649973,-2516.700203,-7402.059420,-536.266849
455.650300,-1110.308913,-8068.244768,-689.485948
455.650628,740.205942,-8068.244768,153.219100
455.650956,1998.556043,-8290.306550,1072.533697
455.651283,1036.288319,-9252.574275,1608.800546
455.651611,0.000000,-9992.780217,1455.581446
455.651938,-2072.576638,-10807.006753,766.095498
455.652266,-2368.659014,-10288.862594,153.219100
455.652594,-1110.308913,-9400.615463,153.219100
455.652921,1184.329507,-9178.553681,1149.143247
455.653249,1480.411884,-9178.553681,2374.896044
455.653576,1258.350101,-9252.574275,1991.848295
455.653904,370.102971,-9178.553681,1455.581446
455.654232,-370.102971,-8512.368333,612.876398
455.654559,518.144159,-7624.121203,919.314598
455.654887,1998.556043,-6809.894666,1072.533697
455.655214,2146.597232,-7994.224174,2145.067394
455.655542,1258.350101,-9178.553681,2451.505594
455.655870,-666.185348,-10288.862594,2145.067394
455.656197,-2590.720797,-10362.883188,842.705048
455.656525,-3404.947333,-9844.739029,612.876398
455.656852,-2664.741391,-9400.615463,536.266849
455.657180,-1406.391290,-8808.450710,995.924147
455.657507,-666.185348,-8586.388927,1149.143247
455.657835,-1184.329507,-8808.450710,995.924147
455.658163,-2294.638420,-8882.471304,229.828649
455.658490,-3701.029710,-8586.388927,-1302.362347
455.658818,-3034.844362,-7920.203579,-1532.190996
455.659145,-962.267725,-7031.956449,-995.924147
455.659473,962.267725,-7105.977043,0.000000
455.659801,1776.494261,-7920.203579,689.485948
455.660128,370.102971,-8882.471304,995.924147
455.660456,-1628.453072,-10362.883188,306.438199
455.660783,-2368.659014,-10362.883188,-383.047749
455.661111,-1776.494261,-10288.862594,-689.485948
455.661439,518.144159,-9622.677246,0.000000
455.661766,2664.741391,-9474.636058,1302.362347
455.662094,3256.906145,-9770.718434,919.314598
455.662421,2590.720797,-9770.718434,1149.143247
455.662749,1924.535449,-9622.677246,919.314598
455.663077,1480.411884,-9252.574275,0.000000
455.663404,2368.659014,-8438.347739,459.657299
455.663732,3256.906145,-8734.430116,1225.752797
455.664059,3108.864956,-9474.636058,1532.190996
455.664387,1554.432478,-10288.862594,1762.019645
455.664715,-962.267725,-10955.047942,1378.971896
455.665042,-2590.720797,-10658.965565,229.828649
455.665370,-3182.885551,-9770.718434,76.609550
455.665697,-2072.576638,-9104.533087,0.000000
455.666025,-666.185348,-8438.347739,383.047749
455.666353,-1036.288319,-8734.430116,612.876398
455.666680,-2294.638420,-8660.409521,0.000000
455.667008,-3923.091493,-8290.306550,-995.924147
455.667335,-4145.153275,-8068.244768,-1685.410096
455.667663,-2442.679609,-7254.018232,-1608.800546
455.667991,-444.123565,-6513.812290,-306.438199
455.668318,888.247130,-7179.997637,612.876398
455.668646,1110.308913,-8068.244768,1072.533697
455.668973,-740.205942,-9474.636058,766.095498
455.669301,-2368.659014,-10214.842000,0.000000
455.669629,-2664.741391,-9918.759623,-306.438199
455.669956,-888.247130,-9474.636058,-229.828649
455.670284,1998.556043,-9030.512492,919.314598
455.670611,3404.947333,-9030.512492,1532.190996
455.670939,3034.844362,-9400.615463,1991.848295
455.671267,2220.617826,-9548.656652,1455.581446
455.671594,1110.308913,-9474.636058,995.924147
455.671922,1406.391290,-8586.388927,842.705048
455.672249,2960.823768,-7994.224174,1149.143247
455.672577,3775.050304,-8512.368333,2451.505594
455.672905,2368.659014,-9770.718434,2528.115143
455.673232,74.020594,-10881.027347,2681.334243
455.673560,-1702.473667,-10436.903782,1685.410096
455.673887,-3330.926739,-9696.697840,689.485948
455.674215,-2368.659014,-9252.574275,536.266849
455.674543,-962.267725,-8364.327145,689.485948
455.674870,-740.205942,-8142.265362,919.314598
455.675198,-1110.308913,-8142.265362,766.095498
455.675525,-2738.761985,-8068.244768,383.047749
455.675853,-4145.153275,-7994.224174,-766.095498
455.676181,-3330.926739,-7772.162391,-1149.143247
455.676508,-1998.556043,-7402.059420,-383.047749
455.676836,-518.144159,-7550.100608,153.219100
455.677163,-296.082377,-8438.347739,919.314598
455.677491,-1406.391290,-9844.739029,995.924147
455.677819,-2960.823768,-10436.903782,153.219100
455.678146,-3775.050304,-10658.965565,-842.705048
455.678474,-2590.720797,-9918.759623,-766.095498
455.678801,0.000000,-9104.533087,-306.438199
455.679129,2368.659014,-9252.574275,919.314598
455.679457,3182.885551,-9474.636058,1532.190996
455.679784,2516.700203,-10066.800811,1532.190996
455.680112,1628.453072,-10140.821405,919.314598
455.680439,888.247130,-9844.739029,536.266849
455.680767,1924.535449,-9400.615463,842.705048
455.681095,3256.906145,-9252.574275,1608.800546
455.681422,3701.029710,-9844.739029,2681.334243
455.681750,2960.823768,-10436.903782,2987.772442
455.682077,370.102971,-11029.068536,1838.629195
455.682405,-1480.411884,-10881.027347,1455.581446
455.682732,-1776.494261,-9474.636058,536.266849
455.683060,-1554.432478,-9474.636058,306.438199
455.683388,-666.185348,-9030.512492,459.657299
455.683715,-666.185348,-8956.491898,536.266849
455.684043,-2146.597232,-9252.574275,459.657299
455.684370,-2960.823768,-9178.553681,-689.485948
455.684698,-4071.132681,-8586.388927,-1455.581446
455.685026,-3256.906145,-7846.182985,-1762.019645
455.685353,-1258.350101,-7254.018232,-766.095498
455.685681,-444.123565,-7328.038826,0.000000
455.686008,-296.082377,-8290.306550,229.828649
455.686336,-2072.576638,-9252.574275,76.609550
455.686664,-3627.009116,-9918.759623,-689.485948
455.686991,-3552.988522,-9474.636058,-1378.971896
455.687319,-1850.514855,-8882.471304,-842.705048
455.687646,814.226536,-7920.203579,459.657299
455.687974,2664.741391,-8216.285956,1302.362347
455.688302,2812.782580,-8956.491898,1762.019645
455.688629,2220.617826,-9474.636058,1455.581446
455.688957,1628.453072,-9326.594869,612.876398
455.689284,1924.535449,-9178.553681,76.609550
455.689612,3034.844362,-8068.244768,1302.362347
455.689940,4589.276840,-8882.471304,2221.676944
455.690267,3997.112087,-9770.718434,3064.381992
455.690595,2072.576638,-10658.965565,2987.772442
455.690922,370.102971,-11177.109724,2911.162892
455.691250,-666.185348,-10140.821405,842.705048
455.691578,-2368.659014,-9622.677246,1378.971896
455.691905,-444.123565,-8438.347739,766.095498
455.692233,-592.164754,-8364.327145,1378.971896
455.692560,-1628.453072,-8586.388927,1302.362347
455.692888,-2590.720797,-8438.347739,-153.219100
455.693216,-4293.194464,-8216.285956,-612.876398
455.693543,-4145.153275,-7402.059420,-1225.752797
455.693871,-2886.803174,-6883.915261,-919.314598
455.694198,-962.267725,-6883.915261,0.000000
455.694526,-1110.308913,-7105.977043,536.266849
455.694854,-1554.432478,-8438.347739,766.095498
455.695181,-3330.926739,-9474.636058,-306.438199
455.695509,-4515.256246,-9770.718434,-842.705048
455.695836,-3552.988522,-9326.594869,-1072.533697
455.696164,-1406.391290,-8660.409521,-306.438199
455.696492,1480.411884,-8512.368333,306.438199
455.696819,2294.638420,-9104.533087,1302.362347
455.697147,1628.453072,-9548.656652,1149.143247
455.697474,962.267725,-9770.718434,689.485948
455.697802,1110.308913,-9104.533087,306.438199
455.698130,2368.659014,-8882.471304,689.485948
455.698457,4145.153275,-8956.491898,1378.971896
455.698785,4737.318029,-9548.656652,2451.505594
455.699112,3849.070898,-10955.047942,2987.772442
455.699440,1702.473667,-11251.130318,2528.115143
455.699768,0.000000,-10510.924376,1072.533697
455.700095,-1998.556043,-10288.862594,1302.362347
455.700423,370.102971,-9400.615463,612.876398
455.700750,740.205942,-9104.533087,1302.362347
455.701078,-222.061783,-8438.347739,1685.410096
455.701406,-814.226536,-9104.533087,1838.629195
455.701733,-2590.720797,-8660.409521,306.438199
455.702061,-4293.194464,-8586.388927,-689.485948
455.702388,-3108.864956,-7624.121203,-919.314598
455.702716,-2368.659014,-7254.018232,0.000000
455.703044,0.000000,-7179.997637,229.828649
455.703371,-888.247130,-8216.285956,919.314598
455.703699,-2368.659014,-9474.636058,76.609550
455.704026,-4145.153275,-10288.862594,-306.438199
455.704354,-4663.297435,-9548.656652,-1302.362347
455.704682,-2442.679609,-8734.430116,-1149.143247
455.705009,0.000000,-8734.430116,-383.047749
455.705337,1406.391290,-8586.388927,459.657299
455.705664,1998.556043,-8882.471304,1302.362347
455.705992,1036.288319,-9326.594869,766.095498
455.706320,370.102971,-9178.553681,0.000000
455.706647,1036.288319,-9104.533087,0.000000
455.706975,2294.638420,-8734.430116,612.876398
455.707302,3552.988522,-8808.450710,1762.019645
455.707630,4071.132681,-9696.697840,2757.943793
455.707957,2812.782580,-10584.944971,2911.162892
455.708285,1332.370696,-10955.047942,2145.067394
455.708613,-666.185348,-10140.821405,1532.190996
455.708940,0.000000,-10510.924376,1915.238745
455.709268,0.000000,-9178.553681,612.876398
455.709595,-370.102971,-8882.471304,1685.410096
455.709923,592.164754,-8290.306550,919.314598
455.710251,-2146.597232,-8956.491898,612.876398
455.710578,-3775.050304,-8734.430116,-612.876398
455.710906,-3701.029710,-7920.203579,-1532.190996
455.711233,-3108.864956,-7550.100608,-1149.143247
455.711561,-888.247130,-6883.915261,-229.828649
455.711889,-592.164754,-7031.956449,229.828649
455.712216,-1258.350101,-8734.430116,229.828649
455.712544,-2738.761985,-9030.512492,-689.485948
455.712871,-4219.173869,-9992.780217,-1378.971896
455.713199,-3997.112087,-9474.636058,-1838.629195
455.713527,-962.267725,-8734.430116,-612.876398
455.713854,1184.329507,-8660.409521,0.000000
455.714182,2516.700203,-9030.512492,689.485948
455.714509,2294.638420,-9622.677246,995.924147
455.714837,1702.473667,-9770.718434,383.047749
455.715165,1036.288319,-9918.759623,76.609550
455.715492,2294.638420,-9326.594869,76.609550
455.715820,3997.112087,-9326.594869,1072.533697
455.716147,5033.400406,-9548.656652,2068.457845
455.716475,4441.235652,-10658.965565,2604.724693
455.716803,2738.761985,-11251.130318,2681.334243
455.717130,444.123565,-10955.047942,1762.019645
455.717458,-1184.329507,-10658.965565,153.219100
455.717785,-1184.329507,-9992.780217,1072.533697
455.718113,1110.308913,-8956.491898,919.314598
455.718441,370.102971,-9622.677246,1378.971896
455.718768,-1258.350101,-9252.574275,1225.752797
455.719096,-3034.844362,-9400.615463,919.314598
455.719423,-4293.194464,-8586.388927,-153.219100
455.719751,-4663.297435,-7476.080014,-766.095498
455.720079,-2220.617826,-7105.977043,306.438199
455.720406,-2220.617826,-6809.894666,459.657299
455.720734,-1776.494261,-8216.285956,995.924147
455.721061,-3923.091493,-9252.574275,459.657299
455.721389,-5329.482782,-9474.636058,-536.266849
455.721717,-5551.544565,-9474.636058,-1149.143247
455.722044,-3997.112087,-8142.265362,-842.705048
455.722372,-592.164754,-7772.162391,-383.047749
455.722699,1480.411884,-7772.162391,689.485948
455.723027,2368.659014,-8142.265362,1149.143247
455.723355,1998.556043,-8808.450710,1072.533697
455.723682,1628.453072,-8808.450710,383.047749
455.724010,1702.473667,-9030.512492,229.828649
455.724337,3478.967927,-9252.574275,1455.581446
455.724665,5033.400406,-9326.594869,2374.896044
455.724992,5699.585753,-10066.800811,3907.087040
455.725320,5033.400406,-11103.089130,4749.792088
455.725648,3034.844362,-11251.130318,4136.915689
455.725975,1702.473667,-11177.109724,2834.553343
455.726303,518.144159,-10288.862594,1225.752797
455.726630,740.205942,-9770.718434,2145.067394
455.726958,3108.864956,-8364.327145,2451.505594
455.727285,2442.679609,-9400.615463,2604.724693
455.727613,0.000000,-8512.368333,2528.115143
455.727941,-1554.432478,-9474.636058,1762.019645
455.728268,-3849.070898,-8438.347739,689.485948
455.728596,-4589.276840,-8068.244768,229.828649
455.728923,-2960.823768,-7328.038826,842.705048
455.729251,-2812.782580,-7624.121203,1762.019645
455.729578,-2220.617826,-8068.244768,1838.629195
455.729906,-3701.029710,-9104.533087,1915.238745
455.730234,-5847.626942,-9474.636058,383.047749
455.730561,-7105.977043,-9918.759623,0.000000
455.730889,-6291.750507,-8512.368333,-459.657299
455.731216,-3478.967927,-7476.080014,-229.828649
455.731544,0.000000,-7105.977043,1225.752797
455.731871,2516.700203,-7402.059420,2298.286494
455.732199,2812.782580,-8142.265362,2757.943793
455.732527,1702.473667,-8660.409521,2681.334243
455.732854,296.082377,-9844.739029,2068.457845
455.733182,148.041188,-10214.842000,1532.190996
455.733509,1850.514855,-10214.842000,2451.505594
455.733837,4737.318029,-10066.800811,3983.696590
455.734164,7105.977043,-10362.883188,6435.202183
455.734492,7550.100608,-10510.924376,6741.640382
455.734820,5033.400406,-11103.089130,6588.421283
455.735147,2590.720797,-10807.006753,5592.497135
455.735475,666.185348,-11177.109724,4596.572988
455.735802,-1628.453072,-10658.965565,2451.505594
455.736130,-740.205942,-9844.739029,3830.477490
455.736457,1258.350101,-7179.997637,4443.353888
455.736785,1480.411884,-8068.244768,5592.497135
455.737113,1110.308913,-7328.038826,5515.887586
455.737440,-1036.288319,-7846.182985,4673.182538
455.737768,-5329.482782,-8512.368333,3217.601092
455.738095,-7254.018232,-9104.533087,1302.362347
455.738423,-8882.471304,-9474.636058,919.314598
455.738750,-7179.997637,-8660.409521,1072.533697
455.739078,-3552.988522,-7328.038826,2451.505594
455.739406,-370.102971,-6513.812290,4979.620737
455.739733,1480.411884,-6439.791695,4596.572988
455.740061,-296.082377,-6809.894666,5286.058936
455.740388,-2220.617826,-8216.285956,3447.429741
455.740716,-4071.132681,-9918.759623,2604.724693
455.741043,-5329.482782,-10436.903782,1608.800546
455.741371,-3182.885551,-10658.965565,1378.971896
455.741699,-740.205942,-10066.800811,3064.381992
455.742026,2442.679609,-9326.594869,4213.525239
455.742354,4293.194464,-9104.533087,4979.620737
455.742681,4589.276840,-8512.368333,5209.449386
455.743009,3552.988522,-10140.821405,4213.525239
455.743336,2368.659014,-11029.068536,3217.601092
455.743664,1258.350101,-11029.068536,2221.676944
455.743992,1480.411884,-10807.006753,2604.724693
455.744319,1998.556043,-10066.800811,3524.039291
455.744647,2442.679609,-10288.862594,3907.087040
455.744974,222.061783,-9474.636058,3907.087040
455.745302,1184.329507,-9622.677246,3907.087040
455.745630,518.144159,-7920.203579,3064.381992
455.745957,-592.164754,-8586.388927,2604.724693
455.746285,0.000000,-8216.285956,2221.676944
455.746612,74.020594,-7920.203579,1991.848295
455.746940,-296.082377,-7994.224174,2451.505594
455.747267,814.226536,-7772.162391,3370.820191
455.747595,0.000000,-8142.265362,3600.648841
455.747923,-370.102971,-8364.327145,3753.867940
455.748250,0.000000,-8660.409521,3447.429741
455.748578,-2072.576638,-9474.636058,2757.943793
455.748905,-2368.659014,-9400.615463,2528.115143
455.749233,-2294.638420,-9474.636058,2834.553343
455.749560,-1998.556043,-9326.594869,3064.381992
455.749888,-962.267725,-8882.471304,3524.039291
455.750216,-444.123565,-9400.615463,3064.381992
455.750543,-370.102971,-9178.553681,3217.601092
455.750871,-370.102971,-8956.491898,3064.381992
455.751198,-1258.350101,-9030.512492,3064.381992
455.751526,-1628.453072,-8956.491898,2681.334243
455.751853,-1184.329507,-9104.533087,3294.210641
455.752181,-296.082377,-8882.471304,3294.210641
455.752509,888.247130,-8808.450710,3677.258390
455.752836,1776.494261,-8956.491898,4136.915689
455.753164,1332.370696,-8660.409521,4826.401637
455.753491,962.267725,-9400.615463,4213.525239
455.753819,74.020594,-9474.636058,4060.306139
455.754146,-518.144159,-9252.574275,3677.258390
455.754474,-1702.473667,-8956.491898,3140.991542
455.754802,0.000000,-8660.409521,3677.258390
455.755129,592.164754,-7994.224174,3983.696590
455.755457,444.123565,-8364.327145,3217.601092
455.755784,740.205942,-9104.533087,2757.943793
455.756112,0.000000,-9400.615463,2374.896044
455.756439,-1184.329507,-10066.800811,2528.115143
455.756767,-1480.411884,-9474.636058,2528.115143
455.757095,-1776.494261,-9474.636058,2068.457845
455.757422,-814.226536,-9252.574275,1608.800546
455.757750,0.000000,-9104.533087,2145.067394
455.758077,-666.185348,-8882.471304,1685.410096
455.758405,-1110.308913,-8734.430116,1915.238745
455.758732,-1406.391290,-9326.594869,1762.019645
455.759060,-1850.514855,-9400.615463,1455.581446
455.759388,-962.267725,-8882.471304,1302.362347
455.759715,-222.061783,-8660.409521,1762.019645
455.760043,814.226536,-8660.409521,1455.581446
455.760370,1110.308913,-8882.471304,1685.410096
455.760698,740.205942,-8882.471304,1685.410096
455.761025,296.082377,-9252.574275,1608.800546
455.761353,0.000000,-9474.636058,1378.971896
455.761681,592.164754,-9844.739029,1532.190996
455.762008,962.267725,-10140.821405,1685.410096
455.762336,1406.391290,-10288.862594,1532.190996
455.762663,1850.514855,-9918.759623,1762.019645
455.762991,1924.535449,-9696.697840,2145.067394
455.763318,1628.453072,-9622.677246,2298.286494
455.763646,148.041188,-9474.636058,1608.800546
455.763974,-666.185348,-9548.656652,1302.362347
455.764301,-814.226536,-8808.450710,842.705048
455.764629,-1406.391290,-9474.636058,536.266849
455.764956,-1332.370696,-8882.471304,459.657299
455.765284,-814.226536,-8586.388927,919.314598
455.765611,-1110.308913,-8956.491898,612.876398
455.765939,-740.205942,-8512.368333,689.485948
455.766267,-1184.329507,-8438.347739,383.047749
455.766594,-1036.288319,-8216.285956,229.828649
455.766922,-740.205942,-8290.306550,-306.438199
455.767249,-740.205942,-8364.327145,-153.219100
455.767577,-592.164754,-8586.388927,612.876398
455.767904,-296.082377,-8734.430116,919.314598
455.768232,-296.082377,-9178.553681,1225.752797
455.768560,74.020594,-9326.594869,1072.533697
455.768887,-222.061783,-9252.574275,1455.581446
455.769215,74.020594,-9252.574275,919.314598
455.769542,74.020594,-9326.594869,842.705048
455.769870,148.041188,-9104.533087,689.485948
455.770197,370.102971,-9696.697840,1302.362347
455.770525,296.082377,-9178.553681,995.924147
455.770853,222.061783,-9326.594869,1302.362347
455.771180,0.000000,-9474.636058,1455.581446
455.771508,0.000000,-9326.594869,995.924147
455.771835,74.020594,-9104.533087,842.705048
455.772163,-148.041188,-8364.327145,612.876398
455.772490,-592.164754,-8438.347739,536.266849
455.772818,0.000000,-8660.409521,842.705048
455.773146,-666.185348,-8660.409521,842.705048
455.773473,-1110.308913,-8438.347739,1072.533697
455.773801,-962.267725,-8586.388927,1302.362347
455.774128,-592.164754,-8808.450710,536.266849
455.774456,-1480.411884,-8956.491898,306.438199
455.774783,-1184.329507,-8808.450710,306.438199
455.775111,-1110.308913,-9030.512492,459.657299
455.775439,-444.123565,-9178.553681,842.705048
455.775766,-148.041188,-8882.471304,1149.143247
455.776094,-296.082377,-9252.574275,459.657299
455.776421,74.020594,-9474.636058,383.047749
455.776749,0.000000,-9474.636058,536.266849
455.777077,-444.123565,-9474.636058,459.657299
455.777404,-148.041188,-10066.800811,1072.533697
455.777732,-296.082377,-9992.780217,842.705048
455.778059,-222.061783,-10214.842000,612.876398
455.778387,148.041188,-9844.739029,766.095498
455.778714,296.082377,-9622.677246,536.266849
455.779042,1036.288319,-9474.636058,1455.581446
455.779370,814.226536,-9474.636058,459.657299
455.779697,370.102971,-9104.533087,306.438199
455.780025,148.041188,-9030.512492,536.266849
455.780352,148.041188,-9030.512492,536.266849
455.780680,-148.041188,-9178.553681,842.705048
455.781007,0.000000,-9178.553681,459.657299
455.781335,222.061783,-9178.553681,459.657299
455.781663,0.000000,-9104.533087,306.438199
455.781990,0.000000,-8882.471304,229.828649
455.782318,-222.061783,-8586.388927,383.047749
455.782645,0.000000,-8808.450710,306.438199
455.782973,-666.185348,-8956.491898,229.828649
455.783300,-740.205942,-9104.533087,76.609550
455.783628,-814.226536,-9178.553681,76.609550
455.783956,-962.267725,-9252.574275,229.828649
455.784283,-888.247130,-9400.615463,306.438199
455.784611,-1036.288319,-9400.615463,306.438199
455.784938,-740.205942,-9178.553681,306.438199
455.785266,-518.144159,-8882.471304,306.438199
455.785593,-296.082377,-8734.430116,383.047749
455.785921,-296.082377,-8882.471304,0.000000
455.786249,-592.164754,-8882.471304,842.705048
455.786576,-666.185348,-8882.471304,766.095498
455.786904,-1036.288319,-9178.553681,612.876398
455.787231,-962.267725,-9326.594869,842.705048
455.787559,-1110.308913,-9252.574275,919.314598
455.787886,-740.205942,-8734.430116,612.876398
455.788214,-592.164754,-8660.409521,612.876398
455.788542,-444.123565,-8734.430116,536.266849
455.788869,-518.144159,-8734.430116,612.876398
455.789197,-740.205942,-8364.327145,919.314598
455.789524,-222.061783,-8512.368333,995.924147
455.789852,-666.185348,-8882.471304,612.876398
455.790179,-740.205942,-9178.553681,919.314598
455.790507,-370.102971,-9400.615463,536.266849
455.790835,-740.205942,-9178.553681,766.095498
455.791162,-148.041188,-9030.512492,306.438199
455.791490,-148.041188,-9104.533087,842.705048
455.791817,-222.061783,-8882.471304,612.876398
455.792145,-370.102971,-8734.430116,383.047749
455.792472,-222.061783,-9104.533087,689.485948
455.792800,-370.102971,-9252.574275,689.485948
455.793128,-666.185348,-9104.533087,766.095498
455.793455,-666.185348,-9252.574275,536.266849
455.793783,-592.164754,-9178.553681,612.876398
455.794110,-296.082377,-8882.471304,383.047749
455.794438,-222.061783,-9178.553681,153.219100
455.794765,-370.102971,-8660.409521,766.095498
455.795093,0.000000,-8734.430116,383.047749
455.795421,-296.082377,-8660.409521,229.828649
455.795748,-444.123565,-8882.471304,229.828649
455.796076,-814.226536,-9326.594869,229.828649
455.796403,-1554.432478,-9104.533087,459.657299
455.796731,-1184.329507,-9400.615463,383.047749
455.797058,-740.205942,-9400.615463,612.876398
455.797386,-296.082377,-9252.574275,612.876398
455.797714,0.000000,-9252.574275,383.047749
455.798041,222.061783,-8290.306550,306.438199
455.798369,962.267725,-8808.450710,459.657299
455.798696,444.123565,-9030.512492,689.485948
455.799024,74.020594,-9474.636058,689.485948
455.799351,-148.041188,-9696.697840,689.485948
455.799679,0.000000,-9474.636058,689.485948
455.800007,296.082377,-10066.800811,689.485948
455.800334,222.061783,-9474.636058,689.485948
455.800662,666.185348,-9252.574275,612.876398
455.800989,888.247130,-8808.450710,689.485948
455.801317,814.226536,-8216.285956,612.876398
455.801644,444.123565,-8216.285956,536.266849
455.801972,-296.082377,-8660.409521,229.828649
455.802300,-296.082377,-9178.553681,536.266849
455.802627,-370.102971,-9252.574275,766.095498
455.802955,0.000000,-9326.594869,842.705048
455.803282,0.000000,-9178.553681,919.314598
455.803610,444.123565,-9400.615463,459.657299
455.803937,296.082377,-8956.491898,76.609550
455.804265,296.082377,-8586.388927,229.828649
455.804593,444.123565,-8808.450710,306.438199
455.804920,0.000000,-8882.471304,536.266849
455.805248,-148.041188,-9474.636058,383.047749
455.805575,0.000000,-9474.636058,459.657299
455.805903,0.000000,-9474.636058,612.876398
455.806230,-148.041188,-9400.615463,689.485948
455.806558,222.061783,-9696.697840,459.657299
455.806886,296.082377,-9104.533087,229.828649
455.807213,444.123565,-8808.450710,306.438199
455.807541,370.102971,-8734.430116,229.828649
455.807868,74.020594,-9030.512492,459.657299
455.808196,222.061783,-9474.636058,612.876398
455.808524,0.000000,-9696.697840,766.095498
455.808851,-370.102971,-9622.677246,766.095498
455.809179,-518.144159,-9622.677246,536.266849
455.809506,-370.102971,-9474.636058,689.485948
455.809834,0.000000,-9474.636058,766.095498
455.810161,-814.226536,-8734.430116,76.609550
455.810489,0.000000,-8956.491898,383.047749
455.810817,-370.102971,-9252.574275,459.657299
455.811144,-888.247130,-9548.656652,766.095498
455.811472,-888.247130,-9770.718434,919.314598
455.811799,-888.247130,-9400.615463,1149.143247
455.812127,-740.205942,-9622.677246,766.095498
455.812454,-962.267725,-9696.697840,612.876398
455.812782,-888.247130,-9622.677246,612.876398
455.813110,-740.205942,-9030.512492,536.266849
455.813437,-666.185348,-8808.450710,919.314598
455.813765,-444.123565,-8734.430116,536.266849
455.814092,-814.226536,-9326.594869,842.705048
455.814420,-962.267725,-9326.594869,1149.143247
455.814747,-814.226536,-9326.594869,919.314598
455.815075,-740.205942,-9030.512492,1149.143247
455.815403,-518.144159,-8586.388927,1149.143247
455.815730,-814.226536,-8734.430116,536.266849
455.816058,-666.185348,-8956.491898,536.266849
455.816385,-666.185348,-8882.471304,459.657299
455.816713,-518.144159,-9104.533087,459.657299
455.817040,-962.267725,-9178.553681,919.314598
455.817368,-592.164754,-9252.574275,536.266849
455.817696,-518.144159,-9252.574275,766.095498
455.818023,-296.082377,-9178.553681,459.657299
455.818351,-518.144159,-9104.533087,459.657299
455.818678,-370.102971,-8734.430116,383.047749
455.819006,0.000000,-8660.409521,383.047749
455.819333,0.000000,-8660.409521,459.657299
455.819661,0.000000,-8734.430116,383.047749
455.819989,-296.082377,-8956.491898,459.657299
455.820316,-296.082377,-9178.553681,383.047749
455.820644,-296.082377,-8808.450710,383.047749
455.820971,-222.061783,-8808.450710,612.876398
455.821299,0.000000,-8660.409521,229.828649
455.821626,0.000000,-8512.368333,383.047749
455.821954,148.041188,-8364.327145,995.924147
455.822282,0.000000,-8808.450710,459.657299
455.822609,0.000000,-8808.450710,536.266849
455.822937,0.000000,-9030.512492,689.485948
455.823264,-148.041188,-9252.574275,689.485948
455.823592,0.000000,-9252.574275,766.095498
455.823919,74.020594,-9104.533087,689.485948
455.824247,0.000000,-9178.553681,459.657299
455.824575,148.041188,-8882.471304,612.876398
455.824902,74.020594,-9030.512492,383.047749
455.825230,222.061783,-9252.574275,459.657299
455.825557,0.000000,-8734.430116,1302.362347
455.825885,222.061783,-8956.491898,306.438199
455.826213,0.000000,-9178.553681,612.876398
455.826540,0.000000,-9474.636058,612.876398
455.826868,0.000000,-9178.553681,459.657299
455.827196,0.000000,-8586.388927,919.314598
455.827523,0.000000,-8586.388927,536.266849
455.827851,0.000000,-9030.512492,459.657299
455.828179,0.000000,-9178.553681,383.047749
455.828506,-148.041188,-9178.553681,153.219100
455.828834,-296.082377,-9178.553681,536.266849
455.829161,0.000000,-9030.512492,612.876398
455.829489,-296.082377,-9474.636058,689.485948
455.829817,-370.102971,-9400.615463,536.266849
455.830144,0.000000,-9326.594869,229.828649
455.830472,-222.061783,-9400.615463,229.828649
455.830800,296.082377,-9252.574275,536.266849
455.831127,-222.061783,-9326.594869,76.609550
455.831455,0.000000,-9474.636058,536.266849
455.831783,0.000000,-9474.636058,612.876398
455.832110,-296.082377,-9548.656652,612.876398
455.832438,-222.061783,-9474.636058,842.705048
455.832765,0.000000,-9400.615463,689.485948
455.833093,0.000000,-9326.594869,459.657299
455.833421,222.061783,-9474.636058,536.266849
455.833748,0.000000,-9400.615463,536.266849
455.834076,0.000000,-9030.512492,536.266849
455.834404,0.000000,-8734.430116,536.266849
455.834731,-296.082377,-9104.533087,536.266849
455.835059,0.000000,-9326.594869,689.485948
455.835387,-444.123565,-9326.594869,612.876398
455.835714,-444.123565,-9104.533087,536.266849
455.836042,-518.144159,-8882.471304,536.266849
455.836369,-148.041188,-9030.512492,766.095498
455.836697,-370.102971,-9104.533087,459.657299
455.837025,-296.082377,-9252.574275,612.876398
455.837352,-444.123565,-9178.553681,459.657299
455.837680,-518.144159,-9030.512492,1302.362347
455.838008,0.000000,-9252.574275,766.095498
455.838335,-296.082377,-9326.594869,689.485948
455.838663,-518.144159,-9326.594869,689.485948
455.838990,-296.082377,-9252.574275,689.485948
455.839318,0.000000,-9326.594869,689.485948
455.839646,-296.082377,-9030.512492,689.485948
455.839973,-444.123565,-9178.553681,689.485948
455.840301,-370.102971,-9252.574275,536.266849
455.840629,-370.102971,-9252.574275,612.876398
455.840956,-370.102971,-9178.553681,689.485948
455.841284,0.000000,-8512.368333,995.924147
455.841612,-222.061783,-9178.553681,612.876398
455.841939,-148.041188,-8956.491898,766.095498
455.842267,0.000000,-8882.471304,612.876398
455.842594,-222.061783,-8808.450710,689.485948
455.842922,-296.082377,-9030.512492,536.266849
455.843250,-370.102971,-9178.553681,459.657299
455.843577,0.000000,-9178.553681,383.047749
455.843905,-296.082377,-9252.574275,459.657299
455.844233,-370.102971,-9178.553681,612.876398
455.844560,0.000000,-9030.512492,766.095498
455.844888,-296.082377,-9252.574275,153.219100
455.845216,-518.144159,-8882.471304,459.657299
455.845543,-296.082377,-9030.512492,459.657299
455.845871,-444.123565,-9030.512492,306.438199
455.846198,-296.082377,-8956.491898,153.219100
455.846526,-592.164754,-8808.450710,459.657299
455.846854,-370.102971,-9178.553681,459.657299
455.847181,-592.164754,-8882.471304,536.266849
455.847509,-666.185348,-8808.450710,536.266849
455.847837,-962.267725,-8586.388927,459.657299
455.848164,-740.205942,-8734.430116,229.828649
455.848492,-666.185348,-8660.409521,536.266849
455.848820,-888.247130,-8734.430116,383.047749
455.849147,-888.247130,-8660.409521,229.828649
455.849475,-740.205942,-8882.471304,612.876398
455.849802,-222.061783,-9178.553681,842.705048
455.850130,-666.185348,-8882.471304,612.876398
455.850458,-814.226536,-8882.471304,689.485948
455.850785,-518.144159,-8956.491898,536.266849
455.851113,-370.102971,-8808.450710,306.438199
455.851441,-296.082377,-8660.409521,766.095498
455.851768,-518.144159,-8882.471304,229.828649
455.852096,-592.164754,-8956.491898,612.876398
455.852424,-592.164754,-8882.471304,842.705048
455.852751,-444.123565,-9104.533087,689.485948
455.853079,-592.164754,-9030.512492,766.095498
455.853406,-370.102971,-8808.450710,612.876398
455.853734,-370.102971,-9104.533087,536.266849
455.854062,-444.123565,-8882.471304,383.047749
455.854389,0.000000,-8882.471304,612.876398
455.854717,-296.082377,-8734.430116,612.876398
455.855045,-444.123565,-8438.347739,536.266849
455.855372,-444.123565,-9030.512492,689.485948
455.855700,-370.102971,-9104.533087,689.485948
455.856027,-222.061783,-9030.512492,612.876398
455.856355,-296.082377,-9030.512492,536.266849
455.856683,-296.082377,-8660.409521,612.876398
455.857010,0.000000,-9252.574275,383.047749
455.857338,0.000000,-9104.533087,383.047749
455.857666,0.000000,-9104.533087,459.657299
455.857993,-370.102971,-9400.615463,306.438199
455.858321,-222.061783,-9252.574275,612.876398
455.858649,0.000000,-9252.574275,306.438199
455.858976,-148.041188,-9252.574275,383.047749
455.859304,74.020594,-9474.636058,383.047749
455.859631,0.000000,-9252.574275,612.876398
455.859959,0.000000,-8882.471304,842.705048
455.860287,148.041188,-9104.533087,842.705048
455.860614,0.000000,-9252.574275,536.266849
455.860942,0.000000,-9326.594869,612.876398
455.861270,74.020594,-9326.594869,689.485948
455.861597,74.020594,-9326.594869,766.095498
455.861925,0.000000,-9252.574275,842.705048
455.862253,0.000000,-9400.615463,842.705048
455.862580,0.000000,-9474.636058,459.657299
455.862908,0.000000,-9252.574275,306.438199
455.863235,0.000000,-9326.594869,383.047749
455.863563,0.000000,-9474.636058,229.828649
455.863891,0.000000,-9622.677246,612.876398
455.864218,0.000000,-9696.697840,459.657299
455.864546,0.000000,-9696.697840,383.047749
455.864874,-148.041188,-9696.697840,536.266849
455.865201,-296.082377,-9326.594869,689.485948
455.865529,444.123565,-9548.656652,383.047749
455.865857,74.020594,-9474.636058,383.047749
455.866184,0.000000,-9474.636058,536.266849
455.866512,0.000000,-9474.636058,306.438199
455.866839,-888.247130,-9474.636058,612.876398
455.867167,-148.041188,-9548.656652,842.705048
455.867495,-518.144159,-9252.574275,536.266849
455.867822,-222.061783,-9252.574275,612.876398
455.868150,0.000000,-9178.553681,459.657299
455.868478,-370.102971,-9030.512492,612.876398
455.868805,-148.041188,-8660.409521,536.266849
455.869133,-444.123565,-8734.430116,536.266849
455.869461,-592.164754,-8734.430116,459.657299
455.869788,-518.144159,-8882.471304,459.657299
455.870116,-518.144159,-9252.574275,766.095498
455.870443,-296.082377,-8956.491898,842.705048
455.870771,-148.041188,-9252.574275,766.095498
455.871099,-370.102971,-9030.512492,383.047749
455.871426,-518.144159,-9030.512492,689.485948
455.871754,-518.144159,-8882.471304,536.266849
455.872082,-296.082377,-8734.430116,306.438199
455.872409,-740.205942,-8438.347739,306.438199
455.872737,-444.123565,-8734.430116,612.876398
455.873064,-518.144159,-8882.471304,536.266849
455.873392,-666.185348,-9030.512492,612.876398
455.873720,-666.185348,-8660.409521,612.876398
455.874047,-444.123565,-9030.512492,612.876398
455.874375,-666.185348,-8586.388927,459.657299
455.874703,-518.144159,-8586.388927,383.047749
455.875030,-518.144159,-8660.409521,306.438199
455.875358,-444.123565,-8882.471304,459.657299
455.875686,-592.164754,-8808.450710,0.000000
455.876013,-666.185348,-8734.430116,689.485948
455.876341,-740.205942,-8808.450710,536.266849
455.876668,-444.123565,-9030.512492,612.876398
455.876996,-370.102971,-8882.471304,383.047749
455.877324,0.000000,-8882.471304,229.828649
455.877651,0.000000,-8734.430116,536.266849
455.877979,-148.041188,-8882.471304,459.657299
455.878307,-296.082377,-9030.512492,536.266849
455.878634,-444.123565,-9178.553681,766.095498
455.878962,-370.102971,-8734.430116,612.876398
455.879290,-666.185348,-8956.491898,612.876398
455.879617,-222.061783,-9104.533087,536.266849
455.879945,-370.102971,-9030.512492,766.095498
455.880272,-148.041188,-9178.553681,689.485948
455.880600,-370.102971,-9178.553681,995.924147
455.880928,-444.123565,-9252.574275,536.266849
455.881255,-444.123565,-9178.553681,306.438199
455.881583,-370.102971,-9030.512492,459.657299
455.881911,-444.123565,-9104.533087,612.876398
455.882238,0.000000,-9030.512492,689.485948
455.882566,0.000000,-8734.430116,689.485948
455.882894,-444.123565,-9326.594869,459.657299
455.883221,-444.123565,-9326.594869,459.657299
455.883549,-444.123565,-9252.574275,536.266849
455.883876,-370.102971,-9400.615463,306.438199
