#time,accel_x,accel_y,accel_z
556.106233,-222.061783,-9104.533087,459.657299
556.106560,-444.123565,-9030.512492,459.657299
556.106888,-222.061783,-8882.471304,383.047749
556.107216,0.000000,-8882.471304,383.047749
556.107544,0.000000,-9030.512492,995.924147
556.107872,-296.082377,-8956.491898,689.485948
556.108200,-222.061783,-8882.471304,459.657299
556.108528,-222.061783,-9104.533087,689.485948
556.108855,-370.102971,-9252.574275,612.876398
556.109183,0.000000,-8586.388927,459.657299
556.109511,-296.082377,-9104.533087,459.657299
556.109839,-148.041188,-9104.533087,612.876398
556.110167,-370.102971,-9252.574275,536.266849
556.110495,-222.061783,-9178.553681,459.657299
556.110822,-148.041188,-8882.471304,766.095498
556.111150,-222.061783,-8808.450710,536.266849
556.111478,-148.041188,-9104.533087,536.266849
556.111806,-370.102971,-9030.512492,536.266849
556.112134,-444.123565,-8956.491898,536.266849
556.112462,-222.061783,-9030.512492,689.485948
556.112790,-296.082377,-9104.533087,536.266849
556.113117,-222.061783,-9104.533087,536.266849
556.113445,-222.061783,-8956.491898,536.266849
556.113773,-296.082377,-9104.533087,612.876398
556.114101,-592.164754,-9178.553681,612.876398
556.114429,0.000000,-9104.533087,612.876398
556.114757,-222.061783,-9030.512492,536.266849
556.115085,-148.041188,-9030.512492,536.266849
556.115412,-222.061783,-9178.553681,536.266849
556.115740,-370.102971,-9252.574275,306.438199
556.116068,74.020594,-8882.471304,612.876398
556.116396,-592.164754,-9252.574275,229.828649
556.116724,-962.267725,-9474.636058,76.609550
556.117052,-1332.370696,-9474.636058,-229.828649
556.117380,-1110.308913,-9252.574275,-229.828649
556.117707,-296.082377,-8660.409521,76.609550
556.118035,-296.082377,-8882.471304,-536.266849
556.118363,-740.205942,-9104.533087,-612.876398
556.118691,-1184.329507,-9326.594869,-1072.533697
556.119019,-1258.350101,-9326.594869,-995.924147
556.119347,-1184.329507,-8512.368333,-1149.143247
556.119674,-962.267725,-8734.430116,-1838.629195
556.120002,-814.226536,-9178.553681,-1302.362347
556.120330,-296.082377,-9178.553681,-1225.752797
556.120658,0.000000,-9030.512492,-1302.362347
556.120986,0.000000,-9178.553681,-995.924147
556.121314,-296.082377,-9252.574275,-1685.410096
556.121642,-222.061783,-9474.636058,-1762.019645
556.121969,0.000000,-9104.533087,-1915.238745
556.122297,222.061783,-9178.553681,-1608.800546
556.122625,370.102971,-9326.594869,-1608.800546
556.122953,296.082377,-8956.491898,-1532.190996
556.123281,518.144159,-9178.553681,-1915.238745
556.123609,518.144159,-9178.553681,-1762.019645
556.123937,74.020594,-9474.636058,-2068.457845
556.124264,222.061783,-9326.594869,-1991.848295
556.124592,0.000000,-9178.553681,-842.705048
556.124920,592.164754,-9252.574275,-1991.848295
556.125248,222.061783,-9030.512492,-1762.019645
556.125576,148.041188,-9400.615463,-1532.190996
556.125904,-148.041188,-9326.594869,-1762.019645
556.126231,0.000000,-9252.574275,-1608.800546
556.126559,-666.185348,-9104.533087,-1762.019645
556.126887,-888.247130,-9030.512492,-2221.676944
556.127215,-1406.391290,-9178.553681,-2451.505594
556.127543,-1332.370696,-9326.594869,-2374.896044
556.127871,-1628.453072,-8956.491898,-2834.553343
556.128199,-1776.494261,-8512.368333,-2834.553343
556.128526,-1998.556043,-8956.491898,-3064.381992
556.128854,-2220.617826,-8882.471304,-3217.601092
556.129182,-1924.535449,-8956.491898,-3600.648841
556.129510,-1850.514855,-8882.471304,-3830.477490
556.129838,-1776.494261,-8882.471304,-3983.696590
556.130166,-1776.494261,-8882.471304,-3983.696590
556.130494,-1406.391290,-9178.553681,-3983.696590
556.130821,-814.226536,-9030.512492,-3753.867940
556.131149,74.020594,-8882.471304,-3600.648841
556.131477,592.164754,-8660.409521,-3064.381992
556.131805,1184.329507,-8808.450710,-2834.553343
556.132133,1924.535449,-8956.491898,-2451.505594
556.132461,2294.638420,-8956.491898,-2221.676944
556.132789,1924.535449,-9326.594869,-2221.676944
556.133116,1554.432478,-9770.718434,-2068.457845
556.133444,666.185348,-10214.842000,-2145.067394
556.133772,-370.102971,-10288.862594,-3217.601092
556.134100,-1332.370696,-10436.903782,-3524.039291
556.134428,-1628.453072,-10362.883188,-4290.134789
556.134756,-2516.700203,-9770.718434,-4749.792088
556.135083,-814.226536,-9178.553681,-4673.182538
556.135411,-148.041188,-8142.265362,-4596.572988
556.135739,1332.370696,-7476.080014,-3830.477490
556.136067,2590.720797,-7179.997637,-2987.772442
556.136395,3108.864956,-7402.059420,-2221.676944
556.136723,2368.659014,-8216.285956,-1915.238745
556.137051,592.164754,-8882.471304,-1915.238745
556.137378,-1628.453072,-10066.800811,-2068.457845
556.137706,-3182.885551,-10807.006753,-2451.505594
556.138034,-4071.132681,-11103.089130,-2528.115143
556.138362,-3552.988522,-10436.903782,-1762.019645
556.138690,-1628.453072,-9548.656652,-2374.896044
556.139018,444.123565,-8438.347739,-1915.238745
556.139346,4071.132681,-6661.853478,-459.657299
556.139673,8290.306550,-5181.441594,1455.581446
556.140001,10955.047942,-5181.441594,3370.820191
556.140329,9992.780217,-6587.832884,4749.792088
556.140657,4663.297435,-9918.759623,3983.696590
556.140985,-2146.597232,-13249.686362,2681.334243
556.141313,-8512.368333,-14434.015869,0.000000
556.141640,-11103.089130,-14730.098246,-689.485948
556.141968,-10732.986159,-13101.645173,-1991.848295
556.142296,-8660.409521,-12213.398043,-1762.019645
556.142624,-3182.885551,-8364.327145,-2221.676944
556.142952,-1332.370696,-6513.812290,-459.657299
556.143280,-370.102971,-4737.318029,-2757.943793
556.143608,-1702.473667,-5107.421000,-4060.306139
556.143935,-8068.244768,-6661.853478,-7048.078582
556.144263,-11325.150913,-8734.430116,-8810.098227
556.144591,-15322.262999,-8808.450710,-10495.508323
556.144919,-12139.377449,-8142.265362,-10418.898773
556.145247,-7624.121203,-8290.306550,-8197.221829
556.145575,-444.123565,-6143.709319,-6971.469032
556.145903,2960.823768,-6735.874072,-4519.963438
556.146230,5773.606348,-7698.141797,-4366.744339
556.146558,3923.091493,-9326.594869,-5362.668486
556.146886,1850.514855,-11029.068536,-5822.325785
556.147214,3108.864956,-10807.006753,-6894.859482
556.147542,5181.441594,-10658.965565,-5975.544884
556.147870,10881.027347,-10658.965565,-3140.991542
556.148198,12065.356855,-9770.718434,-2145.067394
556.148525,12287.418637,-9918.759623,-1302.362347
556.148853,13471.748144,-10288.862594,-842.705048
556.149181,11843.295072,-9104.533087,-1838.629195
556.149509,10510.924376,-9030.512492,-3983.696590
556.149837,10881.027347,-11547.212695,-1378.971896
556.150165,8142.265362,-11547.212695,-3370.820191
556.150492,-592.164754,-14804.118840,-4443.353888
556.150820,-7476.080014,-14804.118840,-6588.421283
556.151148,-10436.903782,-11843.295072,-8733.488677
556.151476,-6735.874072,-7550.100608,-7277.907231
556.151804,-666.185348,-4071.132681,-5056.230287
556.152132,2886.803174,-1776.494261,-3064.381992
556.152460,3552.988522,-2072.576638,-1532.190996
556.152787,740.205942,-3256.906145,-1072.533697
556.153115,-2368.659014,-4293.194464,-1378.971896
556.153443,-5329.482782,-6291.750507,-1072.533697
556.153771,-4811.338623,-7550.100608,-459.657299
556.154099,-6365.771101,-8882.471304,153.219100
556.154427,-5847.626942,-9992.780217,2374.896044
556.154755,-4441.235652,-9770.718434,3830.477490
556.155082,-3552.988522,-8438.347739,4673.182538
556.155410,-666.185348,-8290.306550,4060.306139
556.155738,-1702.473667,-9474.636058,2145.067394
556.156066,-4293.194464,-11917.315666,0.000000
556.156394,-6291.750507,-12139.377449,-1149.143247
556.156722,-5329.482782,-10066.800811,-1302.362347
556.157049,-3108.864956,-8068.244768,-1532.190996
556.157377,814.226536,-8660.409521,1685.410096
556.157705,518.144159,-9252.574275,459.657299
556.158033,-2220.617826,-9474.636058,612.876398
556.158361,-3849.070898,-9030.512492,153.219100
556.158689,-4219.173869,-9326.594869,-306.438199
556.159017,-2590.720797,-10658.965565,-459.657299
556.159344,-3478.967927,-11547.212695,-1991.848295
556.159672,-4663.297435,-11991.336260,-2145.067394
556.160000,-2960.823768,-9252.574275,-2757.943793
556.160328,-1924.535449,-7994.224174,-2451.505594
556.160656,444.123565,-5329.482782,-2987.772442
556.160984,1924.535449,-6143.709319,-3294.210641
556.161312,3330.926739,-7920.203579,-4060.306139
556.161639,3256.906145,-7550.100608,-5132.839837
556.161967,5255.462188,-8142.265362,-4136.915689
556.162295,4811.338623,-9104.533087,-3524.039291
556.162623,3775.050304,-11917.315666,-3677.258390
556.162951,2664.741391,-14063.912898,-3830.477490
556.163279,3108.864956,-13989.892304,-3677.258390
556.163607,3034.844362,-13175.665768,-3447.429741
556.163934,2294.638420,-11399.171507,-3140.991542
556.164262,2590.720797,-11029.068536,-2451.505594
556.164590,2886.803174,-10955.047942,-2451.505594
556.164918,2738.761985,-10140.821405,-2221.676944
556.165246,1702.473667,-9622.677246,-2911.162892
556.165573,0.000000,-8586.388927,-3830.477490
556.165901,-1036.288319,-8734.430116,-4060.306139
556.166229,-740.205942,-7698.141797,-4519.963438
556.166557,-518.144159,-6587.832884,-4519.963438
556.166885,666.185348,-6143.709319,-3064.381992
556.167213,1332.370696,-5107.421000,-2298.286494
556.167540,1110.308913,-5107.421000,-1072.533697
556.167868,814.226536,-6957.935855,-229.828649
556.168196,-2146.597232,-8660.409521,-766.095498
556.168524,-2886.803174,-9326.594869,-1225.752797
556.168852,-2516.700203,-9252.574275,-1149.143247
556.169180,-2960.823768,-9548.656652,-229.828649
556.169507,-2368.659014,-8956.491898,0.000000
556.169835,-296.082377,-7772.162391,1302.362347
556.170163,666.185348,-7476.080014,1378.971896
556.170491,-518.144159,-7994.224174,536.266849
556.170819,-2590.720797,-9918.759623,0.000000
556.171146,-4219.173869,-9696.697840,-1455.581446
556.171474,-4663.297435,-9474.636058,-2451.505594
556.171802,-3034.844362,-9918.759623,-1532.190996
556.172130,-1924.535449,-8734.430116,-1762.019645
556.172458,-148.041188,-6957.935855,-612.876398
556.172786,2442.679609,-5699.585753,229.828649
556.173113,2442.679609,-5551.544565,766.095498
556.173441,740.205942,-7328.038826,612.876398
556.173769,-148.041188,-7846.182985,306.438199
556.174097,-962.267725,-8660.409521,229.828649
556.174425,-1258.350101,-9474.636058,612.876398
556.174752,-962.267725,-9770.718434,1455.581446
556.175080,1258.350101,-8512.368333,2145.067394
556.175408,4219.173869,-7624.121203,2757.943793
556.175736,4515.256246,-9178.553681,3217.601092
556.176064,2220.617826,-9770.718434,1838.629195
556.176392,148.041188,-9474.636058,995.924147
556.176719,-1110.308913,-10436.903782,-153.219100
556.177047,-1110.308913,-11399.171507,153.219100
556.177375,-814.226536,-11325.150913,689.485948
556.177703,1332.370696,-10658.965565,1608.800546
556.178031,3404.947333,-10510.924376,2604.724693
556.178358,1036.288319,-10510.924376,2834.553343
556.178686,-2590.720797,-11695.253884,1762.019645
556.179014,-4663.297435,-11251.130318,689.485948
556.179342,-5033.400406,-10955.047942,0.000000
556.179670,-5107.421000,-9770.718434,-229.828649
556.179998,-3849.070898,-8216.285956,612.876398
556.180325,-1110.308913,-7105.977043,1072.533697
556.180653,518.144159,-7550.100608,2068.457845
556.180981,-1628.453072,-8290.306550,1455.581446
556.181309,-3997.112087,-8438.347739,0.000000
556.181637,-4441.235652,-8290.306550,-1762.019645
556.181964,-3627.009116,-8882.471304,-1838.629195
556.182292,-3182.885551,-9178.553681,-1532.190996
556.182620,0.000000,-9252.574275,0.000000
556.182948,3627.009116,-8808.450710,1378.971896
556.183276,4737.318029,-10140.821405,2451.505594
556.183604,2146.597232,-11029.068536,2374.896044
556.183931,-370.102971,-12287.418637,612.876398
556.184259,-1036.288319,-12287.418637,-689.485948
556.184587,-1406.391290,-11991.336260,-919.314598
556.184915,-962.267725,-10510.924376,-1225.752797
556.185243,2146.597232,-9252.574275,306.438199
556.185570,4515.256246,-8142.265362,689.485948
556.185898,4145.153275,-8660.409521,1685.410096
556.186226,1998.556043,-9400.615463,536.266849
556.186554,-296.082377,-9252.574275,-919.314598
556.186882,-1036.288319,-8142.265362,-1455.581446
556.187210,-1406.391290,-8808.450710,-2374.896044
556.187537,-518.144159,-7698.141797,-1455.581446
556.187865,2072.576638,-6661.853478,-536.266849
556.188193,4515.256246,-6439.791695,1378.971896
556.188521,2738.761985,-7550.100608,2145.067394
556.188849,222.061783,-8808.450710,995.924147
556.189176,-1554.432478,-8216.285956,0.000000
556.189504,-1480.411884,-8660.409521,-383.047749
556.189832,-2146.597232,-9178.553681,-536.266849
556.190160,-666.185348,-7846.182985,0.000000
556.190488,1776.494261,-7179.997637,1149.143247
556.190816,2220.617826,-7772.162391,2298.286494
556.191143,370.102971,-9104.533087,2298.286494
556.191471,-2072.576638,-9844.739029,1455.581446
556.191799,-2368.659014,-9178.553681,76.609550
556.192127,-2590.720797,-9770.718434,995.924147
556.192455,-2664.741391,-9622.677246,383.047749
556.192782,-1332.370696,-8364.327145,842.705048
556.193110,962.267725,-7254.018232,2068.457845
556.193438,1850.514855,-7994.224174,2987.772442
556.193766,-1480.411884,-8660.409521,3064.381992
556.194094,-3034.844362,-8956.491898,1378.971896
556.194422,-3627.009116,-8734.430116,766.095498
556.194749,-4145.153275,-8364.327145,383.047749
556.195077,-3775.050304,-7994.224174,612.876398
556.195405,-444.123565,-7105.977043,919.314598
556.195733,1850.514855,-6291.750507,2068.457845
556.196061,2146.597232,-7476.080014,2528.115143
556.196388,0.000000,-8438.347739,1838.629195
556.196716,-1110.308913,-8512.368333,383.047749
556.197044,-814.226536,-9844.739029,-306.438199
556.197372,-1110.308913,-10584.944971,153.219100
556.197700,-1332.370696,-10732.986159,153.219100
556.198028,1776.494261,-10658.965565,1225.752797
556.198355,2812.782580,-9992.780217,2145.067394
556.198683,1776.494261,-10807.006753,1991.848295
556.199011,222.061783,-11843.295072,1149.143247
556.199339,-1406.391290,-11103.089130,-306.438199
556.199667,-1554.432478,-10807.006753,-842.705048
556.199994,-2516.700203,-10510.924376,-1302.362347
556.200322,-1332.370696,-9474.636058,-612.876398
556.200650,888.247130,-8142.265362,459.657299
556.200978,2368.659014,-8808.450710,1302.362347
556.201306,740.205942,-9474.636058,536.266849
556.201634,-888.247130,-9770.718434,-153.219100
556.201961,-1628.453072,-9918.759623,-995.924147
556.202289,-1332.370696,-10140.821405,-1072.533697
556.202617,-1332.370696,-10510.924376,-766.095498
556.202945,666.185348,-9548.656652,383.047749
556.203273,3627.009116,-8808.450710,1455.581446
556.203600,3775.050304,-9770.718434,2451.505594
556.203928,1332.370696,-10658.965565,1532.190996
556.204256,-518.144159,-10955.047942,536.266849
556.204584,-1258.350101,-10881.027347,-306.438199
556.204912,-2368.659014,-11547.212695,-612.876398
556.205240,-2442.679609,-10584.944971,-689.485948
556.205567,0.000000,-9474.636058,306.438199
556.205895,2664.741391,-8512.368333,1838.629195
556.206223,2664.741391,-8660.409521,1532.190996
556.206551,1110.308913,-8808.450710,1378.971896
556.206879,-370.102971,-8734.430116,76.609550
556.207206,-2146.597232,-9326.594869,-459.657299
556.207534,-3701.029710,-9696.697840,-1072.533697
556.207862,-3256.906145,-8586.388927,-153.219100
556.208190,-444.123565,-7254.018232,919.314598
556.208518,1850.514855,-7179.997637,2374.896044
556.208846,814.226536,-8142.265362,2374.896044
556.209173,-814.226536,-8290.306550,2145.067394
556.209501,-1776.494261,-7994.224174,459.657299
556.209829,-2738.761985,-8586.388927,-153.219100
556.210157,-4293.194464,-8660.409521,-689.485948
556.210485,-3034.844362,-8068.244768,-919.314598
556.210812,814.226536,-6513.812290,383.047749
556.211140,2960.823768,-6513.812290,1225.752797
556.211468,2368.659014,-7550.100608,1532.190996
556.211796,1184.329507,-8364.327145,1072.533697
556.212124,74.020594,-9326.594869,153.219100
556.212452,-962.267725,-10140.821405,383.047749
556.212779,-1332.370696,-9474.636058,536.266849
556.213107,962.267725,-9030.512492,1072.533697
556.213435,3552.988522,-8512.368333,2528.115143
556.213763,3627.009116,-8882.471304,3524.039291
556.214091,1554.432478,-9474.636058,3217.601092
556.214418,-370.102971,-8586.388927,2068.457845
556.214746,-1110.308913,-8290.306550,459.657299
556.215074,-3627.009116,-9326.594869,-459.657299
556.215402,-4219.173869,-8216.285956,-1455.581446
556.215730,-1480.411884,-6957.935855,-842.705048
556.216058,814.226536,-5921.647536,76.609550
556.216385,1406.391290,-7254.018232,612.876398
556.216713,-740.205942,-7920.203579,229.828649
556.217041,-814.226536,-7846.182985,-306.438199
556.217369,-2220.617826,-9030.512492,-842.705048
556.217697,-3034.844362,-10436.903782,-1149.143247
556.218024,-3404.947333,-10288.862594,-229.828649
556.218352,-148.041188,-9326.594869,689.485948
556.218680,1776.494261,-9252.574275,2068.457845
556.219008,518.144159,-10881.027347,2221.676944
556.219336,-1110.308913,-10881.027347,1302.362347
556.219664,-888.247130,-10436.903782,689.485948
556.219991,-2368.659014,-10436.903782,-383.047749
556.220319,-3182.885551,-10362.883188,-1072.533697
556.220647,-1036.288319,-9178.553681,-1455.581446
556.220975,2590.720797,-8068.244768,0.000000
556.221303,4589.276840,-7254.018232,1455.581446
556.221630,3552.988522,-9030.512492,1532.190996
556.221958,2220.617826,-9474.636058,1378.971896
556.222286,1110.308913,-10362.883188,612.876398
556.222614,-296.082377,-11843.295072,689.485948
556.222942,-1554.432478,-10955.047942,306.438199
556.223270,222.061783,-10732.986159,1072.533697
556.223597,2368.659014,-10436.903782,2298.286494
556.223925,1628.453072,-11029.068536,3140.991542
556.224253,-370.102971,-11621.233289,2451.505594
556.224581,-1554.432478,-10658.965565,1608.800546
556.224909,-2072.576638,-10658.965565,-459.657299
556.225237,-3775.050304,-10881.027347,-995.924147
556.225564,-3997.112087,-9622.677246,-1838.629195
556.225892,-1554.432478,-7698.141797,-1455.581446
556.226220,1406.391290,-6957.935855,-536.266849
556.226548,1924.535449,-7179.997637,229.828649
556.226876,666.185348,-7624.121203,-153.219100
556.227203,296.082377,-7179.997637,-229.828649
556.227531,-444.123565,-8586.388927,-153.219100
556.227859,-2220.617826,-9548.656652,76.609550
556.228187,-1480.411884,-8660.409521,995.924147
556.228515,592.164754,-8068.244768,2298.286494
556.228843,2368.659014,-8512.368333,3370.820191
556.229170,592.164754,-9252.574275,3524.039291
556.229498,-888.247130,-9252.574275,2911.162892
556.229826,-1702.473667,-8068.244768,1685.410096
556.230154,-1924.535449,-8734.430116,842.705048
556.230482,-3108.864956,-8512.368333,0.000000
556.230809,-1628.453072,-7254.018232,-459.657299
556.231137,1110.308913,-6069.688724,306.438199
556.231465,2590.720797,-6143.709319,1532.190996
556.231793,666.185348,-6883.915261,306.438199
556.232121,-962.267725,-7476.080014,306.438199
556.232449,-740.205942,-7846.182985,-153.219100
556.232776,-2442.679609,-8660.409521,-306.438199
556.233104,-2738.761985,-8808.450710,0.000000
556.233432,-1036.288319,-8290.306550,995.924147
556.233760,0.000000,-8068.244768,2145.067394
556.234088,-148.041188,-8660.409521,2528.115143
556.234415,-1924.535449,-8882.471304,1991.848295
556.234743,-2368.659014,-8956.491898,612.876398
556.235071,-2072.576638,-8364.327145,0.000000
556.235399,-2146.597232,-9104.533087,-612.876398
556.235727,-1998.556043,-7846.182985,-1378.971896
556.236055,592.164754,-7550.100608,-1072.533697
556.236382,2590.720797,-7920.203579,0.000000
556.236710,1850.514855,-8882.471304,0.000000
556.237038,740.205942,-9992.780217,-1302.362347
556.237366,518.144159,-10288.862594,-1378.971896
556.237694,370.102971,-11029.068536,-1532.190996
556.238021,-148.041188,-11843.295072,-1072.533697
556.238349,1332.370696,-11325.150913,153.219100
556.238677,3775.050304,-10362.883188,766.095498
556.239005,4367.215058,-11177.109724,2911.162892
556.239333,1850.514855,-12065.356855,2604.724693
556.239661,148.041188,-11547.212695,1532.190996
556.239988,-296.082377,-11473.192101,459.657299
556.240316,-2146.597232,-11695.253884,0.000000
556.240644,-2516.700203,-11843.295072,-459.657299
556.240972,-1184.329507,-9844.739029,-383.047749
556.241300,1332.370696,-8586.388927,459.657299
556.241627,2220.617826,-9104.533087,842.705048
556.241955,814.226536,-9474.636058,229.828649
556.242283,-222.061783,-9400.615463,-229.828649
556.242611,-740.205942,-9326.594869,-536.266849
556.242939,-2516.700203,-10436.903782,-689.485948
556.243267,-2738.761985,-10362.883188,0.000000
556.243594,0.000000,-8734.430116,1685.410096
556.243922,2220.617826,-8512.368333,2451.505594
556.244250,1702.473667,-9104.533087,3907.087040
556.244578,-296.082377,-9474.636058,3294.210641
556.244906,-1702.473667,-9622.677246,2298.286494
556.245233,-2516.700203,-9474.636058,1685.410096
556.245561,-4293.194464,-9992.780217,766.095498
556.245889,-3404.947333,-8956.491898,459.657299
556.246217,-962.267725,-7402.059420,995.924147
556.246545,740.205942,-7328.038826,1608.800546
556.246873,74.020594,-7846.182985,1072.533697
556.247200,-888.247130,-7698.141797,612.876398
556.247528,-1184.329507,-7254.018232,-306.438199
556.247856,-1184.329507,-7846.182985,-383.047749
556.248184,-2220.617826,-7994.224174,-459.657299
556.248512,-962.267725,-7476.080014,612.876398
556.248839,888.247130,-6661.853478,1455.581446
556.249167,2072.576638,-7328.038826,2987.772442
556.249495,74.020594,-8290.306550,2451.505594
556.249823,-148.041188,-8956.491898,2145.067394
556.250151,-1184.329507,-8660.409521,919.314598
556.250479,-1850.514855,-9104.533087,0.000000
556.250806,-2516.700203,-8808.450710,0.000000
556.251134,-666.185348,-7772.162391,-306.438199
556.251462,1998.556043,-7105.977043,0.000000
556.251790,2072.576638,-7698.141797,153.219100
556.252118,814.226536,-8290.306550,-459.657299
556.252445,370.102971,-7846.182985,-1302.362347
556.252773,296.082377,-8882.471304,-1149.143247
556.253101,-370.102971,-9400.615463,-1532.190996
556.253429,0.000000,-9252.574275,-766.095498
556.253757,2072.576638,-8660.409521,459.657299
556.254085,3552.988522,-8586.388927,2374.896044
556.254412,2664.741391,-10140.821405,2451.505594
556.254740,148.041188,-10510.924376,1838.629195
556.255068,-592.164754,-10436.903782,1225.752797
556.255396,-1924.535449,-10955.047942,689.485948
556.255724,-3923.091493,-10955.047942,0.000000
556.256051,-2442.679609,-9918.759623,-766.095498
556.256379,-370.102971,-8290.306550,-383.047749
556.256707,1628.453072,-7920.203579,0.000000
556.257035,0.000000,-8808.450710,-536.266849
556.257363,-296.082377,-8364.327145,-1149.143247
556.257691,-666.185348,-8660.409521,-1762.019645
556.258018,-1554.432478,-9326.594869,-1608.800546
556.258346,-2294.638420,-9918.759623,-1149.143247
556.258674,-962.267725,-9770.718434,0.000000
556.259002,1480.411884,-9844.739029,1762.019645
556.259330,1628.453072,-9770.718434,2528.115143
556.259657,-148.041188,-10955.047942,2604.724693
556.259985,-1110.308913,-10732.986159,1762.019645
556.260313,-1258.350101,-10584.944971,1149.143247
556.260641,-2294.638420,-10955.047942,536.266849
556.260969,-2442.679609,-9400.615463,229.828649
556.261297,-296.082377,-8438.347739,306.438199
556.261624,2368.659014,-7476.080014,1149.143247
556.261952,1924.535449,-8142.265362,1149.143247
556.262280,444.123565,-8216.285956,689.485948
556.262608,-370.102971,-7920.203579,-536.266849
556.262936,-444.123565,-9770.718434,-689.485948
556.263263,-2368.659014,-10066.800811,-766.095498
556.263591,-2072.576638,-9992.780217,-536.266849
556.263919,666.185348,-8808.450710,919.314598
556.264246,2664.741391,-8660.409521,1838.629195
556.264574,2516.700203,-9770.718434,2987.772442
556.264902,888.247130,-9474.636058,2757.943793
556.265229,0.000000,-8734.430116,2221.676944
556.265557,-1850.514855,-9696.697840,1302.362347
556.265885,-3849.070898,-10066.800811,536.266849
556.266212,-3108.864956,-8660.409521,536.266849
556.266540,-666.185348,-7254.018232,689.485948
556.266868,1036.288319,-7920.203579,1378.971896
556.267195,0.000000,-8438.347739,919.314598
556.267523,-296.082377,-8216.285956,229.828649
556.267851,0.000000,-8068.244768,-536.266849
556.268178,-222.061783,-8364.327145,-459.657299
556.268506,-1776.494261,-8956.491898,-995.924147
556.268834,148.041188,-8586.388927,229.828649
556.269161,1850.514855,-8068.244768,1608.800546
556.269489,2516.700203,-8660.409521,2451.505594
556.269817,444.123565,-9474.636058,3064.381992
556.270144,-666.185348,-9474.636058,1991.848295
556.270472,-1554.432478,-9918.759623,1302.362347
556.270800,-3182.885551,-10140.821405,459.657299
556.271127,-4071.132681,-9548.656652,0.000000
556.271455,-962.267725,-8068.244768,76.609550
556.271783,1036.288319,-7105.977043,229.828649
556.272110,518.144159,-7994.224174,0.000000
556.272438,-740.205942,-8734.430116,-383.047749
556.272766,-1628.453072,-8512.368333,-1532.190996
556.273093,-1924.535449,-8586.388927,-2298.286494
556.273421,-2516.700203,-9474.636058,-2528.115143
556.273749,-1036.288319,-8808.450710,-1991.848295
556.274076,1258.350101,-8364.327145,-383.047749
556.274404,3256.906145,-8512.368333,1225.752797
556.274732,1184.329507,-9030.512492,1149.143247
556.275059,962.267725,-10066.800811,1225.752797
556.275387,0.000000,-9252.574275,536.266849
556.275715,-666.185348,-10362.883188,383.047749
556.276042,-1332.370696,-10658.965565,-153.219100
556.276370,148.041188,-9622.677246,383.047749
556.276698,2442.679609,-8734.430116,995.924147
556.277025,3256.906145,-8956.491898,1302.362347
556.277353,2146.597232,-9770.718434,689.485948
556.277681,666.185348,-10362.883188,-459.657299
556.278008,0.000000,-9844.739029,-612.876398
556.278336,-518.144159,-10362.883188,-1225.752797
556.278664,-740.205942,-9622.677246,-1455.581446
556.278991,1554.432478,-9030.512492,-153.219100
556.279319,3627.009116,-8512.368333,1455.581446
556.279647,3256.906145,-9030.512492,2451.505594
556.279974,1184.329507,-9622.677246,2911.162892
556.280302,-370.102971,-9844.739029,2451.505594
556.280630,-2590.720797,-10955.047942,1685.410096
556.280957,-4441.235652,-11991.336260,1149.143247
556.281285,-4811.338623,-10510.924376,842.705048
556.281613,-2072.576638,-8660.409521,1838.629195
556.281940,0.000000,-7920.203579,2298.286494
556.282268,-740.205942,-8586.388927,2221.676944
556.282596,-1702.473667,-8660.409521,1072.533697
556.282923,-2072.576638,-7772.162391,0.000000
556.283251,-2516.700203,-7550.100608,-1149.143247
556.283579,-3256.906145,-7920.203579,-766.095498
556.283906,-2516.700203,-7550.100608,-612.876398
556.284234,1184.329507,-7179.997637,1149.143247
556.284562,2220.617826,-7254.018232,2451.505594
556.284889,1332.370696,-8364.327145,2911.162892
556.285217,-444.123565,-8734.430116,2374.896044
556.285545,-1998.556043,-9770.718434,1838.629195
556.285872,-3404.947333,-10807.006753,766.095498
556.286200,-4367.215058,-10658.965565,459.657299
556.286528,-1924.535449,-8956.491898,842.705048
556.286855,1554.432478,-8216.285956,1455.581446
556.287183,3034.844362,-7846.182985,1838.629195
556.287511,2146.597232,-7624.121203,1149.143247
556.287838,1776.494261,-7624.121203,229.828649
556.288166,666.185348,-7624.121203,-995.924147
556.288494,-1184.329507,-9030.512492,-1762.019645
556.288821,-1924.535449,-9252.574275,-1762.019645
556.289149,518.144159,-8882.471304,-612.876398
556.289477,3182.885551,-8216.285956,1072.533697
556.289804,3997.112087,-8882.471304,2221.676944
556.290132,1998.556043,-9696.697840,1838.629195
556.290460,814.226536,-10510.924376,2298.286494
556.290787,-1110.308913,-10881.027347,842.705048
556.291115,-2960.823768,-10955.047942,0.000000
556.291443,-2886.803174,-10362.883188,-383.047749
556.291770,-296.082377,-8956.491898,459.657299
556.292098,1554.432478,-8068.244768,1225.752797
556.292426,1406.391290,-8216.285956,459.657299
556.292753,222.061783,-8142.265362,0.000000
556.293081,-222.061783,-7994.224174,-1149.143247
556.293409,-1480.411884,-9326.594869,-1991.848295
556.293736,-3627.009116,-9918.759623,-2911.162892
556.294064,-2812.782580,-9104.533087,-2068.457845
556.294392,0.000000,-8438.347739,-536.266849
556.294719,1776.494261,-9104.533087,1532.190996
556.295047,1406.391290,-9844.739029,1991.848295
556.295375,592.164754,-10288.862594,2298.286494
556.295702,-444.123565,-10140.821405,1685.410096
556.296030,-2738.761985,-11029.068536,383.047749
556.296358,-3627.009116,-11325.150913,0.000000
556.296685,-1850.514855,-9770.718434,383.047749
556.297013,592.164754,-8660.409521,995.924147
556.297341,1554.432478,-8808.450710,1532.190996
556.297668,518.144159,-8882.471304,689.485948
556.297996,296.082377,-8364.327145,383.047749
556.298324,666.185348,-8808.450710,-536.266849
556.298651,-740.205942,-9770.718434,-919.314598
556.298979,-1110.308913,-9030.512492,-995.924147
556.299307,1184.329507,-9030.512492,76.609550
556.299634,2664.741391,-8364.327145,1302.362347
556.299962,2146.597232,-9548.656652,2374.896044
556.300290,518.144159,-9770.718434,1838.629195
556.300617,-592.164754,-9770.718434,1455.581446
556.300945,-1554.432478,-10732.986159,1072.533697
556.301273,-2960.823768,-10214.842000,612.876398
556.301600,-1998.556043,-8956.491898,536.266849
556.301928,888.247130,-7476.080014,1378.971896
556.302256,1776.494261,-7846.182985,2068.457845
556.302583,814.226536,-8364.327145,2145.067394
556.302911,-296.082377,-8364.327145,766.095498
556.303239,-814.226536,-7994.224174,0.000000
556.303566,-1406.391290,-9178.553681,-536.266849
556.303894,-1998.556043,-9030.512492,-612.876398
556.304222,-962.267725,-8586.388927,-229.828649
556.304549,1184.329507,-8438.347739,1532.190996
556.304877,1628.453072,-8512.368333,2451.505594
556.305205,222.061783,-9252.574275,2068.457845
556.305532,-888.247130,-9252.574275,1532.190996
556.305860,-1776.494261,-9548.656652,1225.752797
556.306188,-2812.782580,-10066.800811,459.657299
556.306515,-3034.844362,-8808.450710,383.047749
556.306843,-740.205942,-7254.018232,1072.533697
556.307171,1332.370696,-7031.956449,2068.457845
556.307498,1258.350101,-8364.327145,2298.286494
556.307826,74.020594,-8290.306550,842.705048
556.308154,-1184.329507,-8290.306550,306.438199
556.308481,-1628.453072,-8734.430116,-229.828649
556.308809,-1924.535449,-10214.842000,-229.828649
556.309137,-2220.617826,-9622.677246,-383.047749
556.309464,666.185348,-8364.327145,612.876398
556.309792,2220.617826,-8438.347739,1762.019645
556.310120,1184.329507,-8734.430116,1378.971896
556.310447,-592.164754,-9178.553681,306.438199
556.310775,-1998.556043,-9326.594869,0.000000
556.311103,-2442.679609,-9918.759623,-842.705048
556.311430,-2368.659014,-9400.615463,-995.924147
556.311758,-740.205942,-8290.306550,-383.047749
556.312086,1554.432478,-7772.162391,842.705048
556.312413,2294.638420,-8586.388927,1149.143247
556.312741,814.226536,-8364.327145,1225.752797
556.313069,-296.082377,-9030.512492,153.219100
556.313396,-222.061783,-9548.656652,-689.485948
556.313724,-1998.556043,-10955.047942,-1685.410096
556.314052,-2590.720797,-10732.986159,-1608.800546
556.314379,-592.164754,-9918.759623,-229.828649
556.314707,2368.659014,-9178.553681,459.657299
556.315035,2886.803174,-9474.636058,766.095498
556.315362,1332.370696,-10066.800811,612.876398
556.315690,370.102971,-10066.800811,76.609550
556.316018,-592.164754,-9844.739029,-919.314598
556.316345,-1702.473667,-11325.150913,-919.314598
556.316673,-1702.473667,-10658.965565,-919.314598
556.317001,518.144159,-9178.553681,0.000000
556.317328,2590.720797,-9030.512492,919.314598
556.317656,2368.659014,-9992.780217,1455.581446
556.317984,1628.453072,-9696.697840,1455.581446
556.318311,888.247130,-9474.636058,919.314598
556.318639,-518.144159,-9918.759623,0.000000
556.318967,-1924.535449,-11029.068536,-306.438199
556.319294,-1702.473667,-10214.842000,0.000000
556.319622,592.164754,-8290.306550,919.314598
556.319950,2738.761985,-7772.162391,2298.286494
556.320277,1998.556043,-8956.491898,2604.724693
556.320605,-222.061783,-9474.636058,2221.676944
556.320933,-1480.411884,-9474.636058,1838.629195
556.321260,-2812.782580,-9622.677246,842.705048
556.321588,-3775.050304,-9770.718434,229.828649
556.321916,-3627.009116,-9252.574275,612.876398
556.322243,-1850.514855,-8512.368333,1378.971896
556.322571,0.000000,-8512.368333,2374.896044
556.322899,-222.061783,-8290.306550,2604.724693
556.323226,-666.185348,-8142.265362,1991.848295
556.323554,-1776.494261,-8290.306550,536.266849
556.323882,-2664.741391,-9474.636058,0.000000
556.324209,-3404.947333,-8882.471304,-536.266849
556.324537,-1998.556043,-7624.121203,0.000000
556.324865,370.102971,-6883.915261,1532.190996
556.325192,1480.411884,-8216.285956,1915.238745
556.325520,0.000000,-8512.368333,1608.800546
556.325848,-518.144159,-8734.430116,1302.362347
556.326175,-1554.432478,-8660.409521,536.266849
556.326503,-2220.617826,-9474.636058,0.000000
556.326831,-2886.803174,-8660.409521,0.000000
556.327158,0.000000,-7772.162391,0.000000
556.327486,2294.638420,-7550.100608,612.876398
556.327814,2960.823768,-7476.080014,1455.581446
556.328141,2220.617826,-8142.265362,995.924147
556.328469,1258.350101,-7772.162391,153.219100
556.328797,1036.288319,-8512.368333,0.000000
556.329125,-592.164754,-9104.533087,-612.876398
556.329452,222.061783,-8808.450710,0.000000
556.329780,1998.556043,-8216.285956,1149.143247
556.330108,2886.803174,-8734.430116,2068.457845
556.330435,1702.473667,-9178.553681,1685.410096
556.330763,370.102971,-9548.656652,1149.143247
556.331091,-888.247130,-9548.656652,153.219100
556.331418,-1332.370696,-10140.821405,0.000000
556.331746,-3182.885551,-9844.739029,-689.485948
556.332074,-1776.494261,-8660.409521,-536.266849
556.332401,0.000000,-7772.162391,0.000000
556.332729,1332.370696,-7698.141797,383.047749
556.333057,-222.061783,-8290.306550,0.000000
556.333384,-444.123565,-8068.244768,0.000000
556.333712,-1184.329507,-7994.224174,-1302.362347
556.334040,-1554.432478,-9326.594869,-306.438199
556.334367,-2146.597232,-8882.471304,-842.705048
556.334695,0.000000,-9030.512492,383.047749
556.335023,1628.453072,-9400.615463,842.705048
556.335350,1332.370696,-9696.697840,2221.676944
556.335678,-962.267725,-11177.109724,1225.752797
556.336006,-1776.494261,-11251.130318,612.876398
556.336333,-2442.679609,-11473.192101,0.000000
556.336661,-1998.556043,-11325.150913,0.000000
556.336989,-1924.535449,-10288.862594,-229.828649
556.337316,592.164754,-9252.574275,0.000000
556.337644,1776.494261,-8660.409521,383.047749
556.337972,888.247130,-8882.471304,153.219100
556.338299,-148.041188,-8882.471304,-536.266849
556.338627,-814.226536,-9178.553681,-1072.533697
556.338955,-814.226536,-9622.677246,-1225.752797
556.339282,-2072.576638,-10214.842000,-995.924147
556.339610,-296.082377,-9474.636058,306.438199
556.339938,2220.617826,-8882.471304,1608.800546
556.340265,2664.741391,-9178.553681,3140.991542
556.340593,1332.370696,-10955.047942,2987.772442
556.340921,-740.205942,-10658.965565,1762.019645
556.341248,-1924.535449,-10140.821405,536.266849
556.341576,-2368.659014,-10732.986159,306.438199
556.341904,-2220.617826,-9770.718434,-153.219100
556.342231,-592.164754,-8734.430116,306.438199
556.342559,2664.741391,-7254.018232,1378.971896
556.342887,3923.091493,-7698.141797,1915.238745
556.343214,2368.659014,-8142.265362,1838.629195
556.343542,1776.494261,-7994.224174,842.705048
556.343870,-148.041188,-8808.450710,842.705048
556.344197,-1850.514855,-10955.047942,766.095498
556.344525,-3330.926739,-10658.965565,689.485948
556.344853,-1258.350101,-9622.677246,1838.629195
556.345180,1184.329507,-8734.430116,3064.381992
556.345508,1554.432478,-8438.347739,4519.963438
556.345836,0.000000,-9474.636058,3370.820191
556.346163,-1998.556043,-8660.409521,1915.238745
556.346491,-3256.906145,-8882.471304,842.705048
556.346819,-4885.359217,-8734.430116,-766.095498
556.347146,-4885.359217,-7624.121203,-1302.362347
556.347474,-2368.659014,-6809.894666,-612.876398
556.347802,-444.123565,-7031.956449,229.828649
556.348129,-296.082377,-7254.018232,536.266849
556.348457,-296.082377,-7550.100608,459.657299
556.348785,-518.144159,-7476.080014,0.000000
556.349112,-1036.288319,-8956.491898,-842.705048
556.349440,-2368.659014,-9474.636058,-1149.143247
556.349768,-1110.308913,-8660.409521,-612.876398
556.350095,1776.494261,-7846.182985,919.314598
556.350423,2664.741391,-8808.450710,2298.286494
556.350751,1702.473667,-9770.718434,2604.724693
556.351078,666.185348,-10140.821405,1378.971896
556.351406,74.020594,-9696.697840,612.876398
556.351734,-888.247130,-9844.739029,-612.876398
556.352061,-1480.411884,-9474.636058,-1378.971896
556.352389,518.144159,-7698.141797,-612.876398
556.352717,2516.700203,-7105.977043,-612.876398
556.353044,3182.885551,-7550.100608,0.000000
556.353372,2590.720797,-7846.182985,-383.047749
556.353700,1554.432478,-7920.203579,-612.876398
556.354027,888.247130,-8290.306550,0.000000
556.354355,-592.164754,-10288.862594,-689.485948
556.354683,-1184.329507,-9918.759623,0.000000
556.355010,666.185348,-9770.718434,1302.362347
556.355338,1924.535449,-9696.697840,2451.505594
556.355666,1480.411884,-10510.924376,2987.772442
556.355993,-888.247130,-10955.047942,1838.629195
556.356321,-2146.597232,-10807.006753,1225.752797
556.356649,-2812.782580,-10584.944971,0.000000
556.356976,-3923.091493,-10140.821405,-766.095498
556.357304,-2738.761985,-8956.491898,-919.314598
556.357632,-592.164754,-7846.182985,0.000000
556.357959,1332.370696,-7920.203579,229.828649
556.358287,814.226536,-8438.347739,383.047749
556.358615,-222.061783,-8956.491898,-229.828649
556.358942,-1332.370696,-9400.615463,0.000000
556.359270,-2368.659014,-10584.944971,0.000000
556.359598,-3182.885551,-11769.274478,0.000000
556.359925,-1258.350101,-10214.842000,1072.533697
556.360253,1184.329507,-9178.553681,2987.772442
556.360581,2146.597232,-9326.594869,3447.429741
556.360908,1036.288319,-9548.656652,3370.820191
556.361236,-518.144159,-9252.574275,2145.067394
556.361564,-1258.350101,-9400.615463,919.314598
556.361891,-2516.700203,-9844.739029,0.000000
556.362219,-2886.803174,-9400.615463,-766.095498
556.362547,-518.144159,-7846.182985,76.609550
556.362874,2146.597232,-7105.977043,229.828649
556.363202,2664.741391,-7254.018232,842.705048
556.363530,1776.494261,-8142.265362,842.705048
556.363857,1480.411884,-8660.409521,689.485948
556.364185,0.000000,-9474.636058,76.609550
556.364513,-1628.453072,-10658.965565,0.000000
556.364840,-2294.638420,-9992.780217,-229.828649
556.365168,0.000000,-9696.697840,1455.581446
556.365496,1998.556043,-9104.533087,2757.943793
556.365823,1332.370696,-9178.553681,3064.381992
556.366151,74.020594,-8808.450710,2987.772442
556.366479,-296.082377,-8734.430116,1991.848295
556.366806,-2738.761985,-9030.512492,153.219100
556.367134,-3478.967927,-9030.512492,-536.266849
556.367462,-2812.782580,-7328.038826,-1302.362347
556.367789,0.000000,-6661.853478,153.219100
556.368117,1332.370696,-7031.956449,153.219100
556.368445,962.267725,-7402.059420,536.266849
556.368772,370.102971,-7402.059420,0.000000
556.369100,0.000000,-7476.080014,-306.438199
556.369428,-1480.411884,-9178.553681,-766.095498
556.369755,-2738.761985,-10362.883188,-689.485948
556.370083,-1628.453072,-9474.636058,0.000000
556.370411,1480.411884,-8808.450710,1762.019645
556.370738,2812.782580,-9252.574275,2987.772442
556.371066,1554.432478,-9844.739029,2834.553343
556.371394,1332.370696,-9474.636058,2451.505594
556.371721,0.000000,-9622.677246,1302.362347
556.372049,-1924.535449,-10510.924376,229.828649
556.372377,-2960.823768,-10066.800811,-995.924147
556.372704,-1702.473667,-8956.491898,-919.314598
556.373032,222.061783,-7920.203579,-383.047749
556.373360,740.205942,-8808.450710,76.609550
556.373687,148.041188,-8734.430116,-536.266849
556.374015,888.247130,-8660.409521,-919.314598
556.374343,444.123565,-9030.512492,-1225.752797
556.374670,0.000000,-9474.636058,-1608.800546
556.374998,-444.123565,-9030.512492,-306.438199
556.375326,1702.473667,-9326.594869,536.266849
556.375654,1924.535449,-9548.656652,1838.629195
556.375981,962.267725,-10066.800811,2145.067394
556.376309,-370.102971,-10584.944971,1915.238745
556.376637,0.000000,-10362.883188,1302.362347
556.376964,-1776.494261,-10881.027347,766.095498
556.377292,-2664.741391,-11325.150913,153.219100
556.377620,-1850.514855,-9548.656652,0.000000
556.377947,370.102971,-8068.244768,383.047749
556.378275,2072.576638,-8290.306550,383.047749
556.378603,518.144159,-9104.533087,0.000000
556.378930,0.000000,-9326.594869,-229.828649
556.379258,-518.144159,-8956.491898,-306.438199
556.379586,-1628.453072,-9696.697840,-306.438199
556.379913,-1924.535449,-9622.677246,459.657299
556.380241,0.000000,-9474.636058,2068.457845
556.380569,1036.288319,-8956.491898,2221.676944
556.380896,888.247130,-9696.697840,3064.381992
556.381224,-592.164754,-9696.697840,2834.553343
556.381552,-370.102971,-9474.636058,2604.724693
556.381879,-1702.473667,-9326.594869,1838.629195
556.382207,-2442.679609,-9474.636058,1378.971896
556.382535,-3182.885551,-8882.471304,383.047749
556.382862,-962.267725,-7550.100608,459.657299
556.383190,148.041188,-6809.894666,612.876398
556.383518,592.164754,-6809.894666,919.314598
556.383845,0.000000,-7105.977043,-229.828649
556.384173,0.000000,-7920.203579,-689.485948
556.384501,-444.123565,-8660.409521,-842.705048
556.384828,-740.205942,-9104.533087,0.000000
556.385156,296.082377,-8956.491898,919.314598
556.385484,2812.782580,-8956.491898,2145.067394
556.385811,2368.659014,-9696.697840,2911.162892
556.386139,370.102971,-10288.862594,2451.505594
556.386467,-888.247130,-9992.780217,2068.457845
556.386794,-1184.329507,-8882.471304,1302.362347
556.387122,-1850.514855,-9104.533087,153.219100
556.387450,-2738.761985,-9992.780217,-306.438199
556.387777,-1332.370696,-8586.388927,-306.438199
556.388105,740.205942,-7105.977043,0.000000
556.388433,1554.432478,-7105.977043,689.485948
556.388760,296.082377,-7179.997637,-383.047749
556.389088,-444.123565,-8142.265362,-1072.533697
556.389416,-1998.556043,-8808.450710,-1991.848295
556.389743,-2368.659014,-9918.759623,-1915.238745
556.390071,-2738.761985,-9400.615463,-1762.019645
556.390399,-370.102971,-8438.347739,153.219100
556.390726,2294.638420,-8660.409521,1302.362347
556.391054,2664.741391,-9178.553681,2068.457845
556.391382,1258.350101,-9474.636058,1838.629195
556.391709,0.000000,-9474.636058,1302.362347
556.392037,-1184.329507,-10362.883188,536.266849
556.392365,-2516.700203,-10732.986159,-229.828649
556.392692,-2442.679609,-9918.759623,-689.485948
556.393020,222.061783,-9178.553681,-306.438199
556.393348,2294.638420,-8364.327145,459.657299
556.393675,1998.556043,-8586.388927,766.095498
556.394003,1850.514855,-9030.512492,229.828649
556.394331,444.123565,-9474.636058,-612.876398
556.394658,-296.082377,-10510.924376,-995.924147
556.394986,-1628.453072,-11473.192101,-1149.143247
556.395314,-740.205942,-10066.800811,-995.924147
556.395641,1850.514855,-9548.656652,1302.362347
556.395969,2442.679609,-9622.677246,2451.505594
556.396297,2072.576638,-9992.780217,3140.991542
556.396624,814.226536,-10140.821405,2987.772442
556.396952,-666.185348,-10140.821405,2298.286494
556.397280,-2812.782580,-11029.068536,919.314598
556.397607,-4293.194464,-10881.027347,229.828649
556.397935,-2812.782580,-9548.656652,306.438199
556.398263,222.061783,-9178.553681,842.705048
556.398591,1258.350101,-9326.594869,1302.362347
556.398918,222.061783,-9326.594869,1532.190996
556.399246,0.000000,-9326.594869,536.266849
556.399574,-1184.329507,-9622.677246,-76.609550
556.399901,-2664.741391,-10066.800811,-1225.752797
556.400229,-2812.782580,-9844.739029,-1378.971896
556.400557,-444.123565,-9252.574275,229.828649
556.400884,1480.411884,-8068.244768,1532.190996
556.401212,1998.556043,-8660.409521,2681.334243
556.401540,592.164754,-9252.574275,2604.724693
556.401867,0.000000,-9252.574275,2451.505594
556.402195,-1480.411884,-9770.718434,2068.457845
556.402523,-2960.823768,-10066.800811,689.485948
556.402850,-3404.947333,-9400.615463,153.219100
556.403178,-592.164754,-8068.244768,766.095498
556.403506,1184.329507,-7698.141797,1149.143247
556.403833,1480.411884,-7402.059420,842.705048
556.404161,1036.288319,-7328.038826,229.828649
556.404489,1406.391290,-7031.956449,-842.705048
556.404816,0.000000,-7772.162391,-1072.533697
556.405144,-1184.329507,-8734.430116,-1302.362347
556.405472,-592.164754,-7994.224174,-1149.143247
556.405799,1850.514855,-7772.162391,383.047749
556.406127,2960.823768,-7772.162391,1532.190996
556.406455,1332.370696,-8734.430116,2068.457845
556.406782,444.123565,-9178.553681,2145.067394
556.407110,-740.205942,-8734.430116,1455.581446
556.407438,-1850.514855,-9622.677246,612.876398
556.407765,-2220.617826,-9178.553681,153.219100
556.408093,-1258.350101,-8290.306550,536.266849
556.408421,1184.329507,-6735.874072,995.924147
556.408748,1258.350101,-7179.997637,1149.143247
556.409076,0.000000,-7772.162391,153.219100
556.409404,0.000000,-6957.935855,229.828649
556.409731,-888.247130,-7402.059420,-1225.752797
556.410059,-1998.556043,-8290.306550,-1608.800546
556.410387,-2220.617826,-8882.471304,-1225.752797
556.410714,-222.061783,-8808.450710,0.000000
556.411042,1406.391290,-8882.471304,1608.800546
556.411370,888.247130,-9030.512492,2298.286494
556.411697,-592.164754,-9696.697840,2145.067394
556.412025,-1850.514855,-10584.944971,1532.190996
556.412353,-2738.761985,-10807.006753,919.314598
556.412680,-3775.050304,-10584.944971,0.000000
556.413008,-2590.720797,-8882.471304,0.000000
556.413336,0.000000,-8512.368333,612.876398
556.413663,1258.350101,-8290.306550,995.924147
556.413991,1036.288319,-8734.430116,689.485948
556.414319,592.164754,-8660.409521,76.609550
556.414646,-370.102971,-8660.409521,-919.314598
556.414974,-1184.329507,-10362.883188,-1532.190996
556.415302,-2220.617826,-11029.068536,-1608.800546
556.415629,-518.144159,-10288.862594,-229.828649
556.415957,2146.597232,-9326.594869,1072.533697
556.416285,2590.720797,-9474.636058,2604.724693
556.416612,1332.370696,-10658.965565,2145.067394
556.416940,296.082377,-10955.047942,2145.067394
556.417268,-370.102971,-10436.903782,1608.800546
556.417595,-1406.391290,-11029.068536,1149.143247
556.417923,-1554.432478,-10807.006753,1225.752797
556.418251,-222.061783,-9696.697840,1532.190996
556.418578,1406.391290,-9252.574275,2068.457845
556.418906,1554.432478,-9400.615463,2145.067394
556.419234,0.000000,-9474.636058,1072.533697
556.419561,-740.205942,-9474.636058,536.266849
556.419889,-1480.411884,-9474.636058,-766.095498
556.420217,-3034.844362,-9844.739029,-1378.971896
556.420544,-2368.659014,-9252.574275,-1149.143247
556.420872,74.020594,-8216.285956,383.047749
556.421200,2516.700203,-7920.203579,1915.238745
556.421528,1702.473667,-7994.224174,1915.238745
556.421855,222.061783,-8882.471304,2298.286494
556.422183,-888.247130,-9252.574275,1762.019645
556.422511,-2664.741391,-9474.636058,689.485948
556.422838,-3923.091493,-9992.780217,0.000000
556.423166,-3108.864956,-9104.533087,76.609550
556.423494,0.000000,-7994.224174,1608.800546
556.423821,1480.411884,-7698.141797,1762.019645
556.424149,1036.288319,-7846.182985,1302.362347
556.424477,296.082377,-8142.265362,459.657299
556.424804,-592.164754,-8364.327145,229.828649
556.425132,-1998.556043,-8882.471304,-1838.629195
556.425460,-2590.720797,-9548.656652,-2145.067394
556.425787,-296.082377,-8882.471304,-995.924147
556.426115,1554.432478,-8364.327145,76.609550
556.426443,3108.864956,-8734.430116,1532.190996
556.426770,1850.514855,-9474.636058,1685.410096
556.427098,518.144159,-9252.574275,995.924147
556.427426,-740.205942,-9178.553681,0.000000
556.427753,-2442.679609,-9548.656652,-536.266849
556.428081,-2442.679609,-9400.615463,-1149.143247
556.428409,-666.185348,-7920.203579,76.609550
556.428736,1332.370696,-7254.018232,536.266849
556.429064,1628.453072,-7476.080014,995.924147
556.429392,814.226536,-8216.285956,383.047749
556.429719,666.185348,-7698.141797,-383.047749
556.430047,296.082377,-8734.430116,-842.705048
556.430375,-1406.391290,-9326.594869,-1455.581446
556.430702,-1036.288319,-9178.553681,-1149.143247
556.431030,1110.308913,-8290.306550,0.000000
556.431358,2886.803174,-8216.285956,1149.143247
556.431685,2516.700203,-8882.471304,1838.629195
556.432013,1702.473667,-9474.636058,1685.410096
556.432341,74.020594,-9474.636058,1149.143247
556.432668,-1480.411884,-10732.986159,612.876398
556.432996,-3182.885551,-11103.089130,383.047749
556.433324,-1702.473667,-9548.656652,689.485948
556.433651,222.061783,-8808.450710,1838.629195
556.433979,1258.350101,-8956.491898,2068.457845
556.434307,0.000000,-9696.697840,1838.629195
556.434634,-1036.288319,-9474.636058,919.314598
556.434962,-1776.494261,-8512.368333,0.000000
556.435290,-1480.411884,-9178.553681,76.609550
556.435617,-2516.700203,-8956.491898,-995.924147
556.435945,-888.247130,-8216.285956,76.609550
556.436273,444.123565,-7328.038826,1225.752797
556.436600,888.247130,-8216.285956,1685.410096
556.436928,-222.061783,-8808.450710,1302.362347
556.437256,-1480.411884,-9474.636058,1302.362347
556.437583,-2294.638420,-9844.739029,689.485948
556.437911,-3256.906145,-11177.109724,612.876398
556.438239,-3182.885551,-10510.924376,153.219100
556.438566,-666.185348,-8734.430116,1072.533697
556.438894,1702.473667,-7994.224174,1838.629195
556.439222,1924.535449,-8660.409521,1685.410096
556.439549,444.123565,-9326.594869,1149.143247
556.439877,74.020594,-9030.512492,383.047749
556.440205,-1036.288319,-9622.677246,-459.657299
556.440532,-1776.494261,-9918.759623,-383.047749
556.440860,-1036.288319,-9622.677246,-536.266849
556.441188,1480.411884,-8882.471304,766.095498
556.441515,2516.700203,-8438.347739,1838.629195
556.441843,1480.411884,-8882.471304,2298.286494
556.442171,962.267725,-9252.574275,1455.581446
556.442498,-666.185348,-9178.553681,766.095498
556.442826,-1850.514855,-9548.656652,459.657299
556.443154,-2294.638420,-9918.759623,-229.828649
556.443481,-1184.329507,-9030.512492,153.219100
556.443809,962.267725,-7476.080014,1149.143247
556.444137,2072.576638,-7550.100608,1608.800546
556.444465,1554.432478,-7920.203579,1455.581446
556.444792,814.226536,-8068.244768,919.314598
556.445120,-222.061783,-8290.306550,-153.219100
556.445448,-1850.514855,-9326.594869,-842.705048
556.445775,-2812.782580,-9696.697840,-1302.362347
556.446103,-1850.514855,-9178.553681,-383.047749
556.446431,444.123565,-8586.388927,689.485948
556.446758,1184.329507,-9178.553681,1455.581446
556.447086,592.164754,-9178.553681,1762.019645
556.447414,222.061783,-9696.697840,1149.143247
556.447741,-1332.370696,-9474.636058,229.828649
556.448069,-2738.761985,-9918.759623,-689.485948
556.448397,-2516.700203,-9474.636058,-459.657299
556.448724,-370.102971,-8142.265362,-536.266849
556.449052,1332.370696,-7698.141797,919.314598
556.449380,1628.453072,-8512.368333,1532.190996
556.449707,814.226536,-8364.327145,1072.533697
556.450035,740.205942,-8734.430116,919.314598
556.450363,-666.185348,-9474.636058,76.609550
556.450690,-1406.391290,-10288.862594,0.000000
556.451018,-1554.432478,-9770.718434,-229.828649
556.451346,370.102971,-9400.615463,229.828649
556.451673,1554.432478,-9326.594869,1302.362347
556.452001,814.226536,-9844.739029,1608.800546
556.452329,370.102971,-9770.718434,1378.971896
556.452656,-296.082377,-9474.636058,766.095498
556.452984,-1480.411884,-9918.759623,0.000000
556.453312,-2812.782580,-9548.656652,-766.095498
556.453639,-1406.391290,-9326.594869,-229.828649
556.453967,296.082377,-8438.347739,612.876398
556.454295,1480.411884,-8512.368333,1455.581446
556.454622,370.102971,-9548.656652,995.924147
556.454950,0.000000,-9474.636058,1302.362347
556.455278,-1110.308913,-9400.615463,229.828649
556.455605,-1628.453072,-10214.842000,76.609550
556.455933,-1850.514855,-9992.780217,383.047749
556.456261,0.000000,-8586.388927,919.314598
556.456588,1480.411884,-7994.224174,1378.971896
556.456916,1332.370696,-8734.430116,1915.238745
556.457244,222.061783,-9326.594869,1532.190996
556.457571,222.061783,-9252.574275,919.314598
556.457899,-814.226536,-8808.450710,536.266849
556.458227,-1554.432478,-9992.780217,76.609550
556.458554,-1776.494261,-9474.636058,76.609550
556.458882,518.144159,-8290.306550,766.095498
556.459210,1924.535449,-8290.306550,995.924147
556.459537,2072.576638,-8660.409521,2451.505594
556.459865,444.123565,-9252.574275,1302.362347
556.460193,-666.185348,-9622.677246,1149.143247
556.460520,-1998.556043,-10510.924376,306.438199
556.460848,-3404.947333,-11029.068536,383.047749
556.461176,-1998.556043,-9622.677246,536.266849
556.461503,74.020594,-8808.450710,766.095498
556.461831,1776.494261,-8512.368333,1608.800546
556.462159,1110.308913,-8364.327145,1608.800546
556.462486,518.144159,-8290.306550,1532.190996
556.462814,-370.102971,-7772.162391,383.047749
556.463142,-2220.617826,-9030.512492,-536.266849
556.463469,-3108.864956,-9918.759623,-689.485948
556.463797,-2146.597232,-8586.388927,-536.266849
556.464124,74.020594,-7772.162391,229.828649
556.464452,1258.350101,-8068.244768,459.657299
556.464780,1036.288319,-9030.512492,1072.533697
556.465107,444.123565,-8956.491898,689.485948
556.465435,0.000000,-9178.553681,76.609550
556.465763,-2146.597232,-9992.780217,-919.314598
556.466090,-1702.473667,-9696.697840,-1225.752797
556.466418,-296.082377,-8882.471304,0.000000
556.466745,2072.576638,-8142.265362,842.705048
556.467073,2664.741391,-8956.491898,1455.581446
556.467401,1924.535449,-8956.491898,1762.019645
556.467728,518.144159,-9104.533087,995.924147
556.468056,-1036.288319,-9030.512492,383.047749
556.468383,-2664.741391,-10510.924376,-919.314598
556.468711,-2960.823768,-10140.821405,-1378.971896
556.469039,-888.247130,-9326.594869,-459.657299
556.469366,814.226536,-8512.368333,229.828649
556.469694,1776.494261,-8586.388927,1225.752797
556.470022,1258.350101,-8882.471304,1225.752797
556.470349,444.123565,-8290.306550,536.266849
556.470677,0.000000,-9030.512492,0.000000
556.471004,-1184.329507,-8882.471304,-536.266849
556.471332,0.000000,-8216.285956,306.438199
556.471660,1702.473667,-7846.182985,1149.143247
556.471987,2368.659014,-8660.409521,2451.505594
556.472315,1332.370696,-9252.574275,2374.896044
556.472642,-148.041188,-9400.615463,2145.067394
556.472970,-1258.350101,-9474.636058,1302.362347
556.473298,-2664.741391,-10436.903782,229.828649
556.473625,-3923.091493,-10658.965565,-536.266849
556.473953,-2442.679609,-9548.656652,0.000000
556.474280,-148.041188,-8586.388927,153.219100
556.474608,592.164754,-8808.450710,995.924147
556.474936,-370.102971,-9030.512492,1455.581446
556.475263,-296.082377,-8586.388927,459.657299
556.475591,-888.247130,-8512.368333,-153.219100
556.475919,-2146.597232,-9104.533087,-536.266849
556.476246,-2146.597232,-9030.512492,-306.438199
556.476574,-296.082377,-7846.182985,1149.143247
556.476901,1924.535449,-8364.327145,2068.457845
556.477229,962.267725,-8660.409521,2528.115143
556.477557,0.000000,-9104.533087,2374.896044
556.477884,-1036.288319,-9474.636058,1378.971896
556.478212,-2442.679609,-9548.656652,766.095498
556.478539,-3404.947333,-10658.965565,-612.876398
556.478867,-2886.803174,-9622.677246,-689.485948
556.479195,0.000000,-7846.182985,0.000000
556.479522,2220.617826,-7476.080014,459.657299
556.479850,2664.741391,-8364.327145,1149.143247
556.480177,2146.597232,-8512.368333,842.705048
556.480505,1110.308913,-8216.285956,76.609550
556.480833,0.000000,-9474.636058,-229.828649
556.481160,-1628.453072,-10362.883188,153.219100
556.481488,-666.185348,-9992.780217,459.657299
556.481816,1924.535449,-9030.512492,1991.848295
556.482143,1480.411884,-9474.636058,2451.505594
556.482471,1036.288319,-9992.780217,2911.162892
556.482798,-592.164754,-9548.656652,2145.067394
556.483126,-1406.391290,-9178.553681,1149.143247
556.483454,-2960.823768,-9474.636058,-229.828649
556.483781,-4071.132681,-9548.656652,-1072.533697
556.484109,-2146.597232,-8142.265362,-995.924147
556.484436,222.061783,-7105.977043,-306.438199
556.484764,1332.370696,-7105.977043,383.047749
556.485092,1332.370696,-7476.080014,919.314598
556.485419,666.185348,-8068.244768,0.000000
556.485747,-370.102971,-8882.471304,0.000000
556.486074,-2220.617826,-9622.677246,-766.095498
556.486402,-2442.679609,-10140.821405,-459.657299
556.486730,0.000000,-9400.615463,995.924147
556.487057,1702.473667,-9844.739029,1762.019645
556.487385,1184.329507,-9696.697840,2528.115143
556.487713,444.123565,-9844.739029,2068.457845
556.488040,0.000000,-9400.615463,1532.190996
556.488368,-1480.411884,-10066.800811,383.047749
556.488695,-2516.700203,-10955.047942,-1149.143247
556.489023,-2146.597232,-10066.800811,-919.314598
556.489351,-222.061783,-8956.491898,-383.047749
556.489678,1702.473667,-8586.388927,229.828649
556.490006,1406.391290,-9252.574275,229.828649
556.490333,1110.308913,-9030.512492,459.657299
556.490661,592.164754,-8438.347739,0.000000
556.490989,0.000000,-9696.697840,0.000000
556.491316,-740.205942,-9548.656652,-459.657299
556.491644,0.000000,-9178.553681,536.266849
556.491971,1628.453072,-8956.491898,1608.800546
556.492299,1850.514855,-9474.636058,2374.896044
556.492627,222.061783,-10066.800811,2604.724693
556.492954,-592.164754,-9400.615463,2221.676944
556.493282,-592.164754,-9178.553681,2068.457845
556.493610,-962.267725,-9844.739029,1378.971896
556.493937,-2072.576638,-9474.636058,842.705048
556.494265,148.041188,-8290.306550,1225.752797
556.494592,2146.597232,-7476.080014,2068.457845
556.494920,2220.617826,-7846.182985,2451.505594
556.495248,666.185348,-8882.471304,2145.067394
556.495575,370.102971,-8586.388927,2145.067394
556.495903,-518.144159,-8956.491898,1838.629195
556.496230,-1776.494261,-9474.636058,1915.238745
556.496558,-1628.453072,-9030.512492,2374.896044
556.496886,0.000000,-8956.491898,3524.039291
556.497213,1110.308913,-8364.327145,5056.230287
556.497541,0.000000,-8660.409521,4826.401637
556.497868,-1554.432478,-8882.471304,4519.963438
556.498196,-2368.659014,-8882.471304,3294.210641
556.498524,-3552.988522,-8660.409521,2451.505594
556.498851,-4293.194464,-8882.471304,2221.676944
556.499179,-3627.009116,-7846.182985,1762.019645
556.499507,-592.164754,-7105.977043,2221.676944
556.499834,1110.308913,-6365.771101,3140.991542
556.500162,1406.391290,-7105.977043,3217.601092
556.500489,148.041188,-7920.203579,2374.896044
556.500817,-1110.308913,-8512.368333,1915.238745
556.501145,-1184.329507,-9030.512492,1302.362347
556.501472,-2072.576638,-9474.636058,1532.190996
556.501800,-1184.329507,-9400.615463,2068.457845
556.502127,888.247130,-8734.430116,3370.820191
556.502455,2886.803174,-8438.347739,4903.011187
556.502783,3404.947333,-8290.306550,5439.278036
556.503110,2812.782580,-9474.636058,5286.058936
556.503438,592.164754,-10214.842000,4136.915689
556.503766,-592.164754,-10214.842000,3677.258390
556.504093,-1480.411884,-9622.677246,2987.772442
556.504421,-740.205942,-9770.718434,2987.772442
556.504748,-666.185348,-9918.759623,2987.772442
556.505076,592.164754,-9178.553681,3600.648841
556.505404,1776.494261,-8290.306550,3983.696590
556.505731,1406.391290,-8142.265362,3677.258390
556.506059,-222.061783,-9326.594869,2451.505594
556.506386,-3478.967927,-10807.006753,1149.143247
556.506714,-5181.441594,-11029.068536,229.828649
556.507042,-4811.338623,-9992.780217,306.438199
556.507369,-2664.741391,-9252.574275,1838.629195
556.507697,-444.123565,-8956.491898,2451.505594
556.508024,370.102971,-9104.533087,3524.039291
556.508352,1480.411884,-8512.368333,3600.648841
556.508680,1924.535449,-8290.306550,4213.525239
556.509007,1406.391290,-8882.471304,3983.696590
556.509335,740.205942,-10066.800811,3983.696590
556.509663,0.000000,-10955.047942,3294.210641
556.509990,740.205942,-10658.965565,3907.087040
556.510318,2146.597232,-9770.718434,4826.401637
556.510645,3256.906145,-9918.759623,5515.887586
556.510973,2812.782580,-10584.944971,5286.058936
556.511301,1628.453072,-11029.068536,4673.182538
556.511628,148.041188,-10362.883188,4136.915689
556.511956,666.185348,-9252.574275,3753.867940
556.512283,444.123565,-9770.718434,3600.648841
556.512611,-370.102971,-10807.006753,3217.601092
556.512939,-2294.638420,-10955.047942,3140.991542
556.513266,-3552.988522,-10362.883188,2911.162892
556.513594,-2960.823768,-8882.471304,2834.553343
556.513921,-2368.659014,-8068.244768,2987.772442
556.514249,-2072.576638,-8068.244768,2528.115143
556.514577,-2738.761985,-7698.141797,2681.334243
556.514904,-3256.906145,-7698.141797,1991.848295
556.515232,-2664.741391,-7031.956449,2298.286494
556.515560,-296.082377,-6957.935855,3140.991542
556.515887,1480.411884,-7402.059420,3983.696590
556.516215,1406.391290,-8216.285956,4749.792088
556.516542,296.082377,-9474.636058,4366.744339
556.516870,-1554.432478,-9696.697840,3753.867940
556.517198,-1258.350101,-9474.636058,3830.477490
556.517525,814.226536,-8660.409521,3830.477490
556.517853,2738.761985,-8586.388927,4290.134789
556.518180,3478.967927,-8882.471304,4443.353888
556.518508,2220.617826,-10066.800811,4136.915689
556.518836,814.226536,-10066.800811,3753.867940
556.519163,74.020594,-9030.512492,3217.601092
556.519491,1332.370696,-8364.327145,3600.648841
556.519818,1776.494261,-8364.327145,3524.039291
556.520146,1332.370696,-8956.491898,3677.258390
556.520474,0.000000,-9178.553681,3830.477490
556.520801,-2738.761985,-9326.594869,3064.381992
556.521129,-3849.070898,-8808.450710,2451.505594
556.521457,-3849.070898,-8512.368333,2068.457845
556.521784,-2294.638420,-8660.409521,1762.019645
556.522112,-814.226536,-7772.162391,2298.286494
556.522439,0.000000,-7254.018232,2987.772442
556.522767,-740.205942,-7031.956449,2911.162892
556.523095,-1554.432478,-7772.162391,2451.505594
556.523422,-2220.617826,-8068.244768,1149.143247
556.523750,-1702.473667,-8438.347739,842.705048
556.524077,0.000000,-8068.244768,1225.752797
556.524405,1924.535449,-7846.182985,2911.162892
556.524733,3552.988522,-8290.306550,4903.011187
556.525060,3997.112087,-9696.697840,5439.278036
556.525388,2886.803174,-10955.047942,5209.449386
556.525715,666.185348,-11769.274478,3983.696590
556.526043,-1036.288319,-12065.356855,3064.381992
556.526371,-1332.370696,-12065.356855,2757.943793
556.526698,0.000000,-10807.006753,3447.429741
556.527026,2072.576638,-9844.739029,4826.401637
556.527354,3849.070898,-9474.636058,5592.497135
556.527681,3478.967927,-9474.636058,5592.497135
556.528009,0.000000,-9400.615463,4443.353888
556.528336,-3034.844362,-8956.491898,3447.429741
556.528664,-4737.318029,-9992.780217,2068.457845
556.528992,-4737.318029,-9474.636058,1532.190996
556.529319,-2590.720797,-8956.491898,2068.457845
556.529647,-666.185348,-7772.162391,3370.820191
556.529974,370.102971,-7105.977043,4979.620737
556.530302,1036.288319,-7698.141797,5592.497135
556.530630,-666.185348,-8290.306550,4903.011187
556.530957,-1998.556043,-9474.636058,3753.867940
556.531285,-3923.091493,-10362.883188,2374.896044
556.531612,-4441.235652,-10584.944971,2374.896044
556.531940,-3330.926739,-9918.759623,1608.800546
556.532268,-1628.453072,-9622.677246,2834.553343
556.532595,740.205942,-8586.388927,3830.477490
556.532923,2294.638420,-8438.347739,4290.134789
556.533251,2664.741391,-8734.430116,4443.353888
556.533578,2294.638420,-8882.471304,3677.258390
556.533906,740.205942,-9770.718434,2911.162892
556.534233,0.000000,-10362.883188,2451.505594
556.534561,74.020594,-10658.965565,2911.162892
556.534889,296.082377,-10140.821405,3294.210641
556.535216,370.102971,-9622.677246,4060.306139
556.535544,0.000000,-9178.553681,3370.820191
556.535871,518.144159,-8956.491898,3830.477490
556.536199,444.123565,-8142.265362,3140.991542
556.536527,444.123565,-8068.244768,2604.724693
556.536854,814.226536,-7402.059420,2451.505594
556.537182,1258.350101,-7698.141797,2757.943793
556.537510,1628.453072,-7402.059420,3447.429741
556.537837,1554.432478,-7550.100608,3677.258390
556.538165,1628.453072,-8142.265362,4136.915689
556.538492,1036.288319,-8734.430116,3983.696590
556.538820,222.061783,-9326.594869,4366.744339
556.539148,-1332.370696,-9696.697840,3753.867940
556.539475,-1998.556043,-9918.759623,3294.210641
556.539803,-1924.535449,-10066.800811,3447.429741
556.540130,-1406.391290,-9696.697840,3140.991542
556.540458,-814.226536,-8956.491898,3064.381992
556.540786,-592.164754,-8660.409521,2834.553343
556.541113,-666.185348,-8142.265362,2757.943793
556.541441,-740.205942,-8068.244768,2681.334243
556.541768,-1332.370696,-7772.162391,2298.286494
556.542096,-1332.370696,-7994.224174,2451.505594
556.542424,-1406.391290,-8216.285956,2757.943793
556.542751,-1554.432478,-8216.285956,2911.162892
556.543079,-518.144159,-8660.409521,3294.210641
556.543407,74.020594,-9030.512492,3524.039291
556.543734,666.185348,-9474.636058,3830.477490
556.544062,296.082377,-9770.718434,3753.867940
556.544389,-148.041188,-9696.697840,3677.258390
556.544717,-740.205942,-9770.718434,3294.210641
556.545045,-518.144159,-9474.636058,3294.210641
556.545372,222.061783,-9030.512492,3677.258390
556.545700,1036.288319,-9104.533087,2681.334243
556.546027,1110.308913,-9326.594869,2987.772442
556.546355,1110.308913,-9770.718434,2757.943793
556.546683,74.020594,-10066.800811,2911.162892
556.547010,0.000000,-10584.944971,2681.334243
556.547338,0.000000,-10658.965565,2068.457845
556.547665,-592.164754,-10288.862594,2451.505594
556.547993,-592.164754,-10140.821405,2221.676944
556.548321,-518.144159,-9918.759623,1991.848295
556.548648,-814.226536,-9918.759623,2298.286494
556.548976,-1480.411884,-9326.594869,2451.505594
556.549304,-1850.514855,-8956.491898,1991.848295
556.549631,-1480.411884,-8882.471304,1378.971896
556.549959,-1036.288319,-8512.368333,1455.581446
556.550286,-296.082377,-8142.265362,1225.752797
556.550614,0.000000,-7920.203579,1762.019645
556.550942,740.205942,-8142.265362,1685.410096
556.551269,444.123565,-8512.368333,1608.800546
556.551597,0.000000,-8882.471304,1225.752797
556.551924,-370.102971,-9326.594869,1072.533697
556.552252,0.000000,-9696.697840,1455.581446
556.552580,518.144159,-10584.944971,1762.019645
556.552907,888.247130,-10214.842000,1608.800546
556.553235,1184.329507,-10288.862594,1915.238745
556.553562,1776.494261,-9992.780217,2068.457845
556.553890,1258.350101,-9918.759623,1915.238745
556.554218,444.123565,-9400.615463,1762.019645
556.554545,-296.082377,-9474.636058,1455.581446
556.554873,-370.102971,-9178.553681,995.924147
556.555201,-888.247130,-9252.574275,919.314598
556.555528,-518.144159,-8808.450710,842.705048
556.555856,-370.102971,-8290.306550,1225.752797
556.556183,-592.164754,-8364.327145,995.924147
556.556511,-666.185348,-8142.265362,842.705048
556.556839,-1332.370696,-7994.224174,459.657299
556.557166,-962.267725,-7920.203579,536.266849
556.557494,-370.102971,-7698.141797,536.266849
556.557821,-666.185348,-7920.203579,0.000000
556.558149,-740.205942,-8142.265362,459.657299
556.558477,-370.102971,-8438.347739,1225.752797
556.558804,-814.226536,-8438.347739,1149.143247
556.559132,-222.061783,-8438.347739,1225.752797
556.559459,0.000000,-9030.512492,536.266849
556.559787,74.020594,-9104.533087,612.876398
556.560115,222.061783,-9030.512492,842.705048
556.560442,222.061783,-8882.471304,766.095498
556.560770,148.041188,-9326.594869,766.095498
556.561098,518.144159,-9622.677246,1225.752797
556.561425,0.000000,-9548.656652,1149.143247
556.561753,0.000000,-9622.677246,1072.533697
556.562080,0.000000,-9400.615463,689.485948
556.562408,-370.102971,-9474.636058,919.314598
556.562736,148.041188,-9178.553681,689.485948
556.563063,-444.123565,-8438.347739,612.876398
556.563391,-296.082377,-8956.491898,919.314598
556.563718,-222.061783,-9104.533087,536.266849
556.564046,-518.144159,-9030.512492,919.314598
556.564374,-1184.329507,-8512.368333,766.095498
556.564701,-444.123565,-8512.368333,459.657299
556.565029,-1258.350101,-9030.512492,612.876398
556.565356,-1110.308913,-9400.615463,459.657299
556.565684,-740.205942,-9178.553681,306.438199
556.566012,-222.061783,-9104.533087,536.266849
556.566339,-148.041188,-9326.594869,842.705048
556.566667,0.000000,-9400.615463,229.828649
556.566995,0.000000,-9548.656652,689.485948
556.567322,0.000000,-9622.677246,306.438199
556.567650,-296.082377,-9918.759623,383.047749
556.567977,-518.144159,-10066.800811,612.876398
556.568305,-370.102971,-10066.800811,766.095498
556.568632,-370.102971,-10066.800811,766.095498
556.568960,0.000000,-9918.759623,919.314598
556.569287,222.061783,-9844.739029,689.485948
556.569615,370.102971,-9104.533087,766.095498
556.569943,148.041188,-8882.471304,612.876398
556.570270,222.061783,-9104.533087,842.705048
556.570598,0.000000,-9178.553681,459.657299
556.570925,-296.082377,-9252.574275,536.266849
556.571253,-222.061783,-9178.553681,459.657299
556.571580,-222.061783,-9104.533087,612.876398
556.571908,0.000000,-9030.512492,612.876398
556.572235,0.000000,-9030.512492,536.266849
556.572563,74.020594,-9030.512492,536.266849
556.572891,0.000000,-8808.450710,76.609550
556.573218,74.020594,-8660.409521,0.000000
556.573546,-148.041188,-8882.471304,306.438199
556.573873,-444.123565,-8808.450710,306.438199
556.574201,-592.164754,-9030.512492,306.438199
556.574528,-888.247130,-9030.512492,229.828649
556.574856,-740.205942,-8734.430116,383.047749
556.575183,-740.205942,-8808.450710,306.438199
556.575511,-666.185348,-8734.430116,229.828649
556.575838,-370.102971,-8290.306550,306.438199
556.576166,-296.082377,-8438.347739,306.438199
556.576494,-148.041188,-8142.265362,153.219100
556.576821,-296.082377,-8438.347739,612.876398
556.577149,-740.205942,-8660.409521,459.657299
556.577476,-666.185348,-9104.533087,766.095498
556.577804,-740.205942,-9326.594869,766.095498
556.578131,-814.226536,-8956.491898,1149.143247
556.578459,-296.082377,-8956.491898,766.095498
556.578786,-222.061783,-8734.430116,536.266849
556.579114,-222.061783,-8734.430116,612.876398
556.579441,-148.041188,-8808.450710,459.657299
556.579769,-222.061783,-8956.491898,459.657299
556.580097,-296.082377,-9030.512492,0.000000
556.580424,-518.144159,-9326.594869,842.705048
556.580752,-814.226536,-9474.636058,919.314598
556.581079,-592.164754,-9622.677246,689.485948
556.581407,-444.123565,-9474.636058,536.266849
556.581734,222.061783,-9252.574275,1072.533697
556.582062,-222.061783,-9252.574275,383.047749
556.582389,-222.061783,-9252.574275,612.876398
556.582717,-444.123565,-9030.512492,612.876398
556.583045,-444.123565,-9178.553681,766.095498
556.583372,-444.123565,-9030.512492,919.314598
556.583700,-370.102971,-9104.533087,459.657299
556.584027,-370.102971,-9474.636058,689.485948
556.584355,-296.082377,-9178.553681,536.266849
556.584682,-222.061783,-8956.491898,306.438199
556.585010,-296.082377,-8512.368333,536.266849
556.585337,-296.082377,-8364.327145,459.657299
556.585665,-148.041188,-9400.615463,383.047749
556.585992,-444.123565,-9548.656652,766.095498
556.586320,-444.123565,-9474.636058,842.705048
556.586648,-444.123565,-9918.759623,766.095498
556.586975,-222.061783,-9622.677246,612.876398
556.587303,-148.041188,-10066.800811,689.485948
556.587630,-148.041188,-9548.656652,689.485948
556.587958,0.000000,-8882.471304,459.657299
556.588285,-518.144159,-8734.430116,306.438199
556.588613,-592.164754,-8882.471304,229.828649
556.588940,-962.267725,-9104.533087,0.000000
556.589268,-1258.350101,-9104.533087,689.485948
556.589596,-962.267725,-8956.491898,612.876398
556.589923,-1036.288319,-9030.512492,689.485948
556.590251,-296.082377,-8882.471304,766.095498
556.590578,0.000000,-8734.430116,1072.533697
556.590906,444.123565,-8512.368333,306.438199
556.591233,444.123565,-8364.327145,306.438199
556.591561,74.020594,-8660.409521,689.485948
556.591888,222.061783,-9622.677246,842.705048
556.592216,-222.061783,-9474.636058,842.705048
556.592543,-370.102971,-9844.739029,1072.533697
556.592871,-370.102971,-9696.697840,995.924147
556.593199,74.020594,-9474.636058,995.924147
556.593526,444.123565,-8660.409521,919.314598
556.593854,222.061783,-7994.224174,919.314598
556.594181,444.123565,-7846.182985,383.047749
556.594509,296.082377,-8290.306550,0.000000
556.594836,-296.082377,-8364.327145,383.047749
556.595164,-518.144159,-8882.471304,459.657299
556.595491,-888.247130,-9252.574275,919.314598
556.595819,-518.144159,-9770.718434,689.485948
556.596146,-222.061783,-9548.656652,612.876398
556.596474,0.000000,-8956.491898,306.438199
556.596802,148.041188,-8660.409521,383.047749
556.597129,592.164754,-8586.388927,76.609550
556.597457,370.102971,-8364.327145,0.000000
556.597784,74.020594,-8734.430116,0.000000
556.598112,-222.061783,-8808.450710,229.828649
556.598439,-666.185348,-9474.636058,536.266849
556.598767,-962.267725,-9770.718434,766.095498
556.599094,-740.205942,-9548.656652,459.657299
556.599422,-666.185348,-9474.636058,536.266849
556.599750,0.000000,-9104.533087,306.438199
556.600077,148.041188,-9030.512492,306.438199
556.600405,444.123565,-8956.491898,0.000000
556.600732,444.123565,-8734.430116,536.266849
556.601060,0.000000,-9252.574275,612.876398
556.601387,-74.020594,-9844.739029,766.095498
556.601715,-518.144159,-10288.862594,1072.533697
556.602042,-666.185348,-10140.821405,842.705048
556.602370,-888.247130,-9622.677246,1225.752797
556.602697,0.000000,-9474.636058,919.314598
556.603025,0.000000,-9178.553681,612.876398
556.603353,-222.061783,-8882.471304,536.266849
556.603680,-518.144159,-8734.430116,766.095498
556.604008,-592.164754,-9178.553681,842.705048
556.604335,-518.144159,-9030.512492,919.314598
556.604663,-814.226536,-9474.636058,842.705048
556.604990,-1184.329507,-9474.636058,1072.533697
556.605318,-740.205942,-9474.636058,1072.533697
556.605645,-888.247130,-9252.574275,689.485948
556.605973,-518.144159,-8808.450710,1072.533697
556.606301,-444.123565,-9104.533087,689.485948
556.606628,-444.123565,-9178.553681,766.095498
556.606956,-592.164754,-9326.594869,842.705048
556.607283,-592.164754,-9474.636058,766.095498
556.607611,-518.144159,-9474.636058,995.924147
556.607938,-666.185348,-9770.718434,919.314598
556.608266,-814.226536,-9326.594869,383.047749
556.608593,-518.144159,-9104.533087,459.657299
556.608921,-444.123565,-8808.450710,76.609550
556.609248,0.000000,-8438.347739,383.047749
556.609576,-148.041188,-8216.285956,536.266849
556.609904,-222.061783,-8512.368333,383.047749
556.610231,-222.061783,-8734.430116,459.657299
556.610559,0.000000,-8734.430116,459.657299
556.610886,-370.102971,-9178.553681,459.657299
556.611214,0.000000,-8882.471304,842.705048
556.611541,0.000000,-9030.512492,383.047749
556.611869,-148.041188,-8734.430116,229.828649
556.612196,74.020594,-9030.512492,536.266849
556.612524,148.041188,-8882.471304,536.266849
556.612851,222.061783,-8734.430116,612.876398
556.613179,0.000000,-8882.471304,612.876398
556.613507,0.000000,-8882.471304,536.266849
556.613834,-222.061783,-8808.450710,536.266849
556.614162,-222.061783,-8808.450710,689.485948
556.614489,-296.082377,-8660.409521,0.000000
556.614817,-296.082377,-8660.409521,76.609550
556.615144,-296.082377,-8660.409521,612.876398
556.615472,-296.082377,-8586.388927,459.657299
556.615799,0.000000,-8808.450710,766.095498
556.616127,0.000000,-8734.430116,536.266849
556.616455,-222.061783,-8808.450710,766.095498
556.616782,0.000000,-9178.553681,689.485948
556.617110,0.000000,-9030.512492,689.485948
556.617437,-296.082377,-9178.553681,459.657299
556.617765,0.000000,-9326.594869,383.047749
556.618092,-666.185348,-8882.471304,536.266849
556.618420,-444.123565,-8956.491898,383.047749
556.618747,-518.144159,-9104.533087,536.266849
556.619075,-592.164754,-9030.512492,689.485948
556.619402,-370.102971,-9030.512492,536.266849
556.619730,-518.144159,-8882.471304,766.095498
556.620058,0.000000,-8956.491898,153.219100
556.620385,0.000000,-9030.512492,383.047749
556.620713,-148.041188,-9178.553681,612.876398
556.621040,-370.102971,-9252.574275,383.047749
556.621368,0.000000,-9400.615463,766.095498
556.621695,222.061783,-9696.697840,995.924147
556.622023,0.000000,-9696.697840,689.485948
556.622350,0.000000,-9696.697840,689.485948
556.622678,0.000000,-9696.697840,536.266849
556.623006,296.082377,-9252.574275,689.485948
556.623333,592.164754,-9326.594869,612.876398
556.623661,222.061783,-9474.636058,306.438199
556.623988,0.000000,-9474.636058,383.047749
556.624316,-148.041188,-9252.574275,689.485948
556.624643,-370.102971,-9178.553681,689.485948
556.624971,-222.061783,-9104.533087,612.876398
556.625298,-444.123565,-9252.574275,689.485948
556.625626,-444.123565,-9252.574275,536.266849
556.625953,-296.082377,-9178.553681,536.266849
556.626281,0.000000,-9030.512492,306.438199
556.626609,0.000000,-8882.471304,842.705048
556.626936,0.000000,-9178.553681,612.876398
556.627264,-148.041188,-9474.636058,689.485948
556.627591,-444.123565,-9326.594869,842.705048
556.627919,-666.185348,-9252.574275,842.705048
556.628246,-814.226536,-8956.491898,995.924147
556.628574,-592.164754,-9252.574275,612.876398
556.628901,-962.267725,-8956.491898,459.657299
556.629229,-592.164754,-8882.471304,766.095498
556.629556,-444.123565,-8586.388927,612.876398
556.629884,0.000000,-8586.388927,689.485948
556.630212,0.000000,-8586.388927,536.266849
556.630539,-296.082377,-9030.512492,612.876398
556.630867,-222.061783,-9030.512492,612.876398
556.631194,0.000000,-9104.533087,536.266849
556.631522,-222.061783,-9252.574275,689.485948
556.631849,74.020594,-9104.533087,612.876398
556.632177,0.000000,-9326.594869,536.266849
556.632504,0.000000,-9400.615463,612.876398
556.632832,0.000000,-9252.574275,612.876398
556.633160,0.000000,-9252.574275,689.485948
556.633487,222.061783,-9326.594869,459.657299
556.633815,-370.102971,-8882.471304,459.657299
556.634142,-518.144159,-8808.450710,612.876398
556.634470,-296.082377,-9104.533087,383.047749
556.634797,-296.082377,-8956.491898,459.657299
556.635125,-222.061783,-8808.450710,459.657299
556.635452,-148.041188,-8808.450710,0.000000
556.635780,0.000000,-8882.471304,76.609550
556.636107,-222.061783,-9104.533087,459.657299
556.636435,-296.082377,-8882.471304,383.047749
556.636763,0.000000,-9252.574275,536.266849
556.637090,0.000000,-9474.636058,1302.362347
556.637418,-148.041188,-9474.636058,612.876398
556.637745,-296.082377,-9400.615463,536.266849
556.638073,-296.082377,-9030.512492,689.485948
556.638400,-296.082377,-9030.512492,766.095498
556.638728,-370.102971,-8882.471304,766.095498
556.639055,-592.164754,-9178.553681,383.047749
556.639383,-518.144159,-9178.553681,612.876398
556.639711,-740.205942,-8882.471304,612.876398
556.640038,-592.164754,-8808.450710,306.438199
556.640366,-518.144159,-8438.347739,153.219100
556.640693,-740.205942,-8660.409521,536.266849
556.641021,-740.205942,-8882.471304,459.657299
556.641348,-592.164754,-9104.533087,459.657299
556.641676,-666.185348,-9178.553681,536.266849
556.642003,-370.102971,-9030.512492,306.438199
556.642331,-370.102971,-9104.533087,1225.752797
556.642658,-444.123565,-9326.594869,766.095498
556.642986,-370.102971,-9474.636058,689.485948
556.643314,-666.185348,-9252.574275,689.485948
556.643641,-296.082377,-9474.636058,689.485948
556.643969,-518.144159,-8586.388927,459.657299
556.644296,-740.205942,-8882.471304,459.657299
556.644624,-740.205942,-9030.512492,383.047749
556.644951,-518.144159,-9104.533087,306.438199
556.645279,-444.123565,-8734.430116,383.047749
556.645606,-370.102971,-8808.450710,842.705048
556.645934,-444.123565,-8734.430116,306.438199
556.646262,-148.041188,-8808.450710,459.657299
556.646589,-222.061783,-9030.512492,383.047749
556.646917,0.000000,-9104.533087,383.047749
556.647244,0.000000,-8660.409521,689.485948
556.647572,74.020594,-9030.512492,536.266849
556.647899,0.000000,-9104.533087,766.095498
556.648227,-296.082377,-9326.594869,536.266849
556.648554,-444.123565,-9252.574275,459.657299
556.648882,-370.102971,-9104.533087,612.876398
556.649209,-444.123565,-8586.388927,689.485948
556.649537,-148.041188,-8734.430116,229.828649
556.649865,0.000000,-8734.430116,383.047749
556.650192,0.000000,-8734.430116,459.657299
556.650520,-148.041188,-8956.491898,919.314598
556.650847,-444.123565,-8660.409521,919.314598
556.651175,-444.123565,-9104.533087,766.095498
556.651502,-222.061783,-9400.615463,842.705048
556.651830,0.000000,-9326.594869,766.095498
556.652157,74.020594,-9474.636058,689.485948
556.652485,444.123565,-9030.512492,766.095498
556.652812,74.020594,-9326.594869,842.705048
556.653140,74.020594,-9326.594869,689.485948
556.653468,0.000000,-9252.574275,842.705048
556.653795,0.000000,-9326.594869,919.314598
556.654123,-222.061783,-9696.697840,766.095498
556.654450,-296.082377,-9474.636058,306.438199
556.654778,-148.041188,-9474.636058,383.047749
556.655105,0.000000,-9252.574275,612.876398
556.655433,-148.041188,-9252.574275,383.047749
556.655760,-444.123565,-9178.553681,459.657299
556.656088,0.000000,-9252.574275,689.485948
556.656416,74.020594,-9326.594869,459.657299
556.656743,74.020594,-9326.594869,459.657299
556.657071,0.000000,-9696.697840,383.047749
556.657398,296.082377,-9992.780217,612.876398
556.657726,0.000000,-9104.533087,536.266849
556.658053,0.000000,-9400.615463,536.266849
556.658381,0.000000,-9474.636058,383.047749
556.658708,-148.041188,-9474.636058,383.047749
556.659036,-222.061783,-9474.636058,383.047749
556.659363,-222.061783,-8882.471304,383.047749
556.659691,0.000000,-8956.491898,383.047749
556.660019,-296.082377,-9326.594869,383.047749
556.660346,-444.123565,-9326.594869,459.657299
556.660674,-370.102971,-9252.574275,383.047749
556.661001,-592.164754,-8882.471304,689.485948
556.661329,-222.061783,-8882.471304,383.047749
556.661656,-518.144159,-9104.533087,153.219100
556.661984,-370.102971,-9104.533087,306.438199
556.662311,-370.102971,-9178.553681,383.047749
556.662639,0.000000,-9104.533087,766.095498
556.662967,-370.102971,-9400.615463,842.705048
556.663294,-666.185348,-9326.594869,766.095498
556.663622,-666.185348,-9178.553681,612.876398
556.663949,-592.164754,-8956.491898,689.485948
556.664277,-666.185348,-8808.450710,766.095498
556.664604,-888.247130,-8142.265362,612.876398
556.664932,-888.247130,-8734.430116,306.438199
556.665259,-518.144159,-8734.430116,383.047749
556.665587,-592.164754,-8586.388927,536.266849
556.665914,-666.185348,-8512.368333,689.485948
556.666241,-518.144159,-8660.409521,766.095498
556.666569,-592.164754,-8734.430116,459.657299
556.666896,-370.102971,-8808.450710,383.047749
556.667224,-296.082377,-8882.471304,536.266849
556.667552,0.000000,-8734.430116,766.095498
556.667879,0.000000,-9178.553681,1685.410096
556.668207,0.000000,-8956.491898,536.266849
556.668534,-222.061783,-8882.471304,536.266849
556.668862,-370.102971,-8956.491898,536.266849
556.669189,-444.123565,-9030.512492,766.095498
556.669517,-296.082377,-9252.574275,1149.143247
556.669845,-296.082377,-8808.450710,536.266849
556.670172,-444.123565,-8660.409521,536.266849
556.670500,-592.164754,-8808.450710,306.438199
556.670827,-444.123565,-9030.512492,536.266849
556.671155,-518.144159,-8734.430116,612.876398
556.671483,-592.164754,-9030.512492,76.609550
556.671810,-296.082377,-8956.491898,612.876398
556.672138,-296.082377,-9252.574275,306.438199
556.672465,-444.123565,-9326.594869,612.876398
556.672793,-296.082377,-9178.553681,459.657299
556.673120,0.000000,-9030.512492,383.047749
556.673448,-296.082377,-9178.553681,536.266849
556.673776,-370.102971,-9178.553681,766.095498
556.674103,-370.102971,-9326.594869,536.266849
556.674431,-296.082377,-9400.615463,766.095498
556.674758,-148.041188,-9178.553681,459.657299
556.675086,-370.102971,-8956.491898,612.876398
556.675413,-148.041188,-9030.512492,612.876398
556.675741,-370.102971,-9030.512492,536.266849
556.676069,-370.102971,-9030.512492,536.266849
556.676396,0.000000,-9030.512492,383.047749
556.676724,0.000000,-9178.553681,842.705048
556.677051,74.020594,-9400.615463,689.485948
556.677379,74.020594,-9326.594869,612.876398
556.677707,0.000000,-9474.636058,689.485948
556.678034,222.061783,-9178.553681,766.095498
556.678362,222.061783,-9252.574275,995.924147
556.678689,0.000000,-9252.574275,536.266849
556.679017,-222.061783,-9474.636058,383.047749
556.679344,-148.041188,-9622.677246,383.047749
556.679672,0.000000,-9474.636058,383.047749
556.680000,0.000000,-9030.512492,383.047749
556.680327,0.000000,-9030.512492,689.485948
556.680655,-222.061783,-8956.491898,612.876398
556.680982,0.000000,-9030.512492,76.609550
556.681310,0.000000,-9104.533087,306.438199
556.681638,-148.041188,-8956.491898,919.314598
556.681965,0.000000,-8956.491898,306.438199
556.682293,0.000000,-9030.512492,306.438199
556.682620,0.000000,-9178.553681,383.047749
556.682948,0.000000,-9178.553681,536.266849
556.683275,296.082377,-9178.553681,766.095498
556.683603,0.000000,-9400.615463,1225.752797
556.683931,-222.061783,-9400.615463,689.485948
556.684258,-222.061783,-9400.615463,612.876398
556.684586,0.000000,-9252.574275,612.876398
556.684913,-370.102971,-9030.512492,689.485948
556.685241,-296.082377,-8956.491898,689.485948
556.685568,-444.123565,-9030.512492,612.876398
556.685896,-370.102971,-8956.491898,766.095498
556.686224,-444.123565,-9030.512492,612.876398
556.686551,-296.082377,-9326.594869,612.876398
556.686879,0.000000,-9178.553681,536.266849
556.687206,0.000000,-9104.533087,612.876398
556.687534,0.000000,-9104.533087,689.485948
556.687862,-370.102971,-9474.636058,689.485948
556.688189,-222.061783,-9474.636058,995.924147
556.688517,0.000000,-9326.594869,1072.533697
556.688844,0.000000,-9104.533087,536.266849
556.689172,-148.041188,-9326.594869,842.705048
556.689499,-444.123565,-9178.553681,306.438199
556.689827,-296.082377,-9252.574275,612.876398
556.690155,-296.082377,-8808.450710,689.485948
556.690482,-444.123565,-9030.512492,383.047749
556.690810,-444.123565,-9178.553681,459.657299
556.691137,-444.123565,-9252.574275,459.657299
556.691465,-296.082377,-9104.533087,536.266849
556.691792,-370.102971,-9030.512492,612.876398
556.692120,0.000000,-9400.615463,383.047749
556.692448,-296.082377,-9326.594869,536.266849
556.692775,0.000000,-9326.594869,306.438199
556.693103,0.000000,-9400.615463,459.657299
556.693430,0.000000,-9252.574275,612.876398
556.693758,0.000000,-9474.636058,383.047749
556.694086,-444.123565,-9030.512492,919.314598
556.694413,0.000000,-9252.574275,459.657299
556.694741,-296.082377,-8882.471304,536.266849
556.695068,-666.185348,-9030.512492,612.876398
556.695396,-592.164754,-8808.450710,306.438199
556.695723,-296.082377,-9252.574275,536.266849
556.696051,-444.123565,-8882.471304,536.266849
556.696379,-518.144159,-8882.471304,536.266849
556.696706,-518.144159,-8956.491898,459.657299
556.697034,-296.082377,-8808.450710,995.924147
556.697361,-444.123565,-8808.450710,689.485948
556.697689,-518.144159,-8882.471304,612.876398
556.698016,-148.041188,-8808.450710,536.266849
556.698344,0.000000,-9104.533087,612.876398
556.698672,-370.102971,-9252.574275,536.266849
556.698999,-370.102971,-8586.388927,1149.143247
556.699327,-370.102971,-8956.491898,689.485948
556.699654,-592.164754,-9104.533087,689.485948
556.699982,-666.185348,-9178.553681,689.485948
556.700310,-666.185348,-9030.512492,842.705048
556.700637,0.000000,-8808.450710,459.657299
556.700965,-592.164754,-8216.285956,689.485948
556.701292,-444.123565,-8586.388927,459.657299
556.701620,-444.123565,-8882.471304,689.485948
556.701947,-370.102971,-8882.471304,459.657299
556.702275,-592.164754,-8882.471304,383.047749
556.702603,-222.061783,-9178.553681,842.705048
556.702930,-148.041188,-9178.553681,612.876398
556.703258,0.000000,-9178.553681,612.876398
556.703585,-222.061783,-9104.533087,536.266849
556.703913,-222.061783,-8808.450710,1225.752797
556.704240,-296.082377,-9252.574275,612.876398
556.704568,-444.123565,-9030.512492,383.047749
556.704896,-518.144159,-8956.491898,383.047749
556.705223,-518.144159,-9030.512492,459.657299
556.705551,-518.144159,-9104.533087,306.438199
556.705878,-592.164754,-9030.512492,995.924147
556.706206,-518.144159,-8956.491898,612.876398
556.706534,-296.082377,-9104.533087,306.438199
556.706861,0.000000,-9326.594869,459.657299
556.707189,-222.061783,-9030.512492,459.657299
556.707516,0.000000,-8808.450710,383.047749
556.707844,0.000000,-9474.636058,536.266849
556.708171,0.000000,-9400.615463,612.876398
556.708499,0.000000,-9474.636058,612.876398
556.708827,0.000000,-9622.677246,842.705048
556.709154,-222.061783,-9400.615463,1072.533697
556.709482,0.000000,-9252.574275,612.876398
556.709809,-74.020594,-9326.594869,459.657299
556.710137,0.000000,-9252.574275,536.266849
556.710465,0.000000,-9326.594869,459.657299
556.710792,0.000000,-9400.615463,612.876398
556.711120,0.000000,-9178.553681,383.047749
556.711447,-592.164754,-9178.553681,689.485948
556.711775,-296.082377,-9326.594869,536.266849
556.712102,-370.102971,-9252.574275,689.485948
556.712430,-296.082377,-9178.553681,536.266849
556.712758,148.041188,-9474.636058,766.095498
556.713085,0.000000,-9326.594869,306.438199
556.713413,0.000000,-9326.594869,459.657299
556.713740,0.000000,-9548.656652,612.876398
556.714068,0.000000,-9474.636058,612.876398
556.714395,74.020594,-8808.450710,229.828649
556.714723,-296.082377,-9400.615463,612.876398
556.715051,0.000000,-9104.533087,459.657299
556.715378,0.000000,-9104.533087,689.485948
556.715706,0.000000,-9104.533087,306.438199
556.716033,74.020594,-9030.512492,766.095498
556.716361,0.000000,-8808.450710,383.047749
556.716689,0.000000,-8956.491898,229.828649
556.717016,74.020594,-9178.553681,536.266849
556.717344,0.000000,-9178.553681,153.219100
556.717671,0.000000,-9252.574275,536.266849
556.717999,148.041188,-9400.615463,612.876398
556.718326,0.000000,-9104.533087,536.266849
556.718654,-222.061783,-9474.636058,612.876398
556.718982,-296.082377,-9326.594869,689.485948
556.719309,-518.144159,-9104.533087,842.705048
556.719637,-370.102971,-9104.533087,0.000000
556.719964,-444.123565,-9030.512492,766.095498
556.720292,-444.123565,-8956.491898,689.485948
556.720619,-666.185348,-8882.471304,766.095498
556.720947,-518.144159,-8734.430116,689.485948
556.721275,-296.082377,-8586.388927,612.876398
556.721602,-592.164754,-8290.306550,842.705048
556.721930,-518.144159,-8734.430116,919.314598
556.722257,-740.205942,-8734.430116,689.485948
556.722585,-592.164754,-9030.512492,689.485948
556.722913,-296.082377,-8956.491898,1225.752797
556.723240,-444.123565,-8882.471304,995.924147
556.723568,-370.102971,-8956.491898,689.485948
556.723895,-592.164754,-8956.491898,766.095498
556.724223,-592.164754,-9326.594869,536.266849
556.724550,-592.164754,-9104.533087,612.876398
556.724878,-518.144159,-8734.430116,459.657299
556.725206,-592.164754,-8882.471304,306.438199
556.725533,-518.144159,-9030.512492,536.266849
556.725861,-666.185348,-8956.491898,536.266849
556.726188,-518.144159,-8956.491898,306.438199
556.726516,-444.123565,-8660.409521,459.657299
556.726843,0.000000,-8808.450710,76.609550
556.727171,-370.102971,-9104.533087,229.828649
556.727499,0.000000,-9104.533087,536.266849
556.727826,-148.041188,-9030.512492,383.047749
556.728154,-74.020594,-9104.533087,766.095498
556.728481,0.000000,-9326.594869,459.657299
556.728809,-148.041188,-9474.636058,459.657299
556.729137,0.000000,-9326.594869,306.438199
556.729464,-296.082377,-9326.594869,306.438199
556.729792,-666.185348,-9030.512492,229.828649
556.730119,-296.082377,-8956.491898,842.705048
556.730447,-296.082377,-9252.574275,459.657299
556.730774,-296.082377,-8660.409521,383.047749
556.731102,-370.102971,-8956.491898,383.047749
556.731430,-148.041188,-8808.450710,229.828649
556.731757,0.000000,-8808.450710,306.438199
556.732085,-370.102971,-9104.533087,229.828649
556.732412,-370.102971,-9030.512492,612.876398
556.732740,-222.061783,-8956.491898,383.047749
556.733067,-296.082377,-9178.553681,612.876398
556.733395,-222.061783,-8660.409521,919.314598
556.733723,222.061783,-9252.574275,689.485948
556.734050,0.000000,-9178.553681,612.876398
556.734378,-222.061783,-9326.594869,689.485948
556.734705,-592.164754,-9400.615463,459.657299
556.735033,-370.102971,-8808.450710,536.266849
556.735361,-148.041188,-8808.450710,459.657299
556.735688,-370.102971,-8660.409521,612.876398
556.736016,-296.082377,-8956.491898,689.485948
556.736343,-370.102971,-9030.512492,612.876398
556.736671,0.000000,-9104.533087,536.266849
556.736998,0.000000,-8660.409521,766.095498
556.737326,0.000000,-8956.491898,306.438199
556.737654,-148.041188,-9400.615463,536.266849
556.737981,0.000000,-9326.594869,383.047749
556.738309,148.041188,-9474.636058,689.485948
556.738636,148.041188,-9252.574275,766.095498
556.738964,0.000000,-9474.636058,766.095498
556.739292,-296.082377,-9696.697840,919.314598
556.739619,-296.082377,-9770.718434,536.266849
556.739947,-444.123565,-9252.574275,459.657299
556.740274,-148.041188,-9030.512492,536.266849
556.740602,-222.061783,-9030.512492,612.876398
556.740929,-518.144159,-8956.491898,383.047749
556.741257,-222.061783,-9030.512492,459.657299
556.741585,-444.123565,-8882.471304,689.485948
556.741912,-222.061783,-8956.491898,689.485948
556.742240,-296.082377,-9178.553681,766.095498
556.742567,0.000000,-9252.574275,612.876398
556.742895,0.000000,-9178.553681,383.047749
556.743222,0.000000,-9252.574275,536.266849
556.743550,148.041188,-9696.697840,1072.533697
556.743878,0.000000,-9474.636058,919.314598
556.744205,0.000000,-9400.615463,612.876398
556.744533,0.000000,-9104.533087,459.657299
556.744860,0.000000,-9400.615463,689.485948
556.745188,-518.144159,-9474.636058,536.266849
556.745516,0.000000,-9474.636058,459.657299
556.745843,-296.082377,-9400.615463,153.219100
556.746171,-444.123565,-8882.471304,229.828649
556.746498,-444.123565,-9252.574275,383.047749
556.746826,-370.102971,-9252.574275,306.438199
556.747153,0.000000,-9104.533087,0.000000
556.747481,74.020594,-8734.430116,689.485948
556.747809,0.000000,-9178.553681,153.219100
556.748136,-148.041188,-9326.594869,536.266849
556.748464,-148.041188,-9326.594869,459.657299
556.748791,0.000000,-9252.574275,306.438199
556.749119,-518.144159,-9178.553681,1149.143247
556.749446,-444.123565,-9030.512492,536.266849
556.749774,0.000000,-9178.553681,383.047749
556.750102,-444.123565,-8882.471304,612.876398
556.750429,-296.082377,-9252.574275,689.485948
556.750757,-592.164754,-8586.388927,842.705048
556.751084,-740.205942,-8808.450710,383.047749
556.751412,-962.267725,-8734.430116,612.876398
556.751740,-888.247130,-8734.430116,612.876398
556.752067,-888.247130,-8586.388927,612.876398
556.752395,-740.205942,-8586.388927,612.876398
556.752722,-370.102971,-8734.430116,842.705048
556.753050,-222.061783,-9030.512492,689.485948
556.753377,0.000000,-9030.512492,612.876398
556.753705,-296.082377,-9104.533087,536.266849
556.754033,0.000000,-9104.533087,1149.143247
556.754360,0.000000,-8808.450710,689.485948
556.754688,-296.082377,-9104.533087,842.705048
556.755015,-518.144159,-9104.533087,842.705048
556.755343,-592.164754,-9104.533087,536.266849
556.755670,-370.102971,-8512.368333,459.657299
556.755998,-296.082377,-8512.368333,612.876398
556.756326,-370.102971,-8586.388927,306.438199
556.756653,-444.123565,-8734.430116,383.047749
556.756981,-296.082377,-8586.388927,306.438199
556.757308,-148.041188,-8808.450710,383.047749
556.757636,-148.041188,-8808.450710,612.876398
556.757964,-222.061783,-9400.615463,383.047749
556.758291,-148.041188,-9178.553681,383.047749
556.758619,0.000000,-9474.636058,536.266849
556.758946,0.000000,-9400.615463,612.876398
556.759274,74.020594,-9474.636058,1378.971896
556.759601,74.020594,-9474.636058,229.828649
556.759929,-74.020594,-9400.615463,459.657299
556.760257,-296.082377,-9326.594869,536.266849
556.760584,-296.082377,-9474.636058,612.876398
556.760912,-888.247130,-8882.471304,766.095498
556.761239,-370.102971,-9178.553681,689.485948
556.761567,-444.123565,-9178.553681,383.047749
556.761894,-518.144159,-9030.512492,536.266849
556.762222,-518.144159,-8956.491898,536.266849
556.762550,-296.082377,-9400.615463,76.609550
556.762877,-592.164754,-9104.533087,842.705048
556.763205,-444.123565,-9030.512492,612.876398
556.763532,-444.123565,-9400.615463,689.485948
556.763860,-148.041188,-9474.636058,842.705048
556.764188,-370.102971,-9400.615463,766.095498
556.764515,-296.082377,-9104.533087,842.705048
556.764843,-444.123565,-9326.594869,612.876398
556.765170,-666.185348,-9178.553681,536.266849
556.765498,-296.082377,-9252.574275,766.095498
556.765825,-444.123565,-8956.491898,842.705048
556.766153,74.020594,-8882.471304,1532.190996
556.766481,-148.041188,-9104.533087,536.266849
556.766808,0.000000,-8956.491898,536.266849
556.767136,0.000000,-8956.491898,306.438199
556.767463,0.000000,-9104.533087,383.047749
556.767791,-296.082377,-9104.533087,842.705048
556.768118,0.000000,-9252.574275,536.266849
556.768446,0.000000,-9326.594869,612.876398
556.768773,222.061783,-9252.574275,536.266849
556.769101,148.041188,-9474.636058,766.095498
556.769428,148.041188,-9548.656652,842.705048
556.769756,370.102971,-9252.574275,766.095498
556.770083,74.020594,-9104.533087,536.266849
556.770411,0.000000,-9104.533087,306.438199
556.770738,-370.102971,-8734.430116,229.828649
556.771066,0.000000,-9104.533087,229.828649
556.771393,0.000000,-9326.594869,612.876398
556.771721,0.000000,-8882.471304,536.266849
556.772048,-370.102971,-8734.430116,459.657299
556.772376,-222.061783,-9104.533087,459.657299
556.772703,0.000000,-9104.533087,459.657299
556.773031,-296.082377,-9252.574275,0.000000
556.773358,0.000000,-8660.409521,766.095498
556.773686,-148.041188,-9252.574275,766.095498
556.774013,-148.041188,-9252.574275,766.095498
556.774340,0.000000,-9326.594869,766.095498
556.774668,0.000000,-8882.471304,919.314598
556.774995,148.041188,-9252.574275,1302.362347
556.775323,-370.102971,-9178.553681,842.705048
556.775650,-370.102971,-9252.574275,842.705048
556.775978,-518.144159,-8808.450710,612.876398
556.776305,-370.102971,-9030.512492,689.485948
556.776633,-666.185348,-8808.450710,919.314598
556.776960,-666.185348,-9178.553681,536.266849
556.777288,-592.164754,-9104.533087,612.876398
556.777615,-518.144159,-8956.491898,612.876398
556.777943,-370.102971,-8808.450710,612.876398
556.778270,0.000000,-8956.491898,919.314598
556.778598,0.000000,-9104.533087,1072.533697
556.778925,-222.061783,-9178.553681,766.095498
556.779253,-370.102971,-9104.533087,612.876398
556.779580,-444.123565,-9326.594869,612.876398
556.779908,-296.082377,-8956.491898,459.657299
556.780235,-222.061783,-9326.594869,459.657299
556.780563,-518.144159,-9252.574275,383.047749
556.780890,-444.123565,-9030.512492,383.047749
556.781218,-518.144159,-8956.491898,229.828649
556.781545,-296.082377,-8586.388927,229.828649
556.781873,-518.144159,-8290.306550,995.924147
556.782200,-370.102971,-8660.409521,459.657299
556.782528,-444.123565,-8956.491898,229.828649
556.782855,-296.082377,-8956.491898,383.047749
556.783183,-444.123565,-8956.491898,306.438199
556.783510,-370.102971,-8586.388927,689.485948
556.783838,0.000000,-9104.533087,536.266849
556.784165,0.000000,-9326.594869,689.485948
556.784493,0.000000,-9030.512492,459.657299
556.784820,0.000000,-8956.491898,612.876398
556.785148,-370.102971,-9104.533087,766.095498
556.785475,-370.102971,-9474.636058,612.876398
556.785803,-592.164754,-9400.615463,536.266849
556.786130,-518.144159,-9178.553681,459.657299
556.786458,-518.144159,-9030.512492,229.828649
556.786785,-444.123565,-8882.471304,689.485948
556.787113,0.000000,-8660.409521,612.876398
556.787440,-370.102971,-8734.430116,459.657299
556.787767,-370.102971,-8734.430116,459.657299
556.788095,-444.123565,-8808.450710,383.047749
556.788422,-518.144159,-8956.491898,229.828649
556.788750,74.020594,-9326.594869,536.266849
556.789077,0.000000,-9178.553681,536.266849
556.789405,-222.061783,-9252.574275,842.705048
556.789732,-148.041188,-9252.574275,536.266849
556.790060,-296.082377,-9252.574275,612.876398
556.790387,0.000000,-9326.594869,842.705048
556.790715,-370.102971,-9030.512492,306.438199
556.791042,-296.082377,-8882.471304,612.876398
556.791370,-518.144159,-8956.491898,612.876398
556.791697,-370.102971,-8956.491898,766.095498
556.792025,-444.123565,-9030.512492,1072.533697
556.792352,-296.082377,-8808.450710,306.438199
556.792680,-518.144159,-8956.491898,536.266849
556.793007,-592.164754,-9030.512492,459.657299
556.793335,-518.144159,-9252.574275,612.876398
556.793662,-518.144159,-9252.574275,766.095498
556.793990,-148.041188,-9326.594869,766.095498
556.794317,-148.041188,-9400.615463,689.485948
556.794645,-296.082377,-9548.656652,766.095498
556.794972,-296.082377,-9622.677246,995.924147
556.795300,-592.164754,-9474.636058,689.485948
556.795627,-592.164754,-9252.574275,229.828649
556.795955,-444.123565,-9252.574275,536.266849
556.796282,-222.061783,-9252.574275,689.485948
556.796610,-370.102971,-9178.553681,383.047749
556.796937,-148.041188,-9030.512492,383.047749
556.797265,-296.082377,-9178.553681,153.219100
556.797592,-370.102971,-9030.512492,612.876398
556.797920,-222.061783,-9326.594869,536.266849
556.798247,0.000000,-9178.553681,536.266849
556.798575,0.000000,-9252.574275,612.876398
556.798902,222.061783,-9326.594869,766.095498
556.799230,0.000000,-9326.594869,612.876398
556.799557,148.041188,-9474.636058,459.657299
556.799885,0.000000,-9474.636058,459.657299
556.800212,222.061783,-9474.636058,459.657299
556.800540,0.000000,-9104.533087,536.266849
556.800867,74.020594,-8956.491898,306.438199
556.801194,0.000000,-9252.574275,459.657299
556.801522,-222.061783,-9104.533087,383.047749
556.801849,-296.082377,-9104.533087,536.266849
556.802177,-444.123565,-9030.512492,612.876398
556.802504,-518.144159,-8660.409521,612.876398
556.802832,-444.123565,-9030.512492,229.828649
556.803159,0.000000,-9104.533087,306.438199
556.803487,0.000000,-8734.430116,383.047749
556.803814,0.000000,-8660.409521,689.485948
556.804142,-148.041188,-8586.388927,842.705048
556.804469,0.000000,-9178.553681,612.876398
556.804797,-370.102971,-9252.574275,536.266849
556.805124,-518.144159,-9252.574275,842.705048
556.805452,-740.205942,-9104.533087,612.876398
556.805779,-666.185348,-8956.491898,689.485948
556.806107,0.000000,-9104.533087,612.876398
556.806434,-148.041188,-8882.471304,536.266849
556.806762,-518.144159,-8586.388927,459.657299
556.807089,-740.205942,-8660.409521,383.047749
556.807417,-518.144159,-8290.306550,306.438199
556.807744,-814.226536,-8734.430116,842.705048
556.808072,-444.123565,-8882.471304,459.657299
556.808399,-370.102971,-8808.450710,612.876398
556.808727,-370.102971,-9030.512492,612.876398
556.809054,-370.102971,-8882.471304,919.314598
556.809382,0.000000,-8808.450710,612.876398
556.809709,-296.082377,-9104.533087,612.876398
556.810037,-296.082377,-8956.491898,536.266849
556.810364,-370.102971,-9030.512492,612.876398
556.810692,-444.123565,-9326.594869,689.485948
556.811019,-444.123565,-9030.512492,1225.752797
556.811347,-370.102971,-9252.574275,383.047749
556.811674,-370.102971,-9178.553681,536.266849
556.812002,-518.144159,-8882.471304,306.438199
556.812329,-370.102971,-9030.512492,229.828649
556.812657,-370.102971,-8734.430116,612.876398
556.812984,0.000000,-8808.450710,0.000000
556.813312,-222.061783,-8882.471304,383.047749
556.813639,-148.041188,-9104.533087,383.047749
556.813967,0.000000,-9178.553681,459.657299
556.814294,-148.041188,-9030.512492,0.000000
556.814621,-222.061783,-9104.533087,153.219100
556.814949,0.000000,-9178.553681,459.657299
556.815276,0.000000,-9474.636058,689.485948
556.815604,0.000000,-9178.553681,459.657299
556.815931,0.000000,-9178.553681,536.266849
556.816259,0.000000,-9178.553681,689.485948
556.816586,-370.102971,-9252.574275,383.047749
556.816914,-296.082377,-9104.533087,459.657299
556.817241,-148.041188,-9104.533087,536.266849
556.817569,-148.041188,-9178.553681,612.876398
556.817896,0.000000,-8882.471304,306.438199
556.818224,0.000000,-9030.512492,306.438199
556.818551,0.000000,-9326.594869,536.266849
556.818879,0.000000,-9474.636058,689.485948
556.819206,0.000000,-9400.615463,612.876398
556.819534,0.000000,-8956.491898,689.485948
556.819861,0.000000,-9474.636058,612.876398
556.820189,0.000000,-9548.656652,766.095498
556.820516,-370.102971,-9474.636058,612.876398
556.820844,-370.102971,-9474.636058,689.485948
556.821171,-444.123565,-8956.491898,536.266849
556.821499,-222.061783,-9104.533087,459.657299
556.821826,-518.144159,-8956.491898,383.047749
556.822154,-222.061783,-9030.512492,459.657299
556.822481,-370.102971,-8808.450710,612.876398
556.822809,-444.123565,-8956.491898,612.876398
556.823136,-222.061783,-8660.409521,842.705048
556.823464,-222.061783,-8956.491898,766.095498
556.823791,-148.041188,-9178.553681,536.266849
556.824119,-222.061783,-9178.553681,536.266849
556.824446,0.000000,-9252.574275,612.876398
556.824774,0.000000,-8808.450710,919.314598
556.825101,0.000000,-9030.512492,919.314598
556.825429,74.020594,-9252.574275,536.266849
556.825756,74.020594,-9252.574275,766.095498
556.826084,0.000000,-9474.636058,459.657299
556.826411,0.000000,-9178.553681,459.657299
556.826739,0.000000,-9104.533087,0.000000
556.827066,-148.041188,-9178.553681,306.438199
556.827394,-296.082377,-9104.533087,306.438199
556.827721,-296.082377,-9030.512492,306.438199
556.828048,-518.144159,-9030.512492,229.828649
556.828376,0.000000,-8956.491898,0.000000
556.828703,0.000000,-9030.512492,306.438199
556.829031,0.000000,-9178.553681,383.047749
556.829358,0.000000,-9252.574275,459.657299
556.829686,0.000000,-9178.553681,536.266849
556.830013,0.000000,-8808.450710,842.705048
556.830341,0.000000,-9178.553681,383.047749
556.830668,-370.102971,-9400.615463,306.438199
556.830996,0.000000,-9326.594869,536.266849
556.831323,-148.041188,-9474.636058,612.876398
556.831651,0.000000,-9252.574275,536.266849
556.831978,-222.061783,-9104.533087,76.609550
556.832306,-296.082377,-8956.491898,383.047749
556.832633,-518.144159,-9030.512492,459.657299
556.832961,-296.082377,-9030.512492,536.266849
556.833288,-740.205942,-9178.553681,842.705048
556.833616,0.000000,-9104.533087,153.219100
556.833943,-296.082377,-9252.574275,842.705048
556.834271,-370.102971,-9252.574275,766.095498
556.834598,-444.123565,-9326.594869,612.876398
556.834926,-518.144159,-9252.574275,1302.362347
556.835253,-148.041188,-9104.533087,1302.362347
556.835581,-518.144159,-9104.533087,612.876398
556.835908,-518.144159,-9104.533087,689.485948
556.836236,-518.144159,-9252.574275,612.876398
556.836563,-666.185348,-9104.533087,383.047749
556.836891,-666.185348,-8734.430116,1072.533697
556.837218,-666.185348,-8808.450710,306.438199
556.837546,-740.205942,-8734.430116,536.266849
556.837873,-666.185348,-8956.491898,612.876398
556.838201,-444.123565,-8956.491898,459.657299
556.838528,-592.164754,-8734.430116,306.438199
556.838856,0.000000,-8734.430116,229.828649
556.839183,-148.041188,-9030.512492,383.047749
556.839511,0.000000,-9400.615463,536.266849
556.839838,0.000000,-9252.574275,612.876398
556.840166,0.000000,-9326.594869,0.000000
556.840493,-148.041188,-9178.553681,689.485948
556.840821,-222.061783,-8956.491898,229.828649
556.841148,-370.102971,-9030.512492,383.047749
556.841475,-296.082377,-8956.491898,459.657299
556.841803,0.000000,-8882.471304,229.828649
556.842130,0.000000,-8734.430116,689.485948
556.842458,-296.082377,-8882.471304,153.219100
556.842785,-592.164754,-8808.450710,76.609550
556.843113,-370.102971,-8882.471304,76.609550
556.843440,-296.082377,-8586.388927,229.828649
556.843768,-518.144159,-8734.430116,766.095498
556.844095,74.020594,-9030.512492,306.438199
556.844423,-296.082377,-9178.553681,306.438199
556.844750,-370.102971,-9178.553681,536.266849
556.845078,-148.041188,-9252.574275,689.485948
556.845405,-296.082377,-8808.450710,689.485948
556.845733,148.041188,-9104.533087,919.314598
556.846060,-296.082377,-9030.512492,689.485948
556.846388,-296.082377,-9178.553681,689.485948
556.846715,-370.102971,-9104.533087,919.314598
556.847043,0.000000,-8586.388927,689.485948
556.847370,-296.082377,-8660.409521,689.485948
556.847698,-518.144159,-9030.512492,842.705048
556.848025,-444.123565,-9252.574275,689.485948
556.848353,-518.144159,-9178.553681,689.485948
556.848680,-370.102971,-9178.553681,842.705048
556.849008,-370.102971,-8882.471304,689.485948
556.849335,-444.123565,-9474.636058,919.314598
556.849663,-296.082377,-9622.677246,919.314598
556.849990,-222.061783,-9400.615463,842.705048
556.850318,0.000000,-9474.636058,612.876398
556.850645,-296.082377,-9400.615463,1149.143247
556.850973,0.000000,-9474.636058,459.657299
556.851300,0.000000,-9326.594869,612.876398
556.851628,0.000000,-9104.533087,153.219100
556.851955,-296.082377,-9178.553681,459.657299
556.852283,-444.123565,-8882.471304,76.609550
556.852610,0.000000,-9252.574275,76.609550
556.852938,-222.061783,-9252.574275,459.657299
556.853265,0.000000,-9474.636058,229.828649
556.853593,0.000000,-9474.636058,383.047749
556.853920,0.000000,-9252.574275,0.000000
556.854248,444.123565,-9252.574275,306.438199
556.854575,222.061783,-9178.553681,459.657299
556.854902,74.020594,-9474.636058,459.657299
556.855230,74.020594,-9326.594869,536.266849
556.855557,0.000000,-9474.636058,612.876398
556.855885,148.041188,-9326.594869,1149.143247
556.856212,-370.102971,-9474.636058,766.095498
556.856540,-592.164754,-9178.553681,536.266849
556.856867,-518.144159,-9178.553681,536.266849
556.857195,-592.164754,-9104.533087,459.657299
556.857522,-222.061783,-8660.409521,1225.752797
556.857850,0.000000,-8586.388927,536.266849
556.858177,-370.102971,-8734.430116,842.705048
556.858505,-518.144159,-8956.491898,766.095498
556.858832,-740.205942,-8808.450710,612.876398
556.859160,-444.123565,-8512.368333,459.657299
556.859487,-296.082377,-9178.553681,919.314598
556.859815,-518.144159,-8956.491898,919.314598
556.860142,-518.144159,-9178.553681,842.705048
556.860470,-296.082377,-9030.512492,842.705048
556.860797,-444.123565,-8808.450710,612.876398
556.861125,-370.102971,-8660.409521,383.047749
556.861452,-592.164754,-8956.491898,689.485948
556.861780,-518.144159,-9030.512492,689.485948
556.862107,-370.102971,-8882.471304,689.485948
556.862435,-444.123565,-8660.409521,689.485948
556.862762,-148.041188,-8734.430116,383.047749
556.863090,-296.082377,-8660.409521,536.266849
556.863417,-222.061783,-8808.450710,459.657299
556.863745,-296.082377,-8660.409521,229.828649
556.864072,0.000000,-8808.450710,306.438199
556.864400,74.020594,-8956.491898,766.095498
556.864727,0.000000,-9030.512492,459.657299
556.865055,0.000000,-9252.574275,383.047749
556.865382,-222.061783,-9326.594869,459.657299
556.865710,-148.041188,-9400.615463,459.657299
556.866037,-148.041188,-9030.512492,536.266849
556.866365,0.000000,-9104.533087,306.438199
556.866692,0.000000,-9178.553681,383.047749
556.867020,0.000000,-8882.471304,76.609550
556.867347,-444.123565,-8882.471304,229.828649
556.867675,-444.123565,-8734.430116,229.828649
556.868002,-518.144159,-8660.409521,612.876398
556.868329,-370.102971,-8882.471304,459.657299
556.868657,-518.144159,-9104.533087,459.657299
556.868985,-592.164754,-9252.574275,459.657299
556.869312,-296.082377,-9178.553681,689.485948
556.869640,-296.082377,-8808.450710,459.657299
556.869967,0.000000,-9104.533087,459.657299
556.870295,-296.082377,-9326.594869,612.876398
556.870623,-296.082377,-9178.553681,612.876398
556.870950,-370.102971,-9252.574275,689.485948
556.871278,-518.144159,-9178.553681,919.314598
556.871605,-444.123565,-8956.491898,766.095498
556.871933,-592.164754,-9252.574275,766.095498
556.872261,-296.082377,-9178.553681,842.705048
556.872588,-518.144159,-9104.533087,689.485948
556.872916,-518.144159,-8882.471304,766.095498
556.873243,-370.102971,-8956.491898,1072.533697
556.873571,-444.123565,-8734.430116,383.047749
556.873899,-296.082377,-9030.512492,689.485948
556.874226,-296.082377,-9400.615463,1072.533697
556.874554,-222.061783,-9474.636058,766.095498
556.874881,74.020594,-9178.553681,76.609550
556.875209,0.000000,-9252.574275,842.705048
556.875537,0.000000,-9400.615463,612.876398
556.875864,0.000000,-9474.636058,919.314598
556.876192,0.000000,-9474.636058,459.657299
556.876519,-296.082377,-8660.409521,842.705048
556.876847,-296.082377,-9178.553681,842.705048
556.877175,-370.102971,-9030.512492,459.657299
556.877502,-444.123565,-9252.574275,536.266849
556.877830,-222.061783,-9252.574275,459.657299
556.878157,-148.041188,-8882.471304,459.657299
556.878485,0.000000,-8956.491898,153.219100
556.878813,0.000000,-8882.471304,306.438199
556.879140,0.000000,-9178.553681,459.657299
556.879468,0.000000,-9104.533087,459.657299
556.879795,-370.102971,-9030.512492,1072.533697
556.880123,0.000000,-9030.512492,842.705048
556.880451,0.000000,-9474.636058,383.047749
556.880778,-296.082377,-9474.636058,612.876398
556.881106,0.000000,-9548.656652,536.266849
556.881433,0.000000,-9104.533087,536.266849
556.881761,0.000000,-9252.574275,229.828649
556.882088,-518.144159,-9178.553681,536.266849
556.882416,-370.102971,-9104.533087,383.047749
556.882744,-296.082377,-8882.471304,612.876398
556.883071,-370.102971,-8808.450710,306.438199
556.883399,-296.082377,-9030.512492,306.438199
556.883726,-370.102971,-8956.491898,612.876398
556.884054,-444.123565,-8956.491898,383.047749
556.884382,-444.123565,-9104.533087,536.266849
556.884709,-296.082377,-9104.533087,536.266849
556.885037,-148.041188,-9326.594869,842.705048
556.885364,0.000000,-9030.512492,766.095498
556.885692,0.000000,-9400.615463,536.266849
556.886020,-296.082377,-9400.615463,842.705048
556.886347,-222.061783,-9474.636058,919.314598
556.886675,-370.102971,-9178.553681,995.924147
556.887002,-370.102971,-9030.512492,1225.752797
556.887330,-444.123565,-9104.533087,612.876398
556.887658,-444.123565,-8956.491898,383.047749
556.887985,-370.102971,-8956.491898,459.657299
556.888313,-592.164754,-8956.491898,306.438199
556.888640,-518.144159,-8734.430116,76.609550
556.888968,-592.164754,-8734.430116,459.657299
556.889296,-444.123565,-8956.491898,459.657299
556.889623,-370.102971,-8956.491898,459.657299
556.889951,-296.082377,-8882.471304,536.266849
556.890278,-296.082377,-9178.553681,0.000000
556.890606,-148.041188,-9104.533087,383.047749
556.890934,-148.041188,-9252.574275,383.047749
556.891261,-444.123565,-9400.615463,459.657299
556.891589,-666.185348,-9252.574275,459.657299
556.891916,-296.082377,-9178.553681,76.609550
556.892244,0.000000,-9178.553681,766.095498
556.892572,-222.061783,-8956.491898,383.047749
556.892899,-148.041188,-8956.491898,383.047749
556.893227,0.000000,-8956.491898,383.047749
556.893554,148.041188,-8586.388927,612.876398
556.893882,-370.102971,-8882.471304,766.095498
556.894210,-444.123565,-8882.471304,459.657299
556.894537,-148.041188,-9178.553681,459.657299
556.894865,0.000000,-9252.574275,612.876398
556.895192,-148.041188,-9178.553681,612.876398
556.895520,-666.185348,-9030.512492,612.876398
556.895848,0.000000,-9474.636058,766.095498
556.896175,-222.061783,-9252.574275,689.485948
556.896503,-444.123565,-8956.491898,536.266849
556.896830,-296.082377,-8956.491898,766.095498
556.897158,-148.041188,-8660.409521,153.219100
556.897486,-518.144159,-9030.512492,766.095498
556.897813,-592.164754,-8956.491898,689.485948
556.898141,-666.185348,-9104.533087,766.095498
556.898468,-592.164754,-8956.491898,536.266849
556.898796,-370.102971,-9252.574275,612.876398
556.899124,-296.082377,-9030.512492,306.438199
556.899451,0.000000,-8882.471304,536.266849
556.899779,148.041188,-8734.430116,689.485948
556.900106,74.020594,-9326.594869,766.095498
556.900434,0.000000,-9474.636058,766.095498
556.900762,148.041188,-9622.677246,459.657299
556.901089,0.000000,-9474.636058,766.095498
556.901417,-148.041188,-9474.636058,766.095498
556.901744,-370.102971,-9622.677246,766.095498
556.902072,-592.164754,-9474.636058,229.828649
556.902400,-148.041188,-8882.471304,536.266849
556.902727,0.000000,-8956.491898,153.219100
556.903055,-370.102971,-8808.450710,229.828649
556.903382,-444.123565,-9030.512492,76.609550
556.903710,0.000000,-8956.491898,153.219100
556.904038,-296.082377,-8882.471304,306.438199
556.904365,-222.061783,-8882.471304,0.000000
556.904693,0.000000,-9326.594869,306.438199
556.905020,0.000000,-9252.574275,459.657299
556.905348,0.000000,-9104.533087,612.876398
556.905676,148.041188,-8956.491898,459.657299
556.906003,222.061783,-9178.553681,383.047749
556.906331,-148.041188,-9474.636058,612.876398
556.906658,-370.102971,-9474.636058,842.705048
556.906986,-518.144159,-9400.615463,306.438199
556.907314,-666.185348,-9548.656652,612.876398
556.907641,-666.185348,-9252.574275,919.314598
556.907969,-740.205942,-9178.553681,689.485948
556.908296,-666.185348,-8882.471304,689.485948
556.908624,-444.123565,-8734.430116,383.047749
556.908952,-370.102971,-8808.450710,536.266849
556.909279,0.000000,-8882.471304,842.705048
556.909607,-592.164754,-8808.450710,689.485948
556.909934,-296.082377,-9252.574275,766.095498
556.910262,-148.041188,-9252.574275,689.485948
556.910590,-296.082377,-9178.553681,689.485948
556.910917,0.000000,-9104.533087,1072.533697
556.911245,-296.082377,-8956.491898,842.705048
556.911572,-444.123565,-9104.533087,919.314598
556.911900,-518.144159,-9104.533087,842.705048
556.912228,-592.164754,-9178.553681,689.485948
556.912555,-666.185348,-8956.491898,689.485948
556.912883,-888.247130,-8364.327145,919.314598
556.913210,-296.082377,-8956.491898,383.047749
556.913538,-296.082377,-8882.471304,536.266849
556.913865,-148.041188,-9030.512492,153.219100
556.914193,-296.082377,-8882.471304,306.438199
556.914521,0.000000,-8512.368333,0.000000
556.914848,0.000000,-9030.512492,153.219100
556.915176,0.000000,-9326.594869,459.657299
556.915503,0.000000,-9252.574275,306.438199
556.915831,444.123565,-9474.636058,612.876398
556.916159,74.020594,-9548.656652,842.705048
556.916486,0.000000,-9474.636058,383.047749
556.916814,-296.082377,-9400.615463,459.657299
556.917141,-222.061783,-9178.553681,459.657299
556.917469,-296.082377,-9030.512492,306.438199
556.917797,-296.082377,-9104.533087,689.485948
556.918124,-592.164754,-8586.388927,842.705048
556.918452,-222.061783,-8660.409521,536.266849
556.918779,-444.123565,-8660.409521,459.657299
556.919107,-518.144159,-8660.409521,383.047749
556.919435,-666.185348,-8882.471304,536.266849
556.919762,-740.205942,-8438.347739,153.219100
556.920090,-592.164754,-8956.491898,383.047749
556.920417,-592.164754,-9178.553681,383.047749
556.920745,-370.102971,-9178.553681,766.095498
556.921073,-740.205942,-9400.615463,536.266849
556.921400,-518.144159,-9030.512492,842.705048
556.921728,-444.123565,-9178.553681,612.876398
556.922055,-444.123565,-9178.553681,536.266849
556.922383,-296.082377,-9252.574275,612.876398
556.922711,-444.123565,-8956.491898,536.266849
556.923038,-370.102971,-9178.553681,1149.143247
556.923366,-148.041188,-9030.512492,842.705048
556.923693,-740.205942,-9178.553681,766.095498
556.924021,-666.185348,-8956.491898,612.876398
556.924349,-370.102971,-9104.533087,383.047749
556.924676,-370.102971,-8882.471304,536.266849
556.925004,-296.082377,-8586.388927,766.095498
556.925331,-296.082377,-9178.553681,766.095498
556.925659,-222.061783,-9252.574275,536.266849
556.925987,0.000000,-9104.533087,689.485948
556.926314,0.000000,-9178.553681,689.485948
556.926642,0.000000,-9252.574275,459.657299
556.926969,-518.144159,-9400.615463,536.266849
556.927297,-370.102971,-9326.594869,536.266849
556.927625,-296.082377,-9252.574275,766.095498
556.927952,-444.123565,-8956.491898,383.047749
556.928280,0.000000,-8882.471304,612.876398
556.928607,-444.123565,-8882.471304,689.485948
556.928935,-518.144159,-9030.512492,459.657299
556.929263,-592.164754,-8808.450710,689.485948
556.929590,-592.164754,-8956.491898,536.266849
556.929918,-666.185348,-8734.430116,1149.143247
556.930245,296.082377,-9252.574275,995.924147
556.930573,-296.082377,-9030.512492,689.485948
556.930901,0.000000,-8882.471304,612.876398
556.931228,-148.041188,-8956.491898,689.485948
556.931556,74.020594,-8734.430116,459.657299
556.931883,74.020594,-8660.409521,919.314598
556.932211,-370.102971,-8956.491898,612.876398
556.932539,-592.164754,-8956.491898,612.876398
556.932866,-518.144159,-9178.553681,383.047749
556.933194,-370.102971,-9030.512492,383.047749
556.933521,-296.082377,-9030.512492,842.705048
556.933849,-296.082377,-8956.491898,536.266849
556.934177,0.000000,-9326.594869,536.266849
556.934504,-222.061783,-9030.512492,612.876398
556.934832,-296.082377,-9104.533087,306.438199
556.935159,-148.041188,-9326.594869,76.609550
556.935487,0.000000,-9474.636058,459.657299
556.935815,-222.061783,-9548.656652,689.485948
556.936142,0.000000,-9474.636058,536.266849
556.936470,148.041188,-9474.636058,766.095498
556.936797,296.082377,-9400.615463,-153.219100
556.937125,444.123565,-9400.615463,766.095498
556.937453,0.000000,-9400.615463,536.266849
556.937780,0.000000,-9400.615463,612.876398
556.938108,0.000000,-9548.656652,459.657299
556.938435,-148.041188,-9622.677246,919.314598
556.938763,0.000000,-9104.533087,842.705048
556.939091,0.000000,-9622.677246,536.266849
556.939418,0.000000,-9326.594869,153.219100
556.939746,-148.041188,-9104.533087,229.828649
556.940073,-74.020594,-8660.409521,766.095498
556.940401,0.000000,-8734.430116,383.047749
