#time,accel_x,accel_y,accel_z
608.947575,-592.164754,-8808.450710,689.485948
608.947903,-296.082377,-8660.409521,766.095498
608.948230,-296.082377,-9178.553681,536.266849
608.948558,-296.082377,-9326.594869,383.047749
608.948885,-148.041188,-9178.553681,459.657299
608.949213,-518.144159,-9252.574275,-153.219100
608.949540,-296.082377,-8882.471304,1072.533697
608.949868,-444.123565,-9104.533087,536.266849
608.950195,-296.082377,-9178.553681,612.876398
608.950523,-222.061783,-9252.574275,536.266849
608.950851,0.000000,-9030.512492,766.095498
608.951178,296.082377,-9474.636058,459.657299
608.951506,-370.102971,-9104.533087,536.266849
608.951833,-444.123565,-9104.533087,536.266849
608.952161,-296.082377,-9030.512492,612.876398
608.952488,-148.041188,-9104.533087,536.266849
608.952816,0.000000,-9104.533087,383.047749
608.953143,-222.061783,-9030.512492,919.314598
608.953471,-296.082377,-9030.512492,536.266849
608.953798,-370.102971,-9178.553681,536.266849
608.954126,-296.082377,-9030.512492,536.266849
608.954453,-296.082377,-9178.553681,612.876398
608.954781,-222.061783,-9030.512492,612.876398
608.955109,-222.061783,-9178.553681,383.047749
608.955436,0.000000,-9474.636058,459.657299
608.955764,-222.061783,-9030.512492,612.876398
608.956091,-370.102971,-8882.471304,1072.533697
608.956419,-222.061783,-9030.512492,306.438199
608.956746,0.000000,-9178.553681,612.876398
608.957074,-370.102971,-9178.553681,459.657299
608.957401,-148.041188,-9178.553681,536.266849
608.957729,-148.041188,-9030.512492,689.485948
608.958056,0.000000,-8734.430116,536.266849
608.958384,-370.102971,-9104.533087,766.095498
608.958711,-222.061783,-9178.553681,612.876398
608.959039,-296.082377,-9178.553681,306.438199
608.959367,-148.041188,-9104.533087,459.657299
608.959694,74.020594,-9030.512492,1225.752797
608.960022,0.000000,-9104.533087,612.876398
608.960349,-370.102971,-9104.533087,306.438199
608.960677,-814.226536,-9178.553681,153.219100
608.961004,-1184.329507,-9474.636058,76.609550
608.961332,-1110.308913,-9400.615463,-229.828649
608.961659,-962.267725,-9400.615463,-612.876398
608.961987,-666.185348,-9030.512492,-459.657299
608.962314,-370.102971,-9104.533087,-229.828649
608.962642,-592.164754,-9178.553681,-536.266849
608.962969,-666.185348,-9030.512492,-919.314598
608.963297,-1036.288319,-9178.553681,-1302.362347
608.963625,-1332.370696,-8882.471304,-1225.752797
608.963952,-1036.288319,-9326.594869,-1455.581446
608.964280,-666.185348,-9252.574275,-1455.581446
608.964607,-296.082377,-9252.574275,-1225.752797
608.964935,148.041188,-9326.594869,-919.314598
608.965262,-222.061783,-9178.553681,-1302.362347
608.965590,-296.082377,-9030.512492,-1532.190996
608.965917,-444.123565,-9252.574275,-1608.800546
608.966245,-222.061783,-9400.615463,-1762.019645
608.966572,0.000000,-8808.450710,-1302.362347
608.966900,370.102971,-9030.512492,-1455.581446
608.967227,518.144159,-9252.574275,-1685.410096
608.967555,444.123565,-9252.574275,-1608.800546
608.967883,370.102971,-9400.615463,-1685.410096
608.968210,222.061783,-8956.491898,-1532.190996
608.968538,740.205942,-9178.553681,-2374.896044
608.968865,148.041188,-9178.553681,-1838.629195
608.969193,0.000000,-9104.533087,-1762.019645
608.969520,222.061783,-9474.636058,-1915.238745
608.969848,222.061783,-9252.574275,-1685.410096
608.970175,0.000000,-8882.471304,-2145.067394
608.970503,-296.082377,-9104.533087,-1915.238745
608.970830,-666.185348,-9252.574275,-2221.676944
608.971158,-814.226536,-9178.553681,-2374.896044
608.971485,-1184.329507,-9252.574275,-2374.896044
608.971813,-814.226536,-9400.615463,-2374.896044
608.972141,-1628.453072,-9030.512492,-2528.115143
608.972468,-1776.494261,-9178.553681,-2757.943793
608.972796,-2220.617826,-9104.533087,-3370.820191
608.973123,-2294.638420,-8882.471304,-3447.429741
608.973451,-1924.535449,-8882.471304,-3370.820191
608.973778,-1924.535449,-8808.450710,-3907.087040
608.974106,-1850.514855,-9030.512492,-4060.306139
608.974433,-1628.453072,-8882.471304,-4366.744339
608.974761,-1258.350101,-8808.450710,-4213.525239
608.975088,-296.082377,-8660.409521,-4136.915689
608.975416,370.102971,-8956.491898,-3753.867940
608.975743,666.185348,-9030.512492,-3217.601092
608.976071,1332.370696,-9178.553681,-2911.162892
608.976399,1850.514855,-9104.533087,-2604.724693
608.976726,2220.617826,-9030.512492,-2298.286494
608.977054,2368.659014,-9474.636058,-1991.848295
608.977381,1776.494261,-9770.718434,-1991.848295
608.977709,814.226536,-10140.821405,-2298.286494
608.978036,0.000000,-10436.903782,-2834.553343
608.978364,-814.226536,-10510.924376,-3217.601092
608.978691,-1184.329507,-10214.842000,-4060.306139
608.979019,-2072.576638,-9622.677246,-4366.744339
608.979346,-1406.391290,-9104.533087,-4673.182538
608.979674,-222.061783,-8290.306550,-4596.572988
608.980001,888.247130,-7698.141797,-3907.087040
608.980329,1850.514855,-6957.935855,-3217.601092
608.980657,2886.803174,-7328.038826,-2145.067394
608.980984,1998.556043,-7994.224174,-1915.238745
608.981312,444.123565,-9178.553681,-1991.848295
608.981639,-1554.432478,-9844.739029,-2068.457845
608.981967,-2886.803174,-10584.944971,-2604.724693
608.982294,-3330.926739,-10510.924376,-2068.457845
608.982622,-2960.823768,-10436.903782,-2451.505594
608.982949,-1480.411884,-9696.697840,-2068.457845
608.983277,222.061783,-8364.327145,-1532.190996
608.983604,3404.947333,-7105.977043,612.876398
608.983932,7772.162391,-6143.709319,1149.143247
608.984259,10436.903782,-5181.441594,3600.648841
608.984587,10288.862594,-6735.874072,4826.401637
608.984915,6069.688724,-9770.718434,4749.792088
608.985242,-666.185348,-13101.645173,3524.039291
608.985570,-7254.018232,-14508.036463,536.266849
608.985897,-11251.130318,-14952.160028,0.000000
608.986225,-11769.274478,-14137.933492,-2145.067394
608.986552,-9548.656652,-11917.315666,-2221.676944
608.986880,-5847.626942,-9326.594869,-2145.067394
608.987207,-2146.597232,-6661.853478,-1072.533697
608.987535,-1480.411884,-4515.256246,-2911.162892
608.987862,-1554.432478,-5107.421000,-3983.696590
608.988190,-7031.956449,-5921.647536,-7201.297681
608.988517,-10732.986159,-7698.141797,-8810.098227
608.988845,-14434.015869,-8660.409521,-10112.460574
608.989173,-13693.809927,-8290.306550,-11568.042020
608.989500,-10510.924376,-8364.327145,-9499.584175
608.989828,-3256.906145,-7698.141797,-7737.564530
608.990155,1406.391290,-6587.832884,-6128.763984
608.990483,4219.173869,-7179.997637,-6052.154434
608.990810,6883.915261,-9178.553681,-5209.449386
608.991138,3256.906145,-9992.780217,-7201.297681
608.991465,4367.215058,-10881.027347,-6971.469032
608.991793,7105.977043,-10807.006753,-6281.983084
608.992120,10436.903782,-10436.903782,-5132.839837
608.992448,12953.603985,-9918.759623,-2681.334243
608.992775,13915.871710,-10288.862594,-1225.752797
608.993103,13249.686362,-10584.944971,-1838.629195
608.993431,13101.645173,-9770.718434,-1608.800546
608.993758,12731.542202,-10732.986159,-2604.724693
608.994086,13249.686362,-11029.068536,-459.657299
608.994413,10732.986159,-11695.253884,-2374.896044
608.994741,296.082377,-14508.036463,-3753.867940
608.995068,-6735.874072,-15470.304188,-7201.297681
608.995396,-11843.295072,-12509.480420,-8427.050478
608.995723,-7846.182985,-8068.244768,-7584.345430
608.996051,-740.205942,-3108.864956,-5822.325785
608.996378,4367.215058,-2072.576638,-2298.286494
608.996706,4441.235652,-1258.350101,-689.485948
608.997033,2072.576638,-2738.761985,-229.828649
608.997361,-3256.906145,-4219.173869,-689.485948
608.997689,-5773.606348,-6143.709319,-689.485948
608.998016,-7402.059420,-7476.080014,-995.924147
608.998344,-7994.224174,-9252.574275,-306.438199
608.998671,-7105.977043,-10362.883188,2374.896044
608.998999,-5255.462188,-9918.759623,4903.011187
608.999326,-4663.297435,-7772.162391,5745.716235
608.999654,-1480.411884,-7105.977043,5132.839837
608.999981,-1998.556043,-9400.615463,2757.943793
609.000309,-5033.400406,-11103.089130,383.047749
609.000636,-6809.894666,-10955.047942,-1608.800546
609.000964,-6365.771101,-9992.780217,-919.314598
609.001291,-2738.761985,-8290.306550,0.000000
609.001619,-1332.370696,-8734.430116,995.924147
609.001947,-666.185348,-9474.636058,919.314598
609.002274,-1554.432478,-9548.656652,383.047749
609.002602,-3997.112087,-9400.615463,0.000000
609.002929,-4219.173869,-9474.636058,306.438199
609.003257,-3627.009116,-9844.739029,-383.047749
609.003584,-2738.761985,-11251.130318,-995.924147
609.003912,-1924.535449,-12065.356855,-2374.896044
609.004239,-3478.967927,-9844.739029,-2221.676944
609.004567,888.247130,-7402.059420,-1225.752797
609.004894,814.226536,-6513.812290,-1991.848295
609.005222,370.102971,-6439.791695,-2987.772442
609.005549,2146.597232,-8734.430116,-4826.401637
609.005877,3923.091493,-8216.285956,-4903.011187
609.006205,5181.441594,-8068.244768,-4136.915689
609.006532,6143.709319,-8808.450710,-3753.867940
609.006860,4589.276840,-12361.439231,-3447.429741
609.007187,4145.153275,-14211.954086,-3294.210641
609.007515,3849.070898,-14063.912898,-3600.648841
609.007842,2886.803174,-13175.665768,-3677.258390
609.008170,2368.659014,-11621.233289,-4136.915689
609.008497,1110.308913,-11695.253884,-3907.087040
609.008825,1998.556043,-11177.109724,-3064.381992
609.009152,2368.659014,-9548.656652,-3370.820191
609.009480,2368.659014,-8586.388927,-3600.648841
609.009808,518.144159,-8586.388927,-4673.182538
609.010135,-1184.329507,-8290.306550,-5056.230287
609.010463,-1998.556043,-7624.121203,-5975.544884
609.010790,-1998.556043,-7031.956449,-5975.544884
609.011118,-1258.350101,-6365.771101,-5209.449386
609.011445,0.000000,-4663.297435,-3753.867940
609.011773,1110.308913,-4737.318029,-2681.334243
609.012100,962.267725,-6439.791695,-1685.410096
609.012428,-814.226536,-7846.182985,-2068.457845
609.012755,-1332.370696,-8882.471304,-1991.848295
609.013083,-2220.617826,-10066.800811,-2681.334243
609.013411,-3478.967927,-9844.739029,-2145.067394
609.013738,-3701.029710,-9696.697840,-2068.457845
609.014066,-2294.638420,-8660.409521,-1991.848295
609.014393,0.000000,-7105.977043,-1225.752797
609.014721,-296.082377,-7920.203579,-1608.800546
609.015048,-2812.782580,-9474.636058,-2298.286494
609.015376,-3256.906145,-8734.430116,-3677.258390
609.015703,-3478.967927,-9030.512492,-4596.572988
609.016031,-2886.803174,-9178.553681,-4519.963438
609.016359,-1184.329507,-8660.409521,-2834.553343
609.016686,1776.494261,-7105.977043,-2681.334243
609.017014,3997.112087,-5699.585753,-1378.971896
609.017341,3256.906145,-6809.894666,-459.657299
609.017669,2220.617826,-7105.977043,-383.047749
609.017996,370.102971,-7994.224174,-1225.752797
609.018324,74.020594,-9548.656652,-689.485948
609.018651,-1702.473667,-9918.759623,-612.876398
609.018979,-1406.391290,-9770.718434,-536.266849
609.019306,962.267725,-8808.450710,-306.438199
609.019634,2516.700203,-9400.615463,536.266849
609.019962,1332.370696,-8660.409521,-612.876398
609.020289,1480.411884,-8660.409521,-1608.800546
609.020617,222.061783,-8290.306550,-3064.381992
609.020944,-666.185348,-9474.636058,-2451.505594
609.021272,0.000000,-9400.615463,-2145.067394
609.021599,888.247130,-9770.718434,-1455.581446
609.021927,1332.370696,-11103.089130,-689.485948
609.022254,518.144159,-11769.274478,-459.657299
609.022582,-1776.494261,-11547.212695,-689.485948
609.022910,-3775.050304,-10881.027347,-1455.581446
609.023237,-3330.926739,-11103.089130,-1302.362347
609.023565,-3404.947333,-10140.821405,-1378.971896
609.023892,-4441.235652,-9770.718434,-1608.800546
609.024220,-3997.112087,-9178.553681,-1762.019645
609.024547,-3701.029710,-8660.409521,-2221.676944
609.024875,-3478.967927,-7994.224174,-2911.162892
609.025202,-2072.576638,-7254.018232,-2451.505594
609.025530,-370.102971,-7254.018232,-2451.505594
609.025857,1850.514855,-7254.018232,-1915.238745
609.026185,1332.370696,-7328.038826,-1762.019645
609.026513,1702.473667,-9326.594869,-766.095498
609.026840,1332.370696,-9696.697840,-842.705048
609.027168,592.164754,-10436.903782,-689.485948
609.027495,1924.535449,-11325.150913,229.828649
609.027823,2220.617826,-11399.171507,229.828649
609.028150,2590.720797,-12065.356855,1149.143247
609.028478,1554.432478,-11843.295072,459.657299
609.028805,1110.308913,-11399.171507,689.485948
609.029133,0.000000,-10955.047942,-919.314598
609.029460,518.144159,-9770.718434,-766.095498
609.029788,1184.329507,-8438.347739,-1532.190996
609.030116,1184.329507,-7920.203579,-612.876398
609.030443,2812.782580,-7772.162391,-536.266849
609.030771,518.144159,-8512.368333,-459.657299
609.031098,-518.144159,-8364.327145,-995.924147
609.031426,-1258.350101,-7920.203579,-1302.362347
609.031753,-1702.473667,-7994.224174,-766.095498
609.032081,-2368.659014,-8364.327145,-1225.752797
609.032408,-2960.823768,-8586.388927,-383.047749
609.032736,-3997.112087,-9548.656652,-536.266849
609.033064,-3775.050304,-8438.347739,-459.657299
609.033391,-3034.844362,-7254.018232,-612.876398
609.033719,-1776.494261,-7105.977043,-842.705048
609.034046,-296.082377,-7105.977043,-536.266849
609.034374,-222.061783,-6439.791695,-766.095498
609.034701,888.247130,-6661.853478,0.000000
609.035029,962.267725,-7328.038826,383.047749
609.035356,1258.350101,-7402.059420,1149.143247
609.035684,3552.988522,-8660.409521,2451.505594
609.036011,2960.823768,-8956.491898,2757.943793
609.036339,1850.514855,-9992.780217,2987.772442
609.036667,1184.329507,-10510.924376,3217.601092
609.036994,-814.226536,-11177.109724,2604.724693
609.037322,-1628.453072,-10362.883188,2604.724693
609.037649,148.041188,-10584.944971,2374.896044
609.037977,-740.205942,-9918.759623,1762.019645
609.038304,0.000000,-8512.368333,2451.505594
609.038632,370.102971,-7402.059420,1532.190996
609.038959,-740.205942,-7698.141797,919.314598
609.039287,-2220.617826,-7179.997637,-536.266849
609.039615,-1406.391290,-7179.997637,0.000000
609.039942,-1480.411884,-7402.059420,-919.314598
609.040270,-1924.535449,-7772.162391,-1149.143247
609.040597,-1850.514855,-8660.409521,-536.266849
609.040925,-3182.885551,-10140.821405,-766.095498
609.041252,-3849.070898,-11029.068536,-766.095498
609.041580,-2960.823768,-10658.965565,-689.485948
609.041907,-1332.370696,-10881.027347,-689.485948
609.042235,0.000000,-10214.842000,-612.876398
609.042562,814.226536,-10658.965565,0.000000
609.042890,740.205942,-11325.150913,306.438199
609.043218,444.123565,-10955.047942,383.047749
609.043545,1406.391290,-10288.862594,153.219100
609.043873,1776.494261,-10584.944971,76.609550
609.044200,2812.782580,-10807.006753,536.266849
609.044528,2294.638420,-10807.006753,383.047749
609.044855,1924.535449,-10881.027347,612.876398
609.045183,1480.411884,-11103.089130,536.266849
609.045510,2146.597232,-10807.006753,1072.533697
609.045838,2516.700203,-10362.883188,1378.971896
609.046166,3034.844362,-10510.924376,1378.971896
609.046493,1406.391290,-9918.759623,919.314598
609.046821,0.000000,-11103.089130,1608.800546
609.047148,-2294.638420,-10807.006753,459.657299
609.047476,-3552.988522,-10214.842000,306.438199
609.047803,-2886.803174,-9252.574275,229.828649
609.048131,-1776.494261,-8438.347739,0.000000
609.048458,-1628.453072,-8068.244768,76.609550
609.048786,-1554.432478,-8438.347739,0.000000
609.049113,-1924.535449,-7994.224174,689.485948
609.049441,74.020594,-6587.832884,995.924147
609.049769,1110.308913,-6513.812290,1302.362347
609.050096,1036.288319,-7254.018232,1762.019645
609.050424,-592.164754,-8956.491898,1838.629195
609.050751,-2664.741391,-9696.697840,1838.629195
609.051079,-4589.276840,-8808.450710,1149.143247
609.051406,-3923.091493,-8808.450710,766.095498
609.051734,-2146.597232,-8438.347739,766.095498
609.052061,-1776.494261,-8364.327145,459.657299
609.052389,-666.185348,-7846.182985,536.266849
609.052717,-444.123565,-6809.894666,612.876398
609.053044,-296.082377,-6217.729913,689.485948
609.053372,814.226536,-7031.956449,766.095498
609.053699,1998.556043,-7328.038826,1378.971896
609.054027,1850.514855,-7179.997637,1378.971896
609.054354,1110.308913,-7772.162391,689.485948
609.054682,-518.144159,-8068.244768,1608.800546
609.055009,-1850.514855,-9992.780217,1378.971896
609.055337,-2960.823768,-9622.677246,459.657299
609.055664,-1184.329507,-8438.347739,612.876398
609.055992,-296.082377,-8290.306550,-383.047749
609.056320,1258.350101,-8512.368333,383.047749
609.056647,1406.391290,-7698.141797,153.219100
609.056975,962.267725,-7920.203579,383.047749
609.057302,2146.597232,-7254.018232,229.828649
609.057630,3775.050304,-7476.080014,995.924147
609.057957,3108.864956,-8364.327145,919.314598
609.058285,1776.494261,-9474.636058,1072.533697
609.058612,-370.102971,-11547.212695,1225.752797
609.058940,-2886.803174,-12287.418637,612.876398
609.059267,-3478.967927,-12509.480420,76.609550
609.059595,-2812.782580,-11251.130318,-459.657299
609.059923,-1480.411884,-11177.109724,-995.924147
609.060250,-1332.370696,-10362.883188,-1149.143247
609.060578,-370.102971,-8068.244768,-1302.362347
609.060905,1184.329507,-7476.080014,-919.314598
609.061233,2146.597232,-7105.977043,-919.314598
609.061560,2960.823768,-7179.997637,-459.657299
609.061888,2960.823768,-8290.306550,459.657299
609.062215,1850.514855,-8956.491898,1072.533697
609.062543,-222.061783,-10140.821405,1455.581446
609.062871,-2516.700203,-12065.356855,1685.410096
609.063198,-4219.173869,-13323.706956,1302.362347
609.063526,-4367.215058,-12879.583391,766.095498
609.063853,-3849.070898,-11103.089130,0.000000
609.064181,-1776.494261,-10436.903782,306.438199
609.064508,-1480.411884,-8956.491898,-459.657299
609.064836,74.020594,-8142.265362,-229.828649
609.065163,444.123565,-7105.977043,-383.047749
609.065491,2072.576638,-4959.379811,0.000000
609.065818,2886.803174,-6069.688724,459.657299
609.066146,2072.576638,-7031.956449,689.485948
609.066474,888.247130,-7994.224174,1455.581446
609.066801,-1332.370696,-10362.883188,1149.143247
609.067129,-3256.906145,-11177.109724,1149.143247
609.067456,-4071.132681,-11325.150913,1149.143247
609.067784,-3256.906145,-11547.212695,842.705048
609.068111,-3034.844362,-11399.171507,842.705048
609.068439,-1406.391290,-10066.800811,-306.438199
609.068766,-962.267725,-8586.388927,0.000000
609.069094,296.082377,-7328.038826,0.000000
609.069422,1776.494261,-5995.668130,0.000000
609.069749,3997.112087,-6365.771101,995.924147
609.070077,4441.235652,-6291.750507,1455.581446
609.070404,3627.009116,-6587.832884,1455.581446
609.070732,2294.638420,-8364.327145,1762.019645
609.071059,-1184.329507,-10436.903782,1149.143247
609.071387,-2368.659014,-11695.253884,842.705048
609.071714,-1924.535449,-12287.418637,919.314598
609.072042,-1480.411884,-12361.439231,1302.362347
609.072369,-1776.494261,-11547.212695,689.485948
609.072697,-888.247130,-10955.047942,842.705048
609.073025,-888.247130,-10362.883188,536.266849
609.073352,1036.288319,-8216.285956,1072.533697
609.073680,3849.070898,-6439.791695,766.095498
609.074007,4293.194464,-6291.750507,1378.971896
609.074335,3849.070898,-6513.812290,1685.410096
609.074662,2146.597232,-7994.224174,1608.800546
609.074990,-1036.288319,-8882.471304,1378.971896
609.075317,-2664.741391,-9622.677246,919.314598
609.075645,-3108.864956,-9770.718434,612.876398
609.075973,-3478.967927,-10955.047942,306.438199
609.076300,-4663.297435,-10732.986159,0.000000
609.076628,-3552.988522,-10066.800811,229.828649
609.076955,-3775.050304,-9474.636058,153.219100
609.077283,-2072.576638,-7402.059420,-383.047749
609.077610,592.164754,-6143.709319,0.000000
609.077938,1628.453072,-5995.668130,153.219100
609.078265,2664.741391,-6809.894666,612.876398
609.078593,1998.556043,-7624.121203,919.314598
609.078920,-370.102971,-9104.533087,1149.143247
609.079248,-2442.679609,-9844.739029,536.266849
609.079576,-2738.761985,-10584.944971,0.000000
609.079903,-2294.638420,-11103.089130,229.828649
609.080231,-2516.700203,-10881.027347,-612.876398
609.080558,-1554.432478,-10881.027347,-459.657299
609.080886,-1110.308913,-10066.800811,0.000000
609.081213,222.061783,-8660.409521,-153.219100
609.081541,3330.926739,-7328.038826,459.657299
609.081868,5181.441594,-6883.915261,842.705048
609.082196,5033.400406,-7031.956449,1532.190996
609.082524,4367.215058,-7328.038826,2145.067394
609.082851,2442.679609,-8290.306550,1915.238745
609.083179,0.000000,-10214.842000,1685.410096
609.083506,-962.267725,-11769.274478,1149.143247
609.083834,-1628.453072,-11991.336260,383.047749
609.084161,-2220.617826,-11473.192101,612.876398
609.084489,-2516.700203,-9992.780217,-153.219100
609.084816,-2368.659014,-10436.903782,-153.219100
609.085144,-1850.514855,-9400.615463,-459.657299
609.085471,0.000000,-7328.038826,-919.314598
609.085799,2294.638420,-6365.771101,153.219100
609.086127,2590.720797,-6143.709319,306.438199
609.086454,1184.329507,-7402.059420,995.924147
609.086782,0.000000,-8956.491898,995.924147
609.087109,-2664.741391,-8586.388927,919.314598
609.087437,-2368.659014,-9474.636058,229.828649
609.087764,-3997.112087,-10807.006753,0.000000
609.088092,-4293.194464,-11473.192101,-306.438199
609.088419,-4219.173869,-10881.027347,-306.438199
609.088747,-3478.967927,-9844.739029,-612.876398
609.089074,-1998.556043,-9696.697840,-229.828649
609.089402,0.000000,-8438.347739,-229.828649
609.089730,3034.844362,-7254.018232,612.876398
609.090057,4367.215058,-6291.750507,536.266849
609.090385,5255.462188,-6587.832884,1838.629195
609.090712,4145.153275,-8142.265362,1838.629195
609.091040,1850.514855,-10066.800811,2221.676944
609.091367,-296.082377,-10510.924376,1455.581446
609.091695,-1184.329507,-11473.192101,1608.800546
609.092022,-1776.494261,-12361.439231,1378.971896
609.092350,-962.267725,-11473.192101,842.705048
609.092678,-1110.308913,-10732.986159,383.047749
609.093005,-444.123565,-10658.965565,689.485948
609.093333,0.000000,-8216.285956,536.266849
609.093660,2220.617826,-6957.935855,1225.752797
609.093988,3256.906145,-6069.688724,842.705048
609.094315,2886.803174,-6587.832884,1532.190996
609.094643,1036.288319,-7254.018232,1762.019645
609.094970,-1702.473667,-8142.265362,1225.752797
609.095298,-3997.112087,-9104.533087,689.485948
609.095625,-4293.194464,-10214.842000,689.485948
609.095953,-5033.400406,-9992.780217,229.828649
609.096281,-4737.318029,-10510.924376,0.000000
609.096608,-4959.379811,-10214.842000,-459.657299
609.096936,-4589.276840,-9918.759623,-995.924147
609.097263,-3701.029710,-9030.512492,-1608.800546
609.097591,444.123565,-6661.853478,-1685.410096
609.097918,2812.782580,-6291.750507,-1378.971896
609.098246,3701.029710,-6661.853478,0.000000
609.098573,3108.864956,-7402.059420,536.266849
609.098901,1258.350101,-8586.388927,612.876398
609.099229,518.144159,-9104.533087,459.657299
609.099556,592.164754,-10436.903782,536.266849
609.099884,0.000000,-11843.295072,383.047749
609.100211,0.000000,-12065.356855,689.485948
609.100539,0.000000,-11621.233289,229.828649
609.100866,-444.123565,-10955.047942,459.657299
609.101194,962.267725,-10362.883188,306.438199
609.101521,2294.638420,-8438.347739,0.000000
609.101849,4959.379811,-6883.915261,306.438199
609.102176,5847.626942,-6069.688724,536.266849
609.102504,4515.256246,-6883.915261,1302.362347
609.102832,2664.741391,-8142.265362,1455.581446
609.103159,-296.082377,-9326.594869,995.924147
609.103487,-740.205942,-9992.780217,1455.581446
609.103814,-1036.288319,-10955.047942,1225.752797
609.104142,-3108.864956,-11843.295072,1302.362347
609.104469,-3849.070898,-11843.295072,1072.533697
609.104797,-4737.318029,-11621.233289,536.266849
609.105124,-5107.421000,-9770.718434,-306.438199
609.105452,-3256.906145,-7846.182985,-383.047749
609.105780,-444.123565,-6883.915261,-229.828649
609.106107,444.123565,-5403.503377,-153.219100
609.106435,1332.370696,-5181.441594,0.000000
609.106762,296.082377,-6365.771101,689.485948
609.107090,-1110.308913,-7179.997637,689.485948
609.107417,-2368.659014,-8882.471304,459.657299
609.107745,-1554.432478,-9918.759623,1149.143247
609.108072,-2886.803174,-10362.883188,919.314598
609.108400,-3108.864956,-11251.130318,1225.752797
609.108727,-3182.885551,-11695.253884,612.876398
609.109055,-3478.967927,-11547.212695,536.266849
609.109383,-1036.288319,-9474.636058,459.657299
609.109710,2664.741391,-7105.977043,1149.143247
609.110038,4663.297435,-6513.812290,1072.533697
609.110365,5551.544565,-6365.771101,1685.410096
609.110693,4071.132681,-7624.121203,1915.238745
609.111021,2146.597232,-8808.450710,1378.971896
609.111348,1480.411884,-9104.533087,1149.143247
609.111676,1850.514855,-9696.697840,1915.238745
609.112003,0.000000,-11177.109724,1225.752797
609.112331,-1184.329507,-11917.315666,766.095498
609.112659,-1776.494261,-12139.377449,1072.533697
609.112986,-2960.823768,-11029.068536,229.828649
609.113314,-2664.741391,-9992.780217,229.828649
609.113641,-148.041188,-9030.512492,0.000000
609.113969,740.205942,-8216.285956,0.000000
609.114297,1554.432478,-7402.059420,459.657299
609.114624,296.082377,-7105.977043,919.314598
609.114952,-666.185348,-7328.038826,306.438199
609.115279,-1776.494261,-8142.265362,306.438199
609.115607,-2368.659014,-8882.471304,229.828649
609.115935,-2368.659014,-9474.636058,153.219100
609.116262,-3034.844362,-10140.821405,-229.828649
609.116590,-3552.988522,-10510.924376,-459.657299
609.116918,-3923.091493,-11029.068536,-842.705048
609.117245,-2886.803174,-9918.759623,-842.705048
609.117573,0.000000,-8364.327145,-689.485948
609.117900,2368.659014,-8216.285956,-459.657299
609.118228,3256.906145,-7698.141797,-153.219100
609.118556,2738.761985,-8660.409521,689.485948
609.118883,1258.350101,-9400.615463,459.657299
609.119211,74.020594,-9104.533087,153.219100
609.119538,1110.308913,-9252.574275,536.266849
609.119866,1184.329507,-9844.739029,1149.143247
609.120194,1406.391290,-11103.089130,1455.581446
609.120521,148.041188,-11177.109724,995.924147
609.120849,-962.267725,-10732.986159,1072.533697
609.121176,74.020594,-9992.780217,842.705048
609.121504,1628.453072,-8364.327145,1149.143247
609.121832,1998.556043,-8586.388927,1532.190996
609.122159,2220.617826,-8364.327145,1149.143247
609.122487,2072.576638,-7846.182985,1378.971896
609.122814,1036.288319,-7476.080014,1685.410096
609.123142,0.000000,-8068.244768,995.924147
609.123470,-518.144159,-8216.285956,766.095498
609.123797,-888.247130,-8660.409521,536.266849
609.124125,-1554.432478,-8660.409521,536.266849
609.124452,-2294.638420,-8586.388927,612.876398
609.124780,-2960.823768,-9844.739029,842.705048
609.125108,-3775.050304,-9844.739029,1149.143247
609.125435,-3552.988522,-8660.409521,76.609550
609.125763,-1480.411884,-8438.347739,306.438199
609.126090,-1110.308913,-7698.141797,306.438199
609.126418,-1332.370696,-6735.874072,766.095498
609.126746,-1258.350101,-7550.100608,919.314598
609.127073,-2368.659014,-7624.121203,842.705048
609.127401,-1776.494261,-7254.018232,919.314598
609.127728,-888.247130,-7105.977043,459.657299
609.128056,-148.041188,-8068.244768,459.657299
609.128384,-444.123565,-8882.471304,842.705048
609.128711,-444.123565,-9548.656652,1455.581446
609.129039,-1110.308913,-10658.965565,842.705048
609.129367,0.000000,-9770.718434,536.266849
609.129694,1998.556043,-9696.697840,842.705048
609.130022,2072.576638,-10140.821405,766.095498
609.130349,1998.556043,-10732.986159,383.047749
609.130677,888.247130,-10584.944971,536.266849
609.131005,296.082377,-10510.924376,383.047749
609.131332,0.000000,-10362.883188,0.000000
609.131660,666.185348,-10140.821405,0.000000
609.131987,1036.288319,-11325.150913,0.000000
609.132315,962.267725,-10807.006753,76.609550
609.132643,888.247130,-9844.739029,306.438199
609.132970,222.061783,-9992.780217,383.047749
609.133298,148.041188,-9622.677246,0.000000
609.133625,1332.370696,-9326.594869,383.047749
609.133953,1628.453072,-8882.471304,459.657299
609.134281,592.164754,-9326.594869,612.876398
609.134608,-148.041188,-9622.677246,995.924147
609.134936,-1776.494261,-10362.883188,842.705048
609.135263,-2516.700203,-9844.739029,536.266849
609.135591,-1406.391290,-9474.636058,919.314598
609.135919,-1258.350101,-9992.780217,459.657299
609.136246,-1702.473667,-10214.842000,612.876398
609.136574,-1702.473667,-9770.718434,612.876398
609.136901,-1924.535449,-9696.697840,306.438199
609.137229,-1776.494261,-9474.636058,-229.828649
609.137557,0.000000,-8586.388927,-153.219100
609.137884,148.041188,-8586.388927,0.000000
609.138212,296.082377,-8586.388927,459.657299
609.138539,-888.247130,-8734.430116,766.095498
609.138867,-1184.329507,-9178.553681,766.095498
609.139195,-2516.700203,-9178.553681,612.876398
609.139522,-1184.329507,-9326.594869,536.266849
609.139850,0.000000,-8956.491898,842.705048
609.140177,-370.102971,-8216.285956,919.314598
609.140505,1258.350101,-7920.203579,1455.581446
609.140833,0.000000,-8438.347739,1072.533697
609.141160,0.000000,-7698.141797,842.705048
609.141488,518.144159,-7254.018232,612.876398
609.141816,2590.720797,-6513.812290,1378.971896
609.142143,2294.638420,-6735.874072,1532.190996
609.142471,1924.535449,-6957.935855,2068.457845
609.142798,148.041188,-7994.224174,1532.190996
609.143126,-518.144159,-7994.224174,1072.533697
609.143454,-592.164754,-7402.059420,459.657299
609.143781,-370.102971,-8364.327145,306.438199
609.144109,-444.123565,-7476.080014,153.219100
609.144436,-296.082377,-7994.224174,76.609550
609.144764,-666.185348,-8438.347739,536.266849
609.145092,-962.267725,-8142.265362,153.219100
609.145419,-296.082377,-7254.018232,0.000000
609.145747,1110.308913,-7105.977043,229.828649
609.146074,962.267725,-8364.327145,1149.143247
609.146402,-814.226536,-8734.430116,842.705048
609.146730,-1924.535449,-9474.636058,536.266849
609.147057,-3256.906145,-10140.821405,0.000000
609.147385,-3256.906145,-9474.636058,76.609550
609.147712,-2960.823768,-9326.594869,-536.266849
609.148040,-2368.659014,-9326.594869,-919.314598
609.148368,-1480.411884,-8808.450710,-766.095498
609.148695,-666.185348,-8290.306550,-919.314598
609.149023,-370.102971,-8586.388927,-995.924147
609.149350,740.205942,-8364.327145,-612.876398
609.149678,2294.638420,-8882.471304,-612.876398
609.150006,2664.741391,-9474.636058,0.000000
609.150333,2442.679609,-9918.759623,689.485948
609.150661,1702.473667,-11547.212695,1225.752797
609.150988,-370.102971,-12509.480420,1455.581446
609.151316,-962.267725,-13101.645173,842.705048
609.151644,-444.123565,-11991.336260,383.047749
609.151971,1036.288319,-11399.171507,766.095498
609.152299,1850.514855,-11251.130318,1149.143247
609.152626,2368.659014,-10362.883188,842.705048
609.152954,1998.556043,-10066.800811,1608.800546
609.153282,2220.617826,-9178.553681,1302.362347
609.153609,3997.112087,-8660.409521,1838.629195
609.153937,2960.823768,-9696.697840,1991.848295
609.154264,1924.535449,-9770.718434,2451.505594
609.154592,-444.123565,-10732.986159,2604.724693
609.154920,-3256.906145,-11695.253884,2145.067394
609.155247,-5625.565159,-11473.192101,1072.533697
609.155575,-5403.503377,-11695.253884,919.314598
609.155903,-5107.421000,-10732.986159,229.828649
609.156230,-4367.215058,-10288.862594,-383.047749
609.156558,-3108.864956,-9400.615463,229.828649
609.156885,-2738.761985,-7772.162391,76.609550
609.157213,-1924.535449,-6365.771101,0.000000
609.157541,0.000000,-5625.565159,229.828649
609.157868,444.123565,-5477.523971,536.266849
609.158196,-296.082377,-7624.121203,1378.971896
609.158523,-1184.329507,-8882.471304,1455.581446
609.158851,-3108.864956,-9030.512492,1302.362347
609.159179,-3775.050304,-9474.636058,919.314598
609.159506,-3034.844362,-9178.553681,0.000000
609.159834,-592.164754,-9326.594869,76.609550
609.160161,0.000000,-8068.244768,0.000000
609.160489,1332.370696,-7105.977043,306.438199
609.160817,2294.638420,-6809.894666,306.438199
609.161144,2664.741391,-6587.832884,153.219100
609.161472,4071.132681,-6291.750507,1225.752797
609.161799,5921.647536,-7402.059420,1608.800546
609.162127,4737.318029,-7328.038826,2145.067394
609.162455,3108.864956,-8364.327145,2298.286494
609.162782,370.102971,-10214.842000,1762.019645
609.163110,-1776.494261,-10436.903782,1225.752797
609.163437,-2294.638420,-9992.780217,229.828649
609.163765,-1480.411884,-10510.924376,0.000000
609.164093,-1776.494261,-9696.697840,-766.095498
609.164420,-962.267725,-8882.471304,-689.485948
609.164748,-962.267725,-7920.203579,-383.047749
609.165075,370.102971,-7254.018232,-689.485948
609.165403,0.000000,-6661.853478,-1072.533697
609.165731,1776.494261,-6809.894666,-306.438199
609.166058,814.226536,-7031.956449,-229.828649
609.166386,962.267725,-7105.977043,306.438199
609.166713,-1036.288319,-8956.491898,-229.828649
609.167041,-3182.885551,-10436.903782,0.000000
609.167369,-4589.276840,-10362.883188,-1072.533697
609.167696,-3256.906145,-10140.821405,-766.095498
609.168024,-2368.659014,-10214.842000,-919.314598
609.168352,-740.205942,-9178.553681,-153.219100
609.168679,148.041188,-9252.574275,-842.705048
609.169007,814.226536,-8734.430116,-766.095498
609.169334,3034.844362,-6957.935855,-383.047749
609.169662,4737.318029,-7105.977043,459.657299
609.169990,4293.194464,-8438.347739,1149.143247
609.170317,3627.009116,-9992.780217,1762.019645
609.170645,1924.535449,-11399.171507,2145.067394
609.170972,-370.102971,-12361.439231,2068.457845
609.171300,-2294.638420,-12361.439231,919.314598
609.171628,-2368.659014,-12731.542202,1608.800546
609.171955,-1258.350101,-12583.501014,1225.752797
609.172283,-1998.556043,-12065.356855,842.705048
609.172610,-1776.494261,-10436.903782,536.266849
609.172938,-1554.432478,-8734.430116,76.609550
609.173266,-370.102971,-7772.162391,0.000000
609.173593,1406.391290,-6661.853478,383.047749
609.173921,2516.700203,-6735.874072,1149.143247
609.174248,1480.411884,-7328.038826,1991.848295
609.174576,444.123565,-8142.265362,2604.724693
609.174904,-2442.679609,-9770.718434,2145.067394
609.175231,-4737.318029,-10658.965565,1915.238745
609.175559,-4589.276840,-11547.212695,1302.362347
609.175886,-4293.194464,-11399.171507,919.314598
609.176214,-4367.215058,-10807.006753,536.266849
609.176542,-3330.926739,-9918.759623,459.657299
609.176869,-2812.782580,-9622.677246,459.657299
609.177197,-444.123565,-7105.977043,229.828649
609.177524,2146.597232,-5847.626942,76.609550
609.177852,4663.297435,-6365.771101,842.705048
609.178180,4219.173869,-6883.915261,1225.752797
609.178507,2960.823768,-7994.224174,919.314598
609.178835,962.267725,-9474.636058,2145.067394
609.179162,-1110.308913,-11695.253884,1685.410096
609.179490,-1702.473667,-11917.315666,1302.362347
609.179818,-2368.659014,-11917.315666,995.924147
609.180145,-1924.535449,-12139.377449,536.266849
609.180473,-1702.473667,-10955.047942,842.705048
609.180801,-518.144159,-9770.718434,229.828649
609.181128,-518.144159,-8512.368333,-306.438199
609.181456,2368.659014,-5995.668130,0.000000
609.181783,4071.132681,-5107.421000,383.047749
609.182111,4145.153275,-5033.400406,306.438199
609.182439,3701.029710,-6069.688724,995.924147
609.182766,1702.473667,-7698.141797,1532.190996
609.183094,-1332.370696,-8734.430116,536.266849
609.183421,-3034.844362,-9844.739029,229.828649
609.183749,-4145.153275,-10807.006753,0.000000
609.184077,-4293.194464,-11769.274478,-766.095498
609.184404,-3849.070898,-10214.842000,-995.924147
609.184732,-2368.659014,-9548.656652,-766.095498
609.185059,-666.185348,-8142.265362,-995.924147
609.185387,1776.494261,-7179.997637,-995.924147
609.185715,3108.864956,-6735.874072,-153.219100
609.186042,3775.050304,-6143.709319,306.438199
609.186370,3330.926739,-6217.729913,842.705048
609.186697,1924.535449,-7698.141797,1225.752797
609.187025,-1258.350101,-8956.491898,306.438199
609.187353,-2442.679609,-10140.821405,995.924147
609.187680,-2886.803174,-11325.150913,306.438199
609.188008,-2960.823768,-11769.274478,229.828649
609.188335,-3256.906145,-10658.965565,-536.266849
609.188663,-1628.453072,-10140.821405,-766.095498
609.188991,-1776.494261,-9252.574275,-612.876398
609.189318,814.226536,-7328.038826,-1225.752797
609.189646,2368.659014,-6735.874072,-766.095498
609.189973,4219.173869,-6513.812290,306.438199
609.190301,3256.906145,-6735.874072,536.266849
609.190629,1924.535449,-7994.224174,1455.581446
609.190956,-148.041188,-9770.718434,842.705048
609.191284,-2960.823768,-10732.986159,459.657299
609.191611,-2294.638420,-10881.027347,612.876398
609.191939,-2738.761985,-11843.295072,306.438199
609.192267,-2516.700203,-11843.295072,842.705048
609.192594,-1924.535449,-10955.047942,229.828649
609.192922,-1184.329507,-10362.883188,153.219100
609.193249,592.164754,-8586.388927,76.609550
609.193577,3108.864956,-7031.956449,459.657299
609.193905,4737.318029,-7402.059420,1532.190996
609.194232,4145.153275,-7476.080014,1915.238745
609.194560,3034.844362,-8290.306550,2068.457845
609.194888,592.164754,-9474.636058,2068.457845
609.195215,-2072.576638,-10807.006753,1685.410096
609.195543,-2664.741391,-12435.459826,1838.629195
609.195870,-2664.741391,-13175.665768,1608.800546
609.196198,-3108.864956,-13027.624579,1608.800546
609.196526,-2960.823768,-12731.542202,1455.581446
609.196853,-2368.659014,-11917.315666,919.314598
609.197181,-2738.761985,-10658.965565,153.219100
609.197508,296.082377,-8068.244768,383.047749
609.197836,2368.659014,-7031.956449,689.485948
609.198164,2886.803174,-6587.832884,1072.533697
609.198491,1924.535449,-7550.100608,1302.362347
609.198819,0.000000,-8882.471304,1838.629195
609.199146,-1924.535449,-9030.512492,1225.752797
609.199474,-1776.494261,-9918.759623,1072.533697
609.199802,-2442.679609,-11325.150913,1225.752797
609.200129,-3182.885551,-11843.295072,919.314598
609.200457,-2442.679609,-11103.089130,995.924147
609.200784,-2442.679609,-9770.718434,383.047749
609.201112,-1332.370696,-9030.512492,306.438199
609.201440,222.061783,-7698.141797,-383.047749
609.201767,2220.617826,-6587.832884,0.000000
609.202095,3108.864956,-5329.482782,383.047749
609.202422,3775.050304,-5107.421000,1149.143247
609.202750,2368.659014,-6809.894666,1685.410096
609.203078,-222.061783,-8438.347739,1302.362347
609.203405,-1184.329507,-9400.615463,842.705048
609.203733,-1110.308913,-9252.574275,995.924147
609.204060,-1628.453072,-9844.739029,612.876398
609.204388,-1998.556043,-10436.903782,1378.971896
609.204716,-2072.576638,-9770.718434,76.609550
609.205043,-2368.659014,-9104.533087,-459.657299
609.205371,-1258.350101,-7031.956449,-612.876398
609.205698,1332.370696,-6143.709319,-689.485948
609.206026,1998.556043,-6365.771101,0.000000
609.206354,2146.597232,-5403.503377,383.047749
609.206681,1480.411884,-5995.668130,536.266849
609.207009,-222.061783,-7624.121203,536.266849
609.207337,-1406.391290,-7698.141797,229.828649
609.207664,-1628.453072,-8882.471304,0.000000
609.207992,-1850.514855,-9474.636058,76.609550
609.208319,-2590.720797,-9696.697840,-306.438199
609.208647,-2072.576638,-9992.780217,-229.828649
609.208975,-2368.659014,-9992.780217,-919.314598
609.209302,-1480.411884,-9178.553681,-842.705048
609.209630,1184.329507,-7846.182985,-766.095498
609.209957,2960.823768,-6883.915261,-536.266849
609.210285,3701.029710,-6957.935855,459.657299
609.210613,3330.926739,-8364.327145,995.924147
609.210940,1480.411884,-8734.430116,1302.362347
609.211268,444.123565,-9548.656652,1225.752797
609.211595,-296.082377,-10362.883188,1455.581446
609.211923,-666.185348,-11843.295072,1225.752797
609.212250,-1110.308913,-12805.562797,1149.143247
609.212578,-1554.432478,-11991.336260,995.924147
609.212906,-2294.638420,-11843.295072,536.266849
609.213233,-1554.432478,-9844.739029,0.000000
609.213561,740.205942,-8512.368333,0.000000
609.213888,2960.823768,-7994.224174,153.219100
609.214216,3552.988522,-7402.059420,383.047749
609.214544,3330.926739,-7550.100608,1149.143247
609.214871,1850.514855,-8512.368333,1915.238745
609.215199,-666.185348,-9474.636058,766.095498
609.215526,-1332.370696,-10881.027347,1225.752797
609.215854,-2368.659014,-12435.459826,1149.143247
609.216181,-3478.967927,-11917.315666,1225.752797
609.216509,-3552.988522,-12287.418637,1685.410096
609.216837,-3627.009116,-12583.501014,689.485948
609.217164,-4515.256246,-11695.253884,0.000000
609.217492,-1998.556043,-9992.780217,0.000000
609.217819,888.247130,-8364.327145,76.609550
609.218147,2368.659014,-7254.018232,306.438199
609.218474,2368.659014,-7254.018232,383.047749
609.218802,1258.350101,-7846.182985,383.047749
609.219130,-444.123565,-7698.141797,0.000000
609.219457,-370.102971,-8660.409521,459.657299
609.219785,-1036.288319,-9918.759623,612.876398
609.220112,-1480.411884,-11103.089130,1225.752797
609.220440,-2812.782580,-11399.171507,766.095498
609.220768,-1924.535449,-10955.047942,1302.362347
609.221095,-1628.453072,-10362.883188,919.314598
609.221423,-148.041188,-9252.574275,995.924147
609.221750,1258.350101,-7994.224174,1072.533697
609.222078,2664.741391,-7105.977043,1455.581446
609.222405,2442.679609,-6217.729913,842.705048
609.222733,2294.638420,-6883.915261,995.924147
609.223061,740.205942,-7624.121203,689.485948
609.223388,74.020594,-8290.306550,689.485948
609.223716,148.041188,-8438.347739,919.314598
609.224043,74.020594,-9252.574275,1225.752797
609.224371,-1036.288319,-9918.759623,1149.143247
609.224698,-1406.391290,-10658.965565,1149.143247
609.225026,-2072.576638,-10807.006753,1072.533697
609.225354,-2146.597232,-9252.574275,766.095498
609.225681,0.000000,-7105.977043,0.000000
609.226009,518.144159,-7105.977043,153.219100
609.226336,148.041188,-6513.812290,0.000000
609.226664,0.000000,-6661.853478,0.000000
609.226992,-1554.432478,-6883.915261,-306.438199
609.227319,-2220.617826,-6957.935855,-229.828649
609.227647,-1332.370696,-7328.038826,0.000000
609.227974,-1332.370696,-8142.265362,0.000000
609.228302,-1406.391290,-8364.327145,153.219100
609.228629,-1554.432478,-9104.533087,459.657299
609.228957,-1850.514855,-9178.553681,459.657299
609.229285,-1702.473667,-8882.471304,153.219100
609.229612,592.164754,-8438.347739,536.266849
609.229940,1406.391290,-8290.306550,229.828649
609.230267,1554.432478,-7550.100608,76.609550
609.230595,962.267725,-8216.285956,459.657299
609.230922,0.000000,-9104.533087,536.266849
609.231250,-148.041188,-8882.471304,459.657299
609.231578,444.123565,-9252.574275,612.876398
609.231905,1184.329507,-9622.677246,612.876398
609.232233,444.123565,-9622.677246,1225.752797
609.232560,740.205942,-10140.821405,612.876398
609.232888,148.041188,-9918.759623,842.705048
609.233216,-518.144159,-9622.677246,689.485948
609.233543,518.144159,-9474.636058,689.485948
609.233871,1036.288319,-9474.636058,536.266849
609.234198,740.205942,-9104.533087,612.876398
609.234526,444.123565,-9548.656652,995.924147
609.234853,-1110.308913,-9696.697840,612.876398
609.235181,-2072.576638,-9178.553681,306.438199
609.235509,-1258.350101,-8956.491898,229.828649
609.235836,-518.144159,-8438.347739,383.047749
609.236164,-1258.350101,-9548.656652,76.609550
609.236491,-888.247130,-9548.656652,306.438199
609.236819,-1258.350101,-10436.903782,306.438199
609.237146,-1850.514855,-10140.821405,766.095498
609.237474,-814.226536,-10436.903782,536.266849
609.237802,74.020594,-10807.006753,689.485948
609.238129,0.000000,-10436.903782,842.705048
609.238457,-814.226536,-9770.718434,689.485948
609.238784,-592.164754,-10584.944971,842.705048
609.239112,-1258.350101,-10510.924376,459.657299
609.239440,-1332.370696,-9474.636058,306.438199
609.239767,0.000000,-10288.862594,383.047749
609.240095,-444.123565,-9548.656652,306.438199
609.240422,-370.102971,-9696.697840,995.924147
609.240750,148.041188,-10066.800811,1225.752797
609.241077,-444.123565,-9548.656652,995.924147
609.241405,222.061783,-9400.615463,1072.533697
609.241733,1554.432478,-8956.491898,1378.971896
609.242060,1776.494261,-8290.306550,1455.581446
609.242388,1924.535449,-8290.306550,2145.067394
609.242715,1184.329507,-9030.512492,1762.019645
609.243043,0.000000,-8956.491898,1378.971896
609.243370,-814.226536,-8734.430116,689.485948
609.243698,-370.102971,-8438.347739,612.876398
609.244026,-444.123565,-8734.430116,766.095498
609.244353,-444.123565,-8364.327145,995.924147
609.244681,-592.164754,-8808.450710,459.657299
609.245008,-1258.350101,-9622.677246,919.314598
609.245336,-1036.288319,-8586.388927,766.095498
609.245664,0.000000,-7920.203579,612.876398
609.245991,222.061783,-7698.141797,306.438199
609.246319,0.000000,-7846.182985,842.705048
609.246646,-222.061783,-8290.306550,612.876398
609.246974,-1998.556043,-8956.491898,76.609550
609.247301,-2664.741391,-9178.553681,76.609550
609.247629,-2072.576638,-8586.388927,0.000000
609.247957,-2368.659014,-8956.491898,0.000000
609.248284,-1554.432478,-8734.430116,-229.828649
609.248612,-1036.288319,-8734.430116,0.000000
609.248939,-444.123565,-8586.388927,153.219100
609.249267,-592.164754,-7920.203579,-229.828649
609.249594,1406.391290,-7772.162391,919.314598
609.249922,1998.556043,-7772.162391,306.438199
609.250250,1702.473667,-8290.306550,459.657299
609.250577,1776.494261,-8882.471304,612.876398
609.250905,-222.061783,-9326.594869,842.705048
609.251232,-1628.453072,-10436.903782,0.000000
609.251560,-1924.535449,-9548.656652,-842.705048
609.251888,0.000000,-9844.739029,-306.438199
609.252215,74.020594,-9178.553681,-459.657299
609.252543,1184.329507,-9326.594869,229.828649
609.252870,518.144159,-9326.594869,383.047749
609.253198,444.123565,-8734.430116,76.609550
609.253525,2294.638420,-7772.162391,612.876398
609.253853,2886.803174,-7402.059420,536.266849
609.254181,2294.638420,-8068.244768,1378.971896
609.254508,740.205942,-8956.491898,1378.971896
609.254836,-1110.308913,-9992.780217,842.705048
609.255163,-3182.885551,-10584.944971,229.828649
609.255491,-3182.885551,-10288.862594,0.000000
609.255818,-1702.473667,-10066.800811,76.609550
609.256146,-1184.329507,-10288.862594,153.219100
609.256474,222.061783,-9474.636058,536.266849
609.256801,148.041188,-9474.636058,1149.143247
609.257129,814.226536,-8512.368333,2068.457845
609.257456,1628.453072,-7994.224174,2068.457845
609.257784,2442.679609,-8290.306550,2604.724693
609.258112,2368.659014,-8734.430116,2834.553343
609.258439,296.082377,-9474.636058,3064.381992
609.258767,-888.247130,-10140.821405,2987.772442
609.259094,-3182.885551,-11177.109724,2604.724693
609.259422,-4071.132681,-11029.068536,1991.848295
609.259749,-2368.659014,-10140.821405,1838.629195
609.260077,-1776.494261,-9474.636058,1455.581446
609.260405,0.000000,-8956.491898,2221.676944
609.260732,-148.041188,-8438.347739,1838.629195
609.261060,74.020594,-8512.368333,2298.286494
609.261387,296.082377,-7550.100608,1838.629195
609.261715,1258.350101,-7105.977043,2145.067394
609.262042,1554.432478,-7772.162391,2757.943793
609.262370,296.082377,-8512.368333,3064.381992
609.262698,-370.102971,-9622.677246,3753.867940
609.263025,-2442.679609,-10807.006753,2911.162892
609.263353,-3923.091493,-10658.965565,2834.553343
609.263680,-4071.132681,-11103.089130,1838.629195
609.264008,-3034.844362,-10362.883188,1378.971896
609.264336,-2220.617826,-9326.594869,1532.190996
609.264663,0.000000,-8290.306550,2374.896044
609.264991,1406.391290,-8068.244768,3140.991542
609.265318,2590.720797,-7105.977043,2911.162892
609.265646,3182.885551,-6661.853478,3064.381992
609.265973,3701.029710,-7328.038826,3600.648841
609.266301,3330.926739,-7846.182985,3983.696590
609.266629,1850.514855,-8068.244768,4749.792088
609.266956,962.267725,-10140.821405,5132.839837
609.267284,0.000000,-11103.089130,5209.449386
609.267611,-1554.432478,-11399.171507,4749.792088
609.267939,-1924.535449,-12065.356855,4443.353888
609.268266,-2294.638420,-11251.130318,4749.792088
609.268594,-1406.391290,-10066.800811,3983.696590
609.268922,-1480.411884,-9252.574275,3370.820191
609.269249,-1628.453072,-8956.491898,2604.724693
609.269577,-1258.350101,-7920.203579,1915.238745
609.269904,-1628.453072,-7254.018232,1302.362347
609.270232,-888.247130,-6217.729913,1685.410096
609.270560,0.000000,-6365.771101,2145.067394
609.270887,814.226536,-6809.894666,3140.991542
609.271215,0.000000,-8956.491898,3753.867940
609.271542,-1702.473667,-10436.903782,4290.134789
609.271870,-2590.720797,-10214.842000,3677.258390
609.272197,-4663.297435,-11103.089130,3140.991542
609.272525,-4737.318029,-12065.356855,2681.334243
609.272853,-3552.988522,-11251.130318,2604.724693
609.273180,-962.267725,-9326.594869,2911.162892
609.273508,592.164754,-8216.285956,3064.381992
609.273835,1702.473667,-7698.141797,2757.943793
609.274163,2368.659014,-7105.977043,2451.505594
609.274490,2220.617826,-6735.874072,1838.629195
609.274818,2664.741391,-7254.018232,2298.286494
609.275146,4367.215058,-7624.121203,3447.429741
609.275473,5255.462188,-8364.327145,4826.401637
609.275801,4737.318029,-9400.615463,5898.935335
609.276128,3997.112087,-11251.130318,7124.688131
609.276456,1702.473667,-12583.501014,6818.249932
609.276784,-592.164754,-12509.480420,5975.544884
609.277111,-2072.576638,-11769.274478,5286.058936
609.277439,-2516.700203,-11325.150913,4749.792088
609.277766,-2442.679609,-9918.759623,4136.915689
609.278094,-740.205942,-7624.121203,4136.915689
609.278421,296.082377,-6735.874072,3524.039291
609.278749,-666.185348,-5995.668130,3524.039291
609.279077,-2368.659014,-6069.688724,1915.238745
609.279404,-3108.864956,-5847.626942,689.485948
609.279732,-3182.885551,-6439.791695,842.705048
609.280059,-2886.803174,-7105.977043,1532.190996
609.280387,-2590.720797,-7105.977043,2451.505594
609.280714,-740.205942,-7994.224174,3447.429741
609.281042,0.000000,-9030.512492,4979.620737
609.281370,-1998.556043,-10066.800811,5132.839837
609.281697,-3256.906145,-11399.171507,4213.525239
609.282025,-4071.132681,-11991.336260,3140.991542
609.282352,-3330.926739,-10881.027347,2604.724693
609.282680,-1998.556043,-9770.718434,2528.115143
609.283008,74.020594,-8882.471304,2451.505594
609.283335,2516.700203,-7920.203579,3370.820191
609.283663,4071.132681,-7402.059420,3370.820191
609.283990,4293.194464,-6513.812290,3140.991542
609.284318,3701.029710,-8660.409521,2681.334243
609.284645,1258.350101,-10510.924376,1685.410096
609.284973,-518.144159,-11547.212695,1608.800546
609.285301,-222.061783,-11769.274478,2298.286494
609.285628,1776.494261,-11251.130318,3294.210641
609.285956,2146.597232,-10732.986159,4596.572988
609.286283,3775.050304,-10362.883188,4979.620737
609.286611,2738.761985,-10362.883188,5822.325785
609.286939,2368.659014,-9474.636058,5362.668486
609.287266,1110.308913,-9326.594869,4903.011187
609.287594,-518.144159,-9770.718434,3907.087040
609.287921,-1406.391290,-10066.800811,3217.601092
609.288249,-1406.391290,-9474.636058,3447.429741
609.288576,-888.247130,-7994.224174,3370.820191
609.288904,222.061783,-7550.100608,3600.648841
609.289232,0.000000,-8142.265362,3600.648841
609.289559,-1406.391290,-9252.574275,2451.505594
609.289887,-2812.782580,-9622.677246,2451.505594
609.290214,-3108.864956,-9474.636058,1762.019645
609.290542,-2960.823768,-9770.718434,2298.286494
609.290869,-2738.761985,-10436.903782,1838.629195
609.291197,-3478.967927,-11325.150913,2451.505594
609.291525,-4071.132681,-11029.068536,2681.334243
609.291852,-3256.906145,-9400.615463,2451.505594
609.292180,-1480.411884,-7994.224174,2604.724693
609.292507,-518.144159,-8068.244768,2681.334243
609.292835,296.082377,-7550.100608,2604.724693
609.293163,666.185348,-7846.182985,2911.162892
609.293490,1258.350101,-7698.141797,3217.601092
609.293818,2812.782580,-7402.059420,4290.134789
609.294145,4959.379811,-7698.141797,5975.544884
609.294473,5181.441594,-9178.553681,6128.763984
609.294800,3552.988522,-10214.842000,5592.497135
609.295128,814.226536,-11177.109724,4979.620737
609.295456,0.000000,-11251.130318,5132.839837
609.295783,592.164754,-10214.842000,4826.401637
609.296111,518.144159,-9548.656652,4903.011187
609.296438,1924.535449,-9770.718434,4060.306139
609.296766,962.267725,-9770.718434,3830.477490
609.297093,-1110.308913,-9474.636058,2911.162892
609.297421,-1998.556043,-8290.306550,2374.896044
609.297749,-2294.638420,-7772.162391,3140.991542
609.298076,-1776.494261,-7476.080014,2298.286494
609.298404,-1924.535449,-7772.162391,2451.505594
609.298731,-2442.679609,-7624.121203,2374.896044
609.299059,-4293.194464,-7920.203579,2374.896044
609.299387,-3923.091493,-8216.285956,1991.848295
609.299714,-4589.276840,-7772.162391,1532.190996
609.300042,-3034.844362,-7920.203579,1608.800546
609.300369,-1554.432478,-7698.141797,2145.067394
609.300697,0.000000,-7476.080014,2681.334243
609.301024,592.164754,-7105.977043,3447.429741
609.301352,1258.350101,-7624.121203,3370.820191
609.301680,962.267725,-8438.347739,3140.991542
609.302007,1480.411884,-9030.512492,2604.724693
609.302335,2368.659014,-9622.677246,2757.943793
609.302662,3108.864956,-9548.656652,4290.134789
609.302990,3923.091493,-9992.780217,4903.011187
609.303317,3849.070898,-11103.089130,5515.887586
609.303645,3256.906145,-11695.253884,5056.230287
609.303973,2220.617826,-11695.253884,4673.182538
609.304300,1258.350101,-11621.233289,3983.696590
609.304628,-666.185348,-11251.130318,3217.601092
609.304955,-666.185348,-10732.986159,3983.696590
609.305283,666.185348,-8956.491898,4213.525239
609.305611,962.267725,-9252.574275,4749.792088
609.305938,1184.329507,-8734.430116,4673.182538
609.306266,-296.082377,-8512.368333,3600.648841
609.306593,-3627.009116,-9030.512492,2987.772442
609.306921,-4811.338623,-8808.450710,2221.676944
609.307248,-5181.441594,-8882.471304,2298.286494
609.307576,-3997.112087,-8216.285956,2374.896044
609.307904,-1554.432478,-7105.977043,3064.381992
609.308231,-222.061783,-7105.977043,4136.915689
609.308559,0.000000,-7328.038826,4290.134789
609.308886,-1036.288319,-7994.224174,3830.477490
609.309214,-2368.659014,-9030.512492,3140.991542
609.309541,-3108.864956,-9844.739029,2298.286494
609.309869,-3404.947333,-10288.862594,2451.505594
609.310197,-2812.782580,-10362.883188,1762.019645
609.310524,-1036.288319,-9992.780217,2604.724693
609.310852,666.185348,-9770.718434,3294.210641
609.311179,2220.617826,-9178.553681,3983.696590
609.311507,3034.844362,-9252.574275,3830.477490
609.311834,2516.700203,-9474.636058,3524.039291
609.312162,1628.453072,-10214.842000,3140.991542
609.312489,1258.350101,-10436.903782,3064.381992
609.312817,1258.350101,-10214.842000,3294.210641
609.313144,1554.432478,-9770.718434,3447.429741
609.313472,1184.329507,-9326.594869,4903.011187
609.313800,222.061783,-8808.450710,3447.429741
609.314127,-592.164754,-9104.533087,3753.867940
609.314455,74.020594,-7402.059420,2911.162892
609.314782,0.000000,-8142.265362,2757.943793
609.315110,592.164754,-7476.080014,2834.553343
609.315437,1406.391290,-7254.018232,3140.991542
609.315765,962.267725,-7402.059420,3064.381992
609.316092,1184.329507,-7476.080014,3370.820191
609.316420,814.226536,-8068.244768,4519.963438
609.316748,0.000000,-8734.430116,3830.477490
609.317075,-370.102971,-9326.594869,3524.039291
609.317403,-1480.411884,-9696.697840,3753.867940
609.317730,-1702.473667,-9844.739029,3370.820191
609.318058,-1850.514855,-9844.739029,3524.039291
609.318385,-1702.473667,-9326.594869,3600.648841
609.318713,-2146.597232,-9178.553681,2681.334243
609.319040,-1776.494261,-9178.553681,2528.115143
609.319368,-1776.494261,-8586.388927,2145.067394
609.319696,-1110.308913,-7994.224174,2528.115143
609.320023,-592.164754,-7624.121203,2681.334243
609.320351,-296.082377,-7328.038826,2834.553343
609.320678,-222.061783,-7920.203579,3064.381992
609.321006,0.000000,-8660.409521,3370.820191
609.321333,0.000000,-9178.553681,3370.820191
609.321661,370.102971,-9400.615463,3830.477490
609.321988,296.082377,-9770.718434,3830.477490
609.322316,148.041188,-10214.842000,3907.087040
609.322643,222.061783,-10140.821405,3830.477490
609.322971,296.082377,-9770.718434,4290.134789
609.323299,518.144159,-9400.615463,3294.210641
609.323626,0.000000,-9178.553681,3600.648841
609.323954,1110.308913,-9178.553681,2911.162892
609.324281,666.185348,-9326.594869,2451.505594
609.324609,444.123565,-9400.615463,2451.505594
609.324936,592.164754,-9918.759623,2374.896044
609.325264,-222.061783,-9918.759623,2528.115143
609.325591,-666.185348,-9992.780217,2145.067394
609.325919,-1110.308913,-10066.800811,2221.676944
609.326247,-1184.329507,-9770.718434,1685.410096
609.326574,-1332.370696,-9770.718434,1838.629195
609.326902,-1702.473667,-9622.677246,1532.190996
609.327229,-2146.597232,-9178.553681,1149.143247
609.327557,-2072.576638,-8882.471304,1455.581446
609.327884,-1702.473667,-8734.430116,1378.971896
609.328212,-1036.288319,-8142.265362,1225.752797
609.328539,-222.061783,-8068.244768,1378.971896
609.328867,370.102971,-7846.182985,1532.190996
609.329195,444.123565,-8438.347739,1378.971896
609.329522,444.123565,-8660.409521,1378.971896
609.329850,148.041188,-9400.615463,1455.581446
609.330177,222.061783,-9770.718434,1762.019645
609.330505,592.164754,-10362.883188,2068.457845
609.330832,1110.308913,-10732.986159,2068.457845
609.331160,1554.432478,-10584.944971,1915.238745
609.331487,2220.617826,-10140.821405,2221.676944
609.331815,2368.659014,-10066.800811,2221.676944
609.332142,888.247130,-9474.636058,1762.019645
609.332470,666.185348,-9400.615463,1378.971896
609.332798,0.000000,-9030.512492,1225.752797
609.333125,-962.267725,-8660.409521,919.314598
609.333453,-814.226536,-8438.347739,1072.533697
609.333780,-518.144159,-8512.368333,919.314598
609.334108,-814.226536,-7994.224174,919.314598
609.334435,-740.205942,-8068.244768,995.924147
609.334763,-1258.350101,-7920.203579,919.314598
609.335090,-1628.453072,-7994.224174,383.047749
609.335418,-1258.350101,-7476.080014,229.828649
609.335746,-1332.370696,-7550.100608,76.609550
609.336073,-1036.288319,-8142.265362,229.828649
609.336401,-740.205942,-8438.347739,842.705048
609.336728,-592.164754,-8586.388927,689.485948
609.337056,-518.144159,-8660.409521,689.485948
609.337383,-740.205942,-8956.491898,995.924147
609.337711,-666.185348,-9326.594869,919.314598
609.338038,0.000000,-9326.594869,612.876398
609.338366,222.061783,-9326.594869,1072.533697
609.338694,592.164754,-9400.615463,995.924147
609.339021,592.164754,-9474.636058,919.314598
609.339349,370.102971,-9178.553681,1302.362347
609.339676,444.123565,-9474.636058,1378.971896
609.340004,222.061783,-9474.636058,1455.581446
609.340331,148.041188,-9400.615463,919.314598
609.340659,0.000000,-9104.533087,842.705048
609.340986,0.000000,-8882.471304,689.485948
609.341314,74.020594,-8660.409521,919.314598
609.341641,-148.041188,-8512.368333,689.485948
609.341969,-518.144159,-8586.388927,842.705048
609.342297,-518.144159,-8660.409521,689.485948
609.342624,-666.185348,-8438.347739,689.485948
609.342952,-1332.370696,-9178.553681,459.657299
609.343279,-1258.350101,-9104.533087,229.828649
609.343607,-1480.411884,-9400.615463,306.438199
609.343934,-1184.329507,-9252.574275,612.876398
609.344262,-518.144159,-9474.636058,689.485948
609.344589,-740.205942,-9474.636058,383.047749
609.344917,-444.123565,-9548.656652,383.047749
609.345245,-296.082377,-9622.677246,459.657299
609.345572,0.000000,-9844.739029,459.657299
609.345900,0.000000,-9474.636058,766.095498
609.346227,-296.082377,-9696.697840,536.266849
609.346555,-592.164754,-9992.780217,536.266849
609.346882,-296.082377,-10214.842000,842.705048
609.347210,0.000000,-9918.759623,1072.533697
609.347537,222.061783,-9326.594869,1225.752797
609.347865,740.205942,-9474.636058,766.095498
609.348193,518.144159,-9104.533087,842.705048
609.348520,444.123565,-9030.512492,842.705048
609.348848,296.082377,-8956.491898,766.095498
609.349175,444.123565,-8808.450710,1149.143247
609.349503,0.000000,-8808.450710,689.485948
609.349830,-148.041188,-9178.553681,689.485948
609.350158,148.041188,-9030.512492,536.266849
609.350485,0.000000,-9252.574275,383.047749
609.350813,0.000000,-9104.533087,306.438199
609.351140,148.041188,-8660.409521,229.828649
609.351468,-148.041188,-8734.430116,383.047749
609.351796,-296.082377,-8660.409521,76.609550
609.352123,-444.123565,-8808.450710,76.609550
609.352451,-814.226536,-8808.450710,383.047749
609.352778,-814.226536,-8734.430116,612.876398
609.353106,-814.226536,-8956.491898,0.000000
609.353433,-888.247130,-8734.430116,153.219100
609.353761,-592.164754,-8660.409521,383.047749
609.354088,-370.102971,-8660.409521,306.438199
609.354416,-296.082377,-8290.306550,306.438199
609.354744,0.000000,-8512.368333,76.609550
609.355071,0.000000,-8438.347739,459.657299
609.355399,-444.123565,-8586.388927,842.705048
609.355726,-740.205942,-8956.491898,766.095498
609.356054,-740.205942,-9252.574275,459.657299
609.356381,-296.082377,-9178.553681,536.266849
609.356709,-370.102971,-9252.574275,766.095498
609.357036,-296.082377,-9030.512492,842.705048
609.357364,-222.061783,-8882.471304,383.047749
609.357692,-222.061783,-8882.471304,536.266849
609.358019,148.041188,-8882.471304,919.314598
609.358347,-370.102971,-8882.471304,689.485948
609.358674,-592.164754,-9252.574275,766.095498
609.359002,-592.164754,-9326.594869,842.705048
609.359329,-518.144159,-9474.636058,612.876398
609.359657,-296.082377,-8734.430116,919.314598
609.359984,-592.164754,-9030.512492,612.876398
609.360312,-444.123565,-9030.512492,536.266849
609.360639,-444.123565,-9104.533087,306.438199
609.360967,-592.164754,-9104.533087,536.266849
609.361295,-222.061783,-9400.615463,383.047749
609.361622,-592.164754,-9030.512492,306.438199
609.361950,-444.123565,-9400.615463,612.876398
609.362277,-518.144159,-9400.615463,306.438199
609.362605,-296.082377,-9326.594869,459.657299
609.362932,-148.041188,-9030.512492,766.095498
609.363260,0.000000,-8660.409521,306.438199
609.363587,74.020594,-9030.512492,229.828649
609.363915,0.000000,-9326.594869,306.438199
609.364243,-370.102971,-9400.615463,766.095498
609.364570,-222.061783,-9696.697840,612.876398
609.364898,-666.185348,-9770.718434,842.705048
609.365225,-296.082377,-9844.739029,919.314598
609.365553,-296.082377,-9548.656652,766.095498
609.365880,0.000000,-9474.636058,842.705048
609.366208,0.000000,-8956.491898,536.266849
609.366535,-222.061783,-8808.450710,536.266849
609.366863,-740.205942,-8512.368333,383.047749
609.367191,-962.267725,-8586.388927,612.876398
609.367518,-1036.288319,-8808.450710,612.876398
609.367846,-1184.329507,-8956.491898,383.047749
609.368173,-888.247130,-8956.491898,383.047749
609.368501,-444.123565,-8808.450710,1455.581446
609.368828,74.020594,-8808.450710,689.485948
609.369156,296.082377,-8512.368333,459.657299
609.369483,444.123565,-8438.347739,459.657299
609.369811,666.185348,-9104.533087,612.876398
609.370138,148.041188,-9474.636058,536.266849
609.370466,-296.082377,-9770.718434,766.095498
609.370794,-296.082377,-10214.842000,995.924147
609.371121,-296.082377,-10140.821405,1072.533697
609.371449,0.000000,-9696.697840,995.924147
609.371776,666.185348,-8734.430116,689.485948
609.372104,814.226536,-8438.347739,383.047749
609.372431,888.247130,-8142.265362,229.828649
609.372759,444.123565,-7772.162391,0.000000
609.373086,0.000000,-7994.224174,153.219100
609.373414,-296.082377,-8734.430116,153.219100
609.373742,-888.247130,-9252.574275,919.314598
609.374069,-888.247130,-9326.594869,612.876398
609.374397,-518.144159,-9252.574275,995.924147
609.374724,-222.061783,-9252.574275,536.266849
609.375052,0.000000,-8660.409521,536.266849
609.375379,888.247130,-8364.327145,383.047749
609.375707,296.082377,-8216.285956,76.609550
609.376034,0.000000,-8512.368333,153.219100
609.376362,-296.082377,-8808.450710,383.047749
609.376690,-592.164754,-9548.656652,536.266849
609.377017,-592.164754,-9696.697840,229.828649
609.377345,-962.267725,-9844.739029,612.876398
609.377672,-814.226536,-9770.718434,383.047749
609.378000,-444.123565,-9474.636058,306.438199
609.378327,0.000000,-9178.553681,153.219100
609.378655,148.041188,-8512.368333,536.266849
609.378982,592.164754,-8660.409521,612.876398
609.379310,222.061783,-9252.574275,383.047749
609.379637,0.000000,-9770.718434,842.705048
609.379965,-370.102971,-9918.759623,919.314598
609.380293,-592.164754,-9770.718434,995.924147
609.380620,-222.061783,-9844.739029,919.314598
609.380948,-592.164754,-9252.574275,612.876398
609.381275,-370.102971,-8808.450710,536.266849
609.381603,-296.082377,-8660.409521,229.828649
609.381930,-222.061783,-8660.409521,689.485948
609.382258,0.000000,-9030.512492,383.047749
609.382585,-740.205942,-9252.574275,842.705048
609.382913,-814.226536,-9622.677246,612.876398
609.383241,-666.185348,-9696.697840,842.705048
609.383568,-592.164754,-9622.677246,536.266849
609.383896,0.000000,-9400.615463,689.485948
609.384223,-370.102971,-9400.615463,689.485948
609.384551,-296.082377,-9252.574275,536.266849
609.384878,-222.061783,-9252.574275,383.047749
609.385206,-222.061783,-9474.636058,766.095498
609.385533,-148.041188,-9400.615463,1302.362347
609.385861,-740.205942,-9252.574275,1072.533697
609.386189,-444.123565,-9474.636058,1072.533697
609.386516,-740.205942,-9400.615463,1072.533697
609.386844,-814.226536,-8956.491898,536.266849
609.387171,-592.164754,-8512.368333,689.485948
609.387499,-370.102971,-8586.388927,229.828649
609.387826,-518.144159,-8586.388927,536.266849
609.388154,-592.164754,-8290.306550,459.657299
609.388481,-370.102971,-8660.409521,689.485948
609.388809,0.000000,-8586.388927,612.876398
609.389136,-296.082377,-8660.409521,995.924147
609.389464,-592.164754,-8956.491898,536.266849
609.389792,-518.144159,-9030.512492,689.485948
609.390119,-518.144159,-9178.553681,612.876398
609.390447,-518.144159,-8956.491898,306.438199
609.390774,-222.061783,-8808.450710,689.485948
609.391102,-444.123565,-8956.491898,459.657299
609.391429,-296.082377,-8956.491898,459.657299
609.391757,-370.102971,-8956.491898,536.266849
609.392084,0.000000,-9252.574275,459.657299
609.392412,-222.061783,-9030.512492,0.000000
609.392740,0.000000,-8734.430116,0.000000
609.393067,-148.041188,-8734.430116,229.828649
609.393395,-370.102971,-8882.471304,612.876398
609.393722,-296.082377,-9030.512492,536.266849
609.394050,74.020594,-9030.512492,459.657299
609.394377,0.000000,-8734.430116,919.314598
609.394705,-148.041188,-8956.491898,689.485948
609.395032,222.061783,-9178.553681,842.705048
609.395360,0.000000,-8808.450710,459.657299
609.395688,-222.061783,-8734.430116,842.705048
609.396015,148.041188,-8808.450710,766.095498
609.396343,-444.123565,-8734.430116,229.828649
609.396670,-518.144159,-8808.450710,459.657299
609.396998,-296.082377,-9030.512492,306.438199
609.397325,-370.102971,-9030.512492,689.485948
609.397653,-296.082377,-8882.471304,536.266849
609.397980,0.000000,-9252.574275,459.657299
609.398308,0.000000,-9252.574275,612.876398
609.398635,-222.061783,-9326.594869,536.266849
609.398963,-370.102971,-9252.574275,536.266849
609.399291,-370.102971,-9252.574275,612.876398
609.399618,-592.164754,-9252.574275,536.266849
609.399946,-444.123565,-9622.677246,842.705048
609.400273,-518.144159,-9474.636058,689.485948
609.400601,-444.123565,-9178.553681,689.485948
609.400928,-222.061783,-8734.430116,919.314598
609.401256,148.041188,-8660.409521,76.609550
609.401583,0.000000,-8882.471304,153.219100
609.401911,0.000000,-8956.491898,306.438199
609.402239,0.000000,-9400.615463,612.876398
609.402566,-296.082377,-9252.574275,612.876398
609.402894,-222.061783,-9548.656652,459.657299
609.403221,-518.144159,-9696.697840,995.924147
609.403549,-148.041188,-9918.759623,995.924147
609.403876,0.000000,-9474.636058,766.095498
609.404204,296.082377,-9252.574275,536.266849
609.404531,222.061783,-8882.471304,153.219100
609.404859,0.000000,-8660.409521,536.266849
609.405187,0.000000,-9030.512492,229.828649
609.405514,0.000000,-9178.553681,383.047749
609.405842,-222.061783,-9178.553681,612.876398
609.406169,-370.102971,-9104.533087,1149.143247
609.406497,0.000000,-9178.553681,306.438199
609.406824,0.000000,-9178.553681,612.876398
609.407152,-148.041188,-9030.512492,612.876398
609.407479,148.041188,-9030.512492,536.266849
609.407807,148.041188,-8808.450710,766.095498
609.408134,0.000000,-8956.491898,536.266849
609.408462,0.000000,-9252.574275,459.657299
609.408790,0.000000,-9474.636058,612.876398
609.409117,-148.041188,-9326.594869,459.657299
609.409445,0.000000,-9400.615463,459.657299
609.409772,0.000000,-9104.533087,919.314598
609.410100,0.000000,-9178.553681,766.095498
609.410427,-148.041188,-9030.512492,383.047749
609.410755,-148.041188,-9178.553681,306.438199
609.411082,-592.164754,-9326.594869,612.876398
609.411410,-592.164754,-9178.553681,919.314598
609.411737,-222.061783,-9252.574275,689.485948
609.412065,-444.123565,-9252.574275,919.314598
609.412392,-444.123565,-9326.594869,612.876398
609.412720,-592.164754,-9104.533087,612.876398
609.413047,-444.123565,-8808.450710,459.657299
609.413375,0.000000,-8290.306550,229.828649
609.413703,-148.041188,-8734.430116,536.266849
609.414030,-296.082377,-8882.471304,536.266849
609.414358,-370.102971,-9104.533087,612.876398
609.414685,-370.102971,-9104.533087,919.314598
609.415013,-592.164754,-9400.615463,842.705048
609.415340,-592.164754,-9622.677246,766.095498
609.415668,-518.144159,-9400.615463,766.095498
609.415995,-518.144159,-9178.553681,459.657299
609.416323,-296.082377,-9252.574275,536.266849
609.416650,-444.123565,-8956.491898,459.657299
609.416978,-148.041188,-9178.553681,536.266849
609.417305,-148.041188,-9030.512492,383.047749
609.417633,-370.102971,-9104.533087,459.657299
609.417960,-370.102971,-9400.615463,459.657299
609.418288,-444.123565,-9400.615463,76.609550
609.418615,-592.164754,-9252.574275,689.485948
609.418943,-888.247130,-9252.574275,459.657299
609.419270,-888.247130,-9326.594869,689.485948
609.419598,-962.267725,-9178.553681,383.047749
609.419925,-444.123565,-9252.574275,0.000000
609.420253,-592.164754,-8882.471304,995.924147
609.420580,-518.144159,-8808.450710,459.657299
609.420908,-666.185348,-8586.388927,306.438199
609.421235,-592.164754,-8512.368333,383.047749
609.421563,-296.082377,-8438.347739,459.657299
609.421891,-740.205942,-8216.285956,459.657299
609.422218,-814.226536,-8438.347739,612.876398
609.422546,-888.247130,-9030.512492,536.266849
609.422873,-888.247130,-9104.533087,612.876398
609.423201,-666.185348,-8956.491898,612.876398
609.423528,-1110.308913,-8882.471304,689.485948
609.423856,-296.082377,-8882.471304,689.485948
609.424183,-370.102971,-8882.471304,689.485948
609.424511,-370.102971,-8660.409521,995.924147
609.424838,-222.061783,-8586.388927,306.438199
609.425166,-370.102971,-8660.409521,689.485948
609.425493,0.000000,-9030.512492,612.876398
609.425821,-148.041188,-9178.553681,766.095498
609.426148,0.000000,-9104.533087,689.485948
609.426476,0.000000,-9178.553681,459.657299
609.426803,222.061783,-9474.636058,1225.752797
609.427131,0.000000,-8882.471304,153.219100
609.427458,0.000000,-9030.512492,383.047749
609.427786,0.000000,-9178.553681,383.047749
609.428113,0.000000,-9252.574275,306.438199
609.428441,296.082377,-9252.574275,995.924147
609.428768,370.102971,-8956.491898,306.438199
609.429096,74.020594,-9178.553681,459.657299
609.429423,74.020594,-9030.512492,229.828649
609.429751,74.020594,-9104.533087,229.828649
609.430079,0.000000,-9030.512492,383.047749
609.430406,222.061783,-8882.471304,1072.533697
609.430734,74.020594,-9400.615463,459.657299
609.431061,-148.041188,-9252.574275,459.657299
609.431389,74.020594,-9474.636058,306.438199
609.431716,0.000000,-9400.615463,612.876398
609.432044,-74.020594,-9030.512492,919.314598
609.432371,0.000000,-9400.615463,229.828649
609.432699,0.000000,-9400.615463,612.876398
609.433026,0.000000,-9326.594869,459.657299
609.433354,74.020594,-9252.574275,459.657299
609.433681,0.000000,-9030.512492,1072.533697
609.434009,0.000000,-9474.636058,689.485948
609.434336,-148.041188,-9474.636058,536.266849
609.434664,0.000000,-9474.636058,689.485948
609.434991,-296.082377,-9696.697840,766.095498
609.435319,-222.061783,-9400.615463,612.876398
609.435646,148.041188,-9844.739029,612.876398
609.435974,0.000000,-9622.677246,536.266849
609.436301,0.000000,-9400.615463,459.657299
609.436629,-222.061783,-9474.636058,383.047749
609.436956,-370.102971,-9400.615463,459.657299
609.437284,0.000000,-9474.636058,536.266849
609.437611,0.000000,-9252.574275,459.657299
609.437939,-370.102971,-9252.574275,383.047749
609.438267,-370.102971,-9400.615463,383.047749
609.438594,-370.102971,-9474.636058,689.485948
609.438922,-74.020594,-9104.533087,612.876398
609.439249,-370.102971,-9178.553681,536.266849
609.439577,-518.144159,-9400.615463,612.876398
609.439904,-518.144159,-9474.636058,689.485948
609.440232,-444.123565,-9474.636058,536.266849
609.440559,-444.123565,-9030.512492,995.924147
609.440887,0.000000,-8660.409521,229.828649
609.441214,-444.123565,-8808.450710,536.266849
609.441542,-370.102971,-8660.409521,536.266849
609.441869,-370.102971,-8660.409521,612.876398
609.442197,-148.041188,-8512.368333,766.095498
609.442524,-148.041188,-8586.388927,612.876398
609.442852,-518.144159,-8660.409521,842.705048
609.443179,-592.164754,-9030.512492,919.314598
609.443507,-370.102971,-9104.533087,995.924147
609.443834,-592.164754,-9178.553681,766.095498
609.444162,-370.102971,-8956.491898,842.705048
609.444489,-444.123565,-9326.594869,612.876398
609.444817,-444.123565,-9104.533087,536.266849
609.445144,-518.144159,-8956.491898,383.047749
609.445472,-148.041188,-8734.430116,842.705048
609.445799,148.041188,-8438.347739,842.705048
609.446127,0.000000,-8586.388927,229.828649
609.446455,0.000000,-8734.430116,459.657299
609.446782,-296.082377,-8660.409521,153.219100
609.447110,-296.082377,-9030.512492,153.219100
609.447437,0.000000,-8956.491898,536.266849
609.447765,-518.144159,-9178.553681,76.609550
609.448092,-370.102971,-9178.553681,153.219100
609.448420,-296.082377,-9326.594869,306.438199
609.448747,-296.082377,-9178.553681,229.828649
609.449075,-296.082377,-8956.491898,229.828649
609.449402,74.020594,-8734.430116,153.219100
609.449730,-148.041188,-8808.450710,229.828649
609.450057,0.000000,-8956.491898,229.828649
609.450385,-222.061783,-8734.430116,306.438199
609.450712,0.000000,-9104.533087,383.047749
609.451040,-444.123565,-8956.491898,1072.533697
609.451367,-370.102971,-8882.471304,689.485948
609.451695,-592.164754,-9474.636058,383.047749
609.452022,-518.144159,-9400.615463,459.657299
609.452350,-296.082377,-9178.553681,459.657299
609.452677,-296.082377,-8956.491898,612.876398
609.453005,-370.102971,-9030.512492,842.705048
609.453332,-148.041188,-9178.553681,383.047749
609.453660,-296.082377,-9104.533087,536.266849
609.453987,-592.164754,-8956.491898,536.266849
609.454315,-518.144159,-8660.409521,995.924147
609.454642,0.000000,-9030.512492,995.924147
609.454970,-518.144159,-9030.512492,689.485948
609.455298,-296.082377,-9104.533087,766.095498
609.455625,-518.144159,-9030.512492,689.485948
609.455953,-666.185348,-8956.491898,612.876398
609.456280,-592.164754,-9252.574275,1149.143247
609.456608,-740.205942,-9252.574275,842.705048
609.456935,-518.144159,-9326.594869,536.266849
609.457263,-518.144159,-9326.594869,536.266849
609.457590,-148.041188,-9326.594869,689.485948
609.457918,0.000000,-9030.512492,536.266849
609.458245,0.000000,-8808.450710,536.266849
609.458573,0.000000,-9104.533087,536.266849
609.458900,-74.020594,-9326.594869,612.876398
609.459228,-222.061783,-9178.553681,459.657299
609.459555,148.041188,-9178.553681,612.876398
609.459883,0.000000,-9178.553681,612.876398
609.460210,-148.041188,-9474.636058,842.705048
609.460538,-148.041188,-9474.636058,842.705048
609.460865,0.000000,-9474.636058,842.705048
609.461193,74.020594,-8882.471304,153.219100
609.461520,296.082377,-8734.430116,1225.752797
609.461848,0.000000,-9104.533087,689.485948
609.462175,0.000000,-9326.594869,689.485948
609.462503,0.000000,-9104.533087,612.876398
609.462830,0.000000,-9326.594869,536.266849
609.463158,-296.082377,-8956.491898,536.266849
609.463486,0.000000,-9622.677246,766.095498
609.463813,0.000000,-9474.636058,536.266849
609.464141,-148.041188,-9474.636058,536.266849
609.464468,-296.082377,-9474.636058,766.095498
609.464796,0.000000,-8956.491898,842.705048
609.465123,0.000000,-9474.636058,306.438199
609.465451,74.020594,-9326.594869,459.657299
609.465778,0.000000,-9252.574275,306.438199
609.466106,0.000000,-9178.553681,459.657299
609.466433,0.000000,-9474.636058,306.438199
609.466761,0.000000,-9030.512492,612.876398
609.467088,-296.082377,-9030.512492,306.438199
609.467416,0.000000,-9252.574275,459.657299
609.467743,-148.041188,-9178.553681,459.657299
609.468071,0.000000,-9252.574275,919.314598
609.468398,0.000000,-9178.553681,995.924147
609.468726,-296.082377,-9326.594869,383.047749
609.469053,-222.061783,-9252.574275,459.657299
609.469381,-296.082377,-9400.615463,383.047749
609.469708,-148.041188,-9326.594869,536.266849
609.470036,148.041188,-9178.553681,306.438199
609.470363,-222.061783,-9104.533087,459.657299
609.470691,-222.061783,-9326.594869,153.219100
609.471018,-296.082377,-8956.491898,383.047749
609.471346,-222.061783,-8956.491898,306.438199
609.471674,-444.123565,-8438.347739,612.876398
609.472001,0.000000,-8734.430116,76.609550
609.472329,-296.082377,-8956.491898,459.657299
609.472656,-370.102971,-8956.491898,612.876398
609.472984,-370.102971,-8808.450710,536.266849
609.473311,-370.102971,-8956.491898,306.438199
609.473639,-518.144159,-8364.327145,919.314598
609.473966,-518.144159,-8808.450710,536.266849
609.474294,-666.185348,-8882.471304,459.657299
609.474621,-592.164754,-9030.512492,459.657299
609.474949,-666.185348,-9030.512492,1149.143247
609.475276,-444.123565,-9474.636058,612.876398
609.475604,-592.164754,-9326.594869,766.095498
609.475931,-518.144159,-9252.574275,536.266849
609.476259,-518.144159,-9178.553681,536.266849
609.476586,-592.164754,-9104.533087,612.876398
609.476914,0.000000,-9104.533087,306.438199
609.477241,0.000000,-8956.491898,459.657299
609.477569,-444.123565,-8734.430116,842.705048
609.477896,-666.185348,-9030.512492,229.828649
609.478224,-444.123565,-8734.430116,383.047749
609.478551,-74.020594,-8586.388927,689.485948
609.478879,-296.082377,-8660.409521,536.266849
609.479206,-296.082377,-9104.533087,612.876398
609.479534,-370.102971,-9104.533087,689.485948
609.479862,-518.144159,-9178.553681,689.485948
609.480189,-148.041188,-8882.471304,995.924147
609.480517,-296.082377,-9178.553681,612.876398
609.480844,-444.123565,-9030.512492,536.266849
609.481172,-370.102971,-8882.471304,459.657299
609.481499,-222.061783,-9104.533087,459.657299
609.481827,-222.061783,-8956.491898,459.657299
609.482154,0.000000,-9104.533087,153.219100
609.482482,-148.041188,-9252.574275,766.095498
609.482809,0.000000,-9104.533087,383.047749
609.483137,-222.061783,-9400.615463,612.876398
609.483464,-222.061783,-9400.615463,766.095498
609.483792,-370.102971,-9474.636058,76.609550
609.484119,-666.185348,-9178.553681,383.047749
609.484447,-296.082377,-9474.636058,612.876398
609.484774,-370.102971,-9104.533087,459.657299
609.485102,-148.041188,-9178.553681,459.657299
609.485429,0.000000,-9104.533087,229.828649
609.485757,-370.102971,-8660.409521,766.095498
609.486084,-148.041188,-8808.450710,536.266849
609.486412,-296.082377,-8882.471304,229.828649
609.486739,-222.061783,-9030.512492,612.876398
609.487067,0.000000,-9252.574275,536.266849
609.487394,-444.123565,-9400.615463,766.095498
609.487722,-296.082377,-9326.594869,459.657299
609.488050,0.000000,-9474.636058,383.047749
609.488377,0.000000,-9400.615463,459.657299
609.488705,0.000000,-9474.636058,459.657299
609.489032,0.000000,-9178.553681,689.485948
609.489360,0.000000,-9400.615463,536.266849
609.489687,74.020594,-9252.574275,306.438199
609.490015,0.000000,-9178.553681,459.657299
609.490342,-222.061783,-9178.553681,459.657299
609.490670,0.000000,-9622.677246,766.095498
609.490997,148.041188,-9400.615463,612.876398
609.491325,-148.041188,-9400.615463,536.266849
609.491652,-148.041188,-9474.636058,612.876398
609.491980,-148.041188,-9400.615463,766.095498
609.492307,74.020594,-9252.574275,459.657299
609.492635,148.041188,-8956.491898,306.438199
609.492962,74.020594,-9252.574275,459.657299
609.493290,0.000000,-9104.533087,306.438199
609.493617,0.000000,-9252.574275,153.219100
609.493945,148.041188,-8882.471304,766.095498
609.494272,222.061783,-8956.491898,0.000000
609.494600,0.000000,-9104.533087,536.266849
609.494927,74.020594,-9400.615463,229.828649
609.495255,0.000000,-9252.574275,306.438199
609.495582,0.000000,-9400.615463,459.657299
609.495910,0.000000,-9252.574275,842.705048
609.496238,-444.123565,-9252.574275,536.266849
609.496565,-370.102971,-9326.594869,536.266849
609.496893,-222.061783,-9178.553681,459.657299
609.497220,-148.041188,-9178.553681,459.657299
609.497548,-296.082377,-9030.512492,459.657299
609.497875,-222.061783,-8882.471304,459.657299
609.498203,-518.144159,-9030.512492,536.266849
609.498530,-370.102971,-9104.533087,383.047749
609.498858,-370.102971,-9326.594869,612.876398
609.499185,0.000000,-9030.512492,1302.362347
609.499513,0.000000,-9178.553681,689.485948
609.499840,-444.123565,-9326.594869,536.266849
609.500168,-370.102971,-8882.471304,536.266849
609.500495,-592.164754,-8956.491898,766.095498
609.500823,-740.205942,-8586.388927,383.047749
609.501150,-148.041188,-9030.512492,536.266849
609.501478,-518.144159,-9030.512492,536.266849
609.501805,-814.226536,-8956.491898,689.485948
609.502133,-370.102971,-9104.533087,612.876398
609.502460,-592.164754,-9178.553681,766.095498
609.502788,-370.102971,-9548.656652,459.657299
609.503115,-444.123565,-9104.533087,612.876398
609.503443,-296.082377,-9178.553681,459.657299
609.503770,-444.123565,-9030.512492,689.485948
609.504098,-518.144159,-9030.512492,689.485948
609.504425,0.000000,-8808.450710,612.876398
609.504753,-222.061783,-9178.553681,612.876398
609.505081,-222.061783,-8808.450710,459.657299
609.505408,-296.082377,-8808.450710,536.266849
609.505736,-370.102971,-8956.491898,612.876398
609.506063,0.000000,-8660.409521,1149.143247
609.506391,0.000000,-8882.471304,383.047749
609.506718,-370.102971,-9252.574275,383.047749
609.507046,-592.164754,-9178.553681,536.266849
609.507373,-370.102971,-9252.574275,612.876398
609.507701,-666.185348,-9030.512492,995.924147
609.508028,-666.185348,-8882.471304,842.705048
609.508356,-740.205942,-9030.512492,995.924147
609.508683,-592.164754,-9104.533087,459.657299
609.509011,-518.144159,-9030.512492,766.095498
609.509338,-370.102971,-8956.491898,383.047749
609.509666,-148.041188,-8808.450710,766.095498
609.509993,-444.123565,-8734.430116,229.828649
609.510321,-296.082377,-8956.491898,612.876398
609.510648,0.000000,-9104.533087,383.047749
609.510976,-518.144159,-8956.491898,689.485948
609.511304,0.000000,-9104.533087,612.876398
609.511631,-296.082377,-8956.491898,459.657299
609.511959,-444.123565,-8956.491898,383.047749
609.512286,-296.082377,-9104.533087,536.266849
609.512614,0.000000,-9030.512492,459.657299
609.512941,222.061783,-8660.409521,842.705048
609.513269,148.041188,-8586.388927,689.485948
609.513596,0.000000,-8882.471304,689.485948
609.513924,0.000000,-9252.574275,306.438199
609.514251,0.000000,-9178.553681,536.266849
609.514579,0.000000,-9252.574275,459.657299
609.514907,74.020594,-9030.512492,689.485948
609.515234,-148.041188,-9474.636058,0.000000
609.515562,-296.082377,-9696.697840,229.828649
609.515889,-148.041188,-9548.656652,306.438199
609.516217,0.000000,-9400.615463,459.657299
609.516544,0.000000,-9400.615463,153.219100
609.516872,0.000000,-9104.533087,383.047749
609.517199,0.000000,-9178.553681,306.438199
609.517527,-148.041188,-9030.512492,536.266849
609.517854,0.000000,-8956.491898,383.047749
609.518182,-370.102971,-8956.491898,766.095498
609.518509,-296.082377,-9030.512492,1149.143247
609.518837,-518.144159,-9178.553681,689.485948
609.519165,-444.123565,-9474.636058,842.705048
609.519492,-740.205942,-9178.553681,689.485948
609.519820,-518.144159,-9104.533087,842.705048
609.520147,-592.164754,-8734.430116,1149.143247
609.520475,-296.082377,-8882.471304,842.705048
609.520802,0.000000,-8808.450710,612.876398
609.521130,-222.061783,-8882.471304,536.266849
609.521457,0.000000,-9178.553681,612.876398
609.521785,-296.082377,-9178.553681,612.876398
609.522112,-518.144159,-9400.615463,689.485948
609.522440,-444.123565,-9622.677246,766.095498
609.522767,-296.082377,-9622.677246,689.485948
609.523095,-370.102971,-9622.677246,612.876398
609.523423,-444.123565,-9548.656652,1225.752797
609.523750,0.000000,-9178.553681,0.000000
609.524078,-148.041188,-9474.636058,459.657299
609.524405,-296.082377,-9178.553681,612.876398
609.524733,0.000000,-9178.553681,459.657299
609.525060,0.000000,-8882.471304,383.047749
609.525388,74.020594,-8882.471304,766.095498
609.525715,0.000000,-8882.471304,76.609550
609.526043,-148.041188,-9030.512492,383.047749
609.526370,-148.041188,-8956.491898,153.219100
609.526698,-370.102971,-9030.512492,459.657299
609.527026,-148.041188,-8808.450710,689.485948
609.527353,0.000000,-8882.471304,536.266849
609.527681,-222.061783,-8808.450710,612.876398
609.528008,-296.082377,-9178.553681,383.047749
609.528336,-370.102971,-9326.594869,459.657299
609.528663,148.041188,-8956.491898,766.095498
609.528991,-296.082377,-8882.471304,536.266849
609.529318,-370.102971,-8956.491898,689.485948
609.529646,-370.102971,-8882.471304,689.485948
609.529973,-592.164754,-9030.512492,612.876398
609.530301,-148.041188,-9030.512492,689.485948
609.530628,-444.123565,-8808.450710,612.876398
609.530956,-592.164754,-9104.533087,689.485948
609.531284,-666.185348,-9252.574275,995.924147
609.531611,-740.205942,-9178.553681,689.485948
609.531939,-444.123565,-9400.615463,995.924147
609.532266,-666.185348,-8808.450710,1072.533697
609.532594,-518.144159,-8808.450710,689.485948
609.532921,-444.123565,-8734.430116,536.266849
609.533249,-444.123565,-8660.409521,612.876398
609.533576,-444.123565,-8512.368333,306.438199
609.533904,0.000000,-8808.450710,383.047749
609.534231,-444.123565,-8734.430116,229.828649
609.534559,-444.123565,-8882.471304,536.266849
609.534886,-370.102971,-9030.512492,612.876398
609.535214,0.000000,-9104.533087,383.047749
609.535542,148.041188,-8882.471304,0.000000
609.535869,0.000000,-9474.636058,536.266849
609.536197,-296.082377,-9178.553681,229.828649
609.536524,0.000000,-9326.594869,689.485948
609.536852,0.000000,-9326.594869,612.876398
609.537179,148.041188,-9030.512492,689.485948
609.537507,296.082377,-9252.574275,306.438199
609.537834,0.000000,-9326.594869,459.657299
609.538162,-148.041188,-9178.553681,459.657299
609.538489,-148.041188,-9252.574275,383.047749
609.538817,-444.123565,-9252.574275,536.266849
609.539144,-814.226536,-8660.409521,612.876398
609.539472,-444.123565,-9104.533087,536.266849
609.539800,-592.164754,-9178.553681,842.705048
609.540127,-666.185348,-9104.533087,689.485948
609.540455,-666.185348,-9178.553681,995.924147
609.540782,0.000000,-9178.553681,919.314598
609.541110,-592.164754,-8956.491898,612.876398
609.541437,-592.164754,-8956.491898,383.047749
609.541765,-518.144159,-9252.574275,383.047749
609.542092,-666.185348,-8956.491898,612.876398
609.542420,-148.041188,-8808.450710,612.876398
609.542747,-296.082377,-8882.471304,459.657299
609.543075,-444.123565,-9178.553681,536.266849
609.543403,-592.164754,-9474.636058,612.876398
609.543730,-518.144159,-9326.594869,612.876398
609.544058,-518.144159,-9326.594869,689.485948
609.544385,-148.041188,-9326.594869,459.657299
609.544713,-222.061783,-9326.594869,766.095498
609.545040,0.000000,-9474.636058,689.485948
609.545368,0.000000,-9178.553681,689.485948
609.545695,0.000000,-9178.553681,995.924147
609.546023,0.000000,-9326.594869,306.438199
609.546350,0.000000,-9178.553681,306.438199
609.546678,-148.041188,-9104.533087,612.876398
609.547005,-222.061783,-9400.615463,229.828649
609.547333,-222.061783,-9326.594869,383.047749
609.547661,0.000000,-9474.636058,0.000000
609.547988,-444.123565,-9178.553681,459.657299
609.548316,-296.082377,-9178.553681,689.485948
609.548643,-222.061783,-9252.574275,383.047749
609.548971,-148.041188,-9030.512492,612.876398
609.549298,0.000000,-8808.450710,229.828649
609.549626,0.000000,-8734.430116,689.485948
609.549953,0.000000,-8808.450710,536.266849
609.550281,0.000000,-9178.553681,689.485948
609.550608,-148.041188,-9030.512492,459.657299
609.550936,0.000000,-9104.533087,459.657299
609.551263,0.000000,-8882.471304,689.485948
609.551591,0.000000,-9252.574275,689.485948
609.551919,-148.041188,-9178.553681,689.485948
609.552246,-296.082377,-9252.574275,536.266849
609.552574,0.000000,-9474.636058,1302.362347
609.552901,-592.164754,-8882.471304,612.876398
609.553229,0.000000,-9252.574275,689.485948
609.553556,-222.061783,-9030.512492,689.485948
609.553884,-222.061783,-9030.512492,689.485948
609.554211,-296.082377,-9178.553681,536.266849
609.554539,-296.082377,-8364.327145,995.924147
609.554866,-222.061783,-9030.512492,306.438199
609.555194,-444.123565,-9030.512492,229.828649
609.555522,-592.164754,-9252.574275,536.266849
609.555849,-814.226536,-9252.574275,612.876398
609.556177,0.000000,-8956.491898,766.095498
609.556504,-296.082377,-8956.491898,153.219100
609.556832,-592.164754,-9252.574275,459.657299
609.557159,-518.144159,-9030.512492,612.876398
609.557487,-148.041188,-9030.512492,229.828649
609.557814,0.000000,-8956.491898,919.314598
609.558142,0.000000,-8438.347739,612.876398
609.558469,0.000000,-9030.512492,536.266849
609.558797,0.000000,-9030.512492,612.876398
609.559124,-222.061783,-9030.512492,612.876398
609.559452,-222.061783,-9178.553681,766.095498
609.559780,-296.082377,-9030.512492,995.924147
609.560107,-296.082377,-9252.574275,536.266849
609.560435,-296.082377,-9104.533087,689.485948
609.560762,-148.041188,-8882.471304,459.657299
609.561090,-222.061783,-8734.430116,766.095498
609.561417,0.000000,-8586.388927,995.924147
609.561745,-444.123565,-8882.471304,306.438199
609.562072,-296.082377,-8956.491898,536.266849
609.562400,-666.185348,-8882.471304,459.657299
609.562727,-518.144159,-9178.553681,229.828649
609.563055,-444.123565,-9252.574275,612.876398
609.563382,0.000000,-9178.553681,0.000000
609.563710,-518.144159,-9030.512492,383.047749
609.564038,-666.185348,-9030.512492,459.657299
609.564365,-592.164754,-9030.512492,229.828649
609.564693,-370.102971,-8438.347739,612.876398
609.565020,-444.123565,-8956.491898,536.266849
609.565348,-222.061783,-8882.471304,306.438199
609.565675,-444.123565,-8956.491898,306.438199
609.566003,-148.041188,-9178.553681,459.657299
609.566330,-296.082377,-8956.491898,459.657299
609.566658,0.000000,-8956.491898,1149.143247
609.566985,0.000000,-9030.512492,536.266849
609.567313,0.000000,-9252.574275,612.876398
609.567640,-222.061783,-9326.594869,689.485948
609.567968,0.000000,-9178.553681,766.095498
609.568296,-222.061783,-9178.553681,1225.752797
609.568623,0.000000,-9474.636058,536.266849
609.568951,-592.164754,-9178.553681,689.485948
609.569278,-296.082377,-9252.574275,842.705048
609.569606,-592.164754,-9252.574275,459.657299
609.569933,0.000000,-9548.656652,842.705048
609.570261,0.000000,-8734.430116,536.266849
609.570588,-370.102971,-9252.574275,459.657299
609.570916,-370.102971,-9178.553681,536.266849
609.571243,-296.082377,-9474.636058,536.266849
609.571571,-592.164754,-9104.533087,766.095498
609.571899,-148.041188,-9104.533087,153.219100
609.572226,-148.041188,-9326.594869,229.828649
609.572554,-222.061783,-9178.553681,383.047749
609.572881,-370.102971,-9252.574275,153.219100
609.573209,-222.061783,-8956.491898,459.657299
609.573536,0.000000,-9104.533087,459.657299
609.573864,0.000000,-9474.636058,383.047749
609.574191,0.000000,-9326.594869,536.266849
609.574519,74.020594,-9400.615463,306.438199
609.574846,0.000000,-9178.553681,383.047749
609.575174,0.000000,-9474.636058,-383.047749
609.575501,0.000000,-9252.574275,536.266849
609.575829,0.000000,-9548.656652,536.266849
609.576157,-296.082377,-9326.594869,536.266849
609.576484,-370.102971,-9326.594869,306.438199
609.576812,-74.020594,-9326.594869,842.705048
609.577139,0.000000,-9104.533087,536.266849
609.577467,0.000000,-9104.533087,306.438199
609.577794,0.000000,-8808.450710,306.438199
609.578122,-518.144159,-9104.533087,536.266849
609.578449,0.000000,-9400.615463,459.657299
609.578777,-592.164754,-8660.409521,689.485948
609.579104,-592.164754,-8956.491898,689.485948
609.579432,-296.082377,-8882.471304,689.485948
609.579759,-74.020594,-9252.574275,612.876398
609.580087,-370.102971,-9030.512492,689.485948
609.580415,-444.123565,-8660.409521,766.095498
609.580742,-518.144159,-8734.430116,842.705048
609.581070,-222.061783,-8956.491898,536.266849
609.581397,-222.061783,-8882.471304,536.266849
609.581725,-148.041188,-8882.471304,689.485948
609.582052,-370.102971,-8586.388927,689.485948
609.582380,-518.144159,-8660.409521,1149.143247
609.582707,-370.102971,-9400.615463,766.095498
609.583035,-296.082377,-9252.574275,842.705048
609.583362,-296.082377,-9326.594869,689.485948
609.583690,-296.082377,-8808.450710,536.266849
609.584018,-666.185348,-9252.574275,1072.533697
609.584345,-370.102971,-9030.512492,536.266849
609.584673,-592.164754,-8956.491898,536.266849
609.585000,-370.102971,-8808.450710,689.485948
609.585328,-296.082377,-8734.430116,689.485948
609.585655,-222.061783,-8586.388927,459.657299
609.585983,-666.185348,-9030.512492,383.047749
609.586310,-592.164754,-8956.491898,459.657299
609.586638,-296.082377,-8882.471304,459.657299
609.586965,-222.061783,-8734.430116,383.047749
609.587293,0.000000,-8586.388927,612.876398
609.587620,-370.102971,-8956.491898,306.438199
609.587948,-592.164754,-9104.533087,536.266849
609.588276,-296.082377,-9178.553681,459.657299
609.588603,-370.102971,-9178.553681,459.657299
609.588931,0.000000,-9326.594869,0.000000
609.589258,148.041188,-9252.574275,306.438199
609.589586,148.041188,-9104.533087,766.095498
609.589913,222.061783,-9178.553681,383.047749
609.590241,148.041188,-9178.553681,459.657299
609.590568,0.000000,-9326.594869,306.438199
609.590896,0.000000,-9030.512492,459.657299
609.591223,0.000000,-9400.615463,459.657299
609.591551,-148.041188,-9474.636058,689.485948
609.591878,-518.144159,-9400.615463,536.266849
609.592206,-370.102971,-9030.512492,536.266849
609.592534,-518.144159,-8734.430116,919.314598
609.592861,-444.123565,-8882.471304,459.657299
609.593189,-444.123565,-8660.409521,306.438199
609.593516,-222.061783,-8734.430116,229.828649
609.593844,-518.144159,-8660.409521,306.438199
609.594171,-814.226536,-8808.450710,612.876398
609.594499,-592.164754,-9030.512492,306.438199
609.594826,-740.205942,-9030.512492,229.828649
609.595154,-518.144159,-9030.512492,689.485948
609.595481,-592.164754,-8882.471304,459.657299
609.595809,-222.061783,-8882.471304,689.485948
609.596136,-370.102971,-8956.491898,153.219100
609.596464,0.000000,-8808.450710,459.657299
609.596792,0.000000,-8808.450710,383.047749
609.597119,0.000000,-8808.450710,383.047749
609.597447,-518.144159,-9252.574275,153.219100
609.597774,148.041188,-9400.615463,612.876398
609.598102,0.000000,-9326.594869,536.266849
609.598429,0.000000,-9400.615463,536.266849
609.598757,148.041188,-9474.636058,689.485948
609.599084,148.041188,-9474.636058,536.266849
609.599412,74.020594,-8882.471304,919.314598
609.599739,0.000000,-9178.553681,459.657299
609.600067,0.000000,-9030.512492,459.657299
609.600395,-296.082377,-9178.553681,306.438199
609.600722,0.000000,-9178.553681,459.657299
609.601050,0.000000,-9252.574275,1225.752797
609.601377,-296.082377,-9030.512492,306.438199
609.601705,-370.102971,-9252.574275,306.438199
609.602032,-370.102971,-9104.533087,536.266849
609.602360,-370.102971,-9252.574275,766.095498
609.602687,0.000000,-9252.574275,459.657299
609.603015,-296.082377,-9474.636058,689.485948
609.603342,-222.061783,-9474.636058,995.924147
609.603670,-222.061783,-9622.677246,995.924147
609.603997,-518.144159,-9400.615463,842.705048
609.604325,-296.082377,-9030.512492,689.485948
609.604653,-222.061783,-9104.533087,612.876398
609.604980,-444.123565,-9252.574275,919.314598
609.605308,-296.082377,-9030.512492,689.485948
609.605635,-444.123565,-9178.553681,1072.533697
609.605963,-592.164754,-9030.512492,766.095498
609.606290,-222.061783,-8882.471304,919.314598
609.606618,-814.226536,-9030.512492,766.095498
609.606945,-518.144159,-9326.594869,919.314598
609.607273,-296.082377,-9326.594869,689.485948
609.607600,-518.144159,-9178.553681,842.705048
609.607928,-296.082377,-9252.574275,919.314598
609.608255,-518.144159,-9104.533087,536.266849
609.608583,-444.123565,-9178.553681,689.485948
609.608911,-592.164754,-9104.533087,689.485948
609.609238,-444.123565,-9104.533087,383.047749
609.609566,0.000000,-9178.553681,153.219100
609.609893,0.000000,-8438.347739,612.876398
609.610221,0.000000,-8882.471304,306.438199
609.610548,0.000000,-9104.533087,383.047749
609.610876,0.000000,-9178.553681,383.047749
609.611203,-296.082377,-9178.553681,306.438199
609.611531,-148.041188,-8956.491898,536.266849
609.611858,-222.061783,-9178.553681,383.047749
609.612186,0.000000,-9252.574275,459.657299
609.612514,-222.061783,-9030.512492,459.657299
609.612841,0.000000,-9030.512492,612.876398
609.613169,-222.061783,-8290.306550,459.657299
609.613496,0.000000,-8364.327145,536.266849
609.613824,-222.061783,-8734.430116,76.609550
609.614151,0.000000,-8808.450710,306.438199
609.614479,-296.082377,-8734.430116,689.485948
609.614806,-444.123565,-8882.471304,306.438199
609.615134,-370.102971,-8956.491898,919.314598
609.615461,-592.164754,-8956.491898,612.876398
609.615789,-592.164754,-9030.512492,612.876398
609.616117,-518.144159,-9178.553681,306.438199
609.616444,-592.164754,-8734.430116,383.047749
609.616772,-518.144159,-8956.491898,383.047749
609.617099,-222.061783,-8586.388927,229.828649
609.617427,0.000000,-8808.450710,536.266849
609.617754,-370.102971,-8586.388927,383.047749
609.618082,-370.102971,-8956.491898,383.047749
609.618409,-370.102971,-8956.491898,689.485948
609.618737,-444.123565,-9030.512492,689.485948
609.619064,-296.082377,-9030.512492,459.657299
609.619392,0.000000,-9252.574275,842.705048
609.619719,-148.041188,-9326.594869,459.657299
609.620047,-296.082377,-9104.533087,1149.143247
609.620375,0.000000,-9030.512492,536.266849
609.620702,-370.102971,-9178.553681,536.266849
609.621030,-148.041188,-9030.512492,612.876398
609.621357,0.000000,-9178.553681,689.485948
609.621685,-222.061783,-9104.533087,919.314598
609.622012,-592.164754,-8956.491898,919.314598
609.622340,-518.144159,-9104.533087,612.876398
609.622667,-592.164754,-9326.594869,536.266849
609.622995,-592.164754,-9474.636058,612.876398
609.623322,-444.123565,-9622.677246,842.705048
609.623650,-296.082377,-9622.677246,842.705048
609.623978,-740.205942,-9474.636058,842.705048
609.624305,-518.144159,-9474.636058,766.095498
609.624633,-370.102971,-9252.574275,842.705048
609.624960,-148.041188,-9104.533087,689.485948
609.625288,-222.061783,-9030.512492,919.314598
609.625615,-296.082377,-8956.491898,459.657299
609.625943,-296.082377,-9030.512492,689.485948
609.626270,-370.102971,-9030.512492,612.876398
609.626598,-296.082377,-9104.533087,689.485948
609.626925,0.000000,-8956.491898,842.705048
609.627253,0.000000,-9474.636058,689.485948
609.627581,-444.123565,-9474.636058,536.266849
609.627908,-666.185348,-9474.636058,766.095498
609.628236,-518.144159,-9400.615463,842.705048
609.628563,-222.061783,-9030.512492,689.485948
609.628891,148.041188,-9104.533087,995.924147
609.629218,0.000000,-9104.533087,612.876398
609.629546,74.020594,-9252.574275,383.047749
609.629873,-296.082377,-9104.533087,383.047749
609.630201,-296.082377,-9326.594869,383.047749
609.630528,0.000000,-9030.512492,153.219100
609.630856,0.000000,-9252.574275,229.828649
609.631183,-222.061783,-9474.636058,306.438199
609.631511,0.000000,-9474.636058,536.266849
609.631839,0.000000,-9400.615463,689.485948
609.632166,0.000000,-8956.491898,536.266849
609.632494,0.000000,-8956.491898,229.828649
609.632821,-222.061783,-9104.533087,306.438199
609.633149,-370.102971,-8956.491898,153.219100
609.633476,-518.144159,-9104.533087,229.828649
609.633804,-148.041188,-8660.409521,306.438199
609.634131,-148.041188,-8882.471304,689.485948
609.634459,-370.102971,-8734.430116,459.657299
609.634786,0.000000,-8882.471304,536.266849
609.635114,0.000000,-8808.450710,459.657299
609.635442,-666.185348,-8882.471304,689.485948
609.635769,0.000000,-8956.491898,919.314598
609.636097,-222.061783,-8808.450710,536.266849
609.636424,-222.061783,-9104.533087,536.266849
609.636752,-370.102971,-9474.636058,919.314598
609.637079,-518.144159,-9252.574275,689.485948
609.637407,-148.041188,-8808.450710,995.924147
609.637734,-296.082377,-9030.512492,383.047749
609.638062,-666.185348,-8882.471304,383.047749
609.638389,-296.082377,-9030.512492,306.438199
609.638717,-296.082377,-8734.430116,536.266849
609.639045,0.000000,-8290.306550,306.438199
609.639372,-370.102971,-9104.533087,229.828649
609.639700,-370.102971,-9252.574275,306.438199
609.640027,-518.144159,-9252.574275,306.438199
609.640355,-296.082377,-9400.615463,153.219100
609.640682,-148.041188,-9030.512492,842.705048
609.641010,-296.082377,-8808.450710,76.609550
609.641337,-222.061783,-8956.491898,459.657299
609.641665,0.000000,-8808.450710,459.657299
609.641992,-148.041188,-8734.430116,306.438199
609.642320,-296.082377,-9104.533087,612.876398
609.642648,-444.123565,-8882.471304,459.657299
609.642975,-444.123565,-8956.491898,536.266849
609.643303,-444.123565,-8956.491898,689.485948
609.643630,0.000000,-9030.512492,536.266849
609.643958,0.000000,-9326.594869,766.095498
609.644285,148.041188,-9252.574275,689.485948
609.644613,0.000000,-9178.553681,612.876398
609.644940,-222.061783,-9326.594869,766.095498
609.645268,-370.102971,-9252.574275,1149.143247
609.645595,-296.082377,-9474.636058,842.705048
609.645923,-296.082377,-9252.574275,842.705048
609.646250,-666.185348,-8882.471304,842.705048
609.646578,-666.185348,-9252.574275,689.485948
609.646906,-740.205942,-9178.553681,536.266849
609.647233,-666.185348,-9030.512492,459.657299
609.647561,-888.247130,-8586.388927,1072.533697
609.647888,-666.185348,-8734.430116,1149.143247
609.648216,-740.205942,-8956.491898,612.876398
609.648543,-740.205942,-9252.574275,536.266849
609.648871,-814.226536,-9326.594869,536.266849
609.649198,-518.144159,-9622.677246,919.314598
609.649526,74.020594,-9178.553681,612.876398
609.649853,0.000000,-9474.636058,536.266849
609.650181,0.000000,-9474.636058,536.266849
609.650509,148.041188,-9400.615463,536.266849
609.650836,148.041188,-9252.574275,536.266849
609.651164,370.102971,-8956.491898,76.609550
609.651491,148.041188,-9178.553681,306.438199
609.651819,0.000000,-9400.615463,459.657299
609.652146,0.000000,-9474.636058,306.438199
609.652474,0.000000,-9326.594869,536.266849
609.652801,0.000000,-9252.574275,919.314598
609.653129,-296.082377,-9104.533087,383.047749
609.653456,-444.123565,-9326.594869,153.219100
609.653784,-222.061783,-9252.574275,306.438199
609.654112,-222.061783,-8882.471304,383.047749
609.654439,0.000000,-8808.450710,459.657299
609.654767,-74.020594,-8956.491898,689.485948
609.655094,-222.061783,-9104.533087,612.876398
609.655422,-370.102971,-9252.574275,612.876398
609.655749,-296.082377,-9400.615463,459.657299
609.656077,-592.164754,-9252.574275,306.438199
609.656404,-148.041188,-9030.512492,842.705048
609.656732,-370.102971,-9252.574275,383.047749
609.657059,-296.082377,-9326.594869,459.657299
609.657387,-518.144159,-9178.553681,153.219100
609.657714,-370.102971,-9104.533087,459.657299
609.658042,-148.041188,-8734.430116,1455.581446
609.658370,-296.082377,-8956.491898,459.657299
609.658697,-148.041188,-9030.512492,306.438199
609.659025,0.000000,-8956.491898,229.828649
609.659352,0.000000,-8808.450710,229.828649
609.659680,0.000000,-8438.347739,536.266849
609.660007,148.041188,-8586.388927,306.438199
609.660335,0.000000,-9030.512492,612.876398
609.660662,-222.061783,-9252.574275,459.657299
609.660990,-444.123565,-9178.553681,459.657299
609.661317,-222.061783,-9030.512492,459.657299
609.661645,-296.082377,-9326.594869,612.876398
609.661973,-370.102971,-9252.574275,612.876398
609.662300,0.000000,-8956.491898,306.438199
609.662628,0.000000,-9104.533087,612.876398
609.662955,-222.061783,-9030.512492,536.266849
609.663283,0.000000,-9030.512492,229.828649
609.663610,-444.123565,-9252.574275,536.266849
609.663938,0.000000,-9326.594869,766.095498
609.664265,-296.082377,-9622.677246,612.876398
609.664593,-296.082377,-9400.615463,612.876398
609.664920,-444.123565,-9400.615463,1378.971896
609.665248,-666.185348,-9178.553681,689.485948
609.665576,-444.123565,-9252.574275,459.657299
609.665903,-666.185348,-9030.512492,689.485948
609.666231,-666.185348,-8734.430116,536.266849
609.666558,-666.185348,-8364.327145,919.314598
609.666886,-592.164754,-8734.430116,689.485948
609.667213,-444.123565,-8882.471304,842.705048
609.667541,-518.144159,-8956.491898,536.266849
609.667868,-444.123565,-9030.512492,766.095498
609.668196,-370.102971,-9178.553681,1072.533697
609.668523,-222.061783,-8882.471304,536.266849
609.668851,-222.061783,-9474.636058,766.095498
609.669179,-296.082377,-9178.553681,536.266849
609.669506,-370.102971,-9400.615463,689.485948
609.669834,-296.082377,-9548.656652,459.657299
609.670161,-296.082377,-9474.636058,612.876398
609.670489,0.000000,-9252.574275,536.266849
609.670816,0.000000,-8956.491898,383.047749
609.671144,0.000000,-9178.553681,306.438199
609.671471,-222.061783,-9252.574275,459.657299
609.671799,0.000000,-9326.594869,995.924147
609.672126,-148.041188,-9178.553681,229.828649
609.672454,-296.082377,-9030.512492,229.828649
609.672781,0.000000,-8956.491898,383.047749
609.673109,0.000000,-9326.594869,536.266849
609.673437,0.000000,-8808.450710,842.705048
609.673764,222.061783,-8956.491898,536.266849
609.674092,-222.061783,-8882.471304,306.438199
609.674419,-222.061783,-9104.533087,0.000000
609.674747,-518.144159,-9030.512492,536.266849
609.675074,0.000000,-8512.368333,689.485948
609.675402,0.000000,-8660.409521,76.609550
609.675729,296.082377,-8808.450710,229.828649
609.676057,0.000000,-8660.409521,229.828649
609.676384,-296.082377,-8660.409521,229.828649
609.676712,-296.082377,-8808.450710,306.438199
609.677040,0.000000,-8660.409521,306.438199
609.677367,-740.205942,-8956.491898,459.657299
609.677695,-444.123565,-9178.553681,459.657299
609.678022,-148.041188,-9252.574275,383.047749
609.678350,0.000000,-9252.574275,766.095498
609.678677,0.000000,-9104.533087,536.266849
609.679005,296.082377,-8808.450710,536.266849
609.679332,-370.102971,-8734.430116,459.657299
609.679660,-148.041188,-8734.430116,383.047749
609.679987,-296.082377,-9030.512492,689.485948
609.680315,-666.185348,-8808.450710,766.095498
609.680643,-444.123565,-9400.615463,919.314598
609.680970,-370.102971,-9474.636058,612.876398
609.681298,-444.123565,-9400.615463,689.485948
609.681625,-296.082377,-9400.615463,612.876398
609.681953,-74.020594,-8956.491898,689.485948
609.682280,148.041188,-8882.471304,459.657299
609.682608,0.000000,-8882.471304,459.657299
609.682935,0.000000,-9178.553681,689.485948
609.683263,-296.082377,-9400.615463,459.657299
609.683590,-518.144159,-9474.636058,536.266849
609.683918,-592.164754,-9474.636058,689.485948
609.684246,-444.123565,-9400.615463,842.705048
609.684573,-296.082377,-9474.636058,689.485948
609.684901,-370.102971,-9252.574275,612.876398
609.685228,0.000000,-9252.574275,536.266849
609.685556,74.020594,-8808.450710,383.047749
609.685883,0.000000,-9104.533087,919.314598
609.686211,-370.102971,-9252.574275,842.705048
609.686538,-444.123565,-9400.615463,919.314598
609.686866,-370.102971,-9548.656652,995.924147
609.687193,-296.082377,-9548.656652,1072.533697
609.687521,0.000000,-8956.491898,459.657299
609.687848,444.123565,-9326.594869,919.314598
609.688176,814.226536,-8660.409521,1378.971896
609.688504,1036.288319,-8882.471304,1608.800546
609.688831,740.205942,-9030.512492,1685.410096
609.689159,518.144159,-9474.636058,2298.286494
609.689486,0.000000,-9548.656652,1991.848295
609.689814,-148.041188,-9474.636058,2068.457845
609.690141,0.000000,-9178.553681,2145.067394
609.690469,0.000000,-9252.574275,2068.457845
609.690796,0.000000,-8882.471304,2604.724693
609.691124,74.020594,-9030.512492,2374.896044
609.691451,74.020594,-8660.409521,2221.676944
609.691779,-222.061783,-8438.347739,2221.676944
609.692107,-296.082377,-8586.388927,2451.505594
609.692434,-370.102971,-8660.409521,2834.553343
609.692762,-518.144159,-8586.388927,2604.724693
609.693089,-370.102971,-9104.533087,2757.943793
609.693417,-518.144159,-8808.450710,2757.943793
609.693744,-518.144159,-8734.430116,2757.943793
609.694072,-592.164754,-8808.450710,2911.162892
609.694399,-444.123565,-8882.471304,3140.991542
609.694727,-740.205942,-9030.512492,3064.381992
609.695054,-740.205942,-8956.491898,2987.772442
609.695382,-666.185348,-8882.471304,3064.381992
609.695710,-518.144159,-8808.450710,2911.162892
609.696037,-518.144159,-8660.409521,2834.553343
609.696365,-370.102971,-8956.491898,3064.381992
609.696692,-370.102971,-8808.450710,2987.772442
609.697020,-518.144159,-8734.430116,2757.943793
609.697347,-222.061783,-8882.471304,2834.553343
609.697675,-222.061783,-8882.471304,3294.210641
609.698002,148.041188,-9178.553681,2987.772442
609.698330,74.020594,-9178.553681,3370.820191
609.698657,0.000000,-9178.553681,3294.210641
609.698985,0.000000,-9178.553681,3294.210641
609.699312,592.164754,-9104.533087,3830.477490
609.699640,740.205942,-8734.430116,3983.696590
609.699968,1036.288319,-8660.409521,4136.915689
609.700295,814.226536,-8882.471304,4443.353888
609.700623,888.247130,-9104.533087,4749.792088
609.700950,740.205942,-9030.512492,4443.353888
609.701278,148.041188,-8734.430116,5209.449386
609.701605,370.102971,-9474.636058,4979.620737
609.701933,0.000000,-9622.677246,4826.401637
609.702260,-296.082377,-9622.677246,4596.572988
609.702588,-666.185348,-9474.636058,4443.353888
609.702915,-1036.288319,-9104.533087,4060.306139
609.703243,-1258.350101,-9474.636058,4060.306139
609.703571,-1776.494261,-9400.615463,3677.258390
609.703898,-2146.597232,-9326.594869,3064.381992
609.704226,-2368.659014,-8882.471304,2987.772442
609.704553,-1628.453072,-8808.450710,3830.477490
609.704881,-962.267725,-8216.285956,3524.039291
609.705208,0.000000,-8364.327145,4213.525239
609.705536,1036.288319,-8068.244768,4673.182538
609.705863,2294.638420,-8068.244768,5745.716235
609.706191,2442.679609,-8438.347739,6741.640382
609.706518,2146.597232,-9400.615463,7048.078582
609.706846,518.144159,-10214.842000,6665.030833
609.707174,-888.247130,-11103.089130,6128.763984
609.707501,-2146.597232,-11325.150913,5439.278036
609.707829,-2886.803174,-10881.027347,4903.011187
609.708156,-2368.659014,-10214.842000,4366.744339
609.708484,-740.205942,-9326.594869,4060.306139
609.708811,962.267725,-8216.285956,4366.744339
609.709139,2072.576638,-7328.038826,4366.744339
609.709466,2220.617826,-7624.121203,4443.353888
609.709794,1776.494261,-7920.203579,4290.134789
609.710121,-666.185348,-9030.512492,3600.648841
609.710449,-4293.194464,-10732.986159,2298.286494
609.710777,-9548.656652,-12953.603985,0.000000
609.711104,-12879.583391,-13323.706956,-2298.286494
609.711432,-12953.603985,-11843.295072,-3600.648841
609.711759,-10510.924376,-9104.533087,-3983.696590
609.712087,-1554.432478,-5995.668130,-3370.820191
609.712414,3404.947333,-4145.153275,-459.657299
609.712742,8956.491898,-2516.700203,0.000000
609.713069,11843.295072,-3627.009116,3370.820191
609.713397,9992.780217,-4959.379811,3140.991542
609.713724,7994.224174,-8142.265362,3830.477490
609.714052,4219.173869,-11917.315666,3524.039291
609.714379,962.267725,-14285.974681,3907.087040
609.714707,1850.514855,-14508.036463,4979.620737
609.715035,3256.906145,-12731.542202,6588.421283
609.715362,8438.347739,-11325.150913,8427.050478
609.715690,10732.986159,-10362.883188,9576.193725
609.716017,10807.006753,-9400.615463,9499.584175
609.716345,10140.821405,-9178.553681,8580.269578
609.716672,2590.720797,-10732.986159,6052.154434
609.717000,-2072.576638,-10584.944971,4290.134789
609.717327,-5255.462188,-10658.965565,3677.258390
609.717655,-6291.750507,-9252.574275,3907.087040
609.717982,-4441.235652,-7328.038826,5745.716235
609.718310,-2738.761985,-6365.771101,8656.879127
609.718637,-3256.906145,-6809.894666,8273.831378
609.718965,-6809.894666,-6957.935855,7967.393179
609.719292,-7994.224174,-7550.100608,6588.421283
609.719620,-9844.739029,-7846.182985,5822.325785
609.719947,-10510.924376,-7550.100608,5669.106685
609.720275,-9992.780217,-8290.306550,5822.325785
609.720602,-11029.068536,-7846.182985,4903.011187
609.720930,-9992.780217,-6883.915261,5286.058936
609.721258,-5107.421000,-5403.503377,6665.030833
609.721585,1702.473667,-3034.844362,8273.831378
609.721913,7550.100608,-2220.617826,9806.022374
609.722240,7920.203579,-6735.874072,10112.460574
609.722568,814.226536,-12879.583391,8350.440928
609.722895,-7994.224174,-16210.510130,4136.915689
609.723223,-12435.459826,-17912.983796,459.657299
609.723550,-11843.295072,-17246.798449,-1762.019645
609.723878,-7328.038826,-14656.077652,-2221.676944
609.724205,0.000000,-12435.459826,-995.924147
609.724533,3034.844362,-10362.883188,153.219100
609.724860,3923.091493,-7328.038826,-153.219100
609.725188,4367.215058,-5107.421000,-2221.676944
609.725515,2738.761985,-5699.585753,-4366.744339
609.725843,4811.338623,-7846.182985,-3983.696590
609.726170,4145.153275,-7698.141797,-4443.353888
609.726498,4145.153275,-8438.347739,-1762.019645
609.726826,6957.935855,-8882.471304,1302.362347
609.727153,10881.027347,-7550.100608,4596.572988
609.727481,10584.944971,-9104.533087,5515.887586
609.727808,9844.739029,-10807.006753,4903.011187
609.728136,4441.235652,-14359.995275,3294.210641
609.728463,814.226536,-14730.098246,1838.629195
609.728791,592.164754,-12583.501014,1302.362347
609.729118,3775.050304,-10584.944971,2068.457845
609.729446,7476.080014,-8512.368333,2911.162892
609.729773,7254.018232,-8438.347739,3140.991542
609.730101,3923.091493,-7402.059420,1991.848295
609.730428,-888.247130,-6069.688724,2298.286494
609.730756,-5181.441594,-7254.018232,612.876398
609.731083,-8216.285956,-7698.141797,-1225.752797
609.731411,-8290.306550,-9918.759623,-1225.752797
609.731738,-7994.224174,-11547.212695,459.657299
609.732066,-5921.647536,-8660.409521,2451.505594
609.732393,-3997.112087,-6291.750507,5592.497135
609.732721,-1554.432478,-6735.874072,6665.030833
609.733049,-1702.473667,-8068.244768,7354.516781
609.733376,-2738.761985,-7105.977043,6818.249932
609.733704,-4367.215058,-5773.606348,5975.544884
609.734031,-4589.276840,-6291.750507,6511.811733
609.734359,-5551.544565,-7550.100608,6741.640382
609.734686,-3108.864956,-7698.141797,7354.516781
609.735014,1406.391290,-6883.915261,8350.440928
609.735341,5699.585753,-6217.729913,8810.098227
609.735669,5773.606348,-7402.059420,8350.440928
609.735996,2886.803174,-9622.677246,7277.907231
609.736324,-592.164754,-11251.130318,5439.278036
609.736651,-3627.009116,-12287.418637,4213.525239
609.736979,-5033.400406,-13545.768739,3677.258390
609.737306,-4737.318029,-13397.727550,2911.162892
609.737634,-3997.112087,-11769.274478,4366.744339
609.737961,444.123565,-9622.677246,4673.182538
609.738289,1702.473667,-8660.409521,5515.887586
609.738616,518.144159,-8512.368333,3907.087040
609.738944,1850.514855,-8142.265362,2911.162892
609.739272,-592.164754,-7772.162391,2604.724693
609.739599,-2886.803174,-7994.224174,1838.629195
609.739927,-3701.029710,-9400.615463,2298.286494
609.740254,-2294.638420,-9104.533087,2987.772442
609.740582,592.164754,-8290.306550,4596.572988
609.740909,2294.638420,-9252.574275,5898.935335
609.741237,1480.411884,-9178.553681,4749.792088
609.741564,296.082377,-9918.759623,4060.306139
609.741892,-2072.576638,-11695.253884,2298.286494
609.742219,-4441.235652,-11843.295072,229.828649
609.742547,-3256.906145,-11769.274478,612.876398
609.742874,1110.308913,-8438.347739,689.485948
609.743202,4663.297435,-7624.121203,2604.724693
609.743529,7698.141797,-8660.409521,5132.839837
609.743857,7254.018232,-9178.553681,6052.154434
609.744184,4071.132681,-9548.656652,6205.373534
609.744512,1776.494261,-12287.418637,4826.401637
609.744839,-3182.885551,-13841.851115,2987.772442
609.745167,-3478.967927,-14359.995275,3370.820191
609.745495,-1332.370696,-12583.501014,3907.087040
609.745822,0.000000,-11251.130318,4443.353888
609.746150,1406.391290,-9474.636058,5209.449386
609.746477,-222.061783,-9252.574275,5209.449386
609.746805,-3330.926739,-8808.450710,2757.943793
609.747132,-4737.318029,-7254.018232,612.876398
609.747460,-3849.070898,-6809.894666,-842.705048
609.747787,-1406.391290,-4959.379811,-459.657299
609.748115,962.267725,-5033.400406,536.266849
609.748442,3182.885551,-5255.462188,2374.896044
609.748770,2812.782580,-5181.441594,3217.601092
609.749097,888.247130,-6587.832884,3370.820191
609.749425,-1184.329507,-8586.388927,3217.601092
609.749752,-3256.906145,-9918.759623,1762.019645
609.750080,-2960.823768,-10658.965565,2068.457845
609.750407,-3330.926739,-10807.006753,1991.848295
609.750735,-1036.288319,-10881.027347,2604.724693
609.751062,148.041188,-9696.697840,2451.505594
609.751390,222.061783,-9104.533087,1838.629195
609.751718,1998.556043,-8216.285956,1532.190996
609.752045,2590.720797,-7031.956449,995.924147
609.752373,2516.700203,-6661.853478,536.266849
609.752700,2886.803174,-7328.038826,1378.971896
609.753028,3034.844362,-8512.368333,1915.238745
609.753355,1998.556043,-8216.285956,2068.457845
609.753683,444.123565,-8512.368333,2221.676944
609.754010,1406.391290,-8956.491898,3064.381992
609.754338,-444.123565,-9252.574275,2681.334243
609.754665,-592.164754,-9326.594869,1915.238745
609.754993,-2146.597232,-10362.883188,1838.629195
609.755320,-3849.070898,-9326.594869,995.924147
609.755648,-5329.482782,-8734.430116,-306.438199
609.755975,-3330.926739,-7105.977043,0.000000
609.756303,-592.164754,-5181.441594,-229.828649
609.756630,3108.864956,-4663.297435,919.314598
609.756958,5181.441594,-5033.400406,2451.505594
609.757285,4367.215058,-7105.977043,2451.505594
609.757613,3404.947333,-8290.306550,3064.381992
609.757941,1110.308913,-9770.718434,3140.991542
609.758268,-296.082377,-11325.150913,3524.039291
609.758596,-1924.535449,-12953.603985,3294.210641
609.758923,-2072.576638,-14211.954086,4749.792088
609.759251,-3923.091493,-13693.809927,3907.087040
609.759578,-5107.421000,-12361.439231,2757.943793
609.759906,-5551.544565,-12139.377449,1762.019645
609.760233,-5033.400406,-10955.047942,0.000000
609.760561,-3775.050304,-8512.368333,-919.314598
609.760888,-1554.432478,-7254.018232,-1149.143247
609.761216,370.102971,-6809.894666,0.000000
609.761543,1554.432478,-6513.812290,0.000000
609.761871,1258.350101,-6513.812290,0.000000
609.762198,2294.638420,-8660.409521,306.438199
609.762526,592.164754,-9104.533087,536.266849
609.762853,-592.164754,-10140.821405,612.876398
609.763181,-1850.514855,-12805.562797,459.657299
609.763508,-4293.194464,-13767.830521,536.266849
609.763836,-3330.926739,-13249.686362,229.828649
609.764164,-592.164754,-11029.068536,153.219100
609.764491,2442.679609,-9326.594869,0.000000
609.764819,5255.462188,-7920.203579,689.485948
609.765146,5773.606348,-6809.894666,306.438199
609.765474,4663.297435,-8068.244768,919.314598
609.765801,3256.906145,-7550.100608,0.000000
609.766129,3256.906145,-8438.347739,153.219100
609.766456,1776.494261,-9178.553681,-153.219100
609.766784,2220.617826,-9104.533087,383.047749
609.767111,1332.370696,-11103.089130,1455.581446
609.767439,-1110.308913,-12065.356855,1149.143247
609.767766,-2442.679609,-12065.356855,1302.362347
609.768094,-2516.700203,-11103.089130,919.314598
609.768421,-1776.494261,-9474.636058,995.924147
609.768749,-1554.432478,-8586.388927,306.438199
609.769076,-1036.288319,-7772.162391,76.609550
609.769404,-2664.741391,-7624.121203,-459.657299
609.769731,-2886.803174,-5699.585753,-766.095498
609.770059,-1776.494261,-4811.338623,-459.657299
609.770387,-2368.659014,-5699.585753,-919.314598
609.770714,-1480.411884,-5625.565159,-612.876398
609.771042,-1850.514855,-6365.771101,-689.485948
609.771369,-3034.844362,-7920.203579,-689.485948
609.771697,-3034.844362,-7846.182985,-536.266849
609.772024,-1480.411884,-8512.368333,0.000000
609.772352,148.041188,-9252.574275,689.485948
609.772679,1258.350101,-9030.512492,1378.971896
609.773007,2516.700203,-9178.553681,2221.676944
609.773334,1480.411884,-9474.636058,1915.238745
609.773662,888.247130,-9474.636058,1685.410096
609.773989,1332.370696,-9104.533087,842.705048
609.774317,1924.535449,-8438.347739,612.876398
609.774644,2738.761985,-8142.265362,536.266849
609.774972,3034.844362,-8882.471304,1225.752797
609.775299,2368.659014,-9104.533087,1455.581446
609.775627,444.123565,-9326.594869,995.924147
609.775955,1036.288319,-9326.594869,995.924147
609.776282,1628.453072,-9400.615463,612.876398
609.776610,1406.391290,-9844.739029,1149.143247
609.776937,1480.411884,-10140.821405,842.705048
609.777265,-814.226536,-11251.130318,1838.629195
609.777592,-2220.617826,-11029.068536,1991.848295
609.777920,-2072.576638,-10214.842000,1149.143247
609.778247,-1184.329507,-9474.636058,689.485948
609.778575,-1110.308913,-9252.574275,0.000000
609.778902,-1554.432478,-8882.471304,306.438199
