#time,accel_x,accel_y,accel_z
427.850723,-222.061783,-9178.553681,612.876398
427.851050,-370.102971,-9104.533087,536.266849
427.851378,-444.123565,-9104.533087,689.485948
427.851706,-222.061783,-8586.388927,459.657299
427.852033,0.000000,-9104.533087,766.095498
427.852361,-296.082377,-9326.594869,612.876398
427.852688,-296.082377,-9178.553681,689.485948
427.853016,-296.082377,-9030.512492,612.876398
427.853343,-148.041188,-8808.450710,383.047749
427.853671,-222.061783,-9104.533087,766.095498
427.853999,-370.102971,-9252.574275,536.266849
427.854326,-296.082377,-9326.594869,689.485948
427.854654,-296.082377,-9030.512492,459.657299
427.854981,-148.041188,-8956.491898,536.266849
427.855309,-518.144159,-8808.450710,995.924147
427.855637,0.000000,-9252.574275,612.876398
427.855964,0.000000,-9252.574275,536.266849
427.856292,-444.123565,-8956.491898,459.657299
427.856619,-222.061783,-9252.574275,459.657299
427.856947,-296.082377,-9326.594869,-153.219100
427.857275,-296.082377,-8956.491898,229.828649
427.857602,-444.123565,-9252.574275,383.047749
427.857930,-222.061783,-9252.574275,536.266849
427.858257,-222.061783,-9252.574275,459.657299
427.858585,-296.082377,-9474.636058,-153.219100
427.858912,-592.164754,-8512.368333,612.876398
427.859240,-444.123565,-9104.533087,612.876398
427.859568,-518.144159,-9252.574275,306.438199
427.859895,-962.267725,-9474.636058,0.000000
427.860223,-1480.411884,-9252.574275,-153.219100
427.860550,-1036.288319,-9030.512492,-612.876398
427.860878,-1036.288319,-9252.574275,-153.219100
427.861206,-740.205942,-8808.450710,-459.657299
427.861533,-296.082377,-9252.574275,-306.438199
427.861861,-888.247130,-9252.574275,-766.095498
427.862188,-962.267725,-8882.471304,-842.705048
427.862516,-1110.308913,-8882.471304,-1149.143247
427.862844,-1036.288319,-9030.512492,-1302.362347
427.863171,-888.247130,-9252.574275,-1072.533697
427.863499,-444.123565,-9474.636058,-1378.971896
427.863826,0.000000,-8956.491898,-1455.581446
427.864154,222.061783,-9178.553681,-1532.190996
427.864481,0.000000,-9252.574275,-1532.190996
427.864809,0.000000,-9326.594869,-1455.581446
427.865137,0.000000,-9474.636058,-1685.410096
427.865464,222.061783,-9326.594869,-1685.410096
427.865792,222.061783,-8956.491898,-1608.800546
427.866119,370.102971,-9474.636058,-1532.190996
427.866447,370.102971,-9326.594869,-1608.800546
427.866775,296.082377,-9252.574275,-1991.848295
427.867102,370.102971,-9474.636058,-2068.457845
427.867430,74.020594,-8586.388927,-1762.019645
427.867757,222.061783,-9400.615463,-1915.238745
427.868085,74.020594,-9252.574275,-2068.457845
427.868413,74.020594,-9178.553681,-2145.067394
427.868740,0.000000,-9178.553681,-1915.238745
427.869068,-222.061783,-9030.512492,-1455.581446
427.869395,-518.144159,-8956.491898,-2068.457845
427.869723,-666.185348,-9178.553681,-1915.238745
427.870050,-1036.288319,-9030.512492,-1991.848295
427.870378,-1258.350101,-8956.491898,-2451.505594
427.870706,-1332.370696,-9104.533087,-2145.067394
427.871033,-1406.391290,-8586.388927,-2451.505594
427.871361,-1924.535449,-9030.512492,-2681.334243
427.871688,-1850.514855,-8956.491898,-2987.772442
427.872016,-2146.597232,-8882.471304,-3064.381992
427.872344,-1924.535449,-9178.553681,-3677.258390
427.872671,-2146.597232,-8660.409521,-3600.648841
427.872999,-1850.514855,-9030.512492,-3907.087040
427.873326,-1702.473667,-8808.450710,-3907.087040
427.873654,-1332.370696,-8734.430116,-3677.258390
427.873982,-814.226536,-8808.450710,-3447.429741
427.874309,-740.205942,-8364.327145,-3064.381992
427.874637,592.164754,-8882.471304,-3217.601092
427.874964,1036.288319,-8808.450710,-2987.772442
427.875292,1480.411884,-8956.491898,-2451.505594
427.875619,1998.556043,-8882.471304,-2298.286494
427.875947,2368.659014,-8882.471304,-1991.848295
427.876275,1776.494261,-9474.636058,-2145.067394
427.876602,1036.288319,-10140.821405,-2298.286494
427.876930,74.020594,-10288.862594,-2451.505594
427.877257,-814.226536,-10362.883188,-3064.381992
427.877585,-1480.411884,-10436.903782,-3983.696590
427.877913,-2368.659014,-10362.883188,-4673.182538
427.878240,-1924.535449,-9474.636058,-4903.011187
427.878568,-1110.308913,-8660.409521,-4903.011187
427.878895,518.144159,-7698.141797,-4596.572988
427.879223,2294.638420,-7105.977043,-3140.991542
427.879551,2960.823768,-7105.977043,-2757.943793
427.879878,2960.823768,-7550.100608,-2298.286494
427.880206,1702.473667,-8364.327145,-1608.800546
427.880533,-148.041188,-9474.636058,-1915.238745
427.880861,-2072.576638,-10584.944971,-2221.676944
427.881188,-3997.112087,-10955.047942,-2221.676944
427.881516,-3775.050304,-11251.130318,-2834.553343
427.881844,-2590.720797,-10140.821405,-2451.505594
427.882171,-370.102971,-8956.491898,-2298.286494
427.882499,2146.597232,-7550.100608,-1455.581446
427.882826,4071.132681,-6735.874072,-766.095498
427.883154,4293.194464,-6957.935855,-689.485948
427.883482,3034.844362,-7846.182985,-1302.362347
427.883809,222.061783,-9178.553681,-1532.190996
427.884137,-2738.761985,-10510.924376,-2221.676944
427.884464,-4663.297435,-11103.089130,-2681.334243
427.884792,-4737.318029,-10732.986159,-2911.162892
427.885120,-3108.864956,-10436.903782,-1532.190996
427.885447,296.082377,-8882.471304,-612.876398
427.885775,2664.741391,-8068.244768,919.314598
427.886102,4367.215058,-7476.080014,1838.629195
427.886430,2886.803174,-7772.162391,1149.143247
427.886757,-222.061783,-8660.409521,76.609550
427.887085,-3627.009116,-9992.780217,-1532.190996
427.887413,-6069.688724,-10288.862594,-2681.334243
427.887740,-6513.812290,-9548.656652,-2757.943793
427.888068,-2960.823768,-8364.327145,-1378.971896
427.888395,888.247130,-6809.894666,-383.047749
427.888723,4441.235652,-5625.565159,919.314598
427.889051,5995.668130,-6735.874072,1532.190996
427.889378,2812.782580,-8512.368333,536.266849
427.889706,-1332.370696,-10362.883188,459.657299
427.890033,-5477.523971,-12435.459826,-2604.724693
427.890361,-6883.915261,-11769.274478,-3140.991542
427.890689,-3404.947333,-10140.821405,-2068.457845
427.891016,2220.617826,-8216.285956,536.266849
427.891344,6439.791695,-6143.709319,3983.696590
427.891671,8512.368333,-6661.853478,4366.744339
427.891999,5477.523971,-7698.141797,3600.648841
427.892327,0.000000,-9252.574275,1149.143247
427.892654,-2886.803174,-11251.130318,-459.657299
427.892982,-4663.297435,-10732.986159,-1225.752797
427.893309,-2590.720797,-10214.842000,-1072.533697
427.893637,2072.576638,-9104.533087,1685.410096
427.893964,5773.606348,-7402.059420,3907.087040
427.894292,5551.544565,-7476.080014,5439.278036
427.894620,2886.803174,-8142.265362,4213.525239
427.894947,-2664.741391,-9104.533087,459.657299
427.895275,-6513.812290,-10658.965565,-1608.800546
427.895602,-7994.224174,-11177.109724,-2451.505594
427.895930,-6291.750507,-9918.759623,-2451.505594
427.896258,-1924.535449,-8068.244768,0.000000
427.896585,2664.741391,-6661.853478,2528.115143
427.896913,4441.235652,-6735.874072,3600.648841
427.897240,1480.411884,-7105.977043,2604.724693
427.897568,-3330.926739,-9104.533087,76.609550
427.897896,-8660.409521,-10658.965565,-2451.505594
427.898223,-10510.924376,-11621.233289,-3830.477490
427.898551,-8364.327145,-10362.883188,-3983.696590
427.898878,-1998.556043,-9030.512492,-1991.848295
427.899206,4737.318029,-7328.038826,1072.533697
427.899533,7476.080014,-6809.894666,3140.991542
427.899861,5847.626942,-7846.182985,2604.724693
427.900189,1924.535449,-8734.430116,306.438199
427.900516,-3108.864956,-10288.862594,-2528.115143
427.900844,-4811.338623,-10955.047942,-3677.258390
427.901171,-2516.700203,-11029.068536,-2374.896044
427.901499,2886.803174,-8882.471304,0.000000
427.901827,8586.388927,-8512.368333,3447.429741
427.902154,11473.192101,-9178.553681,5669.106685
427.902482,8216.285956,-9696.697840,4826.401637
427.902809,1998.556043,-11399.171507,1915.238745
427.903137,-3034.844362,-12287.418637,-919.314598
427.903465,-6291.750507,-11547.212695,-3140.991542
427.903792,-3775.050304,-10584.944971,-2145.067394
427.904120,1480.411884,-8512.368333,536.266849
427.904447,5847.626942,-7402.059420,3140.991542
427.904775,6809.894666,-7476.080014,4826.401637
427.905102,4219.173869,-7920.203579,2911.162892
427.905430,-2146.597232,-9252.574275,76.609550
427.905758,-7624.121203,-10140.821405,-2451.505594
427.906085,-9030.512492,-10066.800811,-3753.867940
427.906413,-7031.956449,-8956.491898,-2221.676944
427.906740,-1628.453072,-7254.018232,1302.362347
427.907068,2738.761985,-6291.750507,4136.915689
427.907396,2960.823768,-6809.894666,4673.182538
427.907723,-592.164754,-8290.306550,2834.553343
427.908051,-5033.400406,-9770.718434,-229.828649
427.908378,-9474.636058,-10288.862594,-3370.820191
427.908706,-9326.594869,-9696.697840,-4213.525239
427.909033,-6143.709319,-9104.533087,-2604.724693
427.909361,962.267725,-6439.791695,0.000000
427.909688,6513.812290,-5995.668130,2911.162892
427.910016,7031.956449,-7031.956449,3677.258390
427.910343,3478.967927,-8660.409521,2451.505594
427.910671,-2220.617826,-10140.821405,0.000000
427.910998,-5773.606348,-11177.109724,-2604.724693
427.911326,-4737.318029,-11473.192101,-2528.115143
427.911653,518.144159,-9400.615463,-689.485948
427.911981,5847.626942,-7550.100608,2145.067394
427.912308,9474.636058,-7105.977043,4596.572988
427.912636,8808.450710,-7698.141797,6052.154434
427.912963,3849.070898,-9918.759623,3753.867940
427.913291,-2442.679609,-10881.027347,383.047749
427.913618,-4737.318029,-11251.130318,-2298.286494
427.913946,-4885.359217,-10140.821405,-2451.505594
427.914273,-740.205942,-8586.388927,-306.438199
427.914601,4885.359217,-6883.915261,2145.067394
427.914928,7105.977043,-6661.853478,3753.867940
427.915256,5329.482782,-8586.388927,3983.696590
427.915583,296.082377,-9326.594869,766.095498
427.915911,-5699.585753,-10510.924376,-1762.019645
427.916238,-8438.347739,-11177.109724,-3064.381992
427.916566,-7994.224174,-9474.636058,-3064.381992
427.916893,-3182.885551,-8512.368333,-536.266849
427.917221,2294.638420,-6809.894666,2374.896044
427.917548,4663.297435,-6735.874072,3753.867940
427.917876,2072.576638,-8068.244768,3524.039291
427.918203,-2368.659014,-9326.594869,383.047749
427.918531,-7105.977043,-10955.047942,-1838.629195
427.918858,-8956.491898,-11103.089130,-3370.820191
427.919186,-6735.874072,-9548.656652,-2604.724693
427.919513,-1776.494261,-8586.388927,-536.266849
427.919841,4219.173869,-7328.038826,2528.115143
427.920168,5403.503377,-7179.997637,3753.867940
427.920496,3997.112087,-8660.409521,2757.943793
427.920823,0.000000,-10066.800811,306.438199
427.921151,-3997.112087,-11325.150913,-2221.676944
427.921478,-4737.318029,-11103.089130,-3140.991542
427.921806,-2072.576638,-9992.780217,-1762.019645
427.922133,3034.844362,-8290.306550,995.924147
427.922461,7994.224174,-7920.203579,4903.011187
427.922788,8142.265362,-7698.141797,5056.230287
427.923116,4293.194464,-9400.615463,4443.353888
427.923443,444.123565,-11103.089130,1608.800546
427.923771,-4441.235652,-11991.336260,-536.266849
427.924098,-5625.565159,-11547.212695,-2451.505594
427.924426,-1924.535449,-10362.883188,-995.924147
427.924753,2368.659014,-8068.244768,1225.752797
427.925081,6439.791695,-7476.080014,3524.039291
427.925408,6365.771101,-7846.182985,4673.182538
427.925736,1924.535449,-9178.553681,2834.553343
427.926063,-4145.153275,-9844.739029,383.047749
427.926391,-7772.162391,-10214.842000,-2451.505594
427.926718,-7846.182985,-9474.636058,-3370.820191
427.927046,-3997.112087,-8586.388927,-1149.143247
427.927373,1258.350101,-6439.791695,1378.971896
427.927701,3627.009116,-6439.791695,3294.210641
427.928028,4737.318029,-7920.203579,4519.963438
427.928356,0.000000,-8882.471304,1838.629195
427.928683,-5477.523971,-10436.903782,-459.657299
427.929011,-8586.388927,-11251.130318,-2681.334243
427.929338,-8734.430116,-9992.780217,-3140.991542
427.929666,-4071.132681,-9252.574275,-1455.581446
427.929993,2294.638420,-6957.935855,1455.581446
427.930321,5625.565159,-6365.771101,2911.162892
427.930648,5773.606348,-7772.162391,3294.210641
427.930976,1776.494261,-8808.450710,766.095498
427.931303,-2812.782580,-10288.862594,-1838.629195
427.931631,-5329.482782,-10955.047942,-3140.991542
427.931958,-4293.194464,-9474.636058,-3217.601092
427.932286,814.226536,-8216.285956,-306.438199
427.932613,5773.606348,-7031.956449,2528.115143
427.932941,7920.203579,-7179.997637,4673.182538
427.933268,7105.977043,-8660.409521,4136.915689
427.933596,1998.556043,-10140.821405,1915.238745
427.933923,-2442.679609,-11251.130318,-842.705048
427.934251,-4959.379811,-11843.295072,-2681.334243
427.934579,-3997.112087,-9622.677246,-2451.505594
427.934906,666.185348,-8438.347739,0.000000
427.935234,5995.668130,-7254.018232,2757.943793
427.935561,6143.709319,-7254.018232,4136.915689
427.935889,4367.215058,-7994.224174,2987.772442
427.936216,-148.041188,-9474.636058,842.705048
427.936544,-5625.565159,-10658.965565,-2145.067394
427.936871,-7550.100608,-10955.047942,-3524.039291
427.937199,-5773.606348,-9474.636058,-2757.943793
427.937526,-296.082377,-7476.080014,0.000000
427.937854,4219.173869,-6809.894666,2604.724693
427.938181,4737.318029,-7550.100608,4673.182538
427.938509,1628.453072,-9400.615463,3524.039291
427.938836,-3923.091493,-10288.862594,689.485948
427.939164,-7698.141797,-11177.109724,-1762.019645
427.939491,-8364.327145,-11103.089130,-3064.381992
427.939819,-5181.441594,-9474.636058,-1915.238745
427.940146,666.185348,-8142.265362,536.266849
427.940474,5181.441594,-6957.935855,2987.772442
427.940801,5625.565159,-7476.080014,3677.258390
427.941129,3256.906145,-8734.430116,2528.115143
427.941456,-1776.494261,-10584.944971,-536.266849
427.941784,-5847.626942,-10881.027347,-2145.067394
427.942111,-6217.729913,-10584.944971,-2757.943793
427.942439,-2146.597232,-9474.636058,-1225.752797
427.942766,4145.153275,-7994.224174,2221.676944
427.943094,7476.080014,-7698.141797,4519.963438
427.943421,6069.688724,-8734.430116,5132.839837
427.943749,2664.741391,-10362.883188,3524.039291
427.944076,-2812.782580,-11399.171507,612.876398
427.944404,-5995.668130,-11473.192101,-1532.190996
427.944731,-5403.503377,-11177.109724,-2374.896044
427.945059,-1554.432478,-9104.533087,-1225.752797
427.945386,3478.967927,-7846.182985,2145.067394
427.945714,6883.915261,-6957.935855,4213.525239
427.946041,4737.318029,-7105.977043,3983.696590
427.946369,1480.411884,-9326.594869,2298.286494
427.946696,-3849.070898,-9770.718434,-766.095498
427.947024,-6217.729913,-9992.780217,-2834.553343
427.947351,-5403.503377,-9770.718434,-2834.553343
427.947679,-1332.370696,-7772.162391,-612.876398
427.948006,2886.803174,-7402.059420,2451.505594
427.948334,4737.318029,-7254.018232,4290.134789
427.948661,2516.700203,-8808.450710,3600.648841
427.948989,-1110.308913,-9548.656652,1685.410096
427.949316,-5551.544565,-10955.047942,-1302.362347
427.949644,-7772.162391,-10955.047942,-2987.772442
427.949971,-6365.771101,-9474.636058,-2757.943793
427.950299,-370.102971,-7772.162391,229.828649
427.950626,4071.132681,-6661.853478,1838.629195
427.950954,5773.606348,-6735.874072,3447.429741
427.951281,4071.132681,-8290.306550,2757.943793
427.951609,-518.144159,-9474.636058,536.266849
427.951936,-4737.318029,-10436.903782,-1608.800546
427.952264,-5255.462188,-10436.903782,-3447.429741
427.952591,-3330.926739,-9400.615463,-2528.115143
427.952919,1554.432478,-8290.306550,153.219100
427.953246,5921.647536,-7476.080014,3447.429741
427.953574,5921.647536,-7179.997637,4596.572988
427.953901,4219.173869,-9548.656652,3370.820191
427.954229,-1184.329507,-10436.903782,612.876398
427.954556,-5181.441594,-11621.233289,-1991.848295
427.954884,-6587.832884,-11029.068536,-3370.820191
427.955211,-3552.988522,-8290.306550,-2451.505594
427.955539,2294.638420,-7624.121203,689.485948
427.955866,6735.874072,-6661.853478,3064.381992
427.956194,6365.771101,-7179.997637,3677.258390
427.956521,4071.132681,-8808.450710,2681.334243
427.956849,-1258.350101,-9548.656652,-459.657299
427.957176,-5551.544565,-10658.965565,-2145.067394
427.957504,-5995.668130,-10362.883188,-2604.724693
427.957831,-3256.906145,-8882.471304,-1302.362347
427.958159,2072.576638,-8142.265362,1991.848295
427.958486,5403.503377,-7772.162391,4443.353888
427.958814,3997.112087,-7846.182985,4596.572988
427.959141,1110.308913,-9770.718434,2987.772442
427.959469,-4293.194464,-11177.109724,-229.828649
427.959796,-7476.080014,-11251.130318,-2604.724693
427.960124,-7254.018232,-10066.800811,-3294.210641
427.960451,-2960.823768,-8142.265362,-1685.410096
427.960779,2664.741391,-7105.977043,842.705048
427.961106,5699.585753,-6883.915261,3217.601092
427.961434,4219.173869,-7698.141797,3217.601092
427.961761,222.061783,-9400.615463,1302.362347
427.962089,-4663.297435,-10732.986159,-1225.752797
427.962416,-7254.018232,-10881.027347,-3370.820191
427.962744,-5773.606348,-10288.862594,-2757.943793
427.963071,-814.226536,-9326.594869,-306.438199
427.963399,4515.256246,-7624.121203,2374.896044
427.963726,6143.709319,-7698.141797,4213.525239
427.964054,5995.668130,-8956.491898,3907.087040
427.964381,592.164754,-10510.924376,2068.457845
427.964709,-4589.276840,-11473.192101,-1072.533697
427.965036,-6587.832884,-11325.150913,-2834.553343
427.965364,-4515.256246,-10140.821405,-2451.505594
427.965691,518.144159,-7772.162391,-306.438199
427.966019,5995.668130,-6661.853478,2451.505594
427.966346,7179.997637,-7328.038826,3983.696590
427.966674,5033.400406,-8586.388927,3294.210641
427.967001,518.144159,-10436.903782,1455.581446
427.967329,-4811.338623,-11177.109724,-536.266849
427.967656,-6587.832884,-10732.986159,-2145.067394
427.967984,-4071.132681,-10436.903782,-842.705048
427.968311,962.267725,-8142.265362,1225.752797
427.968639,4441.235652,-6957.935855,3524.039291
427.968966,6143.709319,-7994.224174,4979.620737
427.969294,2738.761985,-8586.388927,3447.429741
427.969621,-2812.782580,-10362.883188,1072.533697
427.969949,-6217.729913,-10881.027347,-1225.752797
427.970276,-7476.080014,-10881.027347,-2604.724693
427.970604,-4811.338623,-8882.471304,-1838.629195
427.970931,518.144159,-7254.018232,919.314598
427.971259,3552.988522,-6883.915261,2604.724693
427.971586,4367.215058,-6809.894666,3294.210641
427.971914,1998.556043,-8882.471304,2221.676944
427.972241,-3701.029710,-10214.842000,-383.047749
427.972569,-7031.956449,-10510.924376,-2757.943793
427.972896,-6513.812290,-10807.006753,-2681.334243
427.973224,-3330.926739,-8364.327145,-1455.581446
427.973551,2072.576638,-7105.977043,1302.362347
427.973879,6735.874072,-6661.853478,3600.648841
427.974206,5699.585753,-7254.018232,4213.525239
427.974534,1258.350101,-9400.615463,2451.505594
427.974861,-2960.823768,-10807.006753,153.219100
427.975189,-5699.585753,-11325.150913,-2298.286494
427.975516,-5477.523971,-10732.986159,-2451.505594
427.975844,-1184.329507,-8660.409521,-1225.752797
427.976171,3775.050304,-7328.038826,1072.533697
427.976499,7624.121203,-7105.977043,3677.258390
427.976826,6143.709319,-7550.100608,3294.210641
427.977154,2368.659014,-9474.636058,1532.190996
427.977481,-2960.823768,-11177.109724,-842.705048
427.977809,-5699.585753,-11103.089130,-2987.772442
427.978136,-5255.462188,-10510.924376,-2528.115143
427.978464,-888.247130,-8512.368333,-306.438199
427.978791,3552.988522,-7179.997637,1685.410096
427.979119,6883.915261,-7920.203579,4213.525239
427.979446,4663.297435,-7624.121203,3524.039291
427.979774,0.000000,-9770.718434,1532.190996
427.980101,-4293.194464,-11177.109724,-919.314598
427.980429,-7328.038826,-10436.903782,-2834.553343
427.980756,-5625.565159,-10140.821405,-2298.286494
427.981084,-740.205942,-7698.141797,0.000000
427.981411,3404.947333,-6587.832884,1608.800546
427.981739,5921.647536,-6809.894666,3753.867940
427.982066,3552.988522,-7846.182985,2681.334243
427.982394,-1850.514855,-10066.800811,689.485948
427.982721,-5255.462188,-11103.089130,-1685.410096
427.983049,-6661.853478,-10881.027347,-2374.896044
427.983376,-4959.379811,-9548.656652,-1915.238745
427.983704,1184.329507,-8364.327145,536.266849
427.984031,4663.297435,-7476.080014,2834.553343
427.984359,5773.606348,-7402.059420,4443.353888
427.984686,3997.112087,-9474.636058,3524.039291
427.985014,-2146.597232,-10881.027347,842.705048
427.985341,-5995.668130,-11251.130318,-1991.848295
427.985669,-6365.771101,-11547.212695,-2451.505594
427.985996,-3849.070898,-9326.594869,-2298.286494
427.986324,1998.556043,-7254.018232,612.876398
427.986651,6217.729913,-7402.059420,3217.601092
427.986979,6217.729913,-7179.997637,3524.039291
427.987306,2812.782580,-8956.491898,2451.505594
427.987634,-1998.556043,-10732.986159,0.000000
427.987961,-6439.791695,-10658.965565,-2298.286494
427.988289,-5847.626942,-10584.944971,-2987.772442
427.988616,-2072.576638,-9104.533087,-1302.362347
427.988944,2442.679609,-7772.162391,1378.971896
427.989271,7031.956449,-7698.141797,3983.696590
427.989599,6069.688724,-8068.244768,4213.525239
427.989926,1924.535449,-9400.615463,2374.896044
427.990254,-2738.761985,-11103.089130,0.000000
427.990581,-5921.647536,-11399.171507,-2451.505594
427.990909,-5847.626942,-11029.068536,-2604.724693
427.991236,-1554.432478,-8956.491898,-766.095498
427.991564,3404.947333,-7105.977043,1072.533697
427.991891,6735.874072,-7846.182985,3447.429741
427.992219,5255.462188,-7994.224174,3140.991542
427.992546,814.226536,-9696.697840,1455.581446
427.992874,-3923.091493,-11103.089130,-766.095498
427.993201,-6365.771101,-11029.068536,-2528.115143
427.993529,-5551.544565,-10955.047942,-1838.629195
427.993856,-1110.308913,-8660.409521,-306.438199
427.994184,3108.864956,-7254.018232,1915.238745
427.994511,5773.606348,-7254.018232,4366.744339
427.994839,3775.050304,-8216.285956,3983.696590
427.995166,-1332.370696,-9622.677246,1455.581446
427.995494,-5551.544565,-10658.965565,-1072.533697
427.995821,-7105.977043,-10807.006753,-2834.553343
427.996149,-5773.606348,-9918.759623,-2221.676944
427.996476,-592.164754,-7846.182985,76.609550
427.996804,3997.112087,-6957.935855,1532.190996
427.997131,5995.668130,-6735.874072,3830.477490
427.997459,3923.091493,-7550.100608,2528.115143
427.997786,-888.247130,-9548.656652,612.876398
427.998114,-4219.173869,-10807.006753,-1149.143247
427.998441,-5625.565159,-11177.109724,-2528.115143
427.998769,-3997.112087,-9474.636058,-1532.190996
427.999096,1554.432478,-8512.368333,1455.581446
427.999424,4737.318029,-7179.997637,3524.039291
427.999751,5477.523971,-7179.997637,4136.915689
428.000079,3256.906145,-8956.491898,3140.991542
428.000406,-1332.370696,-10066.800811,1149.143247
428.000734,-5625.565159,-10214.842000,-1532.190996
428.001061,-5921.647536,-10955.047942,-2221.676944
428.001389,-3701.029710,-8734.430116,-1838.629195
428.001716,1924.535449,-7105.977043,1378.971896
428.002044,5181.441594,-6069.688724,2757.943793
428.002371,5181.441594,-6587.832884,3064.381992
428.002699,2812.782580,-8586.388927,1838.629195
428.003026,-2294.638420,-10066.800811,-383.047749
428.003354,-5625.565159,-10140.821405,-2298.286494
428.003681,-5551.544565,-10807.006753,-2068.457845
428.004009,-2442.679609,-9252.574275,-995.924147
428.004336,2220.617826,-7476.080014,1455.581446
428.004664,5625.565159,-7772.162391,3447.429741
428.004991,4515.256246,-8216.285956,3294.210641
428.005319,1184.329507,-9622.677246,2145.067394
428.005646,-3478.967927,-11473.192101,-536.266849
428.005974,-7105.977043,-11177.109724,-3217.601092
428.006301,-5921.647536,-11325.150913,-2987.772442
428.006629,-2220.617826,-9030.512492,-1378.971896
428.006956,3108.864956,-7031.956449,1072.533697
428.007284,5625.565159,-7105.977043,2528.115143
428.007611,5255.462188,-7772.162391,2681.334243
428.007939,1554.432478,-9622.677246,1072.533697
428.008266,-3256.906145,-11325.150913,-1149.143247
428.008594,-5625.565159,-11029.068536,-2528.115143
428.008921,-4589.276840,-10881.027347,-2451.505594
428.009249,-666.185348,-8882.471304,0.000000
428.009576,4071.132681,-7476.080014,2528.115143
428.009904,7105.977043,-7846.182985,4749.792088
428.010232,4737.318029,-8734.430116,3753.867940
428.010559,444.123565,-10214.842000,2374.896044
428.010887,-3701.029710,-11399.171507,-306.438199
428.011214,-6143.709319,-11473.192101,-2221.676944
428.011542,-4367.215058,-10436.903782,-1532.190996
428.011869,1036.288319,-8660.409521,689.485948
428.012197,3997.112087,-7550.100608,2298.286494
428.012524,5921.647536,-7105.977043,3830.477490
428.012852,3478.967927,-8808.450710,3217.601092
428.013179,-1554.432478,-10288.862594,919.314598
428.013507,-5255.462188,-10584.944971,-1378.971896
428.013834,-5995.668130,-10584.944971,-1608.800546
428.014162,-4145.153275,-8956.491898,-1378.971896
428.014489,1110.308913,-7550.100608,1838.629195
428.014817,4663.297435,-7328.038826,3677.258390
428.015144,4515.256246,-7254.018232,3983.696590
428.015472,1776.494261,-8808.450710,3217.601092
428.015799,-2886.803174,-10436.903782,1225.752797
428.016127,-7550.100608,-10066.800811,-1915.238745
428.016454,-7402.059420,-10732.986159,-1991.848295
428.016782,-4589.276840,-8660.409521,-1608.800546
428.017109,592.164754,-6587.832884,766.095498
428.017437,4441.235652,-6143.709319,2145.067394
428.017764,5107.421000,-6587.832884,3064.381992
428.018092,1776.494261,-7994.224174,1225.752797
428.018419,-3108.864956,-9622.677246,-842.705048
428.018747,-6069.688724,-10436.903782,-2681.334243
428.019074,-5995.668130,-10214.842000,-2604.724693
428.019402,-2368.659014,-8660.409521,-1608.800546
428.019729,3256.906145,-7476.080014,1608.800546
428.020057,6365.771101,-7031.956449,3370.820191
428.020384,5847.626942,-7698.141797,3524.039291
428.020712,2960.823768,-9474.636058,2145.067394
428.021039,-1924.535449,-10658.965565,0.000000
428.021367,-5033.400406,-10510.924376,-2298.286494
428.021694,-4441.235652,-10881.027347,-2298.286494
428.022022,-1110.308913,-9104.533087,-1302.362347
428.022349,3182.885551,-7476.080014,995.924147
428.022677,6809.894666,-7105.977043,3447.429741
428.023004,5551.544565,-7550.100608,2451.505594
428.023332,1702.473667,-9400.615463,1072.533697
428.023659,-2516.700203,-10807.006753,-919.314598
428.023987,-5995.668130,-11103.089130,-3217.601092
428.024314,-4737.318029,-9844.739029,-2068.457845
428.024642,592.164754,-8734.430116,0.000000
428.024969,3701.029710,-7550.100608,1915.238745
428.025297,5847.626942,-7402.059420,3983.696590
428.025624,3775.050304,-9474.636058,3983.696590
428.025952,-1702.473667,-10658.965565,1378.971896
428.026279,-5995.668130,-10510.924376,-1378.971896
428.026607,-7476.080014,-11843.295072,-2681.334243
428.026934,-6365.771101,-10732.986159,-2451.505594
428.027262,-1258.350101,-8364.327145,0.000000
428.027589,3330.926739,-7476.080014,1685.410096
428.027917,5995.668130,-7105.977043,3217.601092
428.028244,3552.988522,-8216.285956,2451.505594
428.028572,-1406.391290,-10214.842000,536.266849
428.028899,-5699.585753,-11103.089130,-1608.800546
428.029227,-6661.853478,-11399.171507,-2757.943793
428.029554,-4293.194464,-9548.656652,-1608.800546
428.029882,1332.370696,-7994.224174,919.314598
428.030209,5107.421000,-7624.121203,2911.162892
428.030537,6439.791695,-7846.182985,4749.792088
428.030864,3849.070898,-9548.656652,3753.867940
428.031192,-1110.308913,-10658.965565,1685.410096
428.031519,-5033.400406,-11473.192101,-995.924147
428.031847,-5847.626942,-11473.192101,-1685.410096
428.032174,-3330.926739,-10066.800811,-1072.533697
428.032502,2664.741391,-7920.203579,1915.238745
428.032829,5699.585753,-7105.977043,4060.306139
428.033157,6513.812290,-7402.059420,3983.696590
428.033484,3330.926739,-9030.512492,2757.943793
428.033812,-1924.535449,-10362.883188,383.047749
428.034139,-5107.421000,-10066.800811,-1685.410096
428.034467,-4885.359217,-10436.903782,-1225.752797
428.034794,-1998.556043,-8882.471304,0.000000
428.035122,2146.597232,-7328.038826,2451.505594
428.035449,4737.318029,-7476.080014,4749.792088
428.035777,2738.761985,-7772.162391,3907.087040
428.036104,-1406.391290,-9548.656652,2298.286494
428.036432,-5625.565159,-10362.883188,-1072.533697
428.036760,-8586.388927,-10584.944971,-2987.772442
428.037087,-7105.977043,-9844.739029,-2987.772442
428.037415,-2960.823768,-7254.018232,-1378.971896
428.037742,2664.741391,-6143.709319,995.924147
428.038070,4737.318029,-5847.626942,2528.115143
428.038397,4145.153275,-6365.771101,2145.067394
428.038725,222.061783,-8882.471304,153.219100
428.039052,-4737.318029,-10066.800811,-2068.457845
428.039380,-7105.977043,-10288.862594,-3677.258390
428.039707,-5107.421000,-10436.903782,-2528.115143
428.040035,296.082377,-7698.141797,-536.266849
428.040362,4737.318029,-7105.977043,2068.457845
428.040690,7846.182985,-7772.162391,3983.696590
428.041017,5403.503377,-8142.265362,2911.162892
428.041345,962.267725,-10288.862594,1225.752797
428.041672,-3034.844362,-10881.027347,-1302.362347
428.042000,-5477.523971,-10584.944971,-3370.820191
428.042327,-2738.761985,-9844.739029,-2451.505594
428.042655,2442.679609,-7624.121203,-306.438199
428.042982,5551.544565,-7031.956449,1685.410096
428.043310,8438.347739,-6291.750507,3830.477490
428.043637,5551.544565,-8364.327145,2374.896044
428.043965,74.020594,-10214.842000,459.657299
428.044292,-3108.864956,-11103.089130,-1378.971896
428.044620,-4737.318029,-11325.150913,-2221.676944
428.044947,-2960.823768,-9844.739029,-1072.533697
428.045275,1406.391290,-8290.306550,1532.190996
428.045602,5107.421000,-7698.141797,4060.306139
428.045930,4589.276840,-7476.080014,4366.744339
428.046257,1628.453072,-9252.574275,3677.258390
428.046585,-3034.844362,-10288.862594,766.095498
428.046912,-7698.141797,-10362.883188,-1685.410096
428.047240,-7920.203579,-10732.986159,-2221.676944
428.047567,-4959.379811,-9252.574275,-1072.533697
428.047895,-592.164754,-7105.977043,689.485948
428.048222,2368.659014,-6587.832884,2681.334243
428.048550,3849.070898,-7328.038826,3370.820191
428.048877,-296.082377,-8364.327145,1378.971896
428.049205,-4737.318029,-10436.903782,-383.047749
428.049532,-7550.100608,-11547.212695,-2145.067394
428.049860,-7994.224174,-10955.047942,-2681.334243
428.050187,-3775.050304,-9326.594869,-689.485948
428.050515,2442.679609,-7846.182985,1915.238745
428.050842,5107.421000,-6883.915261,2987.772442
428.051170,5403.503377,-7476.080014,3830.477490
428.051497,2812.782580,-9474.636058,2681.334243
428.051825,-2368.659014,-10658.965565,459.657299
428.052152,-5033.400406,-11029.068536,-1608.800546
428.052480,-4219.173869,-11029.068536,-1915.238745
428.052807,-962.267725,-8882.471304,-536.266849
428.053135,4663.297435,-7550.100608,2221.676944
428.053462,7550.100608,-7105.977043,4213.525239
428.053790,6513.812290,-7698.141797,2834.553343
428.054117,3997.112087,-10732.986159,2221.676944
428.054445,-2368.659014,-9992.780217,-612.876398
428.054772,-5403.503377,-10955.047942,-2681.334243
428.055100,-3849.070898,-11547.212695,-2145.067394
428.055427,962.267725,-7772.162391,766.095498
428.055755,3627.009116,-7624.121203,1991.848295
428.056082,7179.997637,-7846.182985,4903.011187
428.056410,2294.638420,-7994.224174,2757.943793
428.056737,-592.164754,-10732.986159,1838.629195
428.057065,-5847.626942,-10658.965565,-2221.676944
428.057392,-9252.574275,-10510.924376,-4290.134789
428.057720,-5329.482782,-10584.944971,-2451.505594
428.058047,-1554.432478,-7105.977043,-2145.067394
428.058375,2886.803174,-7402.059420,1302.362347
428.058702,6587.832884,-7550.100608,2374.896044
428.059030,666.185348,-7402.059420,842.705048
428.059357,-888.247130,-9992.780217,842.705048
428.059685,-7105.977043,-10066.800811,-2834.553343
428.060012,-8142.265362,-10732.986159,-2987.772442
428.060340,-4293.194464,-9992.780217,-1762.019645
428.060667,1628.453072,-8142.265362,383.047749
428.060995,4515.256246,-7846.182985,2374.896044
428.061322,7328.038826,-8068.244768,3983.696590
428.061650,2590.720797,-9104.533087,2528.115143
428.061977,-666.185348,-11325.150913,1378.971896
428.062305,-5403.503377,-11177.109724,-2374.896044
428.062632,-4885.359217,-11251.130318,-2068.457845
428.062960,-1184.329507,-9548.656652,-1225.752797
428.063288,3775.050304,-7920.203579,1302.362347
428.063615,6143.709319,-8512.368333,3217.601092
428.063943,6957.935855,-7772.162391,3983.696590
428.064270,3404.947333,-8586.388927,2451.505594
428.064598,-1628.453072,-10955.047942,612.876398
428.064925,-4219.173869,-11103.089130,-1302.362347
428.065253,-3997.112087,-11399.171507,-1378.971896
428.065580,-1184.329507,-8808.450710,0.000000
428.065908,3182.885551,-7476.080014,2604.724693
428.066235,5255.462188,-7846.182985,4749.792088
428.066563,3108.864956,-8142.265362,3830.477490
428.066890,-444.123565,-9696.697840,2681.334243
428.067218,-4441.235652,-10140.821405,229.828649
428.067545,-7179.997637,-9696.697840,-2298.286494
428.067873,-5995.668130,-9770.718434,-1225.752797
428.068200,-2294.638420,-7846.182985,0.000000
428.068528,1184.329507,-6439.791695,1838.629195
428.068855,3997.112087,-7179.997637,3677.258390
428.069183,2368.659014,-7550.100608,2068.457845
428.069510,-1924.535449,-9548.656652,919.314598
428.069838,-5773.606348,-10732.986159,-1225.752797
428.070165,-8068.244768,-10510.924376,-3064.381992
428.070493,-5921.647536,-10214.842000,-2068.457845
428.070820,-444.123565,-7698.141797,689.485948
428.071148,3182.885551,-7031.956449,1838.629195
428.071475,5773.606348,-7254.018232,3753.867940
428.071803,3627.009116,-8216.285956,2528.115143
428.072130,-592.164754,-9992.780217,995.924147
428.072458,-3330.926739,-10436.903782,-995.924147
428.072785,-5033.400406,-11177.109724,-2911.162892
428.073113,-2886.803174,-9918.759623,-2221.676944
428.073440,2072.576638,-7698.141797,0.000000
428.073768,5477.523971,-6957.935855,1915.238745
428.074095,7846.182985,-7031.956449,3447.429741
428.074423,5847.626942,-8660.409521,2068.457845
428.074750,814.226536,-10436.903782,383.047749
428.075078,-2442.679609,-11103.089130,-1378.971896
428.075405,-3404.947333,-11399.171507,-1991.848295
428.075733,-1628.453072,-9696.697840,-1302.362347
428.076060,3108.864956,-8290.306550,1991.848295
428.076388,6069.688724,-7846.182985,3140.991542
428.076715,5329.482782,-7698.141797,3370.820191
428.077043,2368.659014,-9474.636058,2834.553343
428.077370,-2886.803174,-10436.903782,306.438199
428.077698,-6661.853478,-10658.965565,-2221.676944
428.078025,-6513.812290,-10288.862594,-2374.896044
428.078353,-3997.112087,-8364.327145,-1838.629195
428.078680,444.123565,-6809.894666,306.438199
428.079008,4219.173869,-6809.894666,2451.505594
428.079335,3849.070898,-6587.832884,2681.334243
428.079663,296.082377,-8512.368333,1149.143247
428.079990,-4293.194464,-10362.883188,-459.657299
428.080318,-8068.244768,-10807.006753,-2834.553343
428.080645,-7179.997637,-10881.027347,-2145.067394
428.080973,-3330.926739,-8808.450710,-689.485948
428.081300,1776.494261,-7254.018232,1685.410096
428.081628,5403.503377,-7624.121203,3753.867940
428.081955,4441.235652,-7920.203579,3294.210641
428.082283,592.164754,-9844.739029,1991.848295
428.082610,-3997.112087,-11103.089130,-459.657299
428.082938,-6143.709319,-11177.109724,-2604.724693
428.083265,-5403.503377,-10658.965565,-2528.115143
428.083593,-444.123565,-8882.471304,-842.705048
428.083920,4589.276840,-7105.977043,1685.410096
428.084248,8142.265362,-7476.080014,3600.648841
428.084575,6365.771101,-8068.244768,3140.991542
428.084903,2368.659014,-9696.697840,1685.410096
428.085230,-1850.514855,-11325.150913,-306.438199
428.085558,-4885.359217,-11399.171507,-1685.410096
428.085885,-3256.906145,-10584.944971,-1302.362347
428.086213,1628.453072,-8882.471304,1455.581446
428.086540,4367.215058,-7994.224174,3370.820191
428.086868,6439.791695,-7550.100608,4596.572988
428.087195,4145.153275,-9104.533087,4213.525239
428.087523,-1258.350101,-10362.883188,1532.190996
428.087850,-5255.462188,-10584.944971,-995.924147
428.088178,-6291.750507,-11251.130318,-2451.505594
428.088505,-4737.318029,-9400.615463,-1608.800546
428.088833,518.144159,-7402.059420,612.876398
428.089161,3256.906145,-7105.977043,2298.286494
428.089488,4219.173869,-6735.874072,3140.991542
428.089816,1702.473667,-9030.512492,2451.505594
428.090143,-3108.864956,-10066.800811,153.219100
428.090471,-7105.977043,-10584.944971,-2145.067394
428.090798,-7550.100608,-11251.130318,-2528.115143
428.091126,-5403.503377,-9548.656652,-1915.238745
428.091453,222.061783,-7994.224174,842.705048
428.091781,3997.112087,-7105.977043,2987.772442
428.092108,4293.194464,-7402.059420,3294.210641
428.092436,1480.411884,-9252.574275,2145.067394
428.092763,-3034.844362,-10881.027347,0.000000
428.093091,-6439.791695,-10584.944971,-2451.505594
428.093418,-5995.668130,-10807.006753,-2834.553343
428.093746,-2294.638420,-9252.574275,-2221.676944
428.094073,3182.885551,-7254.018232,536.266849
428.094401,7105.977043,-7476.080014,2528.115143
428.094728,7402.059420,-7550.100608,3370.820191
428.095056,4293.194464,-9030.512492,2145.067394
428.095383,-740.205942,-11177.109724,0.000000
428.095711,-3478.967927,-11547.212695,-1762.019645
428.096038,-3330.926739,-11177.109724,-1608.800546
428.096366,-296.082377,-9770.718434,0.000000
428.096693,4441.235652,-8068.244768,2604.724693
428.097021,7254.018232,-7402.059420,4673.182538
428.097348,5625.565159,-8660.409521,4290.134789
428.097676,1258.350101,-9696.697840,2681.334243
428.098003,-3330.926739,-10584.944971,0.000000
428.098331,-6365.771101,-10807.006753,-2221.676944
428.098658,-5033.400406,-9548.656652,-1991.848295
428.098986,-1184.329507,-8142.265362,-153.219100
428.099313,1702.473667,-7179.997637,1378.971896
428.099641,4219.173869,-6439.791695,3600.648841
428.099968,2220.617826,-7105.977043,3140.991542
428.100296,-1924.535449,-9326.594869,1455.581446
428.100623,-6513.812290,-9622.677246,-1455.581446
428.100951,-8438.347739,-10584.944971,-2757.943793
428.101278,-6957.935855,-9474.636058,-2374.896044
428.101606,-2146.597232,-7254.018232,0.000000
428.101933,2146.597232,-6883.915261,2374.896044
428.102261,4145.153275,-6587.832884,3524.039291
428.102588,2516.700203,-8068.244768,2987.772442
428.102916,-1628.453072,-9844.739029,842.705048
428.103243,-5921.647536,-10140.821405,-1838.629195
428.103571,-6439.791695,-10732.986159,-2757.943793
428.103898,-4293.194464,-9548.656652,-2604.724693
428.104226,1036.288319,-7254.018232,0.000000
428.104553,5477.523971,-6957.935855,1915.238745
428.104881,7550.100608,-7254.018232,3447.429741
428.105208,5181.441594,-7920.203579,2451.505594
428.105536,666.185348,-10436.903782,766.095498
428.105863,-2738.761985,-11325.150913,-1302.362347
428.106191,-4589.276840,-10881.027347,-2374.896044
428.106518,-1332.370696,-9844.739029,-766.095498
428.106846,3775.050304,-8290.306550,1991.848295
428.107173,6365.771101,-8068.244768,3600.648841
428.107501,6513.812290,-7550.100608,4443.353888
428.107828,3552.988522,-9104.533087,3064.381992
428.108156,-2220.617826,-10584.944971,153.219100
428.108483,-4737.318029,-10732.986159,-1762.019645
428.108811,-4811.338623,-10140.821405,-2298.286494
428.109139,-2886.803174,-8438.347739,-1838.629195
428.109466,1998.556043,-6883.915261,1455.581446
428.109794,4737.318029,-6809.894666,2834.553343
428.110121,3404.947333,-7105.977043,2221.676944
428.110449,592.164754,-9178.553681,1302.362347
428.110777,-4663.297435,-10288.862594,-383.047749
428.111104,-8364.327145,-10510.924376,-2911.162892
428.111432,-7031.956449,-10807.006753,-2221.676944
428.111759,-3404.947333,-8660.409521,-766.095498
428.112087,888.247130,-7476.080014,1915.238745
428.112415,4737.318029,-6957.935855,3677.258390
428.112742,3034.844362,-8068.244768,2834.553343
428.113070,-1480.411884,-9992.780217,1072.533697
428.113397,-5107.421000,-10807.006753,-1149.143247
428.113725,-7254.018232,-11103.089130,-2987.772442
428.114052,-5551.544565,-10362.883188,-2757.943793
428.114380,-370.102971,-8290.306550,-689.485948
428.114708,3923.091493,-7402.059420,919.314598
428.115035,7105.977043,-7698.141797,3140.991542
428.115363,5551.544565,-8438.347739,2834.553343
428.115690,1110.308913,-9918.759623,1302.362347
428.116018,-2886.803174,-11843.295072,-612.876398
428.116346,-4589.276840,-11843.295072,-2068.457845
428.116673,-2664.741391,-10955.047942,-1455.581446
428.117001,2368.659014,-9326.594869,1149.143247
428.117328,5551.544565,-7698.141797,3524.039291
428.117656,7550.100608,-8142.265362,4673.182538
428.117984,5181.441594,-9030.512492,4136.915689
428.118311,0.000000,-10362.883188,1532.190996
428.118639,-3701.029710,-10955.047942,-229.828649
428.118966,-5181.441594,-10807.006753,-1608.800546
428.119294,-3478.967927,-9326.594869,-1225.752797
428.119621,962.267725,-7772.162391,1378.971896
428.119949,3923.091493,-7328.038826,2757.943793
428.120277,4515.256246,-6957.935855,3677.258390
428.120604,1776.494261,-8512.368333,2681.334243
428.120932,-3108.864956,-9918.759623,306.438199
428.121259,-7031.956449,-10362.883188,-1838.629195
428.121587,-7550.100608,-10732.986159,-2221.676944
428.121915,-5551.544565,-9178.553681,-1302.362347
428.122242,-666.185348,-7550.100608,1149.143247
428.122570,2886.803174,-7105.977043,3600.648841
428.122897,2442.679609,-7031.956449,2757.943793
428.123225,444.123565,-9030.512492,2451.505594
428.123553,-3849.070898,-10066.800811,0.000000
428.123880,-7328.038826,-10288.862594,-2298.286494
428.124208,-6291.750507,-10288.862594,-1991.848295
428.124535,-3108.864956,-8438.347739,-1915.238745
428.124863,1998.556043,-6883.915261,536.266849
428.125191,5995.668130,-7179.997637,2451.505594
428.125518,6143.709319,-7328.038826,2451.505594
428.125846,3404.947333,-8956.491898,1455.581446
428.126173,-888.247130,-10658.965565,-689.485948
428.126501,-4589.276840,-10584.944971,-2681.334243
428.126828,-3034.844362,-10658.965565,-2221.676944
428.127156,888.247130,-9104.533087,0.000000
428.127484,5403.503377,-7550.100608,2068.457845
428.127811,8660.409521,-8290.306550,4519.963438
428.128139,7179.997637,-7994.224174,4136.915689
428.128466,2368.659014,-9918.759623,2681.334243
428.128794,-1850.514855,-11029.068536,383.047749
428.129122,-4589.276840,-10881.027347,-1608.800546
428.129449,-4219.173869,-9844.739029,-1149.143247
428.129777,-740.205942,-8364.327145,383.047749
428.130104,2812.782580,-7031.956449,2068.457845
428.130432,4959.379811,-7254.018232,3370.820191
428.130760,2812.782580,-7402.059420,2068.457845
428.131087,-1406.391290,-8808.450710,1149.143247
428.131415,-6217.729913,-9992.780217,-1991.848295
428.131742,-8660.409521,-10066.800811,-3447.429741
428.132070,-6735.874072,-9622.677246,-2451.505594
428.132397,-2516.700203,-7846.182985,-383.047749
428.132725,1036.288319,-6957.935855,1685.410096
428.133053,3256.906145,-6957.935855,3294.210641
428.133380,1184.329507,-7920.203579,1915.238745
428.133708,-3330.926739,-9696.697840,0.000000
428.134035,-6439.791695,-10881.027347,-1915.238745
428.134363,-7624.121203,-11029.068536,-3524.039291
428.134691,-4663.297435,-9622.677246,-2451.505594
428.135018,1184.329507,-7920.203579,76.609550
428.135346,4737.318029,-7402.059420,1685.410096
428.135673,6735.874072,-7179.997637,3217.601092
428.136001,5033.400406,-8956.491898,2374.896044
428.136329,74.020594,-10584.944971,383.047749
428.136656,-2590.720797,-11177.109724,-1991.848295
428.136984,-2664.741391,-11695.253884,-1762.019645
428.137311,-888.247130,-9918.759623,-1455.581446
428.137639,4663.297435,-8660.409521,2221.676944
428.137966,8586.388927,-8364.327145,4979.620737
428.138294,7550.100608,-8808.450710,4060.306139
428.138622,4293.194464,-10288.862594,3677.258390
428.138949,-814.226536,-11473.192101,1225.752797
428.139277,-5477.523971,-11325.150913,-1378.971896
428.139604,-4885.359217,-11251.130318,-1149.143247
428.139932,-1850.514855,-9252.574275,0.000000
428.140260,1480.411884,-7476.080014,1838.629195
428.140587,4737.318029,-7476.080014,3677.258390
428.140915,3775.050304,-7772.162391,2987.772442
428.141242,-444.123565,-8734.430116,1532.190996
428.141570,-4959.379811,-10510.924376,-919.314598
428.141898,-8586.388927,-9918.759623,-2528.115143
428.142225,-6957.935855,-10140.821405,-2068.457845
428.142553,-3404.947333,-8438.347739,-459.657299
428.142880,518.144159,-7254.018232,1838.629195
428.143208,3478.967927,-7846.182985,3140.991542
428.143536,1924.535449,-8142.265362,2987.772442
428.143863,-2146.597232,-10140.821405,1072.533697
428.144191,-5773.606348,-11399.171507,-842.705048
428.144518,-7476.080014,-11029.068536,-2681.334243
428.144846,-5551.544565,-10288.862594,-2374.896044
428.145173,-518.144159,-8364.327145,-306.438199
428.145501,3775.050304,-7031.956449,1149.143247
428.145829,6957.935855,-7402.059420,2987.772442
428.146156,5625.565159,-7698.141797,1991.848295
428.146484,1480.411884,-9696.697840,612.876398
428.146811,-1850.514855,-11103.089130,-919.314598
428.147139,-3997.112087,-10658.965565,-2834.553343
428.147467,-1184.329507,-9918.759623,-1302.362347
428.147794,3404.947333,-8364.327145,995.924147
428.148122,6661.853478,-7772.162391,2987.772442
428.148449,8068.244768,-7402.059420,4596.572988
428.148777,5773.606348,-9326.594869,3983.696590
428.149105,592.164754,-10436.903782,1532.190996
428.149432,-2960.823768,-10584.944971,-459.657299
428.149760,-4737.318029,-11251.130318,-1838.629195
428.150087,-3108.864956,-9104.533087,-842.705048
428.150415,1332.370696,-7698.141797,1072.533697
428.150742,4071.132681,-7254.018232,3064.381992
428.151070,3775.050304,-6439.791695,2911.162892
428.151398,1628.453072,-8586.388927,2451.505594
428.151725,-2960.823768,-9474.636058,-306.438199
428.152053,-7031.956449,-9178.553681,-2145.067394
428.152380,-7179.997637,-9696.697840,-2298.286494
428.152708,-5107.421000,-8068.244768,-1225.752797
428.153036,-592.164754,-6957.935855,1149.143247
428.153363,2886.803174,-7105.977043,3524.039291
428.153691,2072.576638,-6661.853478,3983.696590
428.154018,-296.082377,-8808.450710,2374.896044
428.154346,-4737.318029,-10214.842000,153.219100
428.154674,-7920.203579,-10140.821405,-2145.067394
428.155001,-7254.018232,-10214.842000,-2451.505594
428.155329,-3330.926739,-7920.203579,-1072.533697
428.155656,2072.576638,-6957.935855,612.876398
428.155984,5255.462188,-6957.935855,2451.505594
428.156312,5551.544565,-7179.997637,2681.334243
428.156639,2664.741391,-8882.471304,1072.533697
428.156967,-2220.617826,-10436.903782,-766.095498
428.157294,-4441.235652,-11399.171507,-2528.115143
428.157622,-3627.009116,-11029.068536,-2451.505594
428.157949,444.123565,-9474.636058,0.000000
428.158277,5181.441594,-8142.265362,2374.896044
428.158605,7254.018232,-7846.182985,4366.744339
428.158932,6291.750507,-8290.306550,3753.867940
428.159260,2368.659014,-10658.965565,2221.676944
428.159587,-2590.720797,-11843.295072,-842.705048
428.159915,-5033.400406,-11473.192101,-2298.286494
428.160243,-3627.009116,-10881.027347,-1991.848295
428.160570,148.041188,-8586.388927,-612.876398
428.160898,3775.050304,-7550.100608,1915.238745
428.161225,6365.771101,-7328.038826,3217.601092
428.161553,4293.194464,-8290.306550,2451.505594
428.161881,-222.061783,-9918.759623,919.314598
428.162208,-4441.235652,-10584.944971,-1532.190996
428.162536,-6587.832884,-11325.150913,-2451.505594
428.162863,-4959.379811,-10066.800811,-1991.848295
428.163191,-518.144159,-9030.512492,459.657299
428.163518,2368.659014,-8438.347739,2604.724693
428.163846,3182.885551,-7698.141797,4060.306139
428.164174,1480.411884,-9548.656652,2834.553343
428.164501,-3701.029710,-10584.944971,306.438199
428.164829,-7994.224174,-10584.944971,-2451.505594
428.165156,-7920.203579,-11103.089130,-2911.162892
428.165484,-5551.544565,-9030.512492,-2911.162892
428.165812,222.061783,-7179.997637,0.000000
428.166139,4071.132681,-6883.915261,1608.800546
428.166467,5551.544565,-6735.874072,2834.553343
428.166794,2960.823768,-8290.306550,2068.457845
428.167122,-1554.432478,-10140.821405,0.000000
428.167450,-4441.235652,-10658.965565,-2068.457845
428.167777,-4441.235652,-10732.986159,-1915.238745
428.168105,-1110.308913,-9104.533087,-306.438199
428.168432,4515.256246,-7698.141797,2911.162892
428.168760,6883.915261,-7476.080014,4290.134789
428.169087,7105.977043,-7476.080014,4673.182538
428.169415,2886.803174,-9326.594869,4060.306139
428.169743,-1554.432478,-10732.986159,842.705048
428.170070,-4737.318029,-11029.068536,-842.705048
428.170398,-4441.235652,-10584.944971,-1532.190996
428.170725,-1554.432478,-8512.368333,-383.047749
428.171053,3256.906145,-7254.018232,2451.505594
428.171381,5107.421000,-6883.915261,3140.991542
428.171708,3997.112087,-6957.935855,3294.210641
428.172036,1036.288319,-8956.491898,1915.238745
428.172363,-3923.091493,-10140.821405,-229.828649
428.172691,-7031.956449,-9770.718434,-2221.676944
428.173019,-6291.750507,-9992.780217,-1455.581446
428.173346,-3034.844362,-8438.347739,153.219100
428.173674,370.102971,-6661.853478,2145.067394
428.174001,3256.906145,-6735.874072,3907.087040
428.174329,1924.535449,-7624.121203,2681.334243
428.174657,-2516.700203,-8956.491898,1149.143247
428.174984,-5921.647536,-10288.862594,-1149.143247
428.175312,-7772.162391,-10732.986159,-3064.381992
428.175639,-6069.688724,-9844.739029,-2911.162892
428.175967,-962.267725,-7772.162391,-919.314598
428.176294,2960.823768,-7476.080014,689.485948
428.176622,5699.585753,-7031.956449,2451.505594
428.176950,4737.318029,-8734.430116,1915.238745
428.177277,0.000000,-10436.903782,383.047749
428.177605,-3478.967927,-11325.150913,-1378.971896
428.177932,-4515.256246,-12435.459826,-2987.772442
428.178260,-2664.741391,-11177.109724,-2145.067394
428.178588,2738.761985,-8808.450710,689.485948
428.178915,6513.812290,-8364.327145,2681.334243
428.179243,7254.018232,-8364.327145,4596.572988
428.179570,5255.462188,-9326.594869,3677.258390
428.179898,222.061783,-10955.047942,919.314598
428.180226,-3849.070898,-11621.233289,-1378.971896
428.180553,-5107.421000,-11325.150913,-2528.115143
428.180881,-2516.700203,-10436.903782,-1532.190996
428.181208,2294.638420,-7698.141797,536.266849
428.181536,5921.647536,-7179.997637,2374.896044
428.181863,6513.812290,-7550.100608,3677.258390
428.182191,3256.906145,-8364.327145,2298.286494
428.182519,-2220.617826,-10140.821405,306.438199
428.182846,-5403.503377,-10955.047942,-1225.752797
428.183174,-6735.874072,-11029.068536,-1915.238745
428.183501,-4663.297435,-9474.636058,-612.876398
428.183829,74.020594,-8290.306550,1762.019645
428.184157,2220.617826,-7402.059420,3064.381992
428.184484,2442.679609,-7105.977043,3294.210641
428.184812,-444.123565,-8956.491898,2451.505594
428.185139,-5329.482782,-9696.697840,-766.095498
428.185467,-7994.224174,-10066.800811,-2757.943793
428.185795,-7254.018232,-9844.739029,-2757.943793
428.186122,-4219.173869,-7772.162391,-1762.019645
428.186450,1332.370696,-6069.688724,919.314598
428.186777,4959.379811,-6957.935855,2834.553343
428.187105,4293.194464,-7031.956449,2374.896044
428.187433,1184.329507,-8956.491898,1685.410096
428.187760,-3034.844362,-10214.842000,-612.876398
428.188088,-5403.503377,-10140.821405,-1991.848295
428.188415,-3923.091493,-10510.924376,-1991.848295
428.188743,1036.288319,-8512.368333,383.047749
428.189070,4293.194464,-7328.038826,2221.676944
428.189398,7105.977043,-7179.997637,4290.134789
428.189726,5995.668130,-8068.244768,4443.353888
428.190053,1406.391290,-9918.759623,2221.676944
428.190381,-2664.741391,-10436.903782,-459.657299
428.190708,-3997.112087,-11029.068536,-2374.896044
428.191036,-3552.988522,-9992.780217,-1608.800546
428.191364,1110.308913,-7994.224174,-842.705048
428.191691,4959.379811,-6957.935855,1991.848295
428.192019,6661.853478,-7698.141797,3447.429741
428.192346,4293.194464,-8290.306550,2451.505594
428.192674,0.000000,-10140.821405,842.705048
428.193002,-4589.276840,-11177.109724,-1149.143247
428.193329,-6513.812290,-10881.027347,-2451.505594
428.193657,-4737.318029,-9918.759623,-1302.362347
428.193984,-962.267725,-8068.244768,306.438199
428.194312,2442.679609,-6883.915261,2604.724693
428.194639,3849.070898,-7846.182985,3217.601092
428.194967,1258.350101,-7920.203579,1838.629195
428.195295,-2812.782580,-9474.636058,0.000000
428.195622,-6217.729913,-11029.068536,-2298.286494
428.195950,-7698.141797,-9918.759623,-3600.648841
428.196277,-4441.235652,-9696.697840,-1991.848295
428.196605,592.164754,-8068.244768,459.657299
428.196933,4071.132681,-7254.018232,2068.457845
428.197260,5403.503377,-8512.368333,3140.991542
428.197588,2812.782580,-9252.574275,1532.190996
428.197915,-2368.659014,-11325.150913,-153.219100
428.198243,-3997.112087,-11843.295072,-1762.019645
428.198571,-4589.276840,-11473.192101,-2757.943793
428.198898,-1110.308913,-9622.677246,-459.657299
428.199226,4071.132681,-8512.368333,2145.067394
428.199553,5995.668130,-7994.224174,3753.867940
428.199881,5625.565159,-7846.182985,3830.477490
428.200208,2960.823768,-9696.697840,2681.334243
428.200536,-2664.741391,-10881.027347,76.609550
428.200864,-5847.626942,-10807.006753,-1838.629195
428.201191,-4811.338623,-10807.006753,-2068.457845
428.201519,-1554.432478,-8512.368333,-842.705048
428.201846,2738.761985,-7031.956449,1762.019645
428.202174,6143.709319,-7105.977043,3830.477490
428.202502,4959.379811,-7105.977043,3140.991542
428.202829,1406.391290,-8882.471304,1991.848295
428.203157,-3034.844362,-10140.821405,0.000000
428.203484,-6735.874072,-10140.821405,-1762.019645
428.203812,-5181.441594,-10140.821405,-1532.190996
428.204140,-1480.411884,-8068.244768,459.657299
428.204467,1406.391290,-7105.977043,2298.286494
428.204795,4441.235652,-7550.100608,4213.525239
428.205122,2812.782580,-7772.162391,3677.258390
428.205450,-1480.411884,-9030.512492,919.314598
428.205778,-4885.359217,-10066.800811,-383.047749
428.206105,-6661.853478,-10362.883188,-2298.286494
428.206433,-5329.482782,-9400.615463,-1915.238745
428.206760,-814.226536,-7846.182985,76.609550
428.207088,3627.009116,-6883.915261,3064.381992
428.207415,4737.318029,-7031.956449,3370.820191
428.207743,3108.864956,-7698.141797,2374.896044
428.208071,-518.144159,-9844.739029,766.095498
428.208398,-4737.318029,-10881.027347,-1149.143247
428.208726,-5551.544565,-10140.821405,-1532.190996
428.209053,-3182.885551,-9474.636058,-1532.190996
428.209381,666.185348,-7698.141797,766.095498
428.209709,5107.421000,-6957.935855,3447.429741
428.210036,5625.565159,-7179.997637,3524.039291
428.210364,3256.906145,-8068.244768,2834.553343
428.210691,-814.226536,-9622.677246,459.657299
428.211019,-4737.318029,-11029.068536,-2145.067394
428.211347,-5847.626942,-10362.883188,-3064.381992
428.211674,-2590.720797,-9548.656652,-2145.067394
428.212002,1628.453072,-8290.306550,0.000000
428.212330,5107.421000,-7031.956449,3217.601092
428.212657,5921.647536,-7402.059420,2834.553343
428.212985,3108.864956,-8808.450710,1991.848295
428.213312,-1258.350101,-10288.862594,-306.438199
428.213640,-4811.338623,-11769.274478,-2604.724693
428.213968,-5847.626942,-10362.883188,-2681.334243
428.214295,-2738.761985,-9992.780217,-1378.971896
428.214623,1776.494261,-8586.388927,919.314598
428.214950,4959.379811,-7698.141797,3294.210641
428.215278,3701.029710,-7846.182985,2911.162892
428.215606,1110.308913,-8956.491898,2298.286494
428.215933,-2886.803174,-10362.883188,-536.266849
428.216261,-6143.709319,-10658.965565,-2987.772442
428.216589,-6291.750507,-10140.821405,-3140.991542
428.216916,-1998.556043,-9474.636058,-1149.143247
428.217244,2960.823768,-7920.203579,1072.533697
428.217571,5181.441594,-7772.162391,2528.115143
428.217899,4663.297435,-8438.347739,2681.334243
428.218227,666.185348,-10140.821405,995.924147
428.218554,-4367.215058,-11547.212695,-1455.581446
428.218882,-6365.771101,-11177.109724,-3064.381992
428.219210,-4737.318029,-10658.965565,-2374.896044
428.219537,-592.164754,-9104.533087,-306.438199
428.219865,4145.153275,-7476.080014,2298.286494
428.220192,6291.750507,-8216.285956,3907.087040
428.220520,4811.338623,-8364.327145,2987.772442
428.220848,370.102971,-10288.862594,2298.286494
428.221175,-4219.173869,-11547.212695,-842.705048
428.221503,-6957.935855,-10881.027347,-2834.553343
428.221830,-4367.215058,-10955.047942,-1762.019645
428.222158,592.164754,-8734.430116,0.000000
428.222486,4219.173869,-7328.038826,2145.067394
428.222813,6735.874072,-7994.224174,3983.696590
428.223141,5033.400406,-8660.409521,3217.601092
428.223469,74.020594,-10140.821405,1455.581446
428.223796,-3552.988522,-11251.130318,-306.438199
428.224124,-5921.647536,-11029.068536,-1991.848295
428.224451,-3775.050304,-10362.883188,-306.438199
428.224779,1480.411884,-8512.368333,1762.019645
428.225107,2960.823768,-7402.059420,3370.820191
428.225434,4885.359217,-7624.121203,4903.011187
428.225762,2368.659014,-8956.491898,3983.696590
428.226090,-2368.659014,-10362.883188,1225.752797
428.226417,-5477.523971,-10288.862594,-689.485948
428.226745,-5625.565159,-10807.006753,-1302.362347
428.227072,-3997.112087,-8512.368333,-919.314598
428.227400,888.247130,-7402.059420,1455.581446
428.227728,4515.256246,-7402.059420,3217.601092
428.228055,3627.009116,-6735.874072,3447.429741
428.228383,1110.308913,-8586.388927,2528.115143
428.228710,-3034.844362,-9622.677246,153.219100
428.229038,-6217.729913,-9844.739029,-1915.238745
428.229366,-5477.523971,-9844.739029,-1991.848295
428.229693,-2072.576638,-8068.244768,0.000000
428.230021,1924.535449,-7105.977043,1532.190996
428.230349,4959.379811,-7179.997637,3447.429741
428.230676,4219.173869,-7550.100608,3294.210641
428.231004,444.123565,-9474.636058,2145.067394
428.231331,-3701.029710,-10288.862594,-153.219100
428.231659,-6513.812290,-10584.944971,-2604.724693
428.231987,-5181.441594,-10510.924376,-2757.943793
428.232314,-888.247130,-8512.368333,-1072.533697
428.232642,3552.988522,-6957.935855,842.705048
428.232970,6069.688724,-6587.832884,2681.334243
428.233297,5921.647536,-7105.977043,2145.067394
428.233625,1924.535449,-9030.512492,766.095498
428.233952,-2590.720797,-10436.903782,-1455.581446
428.234280,-4663.297435,-10807.006753,-2298.286494
428.234608,-4071.132681,-10214.842000,-1608.800546
428.234935,0.000000,-9104.533087,-153.219100
428.235263,3997.112087,-7402.059420,2221.676944
428.235590,5625.565159,-7772.162391,2987.772442
428.235918,4367.215058,-8438.347739,2911.162892
428.236246,296.082377,-9400.615463,995.924147
428.236573,-3552.988522,-10881.027347,-1915.238745
428.236901,-5477.523971,-10732.986159,-2528.115143
428.237229,-4441.235652,-9400.615463,-2681.334243
428.237556,-222.061783,-8512.368333,-459.657299
428.237884,4145.153275,-7402.059420,2451.505594
428.238211,4737.318029,-6809.894666,2298.286494
428.238539,3108.864956,-8512.368333,1991.848295
428.238867,-1258.350101,-9474.636058,0.000000
428.239194,-5181.441594,-11325.150913,-2374.896044
428.239522,-6069.688724,-11251.130318,-2451.505594
428.239850,-3923.091493,-9622.677246,-1608.800546
428.240177,888.247130,-8660.409521,1072.533697
428.240505,4885.359217,-7772.162391,3753.867940
428.240832,4145.153275,-7994.224174,3600.648841
428.241160,2072.576638,-9030.512492,2681.334243
428.241488,-2516.700203,-10140.821405,612.876398
428.241815,-6217.729913,-10881.027347,-2451.505594
428.242143,-6513.812290,-10436.903782,-2604.724693
428.242470,-2442.679609,-9622.677246,-1149.143247
428.242798,2146.597232,-8142.265362,1302.362347
428.243126,5551.544565,-7402.059420,3217.601092
428.243453,5773.606348,-7254.018232,4213.525239
428.243781,2590.720797,-9104.533087,2451.505594
428.244109,-2590.720797,-10584.944971,306.438199
428.244436,-4885.359217,-11103.089130,-1608.800546
428.244764,-5477.523971,-11103.089130,-1685.410096
428.245091,-1998.556043,-9474.636058,-229.828649
428.245419,2516.700203,-8216.285956,2834.553343
428.245747,4959.379811,-8364.327145,4443.353888
428.246074,4145.153275,-7994.224174,4136.915689
428.246402,1258.350101,-9474.636058,2681.334243
428.246730,-3701.029710,-10066.800811,0.000000
428.247057,-6957.935855,-9548.656652,-2221.676944
428.247385,-5477.523971,-9918.759623,-1608.800546
428.247712,-1554.432478,-7402.059420,-459.657299
428.248040,2146.597232,-6587.832884,1915.238745
428.248368,5329.482782,-7105.977043,3677.258390
428.248695,3256.906145,-7402.059420,2757.943793
428.249023,-814.226536,-9326.594869,1302.362347
428.249350,-4219.173869,-10214.842000,-689.485948
428.249678,-6735.874072,-9992.780217,-2528.115143
428.250006,-4515.256246,-9548.656652,-1302.362347
428.250333,-148.041188,-8068.244768,689.485948
428.250661,3849.070898,-7031.956449,2681.334243
428.250989,5255.462188,-7402.059420,3907.087040
428.251316,3627.009116,-8216.285956,2681.334243
428.251644,-962.267725,-9992.780217,919.314598
428.251971,-5033.400406,-10436.903782,-1302.362347
428.252299,-6365.771101,-10510.924376,-3140.991542
428.252627,-4145.153275,-9992.780217,-2145.067394
428.252954,740.205942,-8142.265362,0.000000
428.253282,4515.256246,-6883.915261,1685.410096
428.253609,7105.977043,-7846.182985,3140.991542
428.253937,4885.359217,-8512.368333,2145.067394
428.254265,-592.164754,-9918.759623,153.219100
428.254592,-3627.009116,-11399.171507,-1762.019645
428.254920,-5699.585753,-11399.171507,-3140.991542
428.255248,-3108.864956,-9548.656652,-1762.019645
428.255575,2072.576638,-8216.285956,306.438199
428.255903,4811.338623,-7624.121203,2451.505594
428.256230,5403.503377,-7402.059420,3064.381992
428.256558,3627.009116,-9104.533087,2681.334243
428.256886,-1480.411884,-9918.759623,-229.828649
428.257213,-5255.462188,-10288.862594,-2374.896044
428.257541,-4959.379811,-10955.047942,-2451.505594
428.257869,-3108.864956,-9104.533087,-1838.629195
428.258196,1332.370696,-7920.203579,536.266849
428.258524,5033.400406,-8068.244768,2834.553343
428.258851,5329.482782,-7698.141797,2987.772442
428.259179,2294.638420,-9548.656652,1991.848295
428.259507,-2294.638420,-10807.006753,76.609550
428.259834,-6069.688724,-10955.047942,-2145.067394
428.260162,-4959.379811,-11177.109724,-1455.581446
428.260489,-1628.453072,-9326.594869,153.219100
428.260817,2812.782580,-7476.080014,1991.848295
428.261145,5329.482782,-8216.285956,4213.525239
428.261472,4071.132681,-8364.327145,3983.696590
428.261800,148.041188,-9696.697840,2528.115143
428.262128,-4367.215058,-10955.047942,612.876398
428.262455,-6883.915261,-11103.089130,-1838.629195
428.262783,-6069.688724,-10436.903782,-1762.019645
428.263110,-1998.556043,-9104.533087,0.000000
428.263438,2368.659014,-7031.956449,2068.457845
428.263766,5255.462188,-7031.956449,3830.477490
428.264093,4737.318029,-8216.285956,2987.772442
428.264421,0.000000,-8586.388927,995.924147
428.264749,-3923.091493,-10362.883188,-1455.581446
428.265076,-6291.750507,-10955.047942,-2757.943793
428.265404,-5477.523971,-9696.697840,-2221.676944
428.265731,-1332.370696,-9030.512492,153.219100
428.266059,3256.906145,-7550.100608,2451.505594
428.266387,5107.421000,-7105.977043,3753.867940
428.266714,3849.070898,-8216.285956,2987.772442
428.267042,0.000000,-9104.533087,536.266849
428.267369,-3923.091493,-10066.800811,-2221.676944
428.267697,-4885.359217,-10362.883188,-2911.162892
428.268025,-3404.947333,-9326.594869,-2757.943793
428.268352,888.247130,-8142.265362,-153.219100
428.268680,4885.359217,-7550.100608,2221.676944
428.269008,5921.647536,-7772.162391,2987.772442
428.269335,3404.947333,-8660.409521,2451.505594
428.269663,-592.164754,-9844.739029,0.000000
428.269990,-3849.070898,-11177.109724,-2221.676944
428.270318,-4367.215058,-10955.047942,-2528.115143
428.270646,-1628.453072,-9400.615463,-995.924147
428.270973,2516.700203,-7994.224174,1608.800546
428.271301,5773.606348,-7920.203579,3753.867940
428.271629,4811.338623,-8068.244768,3830.477490
428.271956,1998.556043,-9030.512492,2604.724693
428.272284,-2442.679609,-10140.821405,306.438199
428.272611,-5921.647536,-10288.862594,-2145.067394
428.272939,-5921.647536,-10140.821405,-2528.115143
428.273267,-2442.679609,-9474.636058,-689.485948
428.273594,1332.370696,-7846.182985,1532.190996
428.273922,4515.256246,-7254.018232,3600.648841
428.274249,3552.988522,-7920.203579,3370.820191
428.274577,222.061783,-8956.491898,1685.410096
428.274905,-3701.029710,-10584.944971,-383.047749
428.275232,-6661.853478,-10881.027347,-2528.115143
428.275560,-6661.853478,-9770.718434,-2528.115143
428.275888,-2294.638420,-9104.533087,-1072.533697
428.276215,2294.638420,-7846.182985,2451.505594
428.276543,4663.297435,-7254.018232,4136.915689
428.276870,4219.173869,-8438.347739,3907.087040
428.277198,592.164754,-9770.718434,1838.629195
428.277526,-3256.906145,-10732.986159,-612.876398
428.277853,-4885.359217,-10658.965565,-1532.190996
428.278181,-4441.235652,-10288.862594,-1608.800546
428.278509,-296.082377,-9178.553681,306.438199
428.278836,4219.173869,-8290.306550,2604.724693
428.279164,5699.585753,-7920.203579,3983.696590
428.279491,4145.153275,-8956.491898,3217.601092
428.279819,962.267725,-9918.759623,1225.752797
428.280147,-3108.864956,-11251.130318,-995.924147
428.280474,-4663.297435,-11177.109724,-1685.410096
428.280802,-3701.029710,-9696.697840,-1378.971896
428.281129,888.247130,-8734.430116,1455.581446
428.281457,5181.441594,-7254.018232,3830.477490
428.281785,4293.194464,-7476.080014,3907.087040
428.282112,1924.535449,-8438.347739,2911.162892
428.282440,-2294.638420,-9696.697840,612.876398
428.282768,-6513.812290,-10584.944971,-2374.896044
428.283095,-7402.059420,-9622.677246,-2757.943793
428.283423,-4885.359217,-9252.574275,-1991.848295
428.283750,0.000000,-7105.977043,0.000000
428.284078,3849.070898,-5921.647536,2145.067394
428.284406,5551.544565,-6735.874072,2834.553343
428.284733,2664.741391,-7179.997637,1072.533697
428.285061,-2368.659014,-9178.553681,-536.266849
428.285389,-5107.421000,-10584.944971,-2068.457845
428.285716,-6809.894666,-10881.027347,-3447.429741
428.286044,-3256.906145,-9696.697840,-1915.238745
428.286371,2368.659014,-7920.203579,919.314598
428.286699,5107.421000,-7402.059420,2681.334243
428.287027,6069.688724,-7476.080014,3677.258390
428.287354,3849.070898,-9548.656652,2298.286494
428.287682,-1924.535449,-10362.883188,-306.438199
428.288009,-4293.194464,-10955.047942,-2298.286494
428.288337,-4737.318029,-10807.006753,-3217.601092
428.288665,-2220.617826,-9326.594869,-1608.800546
428.288992,3552.988522,-7402.059420,1378.971896
428.289320,5773.606348,-7105.977043,2604.724693
428.289648,5551.544565,-7105.977043,3524.039291
428.289975,2368.659014,-8734.430116,1915.238745
428.290303,-2368.659014,-9992.780217,-842.705048
428.290630,-5255.462188,-10066.800811,-2298.286494
428.290958,-4367.215058,-10214.842000,-1455.581446
428.291286,-1110.308913,-8438.347739,0.000000
428.291613,2442.679609,-6513.812290,2757.943793
428.291941,5625.565159,-7402.059420,4673.182538
428.292269,3182.885551,-7994.224174,3907.087040
428.292596,-1184.329507,-9474.636058,2145.067394
428.292924,-4959.379811,-10658.965565,-383.047749
428.293251,-7402.059420,-10955.047942,-2298.286494
428.293579,-6365.771101,-10510.924376,-1608.800546
428.293907,-1406.391290,-8808.450710,229.828649
428.294234,2072.576638,-7698.141797,1608.800546
428.294562,4737.318029,-7031.956449,3524.039291
428.294889,2960.823768,-8068.244768,2604.724693
428.295217,-2072.576638,-9844.739029,229.828649
428.295545,-5625.565159,-10584.944971,-1915.238745
428.295872,-7179.997637,-11473.192101,-3064.381992
428.296200,-5403.503377,-10288.862594,-2374.896044
428.296528,74.020594,-8364.327145,383.047749
428.296855,4071.132681,-7402.059420,2451.505594
428.297183,5847.626942,-7328.038826,3677.258390
428.297510,3997.112087,-8882.471304,3370.820191
428.297838,-666.185348,-10362.883188,612.876398
428.298166,-4219.173869,-10955.047942,-1532.190996
428.298493,-4959.379811,-11251.130318,-1991.848295
428.298821,-2960.823768,-10510.924376,-1608.800546
428.299149,1924.535449,-8290.306550,612.876398
428.299476,5181.441594,-8068.244768,2681.334243
428.299804,7031.956449,-8068.244768,3600.648841
428.300131,4071.132681,-9104.533087,2834.553343
428.300459,-296.082377,-10584.944971,0.000000
428.300787,-3034.844362,-11473.192101,-1225.752797
428.301114,-4515.256246,-11621.233289,-2221.676944
428.301442,-1998.556043,-9844.739029,-383.047749
428.301769,2812.782580,-8364.327145,2757.943793
428.302097,5255.462188,-7772.162391,4213.525239
428.302425,4145.153275,-7920.203579,4060.306139
428.302752,962.267725,-9474.636058,3064.381992
428.303080,-3849.070898,-10288.862594,229.828649
428.303408,-7254.018232,-9992.780217,-1838.629195
428.303735,-6439.791695,-10362.883188,-2298.286494
428.304063,-3997.112087,-8068.244768,-1225.752797
428.304390,370.102971,-6661.853478,995.924147
428.304718,4293.194464,-6439.791695,3140.991542
428.305046,3404.947333,-6217.729913,2451.505594
428.305373,-296.082377,-7476.080014,1072.533697
428.305701,-4219.173869,-9474.636058,-842.705048
428.306029,-7846.182985,-10214.842000,-3217.601092
428.306356,-6587.832884,-10362.883188,-2451.505594
428.306684,-2368.659014,-8586.388927,-766.095498
428.307011,2220.617826,-7105.977043,1072.533697
428.307339,5773.606348,-7031.956449,3830.477490
428.307667,5107.421000,-7920.203579,3064.381992
428.307994,1036.288319,-9252.574275,1072.533697
428.308322,-2516.700203,-10288.862594,-842.705048
428.308649,-5033.400406,-10288.862594,-2757.943793
428.308977,-3997.112087,-10214.842000,-2451.505594
428.309305,518.144159,-8660.409521,-383.047749
428.309632,4959.379811,-7254.018232,1302.362347
428.309960,7772.162391,-7402.059420,3217.601092
428.310288,6439.791695,-7698.141797,2528.115143
428.310615,1406.391290,-9474.636058,1072.533697
428.310943,-1924.535449,-10658.965565,-612.876398
428.311270,-4737.318029,-10881.027347,-2068.457845
428.311598,-3034.844362,-10436.903782,-995.924147
428.311925,1332.370696,-8882.471304,1149.143247
428.312253,4293.194464,-7179.997637,3217.601092
428.312581,5773.606348,-7772.162391,4673.182538
428.312908,2960.823768,-8438.347739,3064.381992
428.313236,-2220.617826,-9770.718434,842.705048
428.313563,-5403.503377,-10807.006753,-1225.752797
428.313891,-7105.977043,-10955.047942,-2528.115143
428.314218,-5847.626942,-9030.512492,-2068.457845
428.314546,-370.102971,-8512.368333,612.876398
428.314873,2442.679609,-7402.059420,2145.067394
428.315201,3034.844362,-7031.956449,2528.115143
428.315528,1406.391290,-8882.471304,1838.629195
428.315856,-3330.926739,-10658.965565,-153.219100
428.316183,-7105.977043,-10955.047942,-2757.943793
428.316511,-7179.997637,-11695.253884,-2681.334243
428.316838,-4737.318029,-9696.697840,-1915.238745
428.317166,1110.308913,-8142.265362,1072.533697
428.317494,5033.400406,-7476.080014,2681.334243
428.317821,4959.379811,-7772.162391,3370.820191
428.318149,3478.967927,-9400.615463,2451.505594
428.318476,-1184.329507,-10881.027347,383.047749
428.318804,-4441.235652,-11103.089130,-1915.238745
428.319131,-3849.070898,-11695.253884,-2221.676944
428.319459,-666.185348,-9696.697840,-842.705048
428.319786,3997.112087,-8512.368333,1915.238745
428.320114,6957.935855,-8216.285956,3524.039291
428.320441,6735.874072,-8142.265362,3217.601092
428.320769,2960.823768,-9622.677246,1455.581446
428.321096,-888.247130,-10807.006753,76.609550
428.321424,-5181.441594,-11103.089130,-1685.410096
428.321752,-4145.153275,-11029.068536,-1225.752797
428.322079,0.000000,-9030.512492,459.657299
428.322407,3108.864956,-7920.203579,2987.772442
428.322734,4663.297435,-7550.100608,4443.353888
428.323062,3701.029710,-8216.285956,3447.429741
428.323389,-1332.370696,-9104.533087,1762.019645
428.323717,-4885.359217,-10214.842000,-306.438199
428.324044,-8068.244768,-9770.718434,-2451.505594
428.324372,-6661.853478,-8364.327145,-1838.629195
428.324699,-1628.453072,-7179.997637,0.000000
428.325027,1628.453072,-5921.647536,1608.800546
428.325354,3997.112087,-6143.709319,3140.991542
428.325682,2442.679609,-6587.832884,1762.019645
428.326009,-1332.370696,-8660.409521,536.266849
428.326337,-5107.421000,-9844.739029,-1915.238745
428.326665,-7476.080014,-10066.800811,-3064.381992
428.326992,-5033.400406,-9548.656652,-2145.067394
428.327320,74.020594,-7920.203579,383.047749
428.327647,3478.967927,-7105.977043,2987.772442
428.327975,5847.626942,-7772.162391,3830.477490
428.328302,4219.173869,-8290.306550,2604.724693
428.328630,-222.061783,-9770.718434,842.705048
428.328957,-3627.009116,-10658.965565,-1149.143247
428.329285,-5403.503377,-10807.006753,-2987.772442
428.329612,-2220.617826,-10362.883188,-1378.971896
428.329940,2590.720797,-8142.265362,689.485948
428.330267,4441.235652,-7550.100608,2068.457845
428.330595,6661.853478,-7179.997637,3217.601092
428.330922,4811.338623,-8290.306550,2298.286494
428.331250,-222.061783,-9696.697840,1302.362347
428.331578,-3330.926739,-10807.006753,-1455.581446
428.331905,-3923.091493,-11251.130318,-2068.457845
428.332233,-2220.617826,-9326.594869,-1072.533697
428.332560,2664.741391,-8512.368333,1991.848295
428.332888,4663.297435,-7994.224174,3217.601092
428.333215,4737.318029,-7994.224174,3294.210641
428.333543,2516.700203,-9548.656652,2911.162892
428.333870,-2812.782580,-10807.006753,383.047749
428.334198,-6587.832884,-10881.027347,-1915.238745
428.334525,-5847.626942,-10584.944971,-1762.019645
428.334853,-3256.906145,-8956.491898,-459.657299
428.335180,962.267725,-7846.182985,1378.971896
428.335508,3404.947333,-7698.141797,2911.162892
428.335836,3182.885551,-7624.121203,2681.334243
428.336163,0.000000,-9696.697840,1762.019645
428.336491,-4663.297435,-10955.047942,-459.657299
428.336818,-7698.141797,-11325.150913,-2834.553343
428.337146,-6661.853478,-11177.109724,-2757.943793
428.337473,-2664.741391,-9178.553681,-612.876398
428.337801,2146.597232,-7846.182985,1608.800546
428.338128,4737.318029,-7550.100608,2374.896044
428.338456,4959.379811,-8068.244768,3064.381992
428.338783,1332.370696,-9696.697840,1532.190996
428.339111,-3182.885551,-11399.171507,-842.705048
428.339438,-5551.544565,-11251.130318,-2604.724693
428.339766,-4071.132681,-10955.047942,-2528.115143
428.340093,74.020594,-8808.450710,-383.047749
428.340421,4441.235652,-7920.203579,1915.238745
428.340749,6439.791695,-7476.080014,2528.115143
428.341076,6069.688724,-8068.244768,2681.334243
428.341404,2146.597232,-9548.656652,1302.362347
428.341731,-2368.659014,-10807.006753,-1455.581446
428.342059,-3627.009116,-11029.068536,-2298.286494
428.342386,-2146.597232,-10214.842000,-1378.971896
428.342714,1554.432478,-8808.450710,919.314598
428.343041,4959.379811,-8142.265362,3140.991542
428.343369,6069.688724,-7698.141797,4290.134789
428.343696,3256.906145,-8660.409521,3370.820191
428.344024,-1258.350101,-9696.697840,1608.800546
428.344351,-4811.338623,-10436.903782,-766.095498
428.344679,-6883.915261,-10584.944971,-2221.676944
428.345006,-4071.132681,-8660.409521,-1302.362347
428.345334,740.205942,-7254.018232,1378.971896
428.345662,3034.844362,-6735.874072,2681.334243
428.345989,3775.050304,-6291.750507,3677.258390
428.346317,1406.391290,-8364.327145,2604.724693
428.346644,-4145.153275,-9548.656652,0.000000
428.346972,-7772.162391,-9474.636058,-1608.800546
428.347299,-7328.038826,-10584.944971,-2374.896044
428.347627,-4441.235652,-8586.388927,-1072.533697
428.347954,1110.308913,-7179.997637,1378.971896
428.348282,3627.009116,-6957.935855,3064.381992
428.348609,4663.297435,-6957.935855,3753.867940
428.348937,1850.514855,-8586.388927,2068.457845
428.349264,-3182.885551,-9548.656652,-153.219100
428.349592,-5773.606348,-10362.883188,-1915.238745
428.349919,-5551.544565,-10510.924376,-2451.505594
428.350247,-2294.638420,-8364.327145,-995.924147
428.350575,2812.782580,-7179.997637,1149.143247
428.350902,5625.565159,-6883.915261,2451.505594
428.351230,6291.750507,-7476.080014,3140.991542
428.351557,3256.906145,-8734.430116,1685.410096
428.351885,-1258.350101,-10066.800811,-1302.362347
428.352212,-3404.947333,-10955.047942,-1991.848295
428.352540,-3330.926739,-9844.739029,-2221.676944
428.352867,148.041188,-9474.636058,153.219100
428.353195,4219.173869,-7846.182985,2528.115143
428.353522,5625.565159,-7698.141797,4213.525239
428.353850,4811.338623,-9104.533087,4290.134789
428.354177,814.226536,-9844.739029,1915.238745
428.354505,-4071.132681,-11251.130318,-689.485948
428.354833,-5625.565159,-11325.150913,-1608.800546
428.355160,-4589.276840,-10584.944971,-1685.410096
428.355488,-1184.329507,-8364.327145,153.219100
428.355815,2812.782580,-7846.182985,2221.676944
428.356143,4219.173869,-7402.059420,2987.772442
428.356470,2442.679609,-7846.182985,2298.286494
428.356798,-1332.370696,-9770.718434,689.485948
428.357125,-5329.482782,-10732.986159,-1225.752797
428.357453,-8142.265362,-11177.109724,-3294.210641
428.357780,-5551.544565,-10658.965565,-2145.067394
428.358108,-740.205942,-8660.409521,0.000000
428.358435,2220.617826,-8216.285956,1991.848295
428.358763,4515.256246,-7402.059420,2987.772442
428.359090,3108.864956,-9030.512492,2604.724693
428.359418,-1924.535449,-10584.944971,536.266849
428.359746,-5403.503377,-10955.047942,-1915.238745
428.360073,-6143.709319,-11695.253884,-3064.381992
428.360401,-3627.009116,-9992.780217,-2528.115143
428.360728,1628.453072,-8068.244768,306.438199
428.361056,5107.421000,-7846.182985,1685.410096
428.361383,7254.018232,-7698.141797,3217.601092
428.361711,4811.338623,-8956.491898,2221.676944
428.362038,0.000000,-11251.130318,459.657299
428.362366,-2812.782580,-11177.109724,-1455.581446
428.362693,-3775.050304,-11325.150913,-2068.457845
428.363021,-814.226536,-9918.759623,-459.657299
428.363348,3849.070898,-8142.265362,2451.505594
428.363676,5995.668130,-7920.203579,4060.306139
428.364003,6291.750507,-8364.327145,4596.572988
428.364331,2368.659014,-8882.471304,3524.039291
428.364659,-2590.720797,-9992.780217,612.876398
428.364986,-5625.565159,-10362.883188,-842.705048
428.365314,-5699.585753,-9548.656652,-1532.190996
428.365641,-3330.926739,-7994.224174,-229.828649
428.365969,1554.432478,-5921.647536,2604.724693
428.366296,3182.885551,-5625.565159,2987.772442
428.366624,2738.761985,-6143.709319,3447.429741
428.366951,-962.267725,-7698.141797,1378.971896
428.367279,-6069.688724,-9178.553681,-459.657299
428.367606,-7476.080014,-9770.718434,-2145.067394
428.367934,-7550.100608,-9178.553681,-2298.286494
428.368261,-3330.926739,-7846.182985,-459.657299
428.368589,1850.514855,-6957.935855,2451.505594
428.368916,3182.885551,-6809.894666,2987.772442
428.369244,2812.782580,-7105.977043,3294.210641
428.369572,-518.144159,-8882.471304,1378.971896
428.369899,-4959.379811,-10214.842000,-1455.581446
428.370227,-6735.874072,-10066.800811,-3294.210641
428.370554,-4293.194464,-9696.697840,-2451.505594
428.370882,296.082377,-7550.100608,-306.438199
428.371209,4589.276840,-7031.956449,1455.581446
428.371537,7105.977043,-7031.956449,3217.601092
428.371864,5773.606348,-8068.244768,2451.505594
428.372192,1258.350101,-10066.800811,842.705048
428.372519,-1998.556043,-11029.068536,-1225.752797
428.372847,-3997.112087,-11843.295072,-2757.943793
428.373174,-1776.494261,-10807.006753,-1378.971896
428.373502,3404.947333,-8808.450710,919.314598
428.373830,5625.565159,-8512.368333,2604.724693
428.374157,7105.977043,-8438.347739,3830.477490
428.374485,4737.318029,-9474.636058,3600.648841
428.374812,-518.144159,-10955.047942,842.705048
428.375140,-4293.194464,-10955.047942,-1302.362347
428.375467,-5773.606348,-11769.274478,-2451.505594
428.375795,-3849.070898,-10881.027347,-1225.752797
428.376122,666.185348,-8068.244768,459.657299
428.376450,3182.885551,-7624.121203,2221.676944
428.376777,3923.091493,-8068.244768,2757.943793
428.377105,814.226536,-9178.553681,1762.019645
428.377432,-3923.091493,-10510.924376,-459.657299
428.377760,-7624.121203,-11177.109724,-2298.286494
428.378087,-8142.265362,-10881.027347,-3370.820191
428.378415,-5033.400406,-9844.739029,-1532.190996
428.378743,222.061783,-8068.244768,995.924147
428.379070,2590.720797,-7476.080014,2298.286494
428.379398,4441.235652,-8438.347739,3294.210641
428.379725,1924.535449,-8882.471304,1685.410096
428.380053,-3478.967927,-10658.965565,-536.266849
428.380380,-5403.503377,-11695.253884,-1991.848295
428.380708,-6143.709319,-10658.965565,-2911.162892
428.381035,-1998.556043,-9474.636058,-689.485948
428.381363,3627.009116,-8068.244768,1991.848295
428.381690,5699.585753,-7179.997637,2604.724693
428.382018,6365.771101,-7920.203579,3447.429741
428.382345,3478.967927,-9252.574275,1915.238745
428.382673,-1406.391290,-10807.006753,-383.047749
428.383000,-3256.906145,-10510.924376,-995.924147
428.383328,-2886.803174,-10807.006753,-1455.581446
428.383656,814.226536,-8660.409521,153.219100
428.383983,4663.297435,-8216.285956,3217.601092
428.384311,6439.791695,-7698.141797,4596.572988
428.384638,5255.462188,-8290.306550,3907.087040
428.384966,222.061783,-9474.636058,2681.334243
428.385293,-3701.029710,-10362.883188,229.828649
428.385621,-6513.812290,-10510.924376,-1608.800546
428.385948,-4589.276840,-9918.759623,-689.485948
428.386276,-888.247130,-7920.203579,1072.533697
428.386603,2368.659014,-6587.832884,2298.286494
428.386931,3701.029710,-6291.750507,3677.258390
428.387258,1480.411884,-7254.018232,2757.943793
428.387586,-3552.988522,-9178.553681,612.876398
428.387913,-6883.915261,-9030.512492,-1608.800546
428.388241,-7550.100608,-9474.636058,-2451.505594
428.388569,-5847.626942,-9030.512492,-1378.971896
428.388896,-666.185348,-7328.038826,612.876398
428.389224,2368.659014,-6809.894666,2145.067394
428.389551,3997.112087,-7698.141797,3294.210641
428.389879,1776.494261,-7994.224174,2145.067394
428.390206,-2368.659014,-10214.842000,536.266849
428.390534,-5033.400406,-11029.068536,-1838.629195
428.390861,-5921.647536,-10362.883188,-3064.381992
428.391189,-2516.700203,-9696.697840,-1762.019645
428.391516,2664.741391,-8068.244768,383.047749
428.391844,5995.668130,-6883.915261,2145.067394
428.392171,6587.832884,-7402.059420,2451.505594
428.392499,4441.235652,-8882.471304,1532.190996
428.392827,0.000000,-9918.759623,-766.095498
428.393154,-2664.741391,-11103.089130,-2834.553343
428.393482,-2738.761985,-10510.924376,-1685.410096
428.393809,666.185348,-8956.491898,-842.705048
428.394137,4219.173869,-8808.450710,1838.629195
428.394464,6143.709319,-7994.224174,3524.039291
428.394792,5921.647536,-8882.471304,4060.306139
428.395119,1554.432478,-9918.759623,2528.115143
428.395447,-2368.659014,-10807.006753,-229.828649
428.395774,-5181.441594,-11325.150913,-1991.848295
428.396102,-4885.359217,-10584.944971,-2221.676944
428.396429,-1702.473667,-8956.491898,-229.828649
428.396757,1998.556043,-7254.018232,1455.581446
428.397084,3478.967927,-6809.894666,2451.505594
428.397412,3108.864956,-7624.121203,2604.724693
428.397740,-592.164754,-8808.450710,383.047749
428.398067,-5625.565159,-9918.759623,-1608.800546
428.398395,-7328.038826,-10066.800811,-2298.286494
428.398722,-6217.729913,-10140.821405,-2451.505594
428.399050,-2368.659014,-8438.347739,-229.828649
428.399377,2294.638420,-7402.059420,2604.724693
428.399705,3256.906145,-7772.162391,3217.601092
428.400032,2294.638420,-8216.285956,2987.772442
428.400360,-444.123565,-9400.615463,1915.238745
428.400687,-5255.462188,-11177.109724,-612.876398
428.401015,-6513.812290,-10510.924376,-2451.505594
428.401342,-4145.153275,-10066.800811,-1608.800546
428.401670,74.020594,-8216.285956,0.000000
428.401997,4071.132681,-6587.832884,2451.505594
428.402325,5995.668130,-7179.997637,3294.210641
428.402653,4663.297435,-7698.141797,2451.505594
428.402980,592.164754,-9918.759623,842.705048
428.403308,-3552.988522,-11177.109724,-1532.190996
428.403635,-4441.235652,-11103.089130,-2221.676944
428.403963,-2220.617826,-9770.718434,-995.924147
428.404290,2368.659014,-8882.471304,1685.410096
428.404618,5699.585753,-7772.162391,3983.696590
428.404945,5773.606348,-8216.285956,4519.963438
428.405273,3478.967927,-9252.574275,3677.258390
428.405600,-1258.350101,-9696.697840,995.924147
428.405928,-4885.359217,-10658.965565,-1302.362347
428.406255,-5403.503377,-10436.903782,-2068.457845
428.406583,-3034.844362,-8512.368333,-842.705048
428.406910,1628.453072,-7476.080014,1302.362347
428.407238,3997.112087,-6291.750507,3907.087040
428.407566,3701.029710,-6587.832884,3370.820191
428.407893,1110.308913,-8512.368333,1991.848295
428.408221,-3701.029710,-9622.677246,-383.047749
428.408548,-6883.915261,-10288.862594,-2374.896044
428.408876,-6439.791695,-9992.780217,-2451.505594
428.409203,-2738.761985,-9030.512492,-919.314598
428.409531,1924.535449,-8142.265362,1838.629195
428.409858,3923.091493,-7846.182985,3753.867940
428.410186,3034.844362,-8438.347739,3524.039291
428.410514,-740.205942,-9104.533087,2604.724693
428.410841,-4219.173869,-10362.883188,-842.705048
428.411169,-7105.977043,-11251.130318,-2604.724693
428.411496,-5995.668130,-10214.842000,-3064.381992
428.411824,-1184.329507,-9104.533087,-1302.362347
428.412152,3404.947333,-7254.018232,1225.752797
428.412479,6217.729913,-6809.894666,2451.505594
428.412807,4885.359217,-7994.224174,2068.457845
428.413134,1036.288319,-8956.491898,995.924147
428.413462,-2738.761985,-10658.965565,-1455.581446
428.413790,-5181.441594,-11251.130318,-3064.381992
428.414117,-3701.029710,-9844.739029,-2604.724693
428.414445,1258.350101,-9030.512492,0.000000
428.414773,4959.379811,-8068.244768,2528.115143
428.415100,6513.812290,-7550.100608,4213.525239
428.415428,4885.359217,-9030.512492,3753.867940
428.415755,814.226536,-10140.821405,2374.896044
428.416083,-3552.988522,-10881.027347,-766.095498
428.416411,-5477.523971,-11103.089130,-2221.676944
428.416738,-3923.091493,-9770.718434,-1685.410096
428.417066,296.082377,-8068.244768,459.657299
428.417393,4071.132681,-7105.977043,2298.286494
428.417721,5033.400406,-7105.977043,3830.477490
428.418049,2812.782580,-7994.224174,2757.943793
428.418376,-1998.556043,-9770.718434,766.095498
428.418704,-5773.606348,-10436.903782,-1532.190996
428.419031,-6735.874072,-9992.780217,-2451.505594
428.419359,-3997.112087,-9474.636058,-1149.143247
428.419687,-222.061783,-7402.059420,1225.752797
428.420014,2812.782580,-7105.977043,3294.210641
428.420342,3478.967927,-7772.162391,4136.915689
428.420670,740.205942,-8290.306550,2298.286494
428.420997,-3627.009116,-10066.800811,766.095498
428.421325,-6365.771101,-10584.944971,-1762.019645
428.421652,-7846.182985,-9992.780217,-2987.772442
428.421980,-3923.091493,-9474.636058,-1685.410096
428.422308,1776.494261,-7476.080014,689.485948
428.422635,4145.153275,-6513.812290,1608.800546
428.422963,5921.647536,-7550.100608,3370.820191
428.423290,3182.885551,-9104.533087,1608.800546
428.423618,-2442.679609,-10658.965565,-612.876398
428.423946,-4219.173869,-11473.192101,-1762.019645
428.424273,-4071.132681,-11177.109724,-3140.991542
428.424601,0.000000,-9770.718434,-229.828649
428.424928,4959.379811,-8586.388927,2528.115143
428.425256,6069.688724,-8216.285956,3524.039291
428.425584,5773.606348,-8290.306550,4136.915689
428.425911,2960.823768,-10362.883188,2528.115143
428.426239,-2664.741391,-10584.944971,0.000000
428.426567,-5329.482782,-10955.047942,-2145.067394
428.426894,-4219.173869,-10584.944971,-1685.410096
428.427222,-1036.288319,-8438.347739,-536.266849
428.427549,3478.967927,-7105.977043,2068.457845
428.427877,5773.606348,-7031.956449,3830.477490
428.428205,4663.297435,-7105.977043,2757.943793
428.428532,888.247130,-9326.594869,1608.800546
428.428860,-3552.988522,-10510.924376,-153.219100
428.429187,-7105.977043,-10658.965565,-2374.896044
428.429515,-5329.482782,-10510.924376,-383.047749
428.429843,-592.164754,-8808.450710,995.924147
428.430170,1184.329507,-7846.182985,2221.676944
428.430498,3552.988522,-7402.059420,3907.087040
428.430825,2294.638420,-8586.388927,3447.429741
428.431153,-2590.720797,-9696.697840,1072.533697
428.431481,-6439.791695,-9918.759623,-1225.752797
428.431808,-7550.100608,-10584.944971,-2911.162892
428.432136,-5773.606348,-9474.636058,-2451.505594
428.432463,0.000000,-7550.100608,-383.047749
428.432791,3552.988522,-7105.977043,1072.533697
428.433119,5551.544565,-6661.853478,2604.724693
428.433446,3701.029710,-7624.121203,1991.848295
428.433774,-888.247130,-9622.677246,0.000000
428.434102,-3923.091493,-10658.965565,-1762.019645
428.434429,-4663.297435,-10955.047942,-2451.505594
428.434757,-2368.659014,-9844.739029,-842.705048
428.435084,3182.885551,-8364.327145,1302.362347
428.435412,5699.585753,-7994.224174,2834.553343
428.435740,6587.832884,-7994.224174,3983.696590
428.436067,4441.235652,-9326.594869,2834.553343
428.436395,-666.185348,-9844.739029,766.095498
428.436722,-3775.050304,-11103.089130,-1455.581446
428.437050,-4071.132681,-10658.965565,-2528.115143
428.437378,-1184.329507,-9548.656652,-1302.362347
428.437705,3034.844362,-7476.080014,919.314598
428.438033,5403.503377,-7402.059420,2374.896044
428.438360,5699.585753,-7550.100608,3753.867940
428.438688,2368.659014,-8660.409521,1915.238745
428.439016,-2590.720797,-10510.924376,-229.828649
428.439343,-5551.544565,-10955.047942,-1455.581446
428.439671,-6143.709319,-10288.862594,-1685.410096
428.439999,-3256.906145,-9326.594869,229.828649
428.440326,1332.370696,-7846.182985,2528.115143
428.440654,2368.659014,-7254.018232,3600.648841
428.440981,2146.597232,-7328.038826,3294.210641
428.441309,-888.247130,-8956.491898,2145.067394
428.441637,-5921.647536,-9622.677246,-1072.533697
428.441964,-8068.244768,-9918.759623,-2451.505594
428.442292,-6365.771101,-9918.759623,-2451.505594
428.442619,-3108.864956,-8068.244768,-1532.190996
428.442947,1480.411884,-7031.956449,919.314598
428.443275,4589.276840,-6957.935855,3140.991542
428.443602,3701.029710,-7846.182985,2221.676944
428.443930,0.000000,-9696.697840,1149.143247
428.444257,-3478.967927,-10881.027347,-1225.752797
428.444585,-5847.626942,-11029.068536,-2987.772442
428.444913,-3404.947333,-10807.006753,-1762.019645
428.445240,1554.432478,-8882.471304,306.438199
428.445568,4663.297435,-7920.203579,2145.067394
428.445895,7254.018232,-7846.182985,4443.353888
428.446223,5625.565159,-8882.471304,3447.429741
428.446551,0.000000,-10288.862594,1455.581446
428.446878,-2960.823768,-10881.027347,-995.924147
428.447206,-3997.112087,-10732.986159,-2451.505594
428.447534,-2368.659014,-9992.780217,-1455.581446
428.447861,2516.700203,-7920.203579,919.314598
428.448189,5107.421000,-7105.977043,2298.286494
428.448516,6883.915261,-7846.182985,3983.696590
428.448844,3849.070898,-7994.224174,2374.896044
428.449172,-1184.329507,-9548.656652,536.266849
428.449499,-4811.338623,-11029.068536,-1149.143247
428.449827,-7031.956449,-10362.883188,-2374.896044
428.450154,-4145.153275,-9696.697840,-689.485948
428.450482,-148.041188,-8142.265362,1455.581446
428.450810,2294.638420,-7328.038826,2834.553343
428.451137,3256.906145,-7994.224174,3830.477490
428.451465,0.000000,-8808.450710,1915.238745
428.451792,-4737.318029,-10066.800811,-536.266849
428.452120,-6661.853478,-10436.903782,-1838.629195
428.452448,-7402.059420,-9844.739029,-3294.210641
428.452775,-3923.091493,-8882.471304,-1455.581446
428.453103,1554.432478,-7105.977043,842.705048
428.453431,3404.947333,-6661.853478,2298.286494
428.453758,4441.235652,-7105.977043,2681.334243
428.454086,2368.659014,-9178.553681,1608.800546
428.454413,-2738.761985,-10288.862594,-536.266849
428.454741,-4293.194464,-10955.047942,-1915.238745
428.455069,-3627.009116,-11325.150913,-1455.581446
428.455396,-444.123565,-8956.491898,-153.219100
428.455724,4219.173869,-8438.347739,2987.772442
428.456051,6365.771101,-8216.285956,4213.525239
428.456379,4959.379811,-7846.182985,3294.210641
428.456707,1850.514855,-9992.780217,2221.676944
428.457034,-1332.370696,-10955.047942,-229.828649
428.457362,-5181.441594,-10436.903782,-2221.676944
428.457689,-3330.926739,-10584.944971,-1378.971896
428.458017,222.061783,-8956.491898,0.000000
428.458345,3182.885551,-7402.059420,1838.629195
428.458672,5995.668130,-8216.285956,3140.991542
428.459000,4071.132681,-7772.162391,2911.162892
428.459328,-740.205942,-9474.636058,1072.533697
428.459655,-3849.070898,-10658.965565,-612.876398
428.459983,-6957.935855,-10362.883188,-2451.505594
428.460310,-5033.400406,-9992.780217,-1532.190996
428.460638,-740.205942,-8216.285956,1149.143247
428.460966,2294.638420,-7105.977043,2451.505594
428.461293,4145.153275,-7328.038826,3753.867940
428.461621,2368.659014,-7920.203579,2681.334243
428.461948,-2072.576638,-9474.636058,612.876398
428.462276,-5107.421000,-9844.739029,-919.314598
428.462604,-6365.771101,-10066.800811,-2451.505594
428.462931,-4293.194464,-9548.656652,-1608.800546
428.463259,0.000000,-8068.244768,229.828649
428.463586,3627.009116,-7179.997637,2068.457845
428.463914,4737.318029,-7402.059420,2987.772442
428.464242,3330.926739,-8586.388927,1838.629195
428.464569,-1480.411884,-10288.862594,0.000000
428.464897,-4737.318029,-11399.171507,-2221.676944
428.465224,-5255.462188,-10732.986159,-2757.943793
428.465552,-1628.453072,-9918.759623,-995.924147
428.465880,2368.659014,-8216.285956,1225.752797
428.466207,5403.503377,-7328.038826,3140.991542
428.466535,5921.647536,-7698.141797,3524.039291
428.466863,2960.823768,-9030.512492,2451.505594
428.467190,-1332.370696,-9622.677246,383.047749
428.467518,-4219.173869,-10955.047942,-1915.238745
428.467845,-4737.318029,-10658.965565,-2145.067394
428.468173,-1702.473667,-8956.491898,-1149.143247
428.468501,2812.782580,-8142.265362,1378.971896
428.468828,5255.462188,-7328.038826,3524.039291
428.469156,4515.256246,-7179.997637,3524.039291
428.469483,2220.617826,-9252.574275,1838.629195
428.469811,-2516.700203,-10288.862594,-536.266849
428.470139,-5625.565159,-10881.027347,-2374.896044
428.470466,-4737.318029,-10584.944971,-2298.286494
428.470794,-1110.308913,-8586.388927,-306.438199
428.471121,2812.782580,-7846.182985,2451.505594
428.471449,4515.256246,-7772.162391,4290.134789
428.471777,2960.823768,-8068.244768,3753.867940
428.472104,-296.082377,-8882.471304,1838.629195
428.472432,-4293.194464,-9918.759623,-766.095498
428.472760,-7105.977043,-10584.944971,-1991.848295
428.473087,-6143.709319,-9696.697840,-2221.676944
428.473415,-1406.391290,-8586.388927,153.219100
428.473742,2368.659014,-7402.059420,2221.676944
428.474070,3849.070898,-7105.977043,3294.210641
428.474398,2960.823768,-7994.224174,3677.258390
428.474725,-1110.308913,-9252.574275,612.876398
428.475053,-5033.400406,-10510.924376,-1378.971896
428.475380,-5921.647536,-10584.944971,-2374.896044
428.475708,-4441.235652,-9030.512492,-2374.896044
428.476036,740.205942,-8364.327145,612.876398
428.476363,5181.441594,-7254.018232,2451.505594
428.476691,5255.462188,-7328.038826,3753.867940
428.477018,4145.153275,-9178.553681,3294.210641
428.477346,-592.164754,-10807.006753,995.924147
428.477674,-5329.482782,-11695.253884,-1762.019645
428.478001,-5699.585753,-11473.192101,-2451.505594
428.478329,-3182.885551,-10214.842000,-1685.410096
428.478657,1332.370696,-8364.327145,306.438199
428.478984,5551.544565,-7846.182985,3064.381992
428.479312,6069.688724,-7254.018232,3600.648841
428.479639,3552.988522,-8068.244768,2451.505594
428.479967,-666.185348,-9770.718434,153.219100
428.480295,-4219.173869,-10584.944971,-2374.896044
428.480622,-5329.482782,-10510.924376,-2757.943793
428.480950,-2294.638420,-9548.656652,-1302.362347
428.481277,1702.473667,-7550.100608,1302.362347
428.481605,4441.235652,-7476.080014,3524.039291
428.481933,4219.173869,-8142.265362,4060.306139
428.482260,1480.411884,-8882.471304,2604.724693
428.482588,-2812.782580,-10362.883188,229.828649
428.482915,-5551.544565,-10732.986159,-1991.848295
428.483243,-5847.626942,-10288.862594,-2451.505594
428.483571,-2442.679609,-9326.594869,-1378.971896
428.483898,1850.514855,-7402.059420,919.314598
428.484226,4737.318029,-6883.915261,2987.772442
428.484553,4589.276840,-7476.080014,2987.772442
428.484881,962.267725,-8512.368333,1455.581446
428.485209,-3330.926739,-10436.903782,-766.095498
428.485536,-5699.585753,-10955.047942,-2451.505594
428.485864,-5921.647536,-9548.656652,-2681.334243
428.486192,-1184.329507,-9326.594869,0.000000
428.486519,3775.050304,-7624.121203,1608.800546
428.486847,4737.318029,-7476.080014,3600.648841
428.487174,4515.256246,-8734.430116,4060.306139
428.487502,444.123565,-9770.718434,1685.410096
428.487830,-4663.297435,-11103.089130,-842.705048
428.488157,-5625.565159,-11177.109724,-2451.505594
428.488485,-5255.462188,-9770.718434,-2681.334243
428.488812,-148.041188,-8512.368333,0.000000
428.489140,4663.297435,-7105.977043,2221.676944
428.489468,5995.668130,-6957.935855,3217.601092
428.489795,4589.276840,-7550.100608,3907.087040
428.490123,1184.329507,-9030.512492,1455.581446
428.490450,-3849.070898,-10584.944971,-1378.971896
428.490778,-5625.565159,-11251.130318,-2068.457845
428.491106,-4145.153275,-10066.800811,-1532.190996
428.491433,222.061783,-9104.533087,1608.800546
428.491761,3923.091493,-7994.224174,3600.648841
428.492089,4441.235652,-7402.059420,4213.525239
428.492416,2738.761985,-8882.471304,3294.210641
428.492744,-1406.391290,-9770.718434,919.314598
428.493071,-5033.400406,-10436.903782,-1838.629195
428.493399,-6439.791695,-10140.821405,-2298.286494
428.493727,-3701.029710,-9474.636058,-1608.800546
428.494054,740.205942,-7624.121203,459.657299
428.494382,3849.070898,-7179.997637,2451.505594
428.494709,4293.194464,-7402.059420,3294.210641
428.495037,2442.679609,-8660.409521,2221.676944
428.495365,-2368.659014,-9622.677246,0.000000
428.495692,-5033.400406,-10732.986159,-1915.238745
428.496020,-5551.544565,-10732.986159,-2298.286494
428.496347,-2220.617826,-9548.656652,-1225.752797
428.496675,2516.700203,-8512.368333,1455.581446
428.497003,4885.359217,-7402.059420,4060.306139
428.497330,4367.215058,-8068.244768,4060.306139
428.497658,1332.370696,-9474.636058,2451.505594
428.497986,-3034.844362,-10510.924376,0.000000
428.498313,-5773.606348,-10140.821405,-2145.067394
428.498641,-5255.462188,-10066.800811,-2757.943793
428.498968,-1406.391290,-8808.450710,-1149.143247
428.499296,2886.803174,-7624.121203,842.705048
428.499624,5477.523971,-7402.059420,2834.553343
428.499951,4737.318029,-7772.162391,2911.162892
428.500279,1924.535449,-9400.615463,1685.410096
428.500606,-2812.782580,-10510.924376,-919.314598
428.500934,-5255.462188,-11251.130318,-2451.505594
428.501262,-5033.400406,-10510.924376,-2528.115143
428.501589,-666.185348,-9104.533087,-306.438199
428.501917,3849.070898,-7624.121203,1915.238745
428.502244,5625.565159,-7920.203579,3677.258390
428.502572,4145.153275,-8512.368333,3677.258390
428.502900,444.123565,-9548.656652,1532.190996
428.503227,-3627.009116,-10658.965565,-919.314598
428.503555,-5921.647536,-10955.047942,-2145.067394
428.503882,-4663.297435,-9770.718434,-2068.457845
428.504210,0.000000,-8438.347739,-536.266849
428.504538,3775.050304,-7328.038826,1991.848295
428.504865,4959.379811,-7254.018232,3447.429741
428.505193,3478.967927,-8216.285956,2757.943793
428.505521,-1036.288319,-9548.656652,1685.410096
428.505848,-4663.297435,-10732.986159,-1149.143247
428.506176,-6217.729913,-10955.047942,-2374.896044
428.506503,-3997.112087,-9844.739029,-1532.190996
428.506831,666.185348,-8142.265362,689.485948
428.507159,4737.318029,-7624.121203,2987.772442
428.507486,4515.256246,-7254.018232,3830.477490
428.507814,2220.617826,-8660.409521,3294.210641
428.508141,-2072.576638,-10066.800811,842.705048
428.508469,-5477.523971,-10658.965565,-1302.362347
428.508797,-5995.668130,-10807.006753,-2604.724693
428.509124,-3701.029710,-9548.656652,-1225.752797
428.509452,1110.308913,-7846.182985,689.485948
428.509779,4515.256246,-7105.977043,2528.115143
428.510107,4885.359217,-7402.059420,3447.429741
428.510435,2590.720797,-8808.450710,2528.115143
428.510762,-2294.638420,-9696.697840,536.266849
428.511090,-5403.503377,-10955.047942,-1991.848295
428.511418,-5477.523971,-10881.027347,-2374.896044
428.511745,-2442.679609,-9474.636058,-995.924147
428.512073,2368.659014,-8068.244768,2145.067394
428.512401,5699.585753,-7328.038826,3600.648841
428.512728,5107.421000,-7772.162391,3524.039291
428.513056,2220.617826,-9030.512492,2528.115143
428.513384,-2368.659014,-9918.759623,0.000000
428.513711,-5403.503377,-10732.986159,-1838.629195
428.514039,-5403.503377,-10436.903782,-2604.724693
428.514367,-2220.617826,-9252.574275,-689.485948
428.514695,2368.659014,-7920.203579,1762.019645
428.515022,4959.379811,-7254.018232,2911.162892
428.515350,4071.132681,-7846.182985,3064.381992
428.515678,740.205942,-9178.553681,1455.581446
428.516005,-3627.009116,-10362.883188,-1225.752797
428.516333,-5773.606348,-10881.027347,-2528.115143
428.516661,-4959.379811,-10214.842000,-2604.724693
428.516988,-592.164754,-8734.430116,-383.047749
428.517316,3849.070898,-7550.100608,2374.896044
428.517644,5107.421000,-7254.018232,4290.134789
428.517971,3701.029710,-8216.285956,3140.991542
428.518299,-518.144159,-9474.636058,1149.143247
428.518627,-4441.235652,-10584.944971,-995.924147
428.518955,-6291.750507,-11029.068536,-2374.896044
428.519282,-4737.318029,-9326.594869,-2298.286494
428.519610,-296.082377,-8512.368333,-459.657299
428.519938,4219.173869,-7476.080014,2221.676944
428.520265,5329.482782,-7105.977043,3294.210641
428.520593,3849.070898,-7920.203579,2604.724693
428.520921,-518.144159,-8956.491898,1149.143247
428.521248,-3627.009116,-10510.924376,-1915.238745
428.521576,-5699.585753,-10807.006753,-2834.553343
428.521904,-3552.988522,-9918.759623,-2145.067394
428.522232,1036.288319,-8660.409521,383.047749
428.522559,4959.379811,-8068.244768,2681.334243
428.522887,5403.503377,-8364.327145,4136.915689
428.523215,2960.823768,-9030.512492,2911.162892
428.523542,-1628.453072,-9844.739029,766.095498
428.523870,-5033.400406,-11325.150913,-1762.019645
428.524198,-5995.668130,-11029.068536,-2451.505594
428.524525,-3404.947333,-8956.491898,-1915.238745
428.524853,1480.411884,-7994.224174,689.485948
428.525181,4885.359217,-7105.977043,2604.724693
428.525508,5033.400406,-7328.038826,3294.210641
428.525836,2516.700203,-8216.285956,2374.896044
428.526164,-962.267725,-9992.780217,153.219100
428.526492,-4737.318029,-10362.883188,-2068.457845
428.526819,-5181.441594,-10436.903782,-2068.457845
428.527147,-2072.576638,-9400.615463,-766.095498
428.527475,2220.617826,-8142.265362,1915.238745
428.527802,4441.235652,-7698.141797,4136.915689
428.528130,3627.009116,-8586.388927,3524.039291
428.528458,370.102971,-9474.636058,2068.457845
428.528785,-3849.070898,-10881.027347,0.000000
428.529113,-6587.832884,-11103.089130,-2145.067394
428.529441,-6291.750507,-9992.780217,-2757.943793
428.529768,-2072.576638,-8438.347739,-1225.752797
428.530096,2886.803174,-7402.059420,1149.143247
428.530424,5107.421000,-6883.915261,2757.943793
428.530752,4589.276840,-7105.977043,2604.724693
428.531079,814.226536,-8734.430116,995.924147
428.531407,-2960.823768,-10584.944971,-1072.533697
428.531735,-5625.565159,-11177.109724,-2604.724693
428.532062,-4959.379811,-10362.883188,-2145.067394
428.532390,-592.164754,-9326.594869,76.609550
428.532718,3701.029710,-8438.347739,2451.505594
428.533045,5773.606348,-8216.285956,3983.696590
428.533373,4219.173869,-8512.368333,3524.039291
428.533701,370.102971,-9474.636058,1762.019645
428.534028,-3404.947333,-10436.903782,-1149.143247
428.534356,-5255.462188,-10955.047942,-2068.457845
428.534684,-3701.029710,-9770.718434,-1991.848295
428.535012,666.185348,-8290.306550,-766.095498
428.535339,4441.235652,-7105.977043,2374.896044
428.535667,5107.421000,-7179.997637,3447.429741
428.535995,3775.050304,-8364.327145,3064.381992
428.536322,-370.102971,-9400.615463,766.095498
428.536650,-3997.112087,-10214.842000,-995.924147
428.536978,-5477.523971,-10658.965565,-1991.848295
428.537305,-3404.947333,-9696.697840,-1072.533697
428.537633,814.226536,-8216.285956,1072.533697
428.537961,4071.132681,-6883.915261,3370.820191
428.538289,4219.173869,-7328.038826,4673.182538
428.538616,1332.370696,-8586.388927,2834.553343
428.538944,-2886.803174,-9474.636058,383.047749
428.539272,-6143.709319,-10658.965565,-1608.800546
428.539599,-6957.935855,-10436.903782,-2451.505594
428.539927,-3997.112087,-8586.388927,-1915.238745
428.540255,814.226536,-7772.162391,0.000000
428.540582,4071.132681,-6883.915261,2604.724693
428.540910,4293.194464,-7179.997637,2834.553343
428.541238,1702.473667,-8586.388927,1838.629195
428.541565,-2516.700203,-9844.739029,-689.485948
428.541893,-5477.523971,-11103.089130,-2604.724693
428.542221,-5625.565159,-11251.130318,-2681.334243
428.542549,-2294.638420,-9548.656652,-1302.362347
428.542876,2738.761985,-8142.265362,919.314598
428.543204,5625.565159,-7698.141797,3370.820191
428.543532,5477.523971,-8290.306550,3830.477490
428.543859,2220.617826,-9252.574275,2298.286494
428.544187,-1924.535449,-10214.842000,-536.266849
428.544515,-4515.256246,-11325.150913,-2145.067394
428.544842,-4885.359217,-11103.089130,-2757.943793
428.545170,-1110.308913,-9178.553681,-842.705048
428.545498,3627.009116,-8068.244768,1455.581446
428.545825,6217.729913,-7179.997637,3140.991542
428.546153,5033.400406,-8068.244768,3064.381992
428.546481,1628.453072,-9622.677246,1685.410096
428.546809,-2368.659014,-10436.903782,-689.485948
428.547136,-4885.359217,-11251.130318,-2145.067394
428.547464,-3997.112087,-10214.842000,-1685.410096
428.547792,0.000000,-9104.533087,229.828649
428.548119,3627.009116,-7624.121203,2681.334243
428.548447,4367.215058,-7402.059420,4979.620737
428.548775,2960.823768,-8586.388927,3140.991542
428.549102,-1406.391290,-9178.553681,1685.410096
428.549430,-4959.379811,-10510.924376,-766.095498
428.549758,-7031.956449,-10881.027347,-2374.896044
428.550086,-5551.544565,-9400.615463,-2068.457845
428.550413,-814.226536,-8142.265362,153.219100
428.550741,2664.741391,-6957.935855,2221.676944
428.551069,3775.050304,-6735.874072,3294.210641
428.551396,1924.535449,-8142.265362,2221.676944
428.551724,-2442.679609,-9474.636058,76.609550
428.552052,-5699.585753,-10362.883188,-1608.800546
428.552379,-7105.977043,-10584.944971,-3217.601092
428.552707,-4293.194464,-9252.574275,-1915.238745
428.553035,1110.308913,-7920.203579,459.657299
428.553362,4811.338623,-7105.977043,2911.162892
428.553690,5551.544565,-7105.977043,3830.477490
428.554018,3330.926739,-8364.327145,2834.553343
428.554346,-888.247130,-9918.759623,459.657299
428.554673,-3849.070898,-11029.068536,-1762.019645
428.555001,-4737.318029,-10881.027347,-2451.505594
428.555329,-1406.391290,-9474.636058,-919.314598
428.555656,2738.761985,-8068.244768,1072.533697
428.555984,6291.750507,-7624.121203,2987.772442
428.556312,6143.709319,-7550.100608,3294.210641
428.556639,3108.864956,-8882.471304,2374.896044
428.556967,-888.247130,-10436.903782,383.047749
428.557295,-3923.091493,-10584.944971,-1762.019645
428.557622,-4441.235652,-10658.965565,-2298.286494
428.557950,-1110.308913,-9104.533087,-383.047749
428.558278,3034.844362,-7994.224174,1915.238745
428.558606,5033.400406,-7179.997637,3677.258390
428.558933,3849.070898,-7994.224174,4136.915689
428.559261,222.061783,-9696.697840,2298.286494
428.559589,-4589.276840,-10362.883188,0.000000
428.559916,-7031.956449,-11103.089130,-2221.676944
428.560244,-6661.853478,-10214.842000,-2451.505594
428.560572,-2590.720797,-8364.327145,-1072.533697
428.560899,1332.370696,-6809.894666,1685.410096
428.561227,3849.070898,-6291.750507,2911.162892
428.561555,3034.844362,-7328.038826,2757.943793
428.561882,-592.164754,-8882.471304,766.095498
428.562210,-4885.359217,-10066.800811,-1762.019645
428.562538,-6883.915261,-10732.986159,-2604.724693
428.562866,-5107.421000,-10214.842000,-2451.505594
428.563193,-666.185348,-9104.533087,0.000000
428.563521,3701.029710,-7920.203579,2374.896044
428.563849,5255.462188,-7624.121203,3370.820191
428.564176,4367.215058,-8660.409521,4136.915689
428.564504,222.061783,-10066.800811,1608.800546
428.564832,-3849.070898,-11103.089130,-1149.143247
428.565159,-5551.544565,-11399.171507,-2681.334243
428.565487,-3404.947333,-10288.862594,-2145.067394
428.565815,1110.308913,-8364.327145,536.266849
428.566143,5255.462188,-7402.059420,2068.457845
428.566470,6957.935855,-7476.080014,3600.648841
428.566798,4515.256246,-8438.347739,2757.943793
428.567126,444.123565,-9844.739029,1072.533697
428.567453,-3034.844362,-11547.212695,-1378.971896
428.567781,-4737.318029,-10955.047942,-2374.896044
428.568109,-2442.679609,-10214.842000,-919.314598
428.568436,1924.535449,-8808.450710,1378.971896
428.568764,4663.297435,-8068.244768,3830.477490
428.569092,4737.318029,-7624.121203,4290.134789
428.569419,1702.473667,-8586.388927,3064.381992
428.569747,-3108.864956,-10066.800811,306.438199
428.570075,-6809.894666,-10732.986159,-1838.629195
428.570403,-7031.956449,-9918.759623,-2834.553343
428.570730,-3997.112087,-9178.553681,-1378.971896
428.571058,370.102971,-6957.935855,383.047749
428.571386,3330.926739,-6661.853478,2757.943793
428.571713,3330.926739,-7476.080014,2757.943793
428.572041,518.144159,-8808.450710,1302.362347
428.572369,-4293.194464,-9844.739029,-995.924147
428.572696,-6735.874072,-11325.150913,-2681.334243
428.573024,-6217.729913,-10584.944971,-2451.505594
428.573352,-2590.720797,-9178.553681,-1072.533697
428.573679,2664.741391,-8142.265362,1608.800546
428.574007,5551.544565,-7550.100608,3677.258390
428.574335,4885.359217,-7698.141797,4290.134789
428.574663,2072.576638,-9104.533087,2145.067394
428.574990,-1924.535449,-10510.924376,-459.657299
428.575318,-4737.318029,-10955.047942,-2221.676944
428.575646,-3997.112087,-10510.924376,-2528.115143
428.575973,296.082377,-9030.512492,-153.219100
428.576301,4515.256246,-7698.141797,2068.457845
428.576629,6143.709319,-7624.121203,3447.429741
428.576956,5255.462188,-7846.182985,3064.381992
428.577284,1628.453072,-9252.574275,1685.410096
428.577612,-2368.659014,-11029.068536,-536.266849
428.577940,-4367.215058,-10807.006753,-1991.848295
428.578267,-3478.967927,-9918.759623,-1608.800546
428.578595,222.061783,-9030.512492,689.485948
428.578923,4219.173869,-7328.038826,3217.601092
428.579250,4515.256246,-7624.121203,3907.087040
428.579578,3404.947333,-8808.450710,3524.039291
428.579906,-1258.350101,-9474.636058,1378.971896
428.580233,-5773.606348,-10807.006753,-1072.533697
428.580561,-6735.874072,-10288.862594,-1608.800546
428.580889,-5477.523971,-9326.594869,-1915.238745
428.581216,-888.247130,-7920.203579,229.828649
428.581544,3182.885551,-6587.832884,2681.334243
428.581872,3034.844362,-6957.935855,2451.505594
428.582200,1628.453072,-7920.203579,2068.457845
428.582527,-2072.576638,-9474.636058,-229.828649
428.582855,-6735.874072,-10658.965565,-2528.115143
428.583183,-6957.935855,-10584.944971,-2834.553343
428.583510,-4293.194464,-9474.636058,-1915.238745
428.583838,370.102971,-8364.327145,306.438199
428.584166,4219.173869,-7254.018232,2911.162892
428.584493,4737.318029,-7846.182985,3294.210641
428.584821,2442.679609,-8882.471304,2528.115143
428.585149,-1554.432478,-9844.739029,383.047749
428.585476,-4589.276840,-10955.047942,-1685.410096
428.585804,-5033.400406,-10658.965565,-2604.724693
428.586132,-1480.411884,-9474.636058,-1762.019645
428.586460,3034.844362,-7920.203579,1455.581446
428.586787,6439.791695,-6883.915261,3064.381992
428.587115,6143.709319,-7476.080014,3600.648841
428.587443,3701.029710,-8808.450710,2221.676944
428.587770,-740.205942,-10214.842000,0.000000
428.588098,-3552.988522,-10658.965565,-1378.971896
428.588426,-2960.823768,-10807.006753,-1532.190996
428.588753,-592.164754,-9474.636058,0.000000
428.589081,3552.988522,-8438.347739,2604.724693
428.589409,4959.379811,-8068.244768,4519.963438
428.589736,3775.050304,-8364.327145,4443.353888
428.590064,370.102971,-9252.574275,2451.505594
428.590392,-4219.173869,-10214.842000,0.000000
428.590720,-6587.832884,-10436.903782,-1608.800546
428.591047,-6069.688724,-9548.656652,-1991.848295
428.591375,-2442.679609,-7994.224174,-612.876398
428.591703,1998.556043,-7031.956449,1991.848295
428.592030,3552.988522,-6587.832884,3217.601092
428.592358,1998.556043,-7550.100608,2987.772442
428.592686,-1702.473667,-9104.533087,1149.143247
428.593013,-5847.626942,-10362.883188,-1302.362347
428.593341,-7920.203579,-10436.903782,-2451.505594
428.593669,-5995.668130,-10066.800811,-2604.724693
428.593997,-1036.288319,-8512.368333,-306.438199
428.594324,3404.947333,-7476.080014,2221.676944
428.594652,4811.338623,-7476.080014,3600.648841
428.594980,3552.988522,-8364.327145,3064.381992
428.595307,222.061783,-10140.821405,1225.752797
428.595635,-3849.070898,-10955.047942,-1302.362347
428.595963,-5403.503377,-11103.089130,-2834.553343
428.596290,-3404.947333,-9844.739029,-2604.724693
428.596618,1776.494261,-8364.327145,0.000000
428.596946,6143.709319,-7254.018232,2221.676944
428.597273,7105.977043,-7105.977043,3294.210641
428.597601,5329.482782,-8438.347739,2757.943793
428.597929,888.247130,-9992.780217,689.485948
428.598257,-3478.967927,-11029.068536,-1302.362347
428.598584,-4589.276840,-10881.027347,-2374.896044
428.598912,-2368.659014,-9992.780217,-1225.752797
428.599240,2072.576638,-8586.388927,1225.752797
428.599567,4885.359217,-7254.018232,3294.210641
428.599895,5255.462188,-7994.224174,4136.915689
428.600223,2664.741391,-9400.615463,3753.867940
428.600550,-2812.782580,-9622.677246,612.876398
428.600878,-6069.688724,-11103.089130,-1302.362347
428.601206,-6883.915261,-10732.986159,-2451.505594
428.601533,-4441.235652,-9104.533087,-1762.019645
428.601861,592.164754,-7105.977043,689.485948
428.602189,3997.112087,-6439.791695,2757.943793
428.602517,3404.947333,-6587.832884,3294.210641
428.602844,222.061783,-8586.388927,1915.238745
428.603172,-4515.256246,-10066.800811,-459.657299
428.603500,-7402.059420,-10955.047942,-2528.115143
428.603827,-6809.894666,-10732.986159,-3064.381992
428.604155,-3775.050304,-9178.553681,-1455.581446
428.604483,1480.411884,-7920.203579,1225.752797
428.604810,4441.235652,-7254.018232,3217.601092
428.605138,4367.215058,-7476.080014,3370.820191
428.605466,1258.350101,-9104.533087,1685.410096
428.605793,-3404.947333,-10362.883188,-612.876398
428.606121,-5847.626942,-11325.150913,-2757.943793
428.606449,-5033.400406,-10658.965565,-3140.991542
428.606777,-370.102971,-9326.594869,-1685.410096
428.607104,4885.359217,-8068.244768,1608.800546
428.607432,7328.038826,-6957.935855,3064.381992
428.607760,6735.874072,-7920.203579,3217.601092
428.608087,3627.009116,-9548.656652,1915.238745
428.608415,-1110.308913,-10955.047942,-536.266849
428.608743,-3997.112087,-11029.068536,-1762.019645
428.609070,-2442.679609,-10732.986159,-1685.410096
428.609398,1702.473667,-9992.780217,536.266849
428.609726,4959.379811,-8512.368333,2987.772442
428.610054,6735.874072,-8142.265362,4749.792088
428.610381,4293.194464,-9104.533087,3830.477490
428.610709,74.020594,-9548.656652,1762.019645
428.611037,-3997.112087,-10807.006753,-306.438199
428.611364,-6809.894666,-10881.027347,-2145.067394
428.611692,-5551.544565,-9252.574275,-1991.848295
428.612020,-1110.308913,-8438.347739,459.657299
428.612347,2220.617826,-6735.874072,2451.505594
428.612675,2590.720797,-6513.812290,3677.258390
428.613002,962.267725,-7698.141797,2451.505594
428.613330,-3552.988522,-9474.636058,153.219100
428.613657,-7476.080014,-10436.903782,-2221.676944
428.613985,-8068.244768,-10436.903782,-2911.162892
428.614313,-5625.565159,-9326.594869,-2221.676944
428.614640,-814.226536,-7846.182985,76.609550
428.614968,2960.823768,-7254.018232,2757.943793
428.615295,3997.112087,-7476.080014,3753.867940
428.615623,2368.659014,-8290.306550,2451.505594
428.615951,-1702.473667,-9696.697840,919.314598
428.616278,-5107.421000,-11325.150913,-1838.629195
428.616606,-5181.441594,-11251.130318,-2681.334243
428.616934,-2072.576638,-9918.759623,-2145.067394
428.617261,2812.782580,-8068.244768,229.828649
428.617589,6661.853478,-7328.038826,2604.724693
428.617916,7402.059420,-7476.080014,3140.991542
428.618244,4811.338623,-8364.327145,2221.676944
428.618572,0.000000,-9992.780217,-229.828649
428.618899,-2960.823768,-10955.047942,-1915.238745
428.619227,-3330.926739,-9992.780217,-3140.991542
428.619555,0.000000,-9918.759623,0.000000
428.619882,3775.050304,-8364.327145,1991.848295
428.620210,5847.626942,-7994.224174,3753.867940
428.620537,5477.523971,-8808.450710,4519.963438
428.620865,2146.597232,-9844.739029,3140.991542
428.621193,-2738.761985,-10510.924376,306.438199
428.621520,-5403.503377,-11029.068536,-1302.362347
428.621848,-5995.668130,-9918.759623,-2451.505594
428.622176,-2368.659014,-8586.388927,-612.876398
428.622503,2220.617826,-7105.977043,1915.238745
428.622831,3182.885551,-6809.894666,2911.162892
428.623158,2368.659014,-7105.977043,2374.896044
428.623486,-962.267725,-8882.471304,1149.143247
428.623814,-6439.791695,-10436.903782,-1302.362347
428.624141,-7994.224174,-10658.965565,-2681.334243
428.624469,-6217.729913,-9696.697840,-2298.286494
428.624797,-2220.617826,-8512.368333,-383.047749
428.625124,3034.844362,-6957.935855,2451.505594
428.625452,4293.194464,-7402.059420,3370.820191
428.625779,3627.009116,-8438.347739,3447.429741
428.626107,74.020594,-9178.553681,1685.410096
428.626435,-4145.153275,-10807.006753,-842.705048
428.626762,-5699.585753,-11251.130318,-1762.019645
428.627090,-3701.029710,-10066.800811,-1455.581446
428.627417,1258.350101,-8734.430116,919.314598
428.627745,5995.668130,-7179.997637,3294.210641
428.628073,7328.038826,-6735.874072,4749.792088
428.628400,6217.729913,-8142.265362,4290.134789
428.628728,1702.473667,-9548.656652,1915.238745
428.629056,-2738.761985,-11473.192101,76.609550
428.629383,-3997.112087,-11769.274478,-842.705048
428.629711,-3108.864956,-10584.944971,229.828649
428.630038,1554.432478,-9252.574275,2451.505594
428.630366,5255.462188,-8068.244768,5439.278036
428.630694,5477.523971,-7476.080014,6435.202183
428.631021,3775.050304,-8364.327145,5362.668486
428.631349,-518.144159,-9770.718434,2528.115143
428.631677,-5995.668130,-10214.842000,612.876398
428.632004,-7254.018232,-10584.944971,-536.266849
428.632332,-5847.626942,-9918.759623,76.609550
428.632659,-1850.514855,-7698.141797,1838.629195
428.632987,2368.659014,-6365.771101,4290.134789
428.633315,4737.318029,-5847.626942,5975.544884
428.633642,3108.864956,-7105.977043,5745.716235
428.633970,-1406.391290,-9030.512492,3830.477490
428.634298,-6291.750507,-9992.780217,1378.971896
428.634625,-8216.285956,-11177.109724,76.609550
428.634953,-6957.935855,-10807.006753,0.000000
428.635280,-2886.803174,-9030.512492,1991.848295
428.635608,1998.556043,-7698.141797,4213.525239
428.635936,5921.647536,-6735.874072,6205.373534
428.636263,5477.523971,-7624.121203,6588.421283
428.636591,2294.638420,-8882.471304,5898.935335
428.636919,-2146.597232,-9992.780217,3294.210641
428.637246,-4589.276840,-11177.109724,1455.581446
428.637574,-4811.338623,-11029.068536,1149.143247
428.637901,-2812.782580,-10584.944971,1915.238745
428.638229,148.041188,-9030.512492,3370.820191
428.638557,4589.276840,-7846.182985,4826.401637
428.638884,4811.338623,-7994.224174,5132.839837
428.639212,2886.803174,-8142.265362,4213.525239
428.639540,592.164754,-9548.656652,2987.772442
428.639867,-1998.556043,-10140.821405,2145.067394
428.640195,-2368.659014,-9992.780217,1072.533697
428.640522,-1406.391290,-10214.842000,2528.115143
428.640850,74.020594,-9770.718434,3600.648841
428.641178,1110.308913,-8882.471304,4519.963438
428.641505,0.000000,-8882.471304,3983.696590
428.641833,-962.267725,-8956.491898,3753.867940
428.642160,-2220.617826,-8956.491898,2451.505594
428.642488,-2516.700203,-8956.491898,1072.533697
428.642816,-1998.556043,-8734.430116,1149.143247
428.643143,-296.082377,-8364.327145,1762.019645
428.643471,1628.453072,-7920.203579,3294.210641
428.643799,2368.659014,-8068.244768,4136.915689
428.644126,2442.679609,-8364.327145,4519.963438
428.644454,1184.329507,-9326.594869,4290.134789
428.644781,-370.102971,-9770.718434,3983.696590
428.645109,-1480.411884,-10140.821405,3524.039291
428.645437,-2146.597232,-9918.759623,2757.943793
428.645764,-1184.329507,-10214.842000,3447.429741
428.646092,74.020594,-9992.780217,4060.306139
428.646420,1036.288319,-9326.594869,4290.134789
428.646747,592.164754,-8660.409521,4443.353888
428.647075,148.041188,-8512.368333,3600.648841
428.647402,-740.205942,-8364.327145,2911.162892
428.647730,-1480.411884,-8216.285956,2528.115143
428.648058,-1184.329507,-8142.265362,2451.505594
428.648385,-444.123565,-7994.224174,3217.601092
428.648713,370.102971,-8068.244768,3524.039291
428.649041,592.164754,-8586.388927,4060.306139
428.649368,222.061783,-9178.553681,4290.134789
428.649696,-148.041188,-9770.718434,4443.353888
428.650023,-1776.494261,-10288.862594,3907.087040
428.650351,-2368.659014,-9844.739029,3447.429741
428.650679,-2146.597232,-9252.574275,3064.381992
428.651006,-1332.370696,-9104.533087,3064.381992
428.651334,-740.205942,-8290.306550,2987.772442
428.651662,222.061783,-8216.285956,3064.381992
428.651989,666.185348,-8142.265362,3447.429741
428.652317,296.082377,-8660.409521,2451.505594
428.652644,-666.185348,-8882.471304,2451.505594
428.652972,-1110.308913,-9178.553681,1608.800546
428.653300,-888.247130,-9548.656652,1762.019645
428.653627,-296.082377,-9474.636058,2068.457845
428.653955,0.000000,-9770.718434,2451.505594
428.654282,0.000000,-9696.697840,2374.896044
428.654610,0.000000,-9696.697840,2145.067394
428.654938,-740.205942,-9844.739029,1915.238745
428.655265,-962.267725,-9770.718434,1608.800546
428.655593,-666.185348,-9474.636058,1302.362347
428.655921,0.000000,-9178.553681,1608.800546
