#time,accel_x,accel_y,accel_z
406.149401,-148.041188,-9400.615463,766.095498
406.149729,-296.082377,-9178.553681,689.485948
406.150056,-222.061783,-9030.512492,536.266849
406.150384,-370.102971,-9030.512492,536.266849
406.150711,-148.041188,-9030.512492,766.095498
406.151039,-296.082377,-9104.533087,459.657299
406.151367,-296.082377,-9104.533087,766.095498
406.151694,-370.102971,-9030.512492,459.657299
406.152022,-222.061783,-9178.553681,536.266849
406.152349,0.000000,-9400.615463,536.266849
406.152677,-740.205942,-8808.450710,1149.143247
406.153005,-370.102971,-8956.491898,612.876398
406.153332,-296.082377,-9178.553681,459.657299
406.153660,0.000000,-9400.615463,306.438199
406.153987,-296.082377,-9178.553681,459.657299
406.154315,0.000000,-8956.491898,842.705048
406.154642,148.041188,-9178.553681,459.657299
406.154970,-222.061783,-9104.533087,536.266849
406.155298,-222.061783,-9178.553681,536.266849
406.155625,-444.123565,-9104.533087,536.266849
406.155953,-222.061783,-9178.553681,229.828649
406.156280,-222.061783,-8882.471304,766.095498
406.156608,-148.041188,-9252.574275,536.266849
406.156936,-444.123565,-9104.533087,536.266849
406.157263,-296.082377,-9178.553681,689.485948
406.157591,-74.020594,-9178.553681,459.657299
406.157918,-296.082377,-8438.347739,689.485948
406.158246,-370.102971,-9178.553681,306.438199
406.158574,-888.247130,-9252.574275,229.828649
406.158901,-1184.329507,-9400.615463,0.000000
406.159229,-1554.432478,-9326.594869,-536.266849
406.159556,-1184.329507,-9104.533087,-229.828649
406.159884,-814.226536,-9030.512492,-153.219100
406.160212,-592.164754,-8734.430116,-459.657299
406.160539,-444.123565,-9030.512492,-766.095498
406.160867,-962.267725,-9326.594869,-766.095498
406.161194,-1258.350101,-8808.450710,-1072.533697
406.161522,-1258.350101,-8882.471304,-1149.143247
406.161850,-962.267725,-9178.553681,-1378.971896
406.162177,-888.247130,-9252.574275,-1225.752797
406.162505,-518.144159,-9400.615463,-1302.362347
406.162832,0.000000,-9030.512492,-1072.533697
406.163160,370.102971,-8956.491898,-1608.800546
406.163488,0.000000,-8882.471304,-1225.752797
406.163815,-222.061783,-9326.594869,-1302.362347
406.164143,0.000000,-9326.594869,-1685.410096
406.164470,0.000000,-9252.574275,-1838.629195
406.164798,296.082377,-9326.594869,-1762.019645
406.165126,148.041188,-9252.574275,-1532.190996
406.165453,222.061783,-9474.636058,-1685.410096
406.165781,222.061783,-9252.574275,-1838.629195
406.166108,370.102971,-9252.574275,-1915.238745
406.166436,296.082377,-9030.512492,-1685.410096
406.166764,74.020594,-9474.636058,-1915.238745
406.167091,-296.082377,-9252.574275,-2068.457845
406.167419,0.000000,-9104.533087,-1685.410096
406.167746,148.041188,-9326.594869,-1991.848295
406.168074,-592.164754,-8734.430116,-1302.362347
406.168402,-370.102971,-9326.594869,-2145.067394
406.168729,-814.226536,-9030.512492,-2068.457845
406.169057,-1036.288319,-9178.553681,-2068.457845
406.169384,-1332.370696,-9030.512492,-2221.676944
406.169712,-1110.308913,-9326.594869,-2604.724693
406.170040,-1628.453072,-9178.553681,-2298.286494
406.170367,-1850.514855,-8956.491898,-2528.115143
406.170695,-1776.494261,-8882.471304,-2911.162892
406.171022,-1776.494261,-9030.512492,-3064.381992
406.171350,-1924.535449,-9326.594869,-3524.039291
406.171678,-2146.597232,-8512.368333,-3907.087040
406.172005,-1776.494261,-8882.471304,-3677.258390
406.172333,-1480.411884,-8660.409521,-3753.867940
406.172660,-1184.329507,-8660.409521,-3830.477490
406.172988,-518.144159,-9030.512492,-3524.039291
406.173316,370.102971,-8882.471304,-3294.210641
406.173643,814.226536,-8660.409521,-3217.601092
406.173971,1406.391290,-9030.512492,-2451.505594
406.174298,1702.473667,-8956.491898,-2374.896044
406.174626,2220.617826,-9252.574275,-1685.410096
406.174954,2146.597232,-9326.594869,-1991.848295
406.175281,1554.432478,-9696.697840,-1838.629195
406.175609,592.164754,-10214.842000,-2068.457845
406.175936,-592.164754,-10288.862594,-2757.943793
406.176264,-1406.391290,-10584.944971,-3294.210641
406.176592,-1776.494261,-9992.780217,-4213.525239
406.176919,-2220.617826,-9696.697840,-4749.792088
406.177247,-1110.308913,-9178.553681,-4749.792088
406.177574,370.102971,-8216.285956,-4366.744339
406.177902,1776.494261,-7328.038826,-3524.039291
406.178229,3108.864956,-7105.977043,-2528.115143
406.178557,3849.070898,-7031.956449,-1225.752797
406.178885,2664.741391,-7846.182985,-1072.533697
406.179212,1332.370696,-8956.491898,-766.095498
406.179540,-370.102971,-10214.842000,-766.095498
406.179867,-2368.659014,-10955.047942,-1225.752797
406.180195,-3478.967927,-11177.109724,-1608.800546
406.180523,-3923.091493,-10584.944971,-1762.019645
406.180850,-2294.638420,-9770.718434,-1685.410096
406.181178,-148.041188,-8438.347739,-1378.971896
406.181505,1924.535449,-7254.018232,-1302.362347
406.181833,3404.947333,-6809.894666,-995.924147
406.182161,4293.194464,-7254.018232,-306.438199
406.182488,2516.700203,-7920.203579,-459.657299
406.182816,74.020594,-9030.512492,-1149.143247
406.183143,-2886.803174,-10436.903782,-1302.362347
406.183471,-5181.441594,-11473.192101,-1225.752797
406.183799,-5921.647536,-11695.253884,-1608.800546
406.184126,-5403.503377,-10881.027347,-1838.629195
406.184454,-2442.679609,-9474.636058,-766.095498
406.184781,1110.308913,-7994.224174,459.657299
406.185109,3404.947333,-7031.956449,1532.190996
406.185437,3701.029710,-6587.832884,2221.676944
406.185764,2960.823768,-7254.018232,1378.971896
406.186092,74.020594,-8438.347739,536.266849
406.186419,-3256.906145,-9474.636058,-383.047749
406.186747,-4959.379811,-10214.842000,-1378.971896
406.187075,-4293.194464,-9992.780217,-766.095498
406.187402,-1628.453072,-9030.512492,-689.485948
406.187730,1776.494261,-7698.141797,689.485948
406.188057,4737.318029,-7105.977043,1762.019645
406.188385,6217.729913,-7698.141797,2451.505594
406.188713,4515.256246,-8734.430116,1915.238745
406.189040,370.102971,-10288.862594,1302.362347
406.189368,-3182.885551,-11621.233289,-766.095498
406.189695,-5921.647536,-12139.377449,-1302.362347
406.190023,-5477.523971,-10881.027347,-919.314598
406.190351,-2886.803174,-9474.636058,-306.438199
406.190678,1702.473667,-6883.915261,1608.800546
406.191006,5033.400406,-5995.668130,2987.772442
406.191333,5181.441594,-6291.750507,3294.210641
406.191661,3775.050304,-7105.977043,2451.505594
406.191989,0.000000,-9252.574275,1072.533697
406.192316,-3404.947333,-9622.677246,-306.438199
406.192644,-4145.153275,-10658.965565,-536.266849
406.192971,-4515.256246,-10066.800811,-842.705048
406.193299,-1628.453072,-8734.430116,995.924147
406.193627,1480.411884,-8364.327145,2757.943793
406.193954,2442.679609,-7328.038826,3370.820191
406.194282,1702.473667,-7105.977043,2451.505594
406.194609,592.164754,-8808.450710,1149.143247
406.194937,-2442.679609,-9844.739029,-306.438199
406.195265,-3923.091493,-10584.944971,-842.705048
406.195592,-4737.318029,-10510.924376,-1915.238745
406.195920,-3330.926739,-9548.656652,-1072.533697
406.196247,-592.164754,-9030.512492,536.266849
406.196575,1998.556043,-7772.162391,1608.800546
406.196903,2812.782580,-7624.121203,2298.286494
406.197230,2072.576638,-8068.244768,2145.067394
406.197558,-444.123565,-8808.450710,1455.581446
406.197885,-2368.659014,-11029.068536,0.000000
406.198213,-4145.153275,-11399.171507,-842.705048
406.198541,-3849.070898,-11103.089130,-1762.019645
406.198868,-3182.885551,-10658.965565,-1991.848295
406.199196,-296.082377,-8734.430116,0.000000
406.199523,2220.617826,-7179.997637,229.828649
406.199851,3701.029710,-6587.832884,766.095498
406.200179,3849.070898,-6883.915261,1072.533697
406.200506,2072.576638,-7846.182985,-229.828649
406.200834,-370.102971,-10288.862594,-612.876398
406.201161,-2146.597232,-10955.047942,-995.924147
406.201489,-2294.638420,-11621.233289,-1378.971896
406.201816,-1110.308913,-11103.089130,-612.876398
406.202144,1036.288319,-10362.883188,459.657299
406.202472,4145.153275,-8808.450710,1915.238745
406.202799,4515.256246,-7254.018232,3064.381992
406.203127,4293.194464,-8142.265362,2681.334243
406.203454,2072.576638,-8734.430116,1685.410096
406.203782,-666.185348,-10140.821405,383.047749
406.204110,-2294.638420,-11325.150913,0.000000
406.204437,-3108.864956,-10510.924376,-536.266849
406.204765,-2368.659014,-9918.759623,-306.438199
406.205092,-592.164754,-9104.533087,689.485948
406.205420,1332.370696,-7402.059420,1532.190996
406.205747,2146.597232,-7105.977043,2451.505594
406.206075,740.205942,-6957.935855,1838.629195
406.206402,-1332.370696,-7550.100608,689.485948
406.206730,-3775.050304,-9400.615463,0.000000
406.207057,-5181.441594,-10288.862594,-689.485948
406.207385,-5551.544565,-10066.800811,-153.219100
406.207712,-3404.947333,-9770.718434,229.828649
406.208040,-1554.432478,-8438.347739,612.876398
406.208367,888.247130,-7476.080014,1991.848295
406.208695,2072.576638,-6439.791695,2221.676944
406.209022,1628.453072,-7328.038826,2145.067394
406.209350,222.061783,-7994.224174,1532.190996
406.209677,-2442.679609,-8956.491898,229.828649
406.210005,-3330.926739,-11103.089130,0.000000
406.210333,-3849.070898,-11325.150913,-459.657299
406.210660,-2738.761985,-10140.821405,0.000000
406.210988,-444.123565,-9400.615463,766.095498
406.211315,2442.679609,-7772.162391,1302.362347
406.211643,3775.050304,-6957.935855,1532.190996
406.211970,3627.009116,-6883.915261,1149.143247
406.212298,1850.514855,-8142.265362,306.438199
406.212625,-1258.350101,-9918.759623,-229.828649
406.212953,-3404.947333,-10436.903782,-536.266849
406.213280,-3701.029710,-11251.130318,-1225.752797
406.213608,-1924.535449,-10066.800811,-689.485948
406.213935,666.185348,-8808.450710,0.000000
406.214263,3478.967927,-7698.141797,1225.752797
406.214590,5551.544565,-6735.874072,1608.800546
406.214918,4885.359217,-6513.812290,1685.410096
406.215245,2368.659014,-8364.327145,1225.752797
406.215573,-370.102971,-10066.800811,0.000000
406.215900,-2368.659014,-11325.150913,-689.485948
406.216228,-3034.844362,-11399.171507,-612.876398
406.216555,-1406.391290,-11029.068536,383.047749
406.216883,592.164754,-9326.594869,842.705048
406.217210,2368.659014,-8216.285956,1838.629195
406.217538,3108.864956,-7254.018232,1838.629195
406.217865,2664.741391,-7550.100608,1378.971896
406.218193,296.082377,-8882.471304,459.657299
406.218520,-2886.803174,-9992.780217,-536.266849
406.218848,-4293.194464,-11473.192101,-536.266849
406.219176,-5107.421000,-11103.089130,-383.047749
406.219503,-3627.009116,-9770.718434,229.828649
406.219831,-1406.391290,-9030.512492,842.705048
406.220158,888.247130,-7105.977043,2145.067394
406.220486,1776.494261,-7031.956449,2374.896044
406.220813,1036.288319,-6957.935855,1762.019645
406.221141,-518.144159,-7698.141797,919.314598
406.221468,-2590.720797,-8808.450710,459.657299
406.221796,-4367.215058,-10955.047942,306.438199
406.222123,-4737.318029,-10732.986159,0.000000
406.222451,-3552.988522,-9918.759623,-229.828649
406.222778,-1110.308913,-9474.636058,383.047749
406.223106,1036.288319,-7179.997637,1072.533697
406.223433,2812.782580,-7105.977043,1532.190996
406.223761,2516.700203,-7846.182985,1532.190996
406.224088,814.226536,-8290.306550,383.047749
406.224416,-1480.411884,-10584.944971,0.000000
406.224743,-3108.864956,-11843.295072,-612.876398
406.225071,-4071.132681,-11103.089130,-842.705048
406.225398,-1480.411884,-10510.924376,-306.438199
406.225726,1258.350101,-8956.491898,612.876398
406.226053,3627.009116,-6957.935855,1532.190996
406.226381,5625.565159,-6957.935855,2681.334243
406.226708,4885.359217,-6957.935855,2068.457845
406.227036,1998.556043,-7994.224174,1915.238745
406.227363,-444.123565,-10288.862594,689.485948
406.227691,-2368.659014,-11325.150913,76.609550
406.228019,-2886.803174,-10955.047942,-229.828649
406.228346,-888.247130,-9992.780217,612.876398
406.228674,370.102971,-8660.409521,1072.533697
406.229001,3330.926739,-7698.141797,2374.896044
406.229329,3849.070898,-7031.956449,2145.067394
406.229656,2072.576638,-7698.141797,1762.019645
406.229984,-370.102971,-9178.553681,612.876398
406.230311,-3108.864956,-10214.842000,-689.485948
406.230639,-5033.400406,-11177.109724,-842.705048
406.230966,-5107.421000,-10584.944971,-612.876398
406.231294,-3627.009116,-9992.780217,-383.047749
406.231621,-1628.453072,-8586.388927,306.438199
406.231949,1258.350101,-7179.997637,1685.410096
406.232276,1850.514855,-6735.874072,1762.019645
406.232604,1036.288319,-7179.997637,1455.581446
406.232931,-592.164754,-8216.285956,995.924147
406.233259,-2738.761985,-9696.697840,-153.219100
406.233586,-4515.256246,-10881.027347,-306.438199
406.233914,-5033.400406,-10214.842000,-766.095498
406.234241,-2960.823768,-10140.821405,-536.266849
406.234569,-1258.350101,-8660.409521,-229.828649
406.234896,2220.617826,-7476.080014,995.924147
406.235224,4071.132681,-6587.832884,1302.362347
406.235551,2886.803174,-7105.977043,842.705048
406.235879,2146.597232,-8438.347739,459.657299
406.236206,-666.185348,-10288.862594,-536.266849
406.236534,-2812.782580,-11621.233289,-919.314598
406.236862,-2664.741391,-11399.171507,-612.876398
406.237189,-518.144159,-10140.821405,-383.047749
406.237517,1110.308913,-9326.594869,306.438199
406.237844,4663.297435,-7846.182985,2068.457845
406.238172,5625.565159,-7031.956449,2221.676944
406.238499,4737.318029,-7772.162391,2374.896044
406.238827,2146.597232,-8882.471304,1455.581446
406.239154,-740.205942,-10214.842000,0.000000
406.239482,-2812.782580,-11621.233289,-306.438199
406.239809,-2664.741391,-10955.047942,-306.438199
406.240137,-1628.453072,-9474.636058,-153.219100
406.240464,888.247130,-8438.347739,995.924147
406.240792,3182.885551,-7254.018232,2068.457845
406.241119,2886.803174,-6439.791695,1532.190996
406.241447,1628.453072,-7328.038826,1378.971896
406.241774,-592.164754,-8882.471304,612.876398
406.242102,-3849.070898,-9918.759623,-919.314598
406.242429,-5255.462188,-11325.150913,-995.924147
406.242757,-5551.544565,-10955.047942,-612.876398
406.243084,-3923.091493,-9992.780217,-459.657299
406.243412,-1554.432478,-8586.388927,1072.533697
406.243739,962.267725,-6809.894666,1455.581446
406.244067,2368.659014,-6883.915261,1915.238745
406.244394,2072.576638,-7550.100608,1838.629195
406.244722,-296.082377,-8216.285956,842.705048
406.245049,-2294.638420,-10658.965565,383.047749
406.245377,-4293.194464,-11177.109724,0.000000
406.245705,-4293.194464,-10288.862594,0.000000
406.246032,-2442.679609,-10436.903782,383.047749
406.246360,222.061783,-9030.512492,1149.143247
406.246687,2664.741391,-7402.059420,1838.629195
406.247015,3775.050304,-7402.059420,2145.067394
406.247342,3256.906145,-7328.038826,2068.457845
406.247670,592.164754,-8808.450710,1225.752797
406.247997,-1036.288319,-10584.944971,0.000000
406.248325,-3404.947333,-11473.192101,-306.438199
406.248652,-3997.112087,-11325.150913,-1302.362347
406.248980,-1998.556043,-9844.739029,153.219100
406.249307,1036.288319,-9178.553681,766.095498
406.249635,2960.823768,-7031.956449,1072.533697
406.249962,4367.215058,-7179.997637,2528.115143
406.250290,3627.009116,-7624.121203,2374.896044
406.250617,370.102971,-8882.471304,919.314598
406.250945,-2294.638420,-10362.883188,536.266849
406.251272,-3330.926739,-11325.150913,-229.828649
406.251600,-3997.112087,-10732.986159,-689.485948
406.251927,-1776.494261,-9992.780217,76.609550
406.252255,370.102971,-8882.471304,536.266849
406.252582,2294.638420,-6439.791695,1149.143247
406.252910,3182.885551,-7105.977043,1991.848295
406.253237,2368.659014,-7328.038826,1302.362347
406.253565,-1036.288319,-8290.306550,0.000000
406.253892,-2664.741391,-10362.883188,-459.657299
406.254220,-4441.235652,-10807.006753,-306.438199
406.254548,-4589.276840,-10362.883188,-995.924147
406.254875,-1924.535449,-9548.656652,0.000000
406.255203,148.041188,-8808.450710,766.095498
406.255530,1850.514855,-6587.832884,1378.971896
406.255858,3627.009116,-7328.038826,2145.067394
406.256185,2516.700203,-7402.059420,1838.629195
406.256513,0.000000,-8512.368333,766.095498
406.256840,-1850.514855,-10732.986159,153.219100
406.257168,-3775.050304,-11399.171507,-383.047749
406.257495,-4515.256246,-10807.006753,-995.924147
406.257823,-1628.453072,-10214.842000,383.047749
406.258150,0.000000,-8438.347739,536.266849
406.258478,2738.761985,-7402.059420,1149.143247
406.258805,4145.153275,-7105.977043,1378.971896
406.259133,2886.803174,-7550.100608,1072.533697
406.259460,666.185348,-8586.388927,459.657299
406.259788,-1258.350101,-10288.862594,-612.876398
406.260115,-3552.988522,-11547.212695,-919.314598
406.260443,-3923.091493,-10807.006753,-995.924147
406.260770,-1554.432478,-10214.842000,-153.219100
406.261098,592.164754,-8216.285956,689.485948
406.261425,3849.070898,-7105.977043,1378.971896
406.261753,4589.276840,-7179.997637,2068.457845
406.262080,3034.844362,-7624.121203,1608.800546
406.262408,444.123565,-8882.471304,1302.362347
406.262735,-1998.556043,-10362.883188,-383.047749
406.263063,-3552.988522,-11399.171507,-612.876398
406.263390,-3775.050304,-10436.903782,-766.095498
406.263718,-1258.350101,-10066.800811,0.000000
406.264046,148.041188,-8660.409521,459.657299
406.264373,2664.741391,-7254.018232,1915.238745
406.264701,3256.906145,-7105.977043,1915.238745
406.265028,1628.453072,-7550.100608,1532.190996
406.265356,-592.164754,-9030.512492,383.047749
406.265683,-2738.761985,-10584.944971,-536.266849
406.266011,-4515.256246,-11103.089130,-995.924147
406.266338,-4071.132681,-10066.800811,0.000000
406.266666,-1184.329507,-9548.656652,306.438199
406.266993,0.000000,-8142.265362,919.314598
406.267321,2368.659014,-6735.874072,1762.019645
406.267648,3034.844362,-7105.977043,2451.505594
406.267976,1850.514855,-7402.059420,1915.238745
406.268303,-740.205942,-8882.471304,1149.143247
406.268631,-2368.659014,-10807.006753,0.000000
406.268958,-4293.194464,-11251.130318,0.000000
406.269286,-3923.091493,-10658.965565,-306.438199
406.269613,-1554.432478,-10140.821405,689.485948
406.269941,-296.082377,-8290.306550,1072.533697
406.270268,2220.617826,-7105.977043,1455.581446
406.270596,3182.885551,-7476.080014,1608.800546
406.270923,1924.535449,-7698.141797,919.314598
406.271251,-592.164754,-8956.491898,0.000000
406.271578,-2590.720797,-10584.944971,-306.438199
406.271906,-4589.276840,-11399.171507,-1149.143247
406.272233,-4515.256246,-10658.965565,-1225.752797
406.272561,-1702.473667,-10362.883188,-306.438199
406.272889,518.144159,-8660.409521,383.047749
406.273216,3182.885551,-6957.935855,1149.143247
406.273544,4441.235652,-7476.080014,1455.581446
406.273871,3034.844362,-7994.224174,1378.971896
406.274199,296.082377,-9252.574275,536.266849
406.274526,-1258.350101,-10732.986159,76.609550
406.274854,-2886.803174,-11103.089130,-153.219100
406.275181,-2738.761985,-10436.903782,-229.828649
406.275509,-518.144159,-10362.883188,536.266849
406.275836,1480.411884,-8956.491898,919.314598
406.276164,2960.823768,-7254.018232,1455.581446
406.276491,4145.153275,-7698.141797,1915.238745
406.276819,2516.700203,-7994.224174,1378.971896
406.277146,-222.061783,-9252.574275,306.438199
406.277474,-2368.659014,-10955.047942,0.000000
406.277801,-3849.070898,-11695.253884,-612.876398
406.278129,-3775.050304,-10510.924376,-536.266849
406.278456,-1258.350101,-10140.821405,536.266849
406.278784,296.082377,-8364.327145,1378.971896
406.279111,2146.597232,-6883.915261,1915.238745
406.279439,3256.906145,-7105.977043,2528.115143
406.279766,1850.514855,-7846.182985,1991.848295
406.280094,-1480.411884,-8808.450710,536.266849
406.280421,-3182.885551,-10510.924376,536.266849
406.280749,-4589.276840,-11029.068536,0.000000
406.281076,-4663.297435,-9992.780217,-153.219100
406.281404,-1924.535449,-9548.656652,766.095498
406.281732,370.102971,-7994.224174,1915.238745
406.282059,1924.535449,-6957.935855,1838.629195
406.282387,3182.885551,-7105.977043,2298.286494
406.282714,1850.514855,-7698.141797,1762.019645
406.283042,-1258.350101,-8734.430116,306.438199
406.283369,-2812.782580,-10584.944971,0.000000
406.283697,-4959.379811,-10881.027347,0.000000
406.284024,-4441.235652,-10362.883188,-995.924147
406.284352,-1406.391290,-9770.718434,229.828649
406.284679,1110.308913,-8142.265362,842.705048
406.285007,3108.864956,-6661.853478,1762.019645
406.285334,4737.318029,-6809.894666,2604.724693
406.285662,3034.844362,-7772.162391,1762.019645
406.285989,0.000000,-9104.533087,842.705048
406.286317,-2146.597232,-10807.006753,229.828649
406.286644,-3923.091493,-11473.192101,-306.438199
406.286972,-3552.988522,-10288.862594,-842.705048
406.287299,-666.185348,-9844.739029,612.876398
406.287627,1554.432478,-8734.430116,1072.533697
406.287954,3034.844362,-6957.935855,1378.971896
406.288282,3997.112087,-7328.038826,1915.238745
406.288609,2146.597232,-7994.224174,1225.752797
406.288937,-740.205942,-8808.450710,-229.828649
406.289264,-2516.700203,-11251.130318,-689.485948
406.289592,-4145.153275,-11473.192101,-1225.752797
406.289919,-4145.153275,-10436.903782,-1532.190996
406.290247,-1702.473667,-10140.821405,-689.485948
406.290575,1036.288319,-8882.471304,919.314598
406.290902,2738.761985,-6957.935855,1149.143247
406.291230,3701.029710,-7476.080014,1915.238745
406.291557,2590.720797,-8068.244768,1455.581446
406.291885,-888.247130,-9252.574275,459.657299
406.292212,-2220.617826,-10807.006753,153.219100
406.292540,-3627.009116,-11547.212695,-612.876398
406.292867,-3478.967927,-10288.862594,-995.924147
406.293195,-1258.350101,-9696.697840,0.000000
406.293522,1480.411884,-8438.347739,1149.143247
406.293850,3108.864956,-6587.832884,1838.629195
406.294177,4145.153275,-6957.935855,2145.067394
406.294505,2886.803174,-7920.203579,1838.629195
406.294832,-518.144159,-8808.450710,229.828649
406.295160,-2738.761985,-10807.006753,0.000000
406.295487,-4219.173869,-11769.274478,-689.485948
406.295815,-4219.173869,-10584.944971,-995.924147
406.296142,-1480.411884,-9696.697840,229.828649
406.296470,1554.432478,-8290.306550,1225.752797
406.296797,3256.906145,-7031.956449,2068.457845
406.297125,3923.091493,-7328.038826,2911.162892
406.297452,2590.720797,-7994.224174,1532.190996
406.297780,-1480.411884,-8956.491898,1072.533697
406.298107,-3552.988522,-10955.047942,153.219100
406.298435,-4811.338623,-11547.212695,-536.266849
406.298762,-4071.132681,-10140.821405,-766.095498
406.299090,-1406.391290,-9474.636058,76.609550
406.299418,1554.432478,-8216.285956,1225.752797
406.299745,2590.720797,-6217.729913,1685.410096
406.300073,3182.885551,-6661.853478,1685.410096
406.300400,1776.494261,-7920.203579,1072.533697
406.300728,-2146.597232,-8808.450710,76.609550
406.301055,-3627.009116,-10807.006753,-536.266849
406.301383,-4737.318029,-11251.130318,-1072.533697
406.301710,-3849.070898,-10510.924376,-1302.362347
406.302038,-1554.432478,-9696.697840,-306.438199
406.302365,1776.494261,-8660.409521,1072.533697
406.302693,3701.029710,-6587.832884,1532.190996
406.303020,3849.070898,-7402.059420,1991.848295
406.303348,2664.741391,-8364.327145,1455.581446
406.303675,222.061783,-9844.739029,689.485948
406.304003,-1850.514855,-11769.274478,0.000000
406.304330,-2664.741391,-11843.295072,-153.219100
406.304658,-2442.679609,-10955.047942,-766.095498
406.304985,-148.041188,-10140.821405,76.609550
406.305313,2220.617826,-8438.347739,1149.143247
406.305640,4293.194464,-7402.059420,1838.629195
406.305968,3923.091493,-7328.038826,1608.800546
406.306296,2886.803174,-8068.244768,1378.971896
406.306623,-740.205942,-9474.636058,-153.219100
406.306951,-3108.864956,-11103.089130,-842.705048
406.307279,-3849.070898,-11547.212695,-612.876398
406.307607,-3552.988522,-10066.800811,-766.095498
406.307934,-1036.288319,-9474.636058,0.000000
406.308262,1554.432478,-8290.306550,1302.362347
406.308590,2664.741391,-7031.956449,1532.190996
406.308917,2738.761985,-6883.915261,2068.457845
406.309245,1628.453072,-7846.182985,1685.410096
406.309573,-1628.453072,-9622.677246,383.047749
406.309900,-3627.009116,-10658.965565,-612.876398
406.310228,-4663.297435,-11325.150913,-383.047749
406.310556,-3552.988522,-10140.821405,-383.047749
406.310883,-1480.411884,-9770.718434,536.266849
406.311211,1406.391290,-8290.306550,842.705048
406.311539,2220.617826,-5995.668130,1685.410096
406.311866,2664.741391,-7328.038826,2068.457845
406.312194,1628.453072,-8290.306550,1455.581446
406.312522,-2072.576638,-9252.574275,229.828649
406.312850,-3108.864956,-10510.924376,153.219100
406.313177,-4071.132681,-11177.109724,-229.828649
406.313505,-3404.947333,-10066.800811,-459.657299
406.313833,-1036.288319,-9474.636058,612.876398
406.314160,1628.453072,-7920.203579,1608.800546
406.314488,3404.947333,-6217.729913,1608.800546
406.314816,3478.967927,-6883.915261,2451.505594
406.315143,1998.556043,-7698.141797,1762.019645
406.315471,-1036.288319,-9178.553681,536.266849
406.315799,-2516.700203,-10584.944971,383.047749
406.316126,-3849.070898,-10807.006753,-306.438199
406.316454,-2664.741391,-9992.780217,0.000000
406.316782,-814.226536,-9400.615463,612.876398
406.317110,1406.391290,-7846.182985,1149.143247
406.317437,2590.720797,-6439.791695,1532.190996
406.317765,3330.926739,-6957.935855,1685.410096
406.318093,1702.473667,-7920.203579,995.924147
406.318420,-1628.453072,-9178.553681,0.000000
406.318748,-3034.844362,-10807.006753,-766.095498
406.319076,-4515.256246,-10881.027347,-1225.752797
406.319403,-3627.009116,-10140.821405,-766.095498
406.319731,-592.164754,-9474.636058,459.657299
406.320059,1258.350101,-7698.141797,1225.752797
406.320386,3182.885551,-6809.894666,1762.019645
406.320714,3701.029710,-7179.997637,1915.238745
406.321042,1480.411884,-8142.265362,842.705048
406.321370,-1110.308913,-9992.780217,306.438199
406.321697,-2960.823768,-10658.965565,-536.266849
406.322025,-3775.050304,-11621.233289,-842.705048
406.322353,-2590.720797,-10807.006753,-459.657299
406.322680,-666.185348,-9844.739029,229.828649
406.323008,1406.391290,-8438.347739,842.705048
406.323336,3108.864956,-7402.059420,2221.676944
406.323663,3256.906145,-7402.059420,229.828649
406.323991,1480.411884,-8956.491898,76.609550
406.324319,-888.247130,-10362.883188,-306.438199
406.324646,-3108.864956,-11325.150913,-1072.533697
406.324974,-4219.173869,-11325.150913,-1149.143247
406.325302,-2812.782580,-11029.068536,-536.266849
406.325630,-1332.370696,-9474.636058,0.000000
406.325957,1258.350101,-8068.244768,842.705048
406.326285,3478.967927,-6957.935855,1455.581446
406.326613,3330.926739,-7105.977043,1072.533697
406.326940,2146.597232,-8142.265362,1302.362347
406.327268,-518.144159,-9622.677246,612.876398
406.327596,-2146.597232,-10732.986159,0.000000
406.327923,-3330.926739,-11399.171507,-153.219100
406.328251,-2590.720797,-10807.006753,229.828649
406.328579,0.000000,-9770.718434,689.485948
406.328906,1554.432478,-8216.285956,1838.629195
406.329234,3404.947333,-6735.874072,2068.457845
406.329562,3552.988522,-7328.038826,2298.286494
406.329890,1998.556043,-8438.347739,1378.971896
406.330217,-592.164754,-9770.718434,229.828649
406.330545,-2960.823768,-10658.965565,0.000000
406.330873,-4737.318029,-10955.047942,-766.095498
406.331200,-3478.967927,-10362.883188,0.000000
406.331528,-962.267725,-9178.553681,919.314598
406.331856,1924.535449,-6661.853478,1915.238745
406.332183,3552.988522,-6069.688724,2834.553343
406.332511,3108.864956,-6883.915261,2604.724693
406.332839,370.102971,-7328.038826,1455.581446
406.333166,-1850.514855,-9696.697840,1072.533697
406.333494,-3330.926739,-11029.068536,536.266849
406.333822,-5033.400406,-10436.903782,0.000000
406.334149,-3182.885551,-9992.780217,229.828649
406.334477,-1110.308913,-9104.533087,766.095498
406.334805,592.164754,-7105.977043,1072.533697
406.335133,2442.679609,-6587.832884,1991.848295
406.335460,2442.679609,-6735.874072,766.095498
406.335788,0.000000,-7179.997637,383.047749
406.336116,-1702.473667,-9474.636058,-306.438199
406.336443,-3404.947333,-10732.986159,-995.924147
406.336771,-4737.318029,-10214.842000,-1991.848295
406.337099,-2812.782580,-10584.944971,-1302.362347
406.337426,-1036.288319,-8956.491898,76.609550
406.337754,1184.329507,-7772.162391,229.828649
406.338082,3775.050304,-7105.977043,1225.752797
406.338409,3627.009116,-7179.997637,1302.362347
406.338737,2664.741391,-8216.285956,1608.800546
406.339065,-148.041188,-9918.759623,689.485948
406.339393,-1850.514855,-10732.986159,-306.438199
406.339720,-2516.700203,-11325.150913,-689.485948
406.340048,-1776.494261,-10510.924376,-689.485948
406.340376,0.000000,-9770.718434,-306.438199
406.340703,2590.720797,-8290.306550,612.876398
406.341031,4071.132681,-6883.915261,919.314598
406.341359,3923.091493,-7179.997637,1302.362347
406.341686,2812.782580,-8586.388927,995.924147
406.342014,-592.164754,-9992.780217,-383.047749
406.342342,-2886.803174,-11251.130318,-842.705048
406.342669,-3849.070898,-11843.295072,-1302.362347
406.342997,-3701.029710,-10732.986159,-1762.019645
406.343325,-962.267725,-9474.636058,0.000000
406.343653,2072.576638,-8364.327145,689.485948
406.343980,3627.009116,-6883.915261,2451.505594
406.344308,3627.009116,-7476.080014,2604.724693
406.344636,1184.329507,-8586.388927,1991.848295
406.344963,-2442.679609,-9770.718434,766.095498
406.345291,-4441.235652,-11325.150913,0.000000
406.345619,-5477.523971,-11399.171507,-306.438199
406.345946,-3997.112087,-9918.759623,-229.828649
406.346274,-1628.453072,-9178.553681,459.657299
406.346602,740.205942,-7920.203579,1608.800546
406.346929,2738.761985,-6883.915261,2145.067394
406.347257,2516.700203,-6883.915261,1762.019645
406.347585,592.164754,-7698.141797,1378.971896
406.347913,-2294.638420,-9918.759623,229.828649
406.348240,-4219.173869,-11325.150913,-766.095498
406.348568,-5181.441594,-11769.274478,-919.314598
406.348896,-3701.029710,-10288.862594,-383.047749
406.349223,-740.205942,-9104.533087,1302.362347
406.349551,1998.556043,-7698.141797,1149.143247
406.349879,4145.153275,-6809.894666,2528.115143
406.350206,4441.235652,-7105.977043,2451.505594
406.350534,1628.453072,-8586.388927,1762.019645
406.350862,-740.205942,-10066.800811,1302.362347
406.351189,-2738.761985,-11473.192101,153.219100
406.351517,-3849.070898,-11547.212695,0.000000
406.351845,-2368.659014,-10510.924376,306.438199
406.352172,592.164754,-9326.594869,1302.362347
406.352500,2886.803174,-7402.059420,1915.238745
406.352828,4589.276840,-6439.791695,2221.676944
406.353156,4219.173869,-7105.977043,2145.067394
406.353483,1406.391290,-8586.388927,995.924147
406.353811,-1554.432478,-9844.739029,76.609550
406.354139,-3627.009116,-11695.253884,-689.485948
406.354466,-4737.318029,-10436.903782,-689.485948
406.354794,-2516.700203,-9918.759623,153.219100
406.355122,0.000000,-8882.471304,919.314598
406.355449,2516.700203,-6883.915261,1685.410096
406.355777,3849.070898,-6809.894666,2528.115143
406.356105,2516.700203,-7031.956449,2145.067394
406.356432,-296.082377,-8364.327145,1225.752797
406.356760,-2812.782580,-10362.883188,76.609550
406.357088,-4737.318029,-11547.212695,-306.438199
406.357416,-4515.256246,-10584.944971,-229.828649
406.357743,-2812.782580,-9770.718434,-153.219100
406.358071,-148.041188,-8512.368333,612.876398
406.358399,1554.432478,-7254.018232,1072.533697
406.358726,1776.494261,-7105.977043,1149.143247
406.359054,1554.432478,-6809.894666,766.095498
406.359382,0.000000,-7772.162391,383.047749
406.359709,-2590.720797,-9548.656652,-1149.143247
406.360037,-3923.091493,-10807.006753,-919.314598
406.360365,-3997.112087,-10288.862594,-1608.800546
406.360692,-2368.659014,-10362.883188,-1149.143247
406.361020,-222.061783,-9104.533087,0.000000
406.361348,1850.514855,-6735.874072,536.266849
406.361676,3552.988522,-7179.997637,1225.752797
406.362003,3775.050304,-7105.977043,1302.362347
406.362331,1998.556043,-8290.306550,612.876398
406.362659,222.061783,-10066.800811,153.219100
406.362986,-1776.494261,-10214.842000,153.219100
406.363314,-3108.864956,-10881.027347,-1149.143247
406.363642,-1776.494261,-10658.965565,-383.047749
406.363969,148.041188,-9326.594869,-383.047749
406.364297,3182.885551,-7624.121203,536.266849
406.364625,4811.338623,-6513.812290,1302.362347
406.364952,4441.235652,-7328.038826,1915.238745
406.365280,2368.659014,-8808.450710,1225.752797
406.365608,-518.144159,-10288.862594,76.609550
406.365936,-2442.679609,-11251.130318,-612.876398
406.366263,-2812.782580,-11103.089130,-153.219100
406.366591,-1554.432478,-10214.842000,383.047749
406.366919,444.123565,-9252.574275,919.314598
406.367246,3330.926739,-7994.224174,2451.505594
406.367574,3627.009116,-6735.874072,2834.553343
406.367902,2442.679609,-7624.121203,2911.162892
406.368229,74.020594,-8956.491898,2451.505594
406.368557,-3108.864956,-10066.800811,459.657299
406.368885,-4811.338623,-10881.027347,229.828649
406.369212,-4737.318029,-10955.047942,383.047749
406.369540,-4071.132681,-9474.636058,306.438199
406.369868,-1998.556043,-8660.409521,1378.971896
406.370196,666.185348,-7254.018232,2221.676944
406.370523,888.247130,-6513.812290,1762.019645
406.370851,444.123565,-7105.977043,1532.190996
406.371179,-1628.453072,-8364.327145,995.924147
406.371506,-4293.194464,-9400.615463,0.000000
406.371834,-5699.585753,-11029.068536,-306.438199
406.372162,-5477.523971,-11103.089130,-842.705048
406.372489,-4367.215058,-9992.780217,-383.047749
406.372817,-1554.432478,-8956.491898,689.485948
406.373145,1406.391290,-7698.141797,1225.752797
406.373472,3330.926739,-6291.750507,1532.190996
406.373800,3849.070898,-6883.915261,1455.581446
406.374128,2146.597232,-8512.368333,1149.143247
406.374455,-444.123565,-10140.821405,0.000000
406.374783,-2146.597232,-11103.089130,-153.219100
406.375111,-2442.679609,-11103.089130,-612.876398
406.375439,-1036.288319,-10436.903782,-153.219100
406.375766,1406.391290,-9474.636058,536.266849
406.376094,3256.906145,-8290.306550,1225.752797
406.376422,5255.462188,-7179.997637,1455.581446
406.376749,4959.379811,-7402.059420,689.485948
406.377077,2442.679609,-8512.368333,842.705048
406.377405,-666.185348,-10214.842000,-459.657299
406.377732,-2146.597232,-11399.171507,-1072.533697
406.378060,-3256.906145,-11251.130318,-1378.971896
406.378388,-1480.411884,-10288.862594,-229.828649
406.378715,1036.288319,-8808.450710,842.705048
406.379043,2294.638420,-7772.162391,1149.143247
406.379371,3330.926739,-6809.894666,2221.676944
406.379699,2368.659014,-6957.935855,1225.752797
406.380026,0.000000,-8586.388927,1072.533697
406.380354,-2294.638420,-9918.759623,-153.219100
406.380682,-4441.235652,-11029.068536,-995.924147
406.381009,-4663.297435,-11103.089130,-842.705048
406.381337,-2886.803174,-9918.759623,229.828649
406.381665,-1554.432478,-8956.491898,306.438199
406.381992,444.123565,-7031.956449,1302.362347
406.382320,1924.535449,-6809.894666,1608.800546
406.382648,962.267725,-7772.162391,766.095498
406.382975,-666.185348,-8068.244768,0.000000
406.383303,-2072.576638,-10658.965565,-306.438199
406.383631,-3923.091493,-10955.047942,-1072.533697
406.383959,-3701.029710,-12805.562797,-919.314598
406.384286,-3849.070898,-10362.883188,-766.095498
406.384614,0.000000,-9770.718434,612.876398
406.384942,1998.556043,-7402.059420,612.876398
406.385269,4441.235652,-7920.203579,1685.410096
406.385597,4589.276840,-7920.203579,1685.410096
406.385925,2146.597232,-9252.574275,995.924147
406.386252,518.144159,-10214.842000,306.438199
406.386580,-3775.050304,-11473.192101,-766.095498
406.386908,-2072.576638,-12583.501014,459.657299
406.387235,-2812.782580,-10510.924376,-1072.533697
406.387563,1110.308913,-9326.594869,1302.362347
406.387891,3404.947333,-7772.162391,1532.190996
406.388219,3923.091493,-7402.059420,2374.896044
406.388546,3330.926739,-7105.977043,2221.676944
406.388874,1406.391290,-9104.533087,689.485948
406.389202,-1628.453072,-10732.986159,0.000000
406.389529,-3478.967927,-11547.212695,-383.047749
406.389857,-4589.276840,-11029.068536,-536.266849
406.390185,-2294.638420,-10214.842000,306.438199
406.390512,592.164754,-8290.306550,1225.752797
406.390840,2442.679609,-6365.771101,2757.943793
406.391168,3330.926739,-6957.935855,3294.210641
406.391495,2146.597232,-7698.141797,2911.162892
406.391823,-962.267725,-8438.347739,1762.019645
406.392151,-3997.112087,-10288.862594,766.095498
406.392478,-4515.256246,-11177.109724,689.485948
406.392806,-4219.173869,-10214.842000,0.000000
406.393134,-2368.659014,-9548.656652,536.266849
406.393462,370.102971,-8364.327145,1991.848295
406.393789,1998.556043,-6661.853478,2451.505594
406.394117,1554.432478,-6587.832884,2451.505594
406.394445,1110.308913,-7254.018232,2068.457845
406.394772,-1924.535449,-8438.347739,383.047749
406.395100,-3701.029710,-10140.821405,0.000000
406.395428,-4959.379811,-10955.047942,-766.095498
406.395755,-4589.276840,-10436.903782,-842.705048
406.396083,-2664.741391,-9622.677246,-536.266849
406.396411,0.000000,-8586.388927,536.266849
406.396738,2220.617826,-7476.080014,766.095498
406.397066,2812.782580,-6143.709319,919.314598
406.397394,2812.782580,-7476.080014,1072.533697
406.397722,518.144159,-8882.471304,76.609550
406.398049,-1628.453072,-9770.718434,-919.314598
406.398377,-2886.803174,-11177.109724,-1378.971896
406.398705,-2442.679609,-11177.109724,-1225.752797
406.399032,-1332.370696,-9844.739029,-1302.362347
406.399360,1332.370696,-8956.491898,-383.047749
406.399688,3775.050304,-7772.162391,153.219100
406.400015,4811.338623,-6809.894666,842.705048
406.400343,4737.318029,-7624.121203,1072.533697
406.400671,2590.720797,-9252.574275,153.219100
406.400998,-222.061783,-9696.697840,-153.219100
406.401326,-2294.638420,-11251.130318,-1072.533697
406.401654,-2516.700203,-11177.109724,-995.924147
406.401982,-888.247130,-10066.800811,-306.438199
406.402309,1776.494261,-9104.533087,383.047749
406.402637,3849.070898,-7254.018232,1685.410096
406.402965,4663.297435,-6883.915261,2145.067394
406.403292,3256.906145,-7772.162391,1915.238745
406.403620,444.123565,-9178.553681,1532.190996
406.403948,-2368.659014,-10288.862594,229.828649
406.404275,-4589.276840,-10955.047942,-229.828649
406.404603,-4219.173869,-10955.047942,229.828649
406.404931,-2738.761985,-9622.677246,459.657299
406.405258,-1036.288319,-8216.285956,1455.581446
406.405586,814.226536,-6957.935855,2145.067394
406.405914,1702.473667,-6661.853478,2451.505594
406.406242,592.164754,-6957.935855,2068.457845
406.406569,-2146.597232,-8364.327145,536.266849
406.406897,-4293.194464,-10214.842000,-306.438199
406.407225,-5625.565159,-10881.027347,-689.485948
406.407552,-6143.709319,-10436.903782,-842.705048
406.407880,-3627.009116,-9770.718434,536.266849
406.408207,-888.247130,-8660.409521,842.705048
406.408535,1554.432478,-6661.853478,1455.581446
406.408863,2960.823768,-7031.956449,2604.724693
406.409190,2516.700203,-7476.080014,1762.019645
406.409518,-370.102971,-8956.491898,1225.752797
406.409845,-1924.535449,-10732.986159,229.828649
406.410173,-3701.029710,-11547.212695,-766.095498
406.410501,-3552.988522,-10658.965565,-919.314598
406.410828,-1776.494261,-10584.944971,-383.047749
406.411156,1480.411884,-9104.533087,689.485948
406.411483,3849.070898,-6809.894666,1455.581446
406.411811,4589.276840,-7031.956449,1915.238745
406.412139,4663.297435,-7846.182985,1378.971896
406.412466,1332.370696,-8882.471304,0.000000
406.412794,-888.247130,-10807.006753,-153.219100
406.413121,-2294.638420,-11769.274478,-612.876398
406.413449,-2368.659014,-10658.965565,-1302.362347
406.413777,-444.123565,-9992.780217,-153.219100
406.414104,2368.659014,-9030.512492,1149.143247
406.414432,3849.070898,-7402.059420,2068.457845
406.414759,4515.256246,-7402.059420,1915.238745
406.415087,2516.700203,-7994.224174,1762.019645
406.415415,-592.164754,-9474.636058,689.485948
406.415742,-2368.659014,-10881.027347,306.438199
406.416070,-4071.132681,-10955.047942,-383.047749
406.416397,-3478.967927,-10436.903782,0.000000
406.416725,-1554.432478,-9474.636058,995.924147
406.417053,370.102971,-8290.306550,1455.581446
406.417380,1776.494261,-6883.915261,1608.800546
406.417708,2294.638420,-7328.038826,2068.457845
406.418035,740.205942,-8438.347739,1225.752797
406.418363,-2886.803174,-8808.450710,229.828649
406.418691,-4145.153275,-10658.965565,-536.266849
406.419018,-5329.482782,-10955.047942,-842.705048
406.419346,-5107.421000,-9992.780217,-689.485948
406.419673,-2368.659014,-9696.697840,76.609550
406.420001,-518.144159,-8216.285956,689.485948
406.420329,2072.576638,-6957.935855,1072.533697
406.420656,2738.761985,-6957.935855,1762.019645
406.420984,1776.494261,-7550.100608,995.924147
406.421311,-592.164754,-8956.491898,229.828649
406.421639,-1850.514855,-10658.965565,-229.828649
406.421967,-3034.844362,-11695.253884,-1225.752797
406.422294,-3108.864956,-10658.965565,-766.095498
406.422622,-814.226536,-10584.944971,-766.095498
406.422949,1036.288319,-9178.553681,306.438199
406.423277,4145.153275,-7698.141797,1149.143247
406.423605,4737.318029,-7105.977043,919.314598
406.423932,4293.194464,-7920.203579,919.314598
406.424260,1480.411884,-9696.697840,459.657299
406.424587,-666.185348,-10955.047942,0.000000
406.424915,-2146.597232,-10955.047942,-229.828649
406.425243,-1480.411884,-10510.924376,0.000000
406.425570,222.061783,-9844.739029,612.876398
406.425898,2294.638420,-8512.368333,1685.410096
406.426225,4145.153275,-7550.100608,2451.505594
406.426553,4367.215058,-7550.100608,2911.162892
406.426881,2738.761985,-7772.162391,2911.162892
406.427208,-296.082377,-9252.574275,1378.971896
406.427536,-2516.700203,-10658.965565,612.876398
406.427863,-4145.153275,-10881.027347,0.000000
406.428191,-4071.132681,-10362.883188,306.438199
406.428518,-2442.679609,-8956.491898,919.314598
406.428846,-444.123565,-7846.182985,1302.362347
406.429174,740.205942,-7254.018232,2298.286494
406.429501,518.144159,-7105.977043,2068.457845
406.429829,-962.267725,-7402.059420,1302.362347
406.430156,-2738.761985,-8882.471304,0.000000
406.430484,-4811.338623,-9770.718434,-383.047749
406.430812,-5847.626942,-10658.965565,-919.314598
406.431139,-5551.544565,-10288.862594,-766.095498
406.431467,-3034.844362,-9326.594869,0.000000
406.431794,-296.082377,-7846.182985,1072.533697
406.432122,1850.514855,-6365.771101,1225.752797
406.432450,2812.782580,-6513.812290,1991.848295
406.432777,2442.679609,-7328.038826,919.314598
406.433105,148.041188,-8512.368333,383.047749
406.433432,-1332.370696,-11103.089130,153.219100
406.433760,-2886.803174,-11029.068536,-306.438199
406.434088,-2368.659014,-10807.006753,-689.485948
406.434415,-888.247130,-10584.944971,-459.657299
406.434743,2072.576638,-8734.430116,689.485948
406.435070,4515.256246,-7105.977043,1072.533697
406.435398,4885.359217,-7105.977043,1762.019645
406.435726,4737.318029,-7402.059420,1302.362347
406.436053,1702.473667,-9474.636058,153.219100
406.436381,-1184.329507,-10584.944971,-612.876398
406.436708,-2516.700203,-11547.212695,-919.314598
406.437036,-2442.679609,-10436.903782,-1072.533697
406.437364,-740.205942,-9918.759623,-383.047749
406.437691,1998.556043,-8808.450710,1149.143247
406.438019,3478.967927,-6957.935855,1378.971896
406.438346,3849.070898,-7105.977043,2298.286494
406.438674,2442.679609,-8068.244768,1762.019645
406.439002,-1184.329507,-8808.450710,153.219100
406.439329,-2886.803174,-10140.821405,-306.438199
406.439657,-4071.132681,-10584.944971,-689.485948
406.439984,-4219.173869,-9992.780217,-919.314598
406.440312,-1924.535449,-9474.636058,76.609550
406.440640,296.082377,-7328.038826,1302.362347
406.440967,1628.453072,-6587.832884,1455.581446
406.441295,2146.597232,-7105.977043,1915.238745
406.441622,888.247130,-7920.203579,1608.800546
406.441950,-2368.659014,-8882.471304,0.000000
406.442278,-3478.967927,-10510.924376,-306.438199
406.442605,-4737.318029,-10955.047942,-459.657299
406.442933,-4737.318029,-10436.903782,-689.485948
406.443260,-1998.556043,-10214.842000,536.266849
406.443588,740.205942,-9030.512492,1072.533697
406.443916,2368.659014,-7031.956449,2298.286494
406.444243,3478.967927,-7846.182985,2987.772442
406.444571,2220.617826,-8216.285956,1608.800546
406.444898,-518.144159,-9030.512492,536.266849
406.445226,-2368.659014,-10732.986159,0.000000
406.445554,-4219.173869,-11325.150913,-612.876398
406.445881,-4071.132681,-10658.965565,-995.924147
406.446209,-1554.432478,-9844.739029,-229.828649
406.446536,518.144159,-8586.388927,0.000000
406.446864,3330.926739,-6957.935855,1072.533697
406.447192,4737.318029,-7254.018232,1532.190996
406.447519,3034.844362,-7550.100608,1225.752797
406.447847,740.205942,-9252.574275,0.000000
406.448174,-1776.494261,-11325.150913,-766.095498
406.448502,-4071.132681,-11695.253884,-1378.971896
406.448830,-3701.029710,-11177.109724,-1149.143247
406.449157,-592.164754,-9844.739029,0.000000
406.449485,2146.597232,-8734.430116,536.266849
406.449812,4441.235652,-7105.977043,1991.848295
406.450140,5181.441594,-7624.121203,2451.505594
406.450468,3182.885551,-8216.285956,1838.629195
406.450795,0.000000,-8808.450710,766.095498
406.451123,-1998.556043,-10658.965565,0.000000
406.451450,-3849.070898,-11399.171507,-229.828649
406.451778,-2886.803174,-10288.862594,0.000000
406.452106,-666.185348,-9696.697840,919.314598
406.452433,1480.411884,-8512.368333,1838.629195
406.452761,3256.906145,-6661.853478,2987.772442
406.453088,2664.741391,-7402.059420,2681.334243
406.453416,740.205942,-7772.162391,1838.629195
406.453744,-2220.617826,-9030.512492,153.219100
406.454071,-3849.070898,-10807.006753,76.609550
406.454399,-4959.379811,-10510.924376,0.000000
406.454726,-4441.235652,-9770.718434,-229.828649
406.455054,-2442.679609,-9474.636058,536.266849
406.455382,0.000000,-7254.018232,1455.581446
406.455709,1998.556043,-6735.874072,2298.286494
406.456037,1998.556043,-6587.832884,2145.067394
406.456364,666.185348,-7105.977043,1149.143247
406.456692,-1702.473667,-9178.553681,229.828649
406.457020,-3627.009116,-11103.089130,-459.657299
406.457347,-5403.503377,-10732.986159,-1149.143247
406.457675,-3997.112087,-10881.027347,-1072.533697
406.458002,-2072.576638,-9770.718434,-919.314598
406.458330,962.267725,-8216.285956,689.485948
406.458658,3775.050304,-6957.935855,995.924147
406.458985,4219.173869,-6735.874072,1072.533697
406.459313,3627.009116,-7624.121203,919.314598
406.459640,740.205942,-9104.533087,-229.828649
406.459968,-1628.453072,-10658.965565,-919.314598
406.460296,-2442.679609,-11251.130318,-1072.533697
406.460623,-1258.350101,-10732.986159,-536.266849
406.460951,814.226536,-9992.780217,229.828649
406.461278,3923.091493,-9030.512492,2604.724693
406.461606,5329.482782,-7254.018232,1991.848295
406.461934,5181.441594,-7402.059420,2987.772442
406.462261,3775.050304,-8882.471304,2681.334243
406.462589,74.020594,-9844.739029,919.314598
406.462916,-1924.535449,-10955.047942,153.219100
406.463244,-3034.844362,-11473.192101,-306.438199
406.463572,-2442.679609,-10214.842000,0.000000
406.463899,-1406.391290,-9474.636058,612.876398
406.464227,1258.350101,-8364.327145,1838.629195
406.464554,1628.453072,-6661.853478,1685.410096
406.464882,1036.288319,-6809.894666,919.314598
406.465210,-370.102971,-7994.224174,1072.533697
406.465537,-3923.091493,-8808.450710,-306.438199
406.465865,-5847.626942,-10288.862594,-919.314598
406.466192,-6365.771101,-10436.903782,-842.705048
406.466520,-5477.523971,-9622.677246,-766.095498
406.466848,-3701.029710,-9030.512492,0.000000
406.467175,-592.164754,-8068.244768,1149.143247
406.467503,1036.288319,-6217.729913,1149.143247
406.467830,1776.494261,-6809.894666,1685.410096
406.468158,1332.370696,-7550.100608,842.705048
406.468486,-1036.288319,-8512.368333,0.000000
406.468813,-3034.844362,-10288.862594,-459.657299
406.469141,-3108.864956,-11473.192101,-536.266849
406.469468,-2590.720797,-10732.986159,-919.314598
406.469796,-370.102971,-9770.718434,76.609550
406.470123,2664.741391,-8586.388927,1455.581446
406.470451,4441.235652,-7402.059420,1072.533697
406.470779,5477.523971,-7920.203579,1762.019645
406.471106,4219.173869,-8808.450710,1455.581446
406.471434,1184.329507,-9770.718434,-306.438199
406.471761,-1480.411884,-11251.130318,-153.219100
406.472089,-2294.638420,-11251.130318,-995.924147
406.472417,-2072.576638,-10881.027347,-536.266849
406.472744,666.185348,-9770.718434,229.828649
406.473072,3256.906145,-8586.388927,1072.533697
406.473399,4589.276840,-7179.997637,1762.019645
406.473727,4663.297435,-7179.997637,2145.067394
406.474055,2368.659014,-7994.224174,1685.410096
406.474382,-962.267725,-9548.656652,612.876398
406.474710,-3034.844362,-11029.068536,0.000000
406.475037,-4071.132681,-11177.109724,76.609550
406.475365,-3701.029710,-9992.780217,-229.828649
406.475693,-1332.370696,-9400.615463,842.705048
406.476020,148.041188,-7920.203579,1378.971896
406.476348,1924.535449,-7179.997637,1915.238745
406.476675,1628.453072,-7031.956449,1378.971896
406.477003,-370.102971,-8290.306550,995.924147
406.477331,-2664.741391,-9622.677246,0.000000
406.477658,-4737.318029,-10807.006753,-612.876398
406.477986,-5181.441594,-11621.233289,-459.657299
406.478313,-4219.173869,-10881.027347,153.219100
406.478641,-2072.576638,-9474.636058,612.876398
406.478969,370.102971,-8512.368333,1608.800546
406.479296,2516.700203,-7328.038826,2298.286494
406.479624,2664.741391,-7105.977043,2068.457845
406.479951,1702.473667,-8290.306550,1455.581446
406.480279,-370.102971,-9992.780217,0.000000
406.480607,-2738.761985,-10658.965565,-612.876398
406.480934,-4071.132681,-11325.150913,-536.266849
406.481262,-2886.803174,-11177.109724,-153.219100
406.481589,-1036.288319,-9844.739029,306.438199
406.481917,1850.514855,-8438.347739,1072.533697
406.482245,3849.070898,-6735.874072,1532.190996
406.482572,4737.318029,-6957.935855,995.924147
406.482900,3108.864956,-8068.244768,459.657299
406.483227,148.041188,-9844.739029,-306.438199
406.483555,-1702.473667,-11325.150913,-842.705048
406.483883,-3627.009116,-11547.212695,-995.924147
406.484210,-2738.761985,-11103.089130,-536.266849
406.484538,-296.082377,-9770.718434,0.000000
406.484865,2368.659014,-7698.141797,1072.533697
406.485193,4737.318029,-6661.853478,1838.629195
406.485521,4219.173869,-5921.647536,2068.457845
406.485848,3108.864956,-7476.080014,1225.752797
406.486176,74.020594,-9252.574275,229.828649
406.486503,-2368.659014,-10436.903782,-536.266849
406.486831,-3701.029710,-10807.006753,-383.047749
406.487159,-2664.741391,-10510.924376,0.000000
406.487486,0.000000,-9104.533087,766.095498
406.487814,1036.288319,-7402.059420,1608.800546
406.488141,2590.720797,-6661.853478,2451.505594
406.488469,2146.597232,-6883.915261,1915.238745
406.488797,444.123565,-8142.265362,1532.190996
406.489124,-1628.453072,-9326.594869,153.219100
406.489452,-3923.091493,-11029.068536,-306.438199
406.489779,-5255.462188,-10807.006753,-536.266849
406.490107,-3775.050304,-9992.780217,76.609550
406.490435,-1406.391290,-8512.368333,1378.971896
406.490762,962.267725,-6661.853478,2451.505594
406.491090,2294.638420,-6439.791695,2757.943793
406.491417,1998.556043,-6587.832884,2451.505594
406.491745,0.000000,-7550.100608,1378.971896
406.492073,-1924.535449,-9696.697840,612.876398
406.492400,-3923.091493,-11103.089130,229.828649
406.492728,-5255.462188,-11177.109724,-766.095498
406.493055,-3923.091493,-10510.924376,-459.657299
406.493383,-1702.473667,-9474.636058,76.609550
406.493711,666.185348,-7402.059420,612.876398
406.494038,3478.967927,-6957.935855,1378.971896
406.494366,3182.885551,-6883.915261,919.314598
406.494693,1480.411884,-7624.121203,0.000000
406.495021,-740.205942,-10066.800811,-306.438199
406.495349,-3034.844362,-11547.212695,-1302.362347
406.495676,-4071.132681,-11251.130318,-1608.800546
406.496004,-2220.617826,-11251.130318,-919.314598
406.496331,0.000000,-9844.739029,-689.485948
406.496659,2590.720797,-7846.182985,689.485948
406.496987,5551.544565,-7179.997637,1838.629195
406.497314,5255.462188,-8142.265362,1532.190996
406.497642,3034.844362,-8734.430116,766.095498
406.497969,370.102971,-10362.883188,459.657299
406.498297,-1554.432478,-11473.192101,-306.438199
406.498625,-2294.638420,-11325.150913,-383.047749
406.498952,-666.185348,-11177.109724,0.000000
406.499280,296.082377,-9696.697840,459.657299
406.499607,3404.947333,-8882.471304,1838.629195
406.499935,3849.070898,-7402.059420,1915.238745
406.500263,2072.576638,-7920.203579,1608.800546
406.500590,444.123565,-9104.533087,1225.752797
406.500918,-3034.844362,-9992.780217,-383.047749
406.501245,-4515.256246,-11029.068536,-842.705048
406.501573,-4737.318029,-11103.089130,-842.705048
406.501901,-3775.050304,-10362.883188,-536.266849
406.502228,-1628.453072,-9104.533087,459.657299
406.502556,1628.453072,-7624.121203,1762.019645
406.502883,2220.617826,-6143.709319,1455.581446
406.503211,1258.350101,-7254.018232,1915.238745
406.503539,-222.061783,-8438.347739,1378.971896
406.503866,-3256.906145,-9622.677246,0.000000
406.504194,-4515.256246,-10732.986159,0.000000
406.504521,-4515.256246,-10955.047942,-612.876398
406.504849,-3478.967927,-10140.821405,-229.828649
406.505177,-1406.391290,-9104.533087,306.438199
406.505504,1332.370696,-7550.100608,766.095498
406.505832,3330.926739,-6439.791695,1302.362347
406.506159,3627.009116,-6883.915261,1302.362347
406.506487,1850.514855,-7994.224174,689.485948
406.506815,-1036.288319,-9770.718434,-229.828649
406.507142,-2812.782580,-10955.047942,-842.705048
406.507470,-3997.112087,-11177.109724,-1225.752797
406.507797,-2146.597232,-10362.883188,-229.828649
406.508125,1036.288319,-9326.594869,459.657299
406.508453,4071.132681,-7179.997637,1608.800546
406.508780,5699.585753,-6513.812290,2528.115143
406.509108,5625.565159,-6883.915261,2451.505594
406.509435,2886.803174,-7920.203579,2068.457845
406.509763,0.000000,-9548.656652,1072.533697
406.510090,-2220.617826,-10362.883188,0.000000
406.510418,-2960.823768,-10807.006753,0.000000
406.510746,-1628.453072,-10436.903782,306.438199
406.511073,444.123565,-8734.430116,919.314598
406.511401,2072.576638,-7254.018232,2145.067394
406.511728,3256.906145,-6661.853478,2374.896044
406.512056,2368.659014,-7105.977043,2068.457845
406.512384,-444.123565,-8512.368333,766.095498
406.512711,-3256.906145,-9696.697840,0.000000
406.513039,-5181.441594,-10658.965565,-153.219100
406.513366,-5329.482782,-11177.109724,-689.485948
406.513694,-3701.029710,-10140.821405,229.828649
406.514021,-1850.514855,-9030.512492,536.266849
406.514349,1258.350101,-7698.141797,2145.067394
406.514677,1924.535449,-6809.894666,1915.238745
406.515004,962.267725,-7105.977043,1685.410096
406.515332,-444.123565,-8734.430116,1072.533697
406.515659,-3330.926739,-9770.718434,-153.219100
406.515987,-3923.091493,-11769.274478,-306.438199
406.516315,-4071.132681,-11177.109724,-459.657299
406.516642,-3256.906145,-10436.903782,-612.876398
406.516970,0.000000,-9696.697840,842.705048
406.517297,2368.659014,-7550.100608,1072.533697
406.517625,3182.885551,-7476.080014,1225.752797
406.517952,3923.091493,-7846.182985,1455.581446
406.518280,1998.556043,-9252.574275,842.705048
406.518608,-740.205942,-10732.986159,-536.266849
406.518935,-2368.659014,-12213.398043,-536.266849
406.519263,-3478.967927,-11917.315666,-1455.581446
406.519590,-1998.556043,-11103.089130,-536.266849
406.519918,740.205942,-9770.718434,459.657299
406.520246,3330.926739,-7920.203579,842.705048
406.520573,4885.359217,-7179.997637,2221.676944
406.520901,4737.318029,-7772.162391,1838.629195
406.521228,1850.514855,-8512.368333,1532.190996
406.521556,-592.164754,-10510.924376,229.828649
406.521883,-2442.679609,-11547.212695,0.000000
406.522211,-3552.988522,-11029.068536,-459.657299
406.522539,-1850.514855,-10584.944971,306.438199
406.522866,0.000000,-9400.615463,689.485948
406.523194,1776.494261,-7402.059420,1685.410096
406.523521,3478.967927,-7624.121203,2451.505594
406.523849,2072.576638,-7031.956449,1685.410096
406.524177,-518.144159,-7698.141797,995.924147
406.524504,-2664.741391,-9548.656652,76.609550
406.524832,-4515.256246,-10658.965565,-459.657299
406.525159,-5033.400406,-10288.862594,-459.657299
406.525487,-2886.803174,-9474.636058,0.000000
406.525814,-1628.453072,-8290.306550,459.657299
406.526142,1258.350101,-7328.038826,1838.629195
406.526470,2368.659014,-6291.750507,2068.457845
406.526797,1480.411884,-6143.709319,1762.019645
406.527125,-296.082377,-7994.224174,1762.019645
406.527452,-2590.720797,-9474.636058,459.657299
406.527780,-4367.215058,-10288.862594,-383.047749
406.528108,-4293.194464,-10881.027347,-459.657299
406.528435,-2812.782580,-9548.656652,-459.657299
406.528763,-1036.288319,-8068.244768,229.828649
406.529090,2146.597232,-7328.038826,1302.362347
406.529418,3478.967927,-5921.647536,1072.533697
406.529745,3256.906145,-6513.812290,1149.143247
406.530073,1628.453072,-8364.327145,612.876398
406.530401,-1406.391290,-9252.574275,-1225.752797
406.530728,-3627.009116,-11029.068536,-1225.752797
406.531056,-3627.009116,-11473.192101,-1225.752797
406.531383,-1998.556043,-9844.739029,-842.705048
406.531711,1184.329507,-9104.533087,306.438199
406.532039,4589.276840,-7624.121203,1072.533697
406.532366,5329.482782,-6661.853478,1532.190996
406.532694,4663.297435,-7328.038826,1608.800546
406.533021,2220.617826,-8808.450710,919.314598
406.533349,-888.247130,-10214.842000,0.000000
406.533676,-3256.906145,-11399.171507,-689.485948
406.534004,-3552.988522,-11177.109724,-842.705048
406.534332,-2072.576638,-10584.944971,-612.876398
406.534659,370.102971,-9104.533087,459.657299
406.534987,2442.679609,-7402.059420,1225.752797
406.535314,3997.112087,-7179.997637,1762.019645
406.535642,2738.761985,-7179.997637,1149.143247
406.535970,296.082377,-8882.471304,459.657299
406.536297,-2368.659014,-10584.944971,-766.095498
406.536625,-4441.235652,-11399.171507,-919.314598
406.536952,-4219.173869,-11621.233289,-689.485948
406.537280,-2294.638420,-10658.965565,1149.143247
406.537607,-444.123565,-9104.533087,1378.971896
406.537935,1554.432478,-7624.121203,2145.067394
406.538263,2664.741391,-7624.121203,2604.724693
406.538590,1406.391290,-7920.203579,1762.019645
406.538918,-592.164754,-9104.533087,1072.533697
406.539245,-2812.782580,-10584.944971,153.219100
406.539573,-4441.235652,-11769.274478,-459.657299
406.539901,-4737.318029,-11103.089130,-536.266849
406.540228,-3330.926739,-10658.965565,-306.438199
406.540556,-296.082377,-8438.347739,919.314598
406.540883,2146.597232,-7328.038826,1685.410096
406.541211,2664.741391,-7105.977043,2221.676944
406.541538,2442.679609,-7328.038826,1455.581446
406.541866,444.123565,-8956.491898,459.657299
406.542194,-2220.617826,-10732.986159,-153.219100
406.542521,-3478.967927,-11547.212695,-306.438199
406.542849,-3552.988522,-10658.965565,-612.876398
406.543176,-1628.453072,-10288.862594,153.219100
406.543504,1702.473667,-9178.553681,1838.629195
406.543832,3478.967927,-6809.894666,1608.800546
406.544159,4367.215058,-6883.915261,2451.505594
406.544487,3552.988522,-7476.080014,2374.896044
406.544814,222.061783,-8364.327145,842.705048
406.545142,-1776.494261,-10066.800811,306.438199
406.545469,-3034.844362,-10807.006753,-229.828649
406.545797,-3701.029710,-10510.924376,-459.657299
406.546125,-1702.473667,-9622.677246,0.000000
406.546452,0.000000,-8586.388927,766.095498
406.546780,1850.514855,-6735.874072,919.314598
406.547107,2590.720797,-6587.832884,1685.410096
406.547435,1628.453072,-6735.874072,1608.800546
406.547763,-962.267725,-7254.018232,153.219100
406.548090,-2664.741391,-9844.739029,0.000000
406.548418,-3923.091493,-10362.883188,-766.095498
406.548745,-4145.153275,-9548.656652,-689.485948
406.549073,-1628.453072,-9474.636058,306.438199
406.549400,370.102971,-8142.265362,842.705048
406.549728,2294.638420,-6735.874072,1455.581446
406.550056,2886.803174,-6513.812290,2145.067394
406.550383,1850.514855,-7402.059420,1532.190996
406.550711,0.000000,-8068.244768,1072.533697
406.551038,-1406.391290,-9696.697840,-229.828649
406.551366,-3330.926739,-10881.027347,-689.485948
406.551694,-3404.947333,-10732.986159,-383.047749
406.552021,-1554.432478,-10140.821405,-306.438199
406.552349,-296.082377,-8660.409521,229.828649
406.552676,2590.720797,-7254.018232,1378.971896
406.553004,3404.947333,-6957.935855,1302.362347
406.553331,2368.659014,-7698.141797,919.314598
406.553659,0.000000,-9030.512492,383.047749
406.553987,-2220.617826,-10807.006753,-383.047749
406.554314,-4219.173869,-10807.006753,-1608.800546
406.554642,-3849.070898,-10955.047942,-766.095498
406.554969,-2146.597232,-10436.903782,0.000000
406.555297,74.020594,-8734.430116,536.266849
406.555625,2442.679609,-7402.059420,1378.971896
406.555952,3997.112087,-7105.977043,1838.629195
406.556280,2886.803174,-7031.956449,1685.410096
406.556607,1036.288319,-8734.430116,842.705048
406.556935,-1406.391290,-10658.965565,0.000000
406.557263,-3256.906145,-11103.089130,-536.266849
406.557590,-3701.029710,-11177.109724,-612.876398
406.557918,-1702.473667,-9992.780217,76.609550
406.558245,-370.102971,-8956.491898,766.095498
406.558573,1924.535449,-7846.182985,1302.362347
406.558900,3108.864956,-7624.121203,1608.800546
406.559228,2146.597232,-7476.080014,919.314598
406.559556,0.000000,-9326.594869,229.828649
406.559883,-1628.453072,-10955.047942,0.000000
406.560211,-3256.906145,-11177.109724,-689.485948
406.560538,-3997.112087,-10807.006753,-766.095498
406.560866,-1554.432478,-10288.862594,229.828649
406.561194,0.000000,-9104.533087,1149.143247
406.561521,2368.659014,-7328.038826,1532.190996
406.561849,3404.947333,-7254.018232,2221.676944
406.562176,2220.617826,-7920.203579,1685.410096
406.562504,296.082377,-8808.450710,919.314598
406.562831,-1998.556043,-10214.842000,229.828649
406.563159,-3923.091493,-11399.171507,-306.438199
406.563487,-3923.091493,-10584.944971,-689.485948
406.563814,-2294.638420,-10066.800811,-612.876398
406.564142,74.020594,-8512.368333,383.047749
406.564469,2368.659014,-6735.874072,766.095498
406.564797,3997.112087,-6735.874072,1915.238745
406.565125,2590.720797,-7254.018232,1378.971896
406.565452,0.000000,-8586.388927,229.828649
406.565780,-2664.741391,-10732.986159,-306.438199
406.566107,-4367.215058,-11991.336260,-995.924147
406.566435,-4293.194464,-10510.924376,-1455.581446
406.566762,-1850.514855,-9992.780217,-153.219100
406.567090,592.164754,-9252.574275,383.047749
406.567418,3034.844362,-7031.956449,1225.752797
406.567745,4737.318029,-6883.915261,2298.286494
406.568073,3478.967927,-7476.080014,1378.971896
406.568400,814.226536,-8364.327145,1149.143247
406.568728,-1480.411884,-10807.006753,0.000000
406.569056,-3478.967927,-11251.130318,-766.095498
406.569383,-4293.194464,-10732.986159,-1149.143247
406.569711,-1702.473667,-10214.842000,153.219100
406.570038,370.102971,-9400.615463,766.095498
406.570366,2368.659014,-7698.141797,919.314598
406.570693,3775.050304,-7698.141797,2221.676944
406.571021,1924.535449,-8216.285956,1378.971896
406.571349,-518.144159,-9178.553681,306.438199
406.571676,-2368.659014,-10955.047942,-229.828649
406.572004,-4441.235652,-11103.089130,-459.657299
406.572331,-3923.091493,-10807.006753,-459.657299
406.572659,-1332.370696,-10436.903782,536.266849
406.572987,444.123565,-8734.430116,1225.752797
406.573314,2516.700203,-7254.018232,2145.067394
406.573642,3775.050304,-7179.997637,2911.162892
406.573969,2072.576638,-7698.141797,2374.896044
406.574297,-962.267725,-8956.491898,995.924147
406.574624,-2368.659014,-10955.047942,459.657299
406.574952,-3997.112087,-11473.192101,0.000000
406.575280,-3923.091493,-10584.944971,-459.657299
406.575607,-1406.391290,-9622.677246,766.095498
406.575935,740.205942,-8586.388927,1378.971896
406.576262,3108.864956,-7179.997637,2298.286494
406.576590,3997.112087,-7105.977043,2528.115143
406.576918,1776.494261,-7698.141797,1149.143247
406.577245,-1110.308913,-8586.388927,1072.533697
406.577573,-3182.885551,-10732.986159,0.000000
406.577900,-4885.359217,-11251.130318,-1149.143247
406.578228,-4441.235652,-10214.842000,-842.705048
406.578555,-1184.329507,-9474.636058,0.000000
406.578883,666.185348,-7624.121203,1378.971896
406.579211,3552.988522,-6661.853478,2298.286494
406.579538,4293.194464,-6883.915261,2451.505594
406.579866,2516.700203,-7772.162391,1762.019645
406.580193,-222.061783,-9178.553681,919.314598
406.580521,-2590.720797,-10288.862594,0.000000
406.580849,-4589.276840,-11251.130318,-766.095498
406.581176,-3701.029710,-10510.924376,-459.657299
406.581504,-1036.288319,-9400.615463,0.000000
406.581831,666.185348,-8216.285956,536.266849
406.582159,3108.864956,-6587.832884,1072.533697
406.582486,3849.070898,-6883.915261,1608.800546
406.582814,1998.556043,-7254.018232,689.485948
406.583142,-592.164754,-8586.388927,-153.219100
406.583469,-2220.617826,-10584.944971,-689.485948
406.583797,-4219.173869,-10436.903782,-919.314598
406.584124,-3552.988522,-9918.759623,-1072.533697
406.584452,-1628.453072,-9474.636058,-612.876398
406.584780,962.267725,-7550.100608,842.705048
406.585107,3256.906145,-7031.956449,1762.019645
406.585435,3849.070898,-7031.956449,2374.896044
406.585762,2442.679609,-7105.977043,1532.190996
406.586090,74.020594,-9400.615463,459.657299
406.586417,-2294.638420,-10955.047942,-153.219100
406.586745,-4145.153275,-10658.965565,-612.876398
406.587073,-3108.864956,-10436.903782,-306.438199
406.587400,-1332.370696,-9696.697840,0.000000
406.587728,1184.329507,-7994.224174,612.876398
406.588055,3478.967927,-6883.915261,1608.800546
406.588383,3404.947333,-7105.977043,1838.629195
406.588711,2590.720797,-7476.080014,1532.190996
406.589038,-666.185348,-9178.553681,306.438199
406.589366,-3330.926739,-11547.212695,-995.924147
406.589693,-4811.338623,-11473.192101,-1072.533697
406.590021,-4367.215058,-11251.130318,-1378.971896
406.590348,-2368.659014,-9992.780217,-689.485948
406.590676,1258.350101,-8068.244768,766.095498
406.591004,3552.988522,-6957.935855,1762.019645
406.591331,3997.112087,-6957.935855,2451.505594
406.591659,2812.782580,-7994.224174,2145.067394
406.591986,-740.205942,-9474.636058,536.266849
406.592314,-3330.926739,-11325.150913,-459.657299
406.592642,-4441.235652,-11621.233289,-229.828649
406.592969,-3923.091493,-10881.027347,-766.095498
406.593297,-1850.514855,-10214.842000,153.219100
406.593624,1628.453072,-8882.471304,1685.410096
406.593952,3478.967927,-7402.059420,1991.848295
406.594279,3552.988522,-7402.059420,2298.286494
406.594607,2368.659014,-8586.388927,1685.410096
406.594935,-1036.288319,-9622.677246,0.000000
406.595262,-3330.926739,-11547.212695,-536.266849
406.595590,-4219.173869,-11473.192101,-766.095498
406.595917,-3330.926739,-10436.903782,-689.485948
406.596245,-1480.411884,-9696.697840,0.000000
406.596573,1702.473667,-8290.306550,1762.019645
406.596900,3552.988522,-7179.997637,2451.505594
406.597228,2960.823768,-7105.977043,2528.115143
406.597555,1998.556043,-7772.162391,2374.896044
406.597883,-814.226536,-9400.615463,459.657299
406.598210,-3034.844362,-10732.986159,-229.828649
406.598538,-4145.153275,-10436.903782,-153.219100
406.598866,-2812.782580,-9992.780217,76.609550
406.599193,-888.247130,-9030.512492,229.828649
406.599521,1998.556043,-7772.162391,1378.971896
406.599848,3404.947333,-6809.894666,2145.067394
406.600176,2886.803174,-6809.894666,2145.067394
406.600504,1850.514855,-7550.100608,1685.410096
406.600831,-1258.350101,-9474.636058,0.000000
406.601159,-4071.132681,-10436.903782,0.000000
406.601486,-4441.235652,-10584.944971,-689.485948
406.601814,-3182.885551,-10066.800811,-689.485948
406.602141,-1258.350101,-9030.512492,0.000000
406.602469,2072.576638,-7772.162391,1762.019645
406.602797,3182.885551,-6069.688724,1915.238745
406.603124,3256.906145,-6439.791695,1915.238745
406.603452,1850.514855,-7920.203579,1762.019645
406.603779,-1554.432478,-9252.574275,76.609550
406.604107,-3404.947333,-10955.047942,-689.485948
406.604435,-3775.050304,-10807.006753,0.000000
406.604762,-2590.720797,-10140.821405,-766.095498
406.605090,-1110.308913,-9474.636058,229.828649
406.605417,2072.576638,-8364.327145,1149.143247
406.605745,3108.864956,-6957.935855,1149.143247
406.606072,3330.926739,-7476.080014,1149.143247
406.606400,1776.494261,-7846.182985,1072.533697
406.606728,-962.267725,-9400.615463,-536.266849
406.607055,-2886.803174,-11177.109724,-689.485948
406.607380,-3330.926739,-11325.150913,-919.314598
406.607707,-2738.761985,-10362.883188,-689.485948
406.608035,-296.082377,-9770.718434,-306.438199
406.608363,2220.617826,-8808.450710,1225.752797
406.608690,3108.864956,-7254.018232,1378.971896
406.609018,3182.885551,-7476.080014,1762.019645
406.609345,2146.597232,-8734.430116,1378.971896
406.609673,-518.144159,-9252.574275,459.657299
406.610000,-2886.803174,-10807.006753,0.000000
406.610328,-3478.967927,-11547.212695,0.000000
406.610655,-3034.844362,-10658.965565,-536.266849
406.610983,-1036.288319,-9844.739029,229.828649
406.611310,1924.535449,-8364.327145,1225.752797
406.611638,2886.803174,-6957.935855,1455.581446
406.611965,3478.967927,-7328.038826,1991.848295
406.612293,2072.576638,-8586.388927,1532.190996
406.612620,-1184.329507,-9696.697840,229.828649
406.612948,-2960.823768,-11177.109724,0.000000
406.613276,-3404.947333,-11251.130318,-306.438199
406.613603,-3108.864956,-10288.862594,0.000000
406.613931,-222.061783,-9400.615463,1072.533697
406.614258,2294.638420,-8290.306550,1915.238745
406.614586,3552.988522,-7179.997637,2528.115143
406.614913,3478.967927,-7476.080014,2911.162892
406.615241,1406.391290,-8364.327145,2068.457845
406.615568,-1702.473667,-10214.842000,1225.752797
406.615896,-3997.112087,-11325.150913,0.000000
406.616223,-4811.338623,-11473.192101,-229.828649
406.616551,-3997.112087,-10732.986159,612.876398
406.616878,-1554.432478,-9474.636058,536.266849
406.617206,370.102971,-7920.203579,1149.143247
406.617534,2368.659014,-7105.977043,1685.410096
406.617861,1998.556043,-6587.832884,1149.143247
406.618189,592.164754,-7402.059420,612.876398
406.618516,-1628.453072,-9030.512492,-459.657299
406.618844,-3997.112087,-10288.862594,-1378.971896
406.619171,-4441.235652,-10584.944971,-1072.533697
406.619499,-3034.844362,-10140.821405,-689.485948
406.619826,-962.267725,-9030.512492,0.000000
406.620154,1258.350101,-7550.100608,306.438199
406.620481,2960.823768,-7031.956449,1455.581446
406.620809,3256.906145,-7031.956449,1149.143247
406.621136,1998.556043,-7994.224174,229.828649
406.621464,444.123565,-9474.636058,-306.438199
406.621791,-1036.288319,-10955.047942,-766.095498
406.622119,-2442.679609,-10584.944971,-1302.362347
406.622447,-1480.411884,-10362.883188,-842.705048
406.622774,222.061783,-9548.656652,-306.438199
406.623102,2368.659014,-7402.059420,383.047749
406.623429,4737.318029,-7624.121203,1149.143247
406.623757,3849.070898,-7476.080014,612.876398
406.624084,1850.514855,-7698.141797,229.828649
406.624412,-444.123565,-10140.821405,-306.438199
406.624739,-2812.782580,-11473.192101,-612.876398
406.625067,-3256.906145,-10510.924376,-919.314598
406.625394,-2072.576638,-10658.965565,-536.266849
406.625722,370.102971,-9548.656652,383.047749
406.626049,2368.659014,-7402.059420,1225.752797
406.626377,3701.029710,-7254.018232,2374.896044
406.626705,2960.823768,-7476.080014,2221.676944
406.627032,592.164754,-7624.121203,1302.362347
406.627360,-1702.473667,-9696.697840,766.095498
406.627687,-3627.009116,-11251.130318,0.000000
406.628015,-4663.297435,-11177.109724,-383.047749
406.628342,-3256.906145,-10955.047942,229.828649
406.628670,-1702.473667,-9400.615463,766.095498
406.628997,444.123565,-8290.306550,2145.067394
406.629325,2294.638420,-7550.100608,2068.457845
406.629652,1036.288319,-8068.244768,1991.848295
406.629980,0.000000,-8734.430116,1302.362347
406.630307,-2368.659014,-10288.862594,229.828649
406.630635,-4145.153275,-11029.068536,-689.485948
406.630963,-4737.318029,-11103.089130,-459.657299
406.631290,-3108.864956,-10807.006753,-153.219100
406.631618,-1702.473667,-9252.574275,153.219100
406.631945,1776.494261,-7476.080014,1455.581446
406.632273,3478.967927,-6883.915261,2068.457845
406.632600,3034.844362,-7402.059420,2298.286494
406.632928,2146.597232,-8364.327145,1915.238745
406.633255,-518.144159,-9770.718434,842.705048
406.633583,-2664.741391,-11029.068536,76.609550
406.633910,-2664.741391,-12065.356855,383.047749
406.634238,-1702.473667,-10362.883188,0.000000
406.634565,296.082377,-9622.677246,689.485948
406.634893,3034.844362,-8364.327145,1991.848295
406.635220,3923.091493,-7179.997637,2221.676944
406.635548,3775.050304,-7402.059420,1838.629195
406.635876,1998.556043,-8290.306550,1455.581446
406.636203,-1110.308913,-9844.739029,76.609550
406.636531,-3108.864956,-10955.047942,-689.485948
406.636858,-3997.112087,-11103.089130,-766.095498
406.637186,-3108.864956,-9844.739029,-153.219100
406.637513,0.000000,-9030.512492,536.266849
406.637841,2220.617826,-7698.141797,1532.190996
406.638168,3256.906145,-6809.894666,2145.067394
406.638496,2738.761985,-6735.874072,2145.067394
406.638823,666.185348,-7920.203579,1455.581446
406.639151,-2220.617826,-9326.594869,306.438199
406.639478,-4589.276840,-10214.842000,-842.705048
406.639806,-4959.379811,-10584.944971,-995.924147
406.640134,-3404.947333,-9548.656652,-766.095498
406.640461,-1110.308913,-8438.347739,229.828649
406.640789,1702.473667,-6883.915261,1532.190996
406.641116,3034.844362,-6439.791695,1378.971896
406.641444,2664.741391,-6735.874072,995.924147
406.641771,1110.308913,-7994.224174,153.219100
406.642099,-1480.411884,-9548.656652,-689.485948
406.642426,-2960.823768,-10436.903782,-1149.143247
406.642754,-3997.112087,-11251.130318,-1532.190996
406.643081,-2516.700203,-10658.965565,-689.485948
406.643409,-518.144159,-9252.574275,0.000000
406.643736,2072.576638,-7846.182985,766.095498
406.644064,3775.050304,-6957.935855,766.095498
406.644391,3552.988522,-7254.018232,1225.752797
406.644719,2368.659014,-8364.327145,536.266849
406.645047,0.000000,-10214.842000,-153.219100
406.645374,-2220.617826,-10807.006753,-766.095498
406.645702,-3182.885551,-11177.109724,-1072.533697
406.646029,-2664.741391,-10362.883188,-383.047749
406.646357,-518.144159,-9030.512492,0.000000
406.646684,2220.617826,-7624.121203,842.705048
406.647012,3627.009116,-6587.832884,1455.581446
406.647339,3478.967927,-7031.956449,1608.800546
406.647667,1776.494261,-7550.100608,612.876398
406.647994,-1554.432478,-9696.697840,-306.438199
406.648322,-3701.029710,-11473.192101,-383.047749
406.648649,-4737.318029,-10955.047942,-1149.143247
406.648977,-3182.885551,-10140.821405,-766.095498
406.649305,148.041188,-8586.388927,1532.190996
406.649632,2738.761985,-7402.059420,2298.286494
406.649960,3775.050304,-6735.874072,2911.162892
406.650287,3108.864956,-7550.100608,3370.820191
406.650615,296.082377,-8438.347739,1915.238745
406.650942,-2294.638420,-10510.924376,1532.190996
406.651270,-4367.215058,-11917.315666,919.314598
406.651597,-5847.626942,-11547.212695,-306.438199
406.651925,-3775.050304,-10881.027347,229.828649
406.652252,-814.226536,-9770.718434,1762.019645
406.652580,1406.391290,-7402.059420,2068.457845
406.652907,3108.864956,-6365.771101,2987.772442
406.653235,2220.617826,-7105.977043,2145.067394
406.653562,-888.247130,-8290.306550,612.876398
406.653890,-3108.864956,-9770.718434,-153.219100
406.654218,-4589.276840,-11177.109724,-459.657299
406.654545,-4959.379811,-10362.883188,-1532.190996
406.654873,-3108.864956,-10510.924376,-459.657299
406.655200,0.000000,-9622.677246,459.657299
406.655528,1776.494261,-7328.038826,1072.533697
406.655855,3552.988522,-7254.018232,2145.067394
406.656183,3701.029710,-7698.141797,2068.457845
406.656510,444.123565,-8364.327145,76.609550
406.656838,-962.267725,-10658.965565,-153.219100
406.657165,-2442.679609,-11547.212695,-919.314598
406.657493,-3701.029710,-10881.027347,-1762.019645
406.657820,-1110.308913,-10807.006753,-1225.752797
406.658148,1110.308913,-9474.636058,-612.876398
406.658476,3404.947333,-7698.141797,383.047749
406.658803,5403.503377,-7476.080014,1455.581446
406.659131,3701.029710,-7624.121203,995.924147
406.659458,1776.494261,-8808.450710,459.657299
406.659786,-592.164754,-10436.903782,-919.314598
406.660113,-3108.864956,-11325.150913,-995.924147
406.660441,-2368.659014,-11029.068536,-536.266849
406.660768,-296.082377,-10214.842000,229.828649
406.661096,1110.308913,-8734.430116,1072.533697
406.661423,3627.009116,-7698.141797,2604.724693
406.661751,4145.153275,-6883.915261,2987.772442
406.662078,2738.761985,-7402.059420,2528.115143
406.662406,518.144159,-8438.347739,1991.848295
406.662734,-2664.741391,-9548.656652,229.828649
406.663061,-4737.318029,-10214.842000,766.095498
406.663389,-3997.112087,-10288.862594,153.219100
406.663716,-2738.761985,-9400.615463,306.438199
406.664044,-962.267725,-8216.285956,1225.752797
406.664371,962.267725,-7402.059420,1991.848295
406.664699,1110.308913,-6587.832884,2298.286494
406.665026,74.020594,-7031.956449,1532.190996
406.665354,-1924.535449,-8290.306550,612.876398
406.665681,-4293.194464,-9400.615463,-536.266849
406.666009,-5921.647536,-10658.965565,-919.314598
406.666336,-5477.523971,-10584.944971,-842.705048
406.666664,-3552.988522,-9030.512492,-766.095498
406.666991,-1036.288319,-7994.224174,0.000000
406.667319,1776.494261,-7254.018232,689.485948
406.667647,3256.906145,-6587.832884,1378.971896
406.667974,3330.926739,-7105.977043,1225.752797
406.668302,1850.514855,-8586.388927,842.705048
406.668629,0.000000,-9844.739029,-306.438199
406.668957,-1702.473667,-10955.047942,-766.095498
406.669284,-2442.679609,-11399.171507,-689.485948
406.669612,-740.205942,-10658.965565,0.000000
406.669939,1480.411884,-9252.574275,0.000000
406.670267,4145.153275,-7476.080014,1532.190996
406.670594,5921.647536,-7698.141797,1915.238745
406.670922,4663.297435,-8068.244768,1532.190996
406.671249,2220.617826,-9104.533087,612.876398
406.671577,0.000000,-10510.924376,306.438199
406.671905,-2368.659014,-11103.089130,-306.438199
406.672232,-3701.029710,-11177.109724,-689.485948
406.672560,-1554.432478,-10510.924376,306.438199
406.672887,518.144159,-9104.533087,1072.533697
406.673215,2368.659014,-7254.018232,2068.457845
406.673542,3478.967927,-7624.121203,2451.505594
406.673870,1702.473667,-7698.141797,2145.067394
406.674197,-1036.288319,-8216.285956,1225.752797
406.674525,-3775.050304,-10362.883188,383.047749
406.674852,-5551.544565,-11325.150913,-459.657299
406.675180,-5403.503377,-9844.739029,-459.657299
406.675507,-3997.112087,-9622.677246,-229.828649
406.675835,-1258.350101,-8808.450710,1072.533697
406.676162,666.185348,-6883.915261,1149.143247
406.676490,1702.473667,-6883.915261,1915.238745
406.676818,1332.370696,-7254.018232,1762.019645
406.677145,-962.267725,-8290.306550,306.438199
406.677473,-2960.823768,-10732.986159,0.000000
406.677800,-4293.194464,-11843.295072,-536.266849
406.678128,-4293.194464,-11103.089130,-1225.752797
406.678455,-2294.638420,-10955.047942,-306.438199
406.678783,962.267725,-9992.780217,1149.143247
406.679110,2368.659014,-7624.121203,1072.533697
406.679438,4367.215058,-7550.100608,1762.019645
406.679765,3923.091493,-7994.224174,1915.238745
406.680093,1554.432478,-8808.450710,383.047749
406.680420,-444.123565,-11029.068536,-536.266849
406.680748,-1924.535449,-11399.171507,-766.095498
406.681076,-3108.864956,-10807.006753,-1149.143247
406.681403,-962.267725,-10510.924376,-306.438199
406.681731,1110.308913,-9252.574275,0.000000
406.682058,3552.988522,-7476.080014,1532.190996
406.682386,5033.400406,-6957.935855,2451.505594
406.682713,3923.091493,-7402.059420,1532.190996
406.683041,1332.370696,-8290.306550,612.876398
406.683368,-1332.370696,-10140.821405,-383.047749
406.683696,-3701.029710,-10584.944971,-766.095498
406.684023,-3997.112087,-10140.821405,-383.047749
406.684351,-1554.432478,-9696.697840,76.609550
406.684678,296.082377,-8142.265362,842.705048
406.685006,2812.782580,-6735.874072,2068.457845
406.685334,3849.070898,-7105.977043,2911.162892
406.685661,2220.617826,-7772.162391,2374.896044
406.685989,-888.247130,-8586.388927,1532.190996
406.686316,-3256.906145,-10436.903782,383.047749
406.686644,-4737.318029,-11029.068536,153.219100
406.686971,-4737.318029,-10140.821405,0.000000
406.687299,-1924.535449,-9474.636058,766.095498
406.687626,-444.123565,-8290.306550,919.314598
406.687954,1554.432478,-7031.956449,2221.676944
406.688281,2442.679609,-7328.038826,2451.505594
406.688609,370.102971,-7328.038826,1455.581446
406.688936,-1036.288319,-8290.306550,995.924147
406.689264,-3108.864956,-10436.903782,0.000000
406.689591,-5107.421000,-11029.068536,-766.095498
406.689919,-4811.338623,-10066.800811,-689.485948
406.690247,-2368.659014,-9696.697840,-153.219100
406.690574,0.000000,-8068.244768,689.485948
406.690902,2146.597232,-6661.853478,1149.143247
406.691229,3997.112087,-7031.956449,1685.410096
406.691557,2886.803174,-7031.956449,1149.143247
406.691884,666.185348,-8290.306550,612.876398
406.692212,-814.226536,-10510.924376,0.000000
406.692539,-3108.864956,-11029.068536,-229.828649
406.692867,-3182.885551,-10658.965565,-1149.143247
406.693194,-1110.308913,-10584.944971,-689.485948
406.693522,518.144159,-9252.574275,0.000000
406.693849,2812.782580,-7550.100608,459.657299
406.694177,4515.256246,-7476.080014,1455.581446
406.694505,3923.091493,-7920.203579,612.876398
406.694832,1184.329507,-8882.471304,76.609550
406.695160,-740.205942,-10807.006753,-536.266849
406.695487,-3256.906145,-11325.150913,-1225.752797
406.695815,-3627.009116,-10881.027347,-1149.143247
406.696142,-1406.391290,-10584.944971,-153.219100
406.696470,814.226536,-8882.471304,306.438199
406.696797,3552.988522,-7402.059420,1608.800546
406.697125,4959.379811,-7476.080014,2604.724693
406.697452,2960.823768,-7698.141797,2451.505594
406.697780,518.144159,-8808.450710,1915.238745
406.698107,-2516.700203,-11029.068536,689.485948
406.698435,-4441.235652,-11473.192101,0.000000
406.698762,-4441.235652,-10881.027347,0.000000
406.699090,-2072.576638,-10288.862594,459.657299
406.699418,-296.082377,-8364.327145,1915.238745
406.699745,1850.514855,-6661.853478,2298.286494
406.700073,2960.823768,-7031.956449,2451.505594
406.700400,1406.391290,-7476.080014,1838.629195
406.700728,-1628.453072,-8808.450710,1225.752797
406.701055,-3552.988522,-10658.965565,0.000000
406.701383,-5995.668130,-11621.233289,-229.828649
406.701710,-5403.503377,-10732.986159,-1072.533697
406.702038,-3182.885551,-10214.842000,-536.266849
406.702365,-518.144159,-8882.471304,536.266849
406.702693,2294.638420,-6809.894666,1225.752797
406.703020,3404.947333,-7031.956449,1532.190996
406.703348,2072.576638,-7624.121203,1455.581446
406.703676,-444.123565,-8512.368333,153.219100
406.704003,-2442.679609,-10807.006753,-306.438199
406.704331,-4219.173869,-11029.068536,-1072.533697
406.704658,-3849.070898,-10510.924376,-1225.752797
406.704986,-1776.494261,-9918.759623,-1149.143247
406.705313,1036.288319,-8290.306550,229.828649
406.705641,3849.070898,-7550.100608,1072.533697
406.705968,4737.318029,-7179.997637,1378.971896
406.706296,4515.256246,-7328.038826,919.314598
406.706623,1702.473667,-9178.553681,0.000000
406.706951,-1036.288319,-10955.047942,-842.705048
406.707278,-2442.679609,-11325.150913,-1072.533697
406.707606,-2072.576638,-10732.986159,-1072.533697
406.707933,74.020594,-9844.739029,-919.314598
406.708261,2886.803174,-8364.327145,1608.800546
406.708589,4663.297435,-7402.059420,2145.067394
406.708916,4663.297435,-7698.141797,2911.162892
406.709244,2738.761985,-8290.306550,2451.505594
406.709571,-740.205942,-9252.574275,1149.143247
406.709899,-2664.741391,-10510.924376,153.219100
406.710226,-3923.091493,-10955.047942,-229.828649
406.710554,-3849.070898,-9770.718434,-229.828649
406.710882,-1776.494261,-9252.574275,612.876398
406.711209,740.205942,-7920.203579,1608.800546
406.711537,1702.473667,-5921.647536,2374.896044
406.711864,1480.411884,-6809.894666,2681.334243
406.712192,0.000000,-7920.203579,1608.800546
406.712520,-3552.988522,-8882.471304,306.438199
406.712847,-5255.462188,-10732.986159,-153.219100
406.713175,-5699.585753,-11325.150913,-689.485948
406.713502,-5403.503377,-9696.697840,-1149.143247
406.713830,-3478.967927,-9770.718434,0.000000
406.714157,222.061783,-8660.409521,1302.362347
406.714485,1776.494261,-6883.915261,1225.752797
406.714813,2590.720797,-6957.935855,1762.019645
406.715140,2294.638420,-7698.141797,1608.800546
406.715468,-296.082377,-8660.409521,0.000000
406.715795,-1998.556043,-10362.883188,-459.657299
406.716123,-2664.741391,-11399.171507,-459.657299
406.716451,-2220.617826,-10807.006753,-919.314598
406.716778,-444.123565,-10362.883188,0.000000
406.717106,2590.720797,-9400.615463,919.314598
406.717433,3775.050304,-7550.100608,1302.362347
406.717761,4515.256246,-7402.059420,1532.190996
406.718088,3849.070898,-8290.306550,1455.581446
406.718416,1036.288319,-8882.471304,229.828649
406.718744,-962.267725,-9992.780217,-306.438199
406.719071,-2146.597232,-10732.986159,-766.095498
406.719399,-1776.494261,-9696.697840,-842.705048
406.719726,222.061783,-9474.636058,306.438199
406.720054,2368.659014,-8142.265362,1685.410096
406.720381,3256.906145,-6587.832884,1915.238745
406.720709,3775.050304,-7402.059420,2757.943793
406.721037,1554.432478,-8216.285956,1915.238745
406.721364,-1702.473667,-9474.636058,995.924147
406.721692,-3478.967927,-10955.047942,229.828649
406.722019,-4293.194464,-11029.068536,153.219100
406.722347,-4589.276840,-10066.800811,153.219100
406.722675,-1998.556043,-9474.636058,766.095498
406.723002,0.000000,-8068.244768,1302.362347
406.723330,1332.370696,-7179.997637,2221.676944
406.723657,1998.556043,-6365.771101,1915.238745
406.723985,74.020594,-7772.162391,1378.971896
406.724312,-2072.576638,-9326.594869,153.219100
406.724640,-3997.112087,-10584.944971,-536.266849
406.724968,-5403.503377,-11177.109724,-689.485948
406.725295,-4367.215058,-10510.924376,0.000000
406.725623,-2294.638420,-9844.739029,229.828649
406.725950,0.000000,-8586.388927,919.314598
406.726278,2516.700203,-7994.224174,1915.238745
406.726606,3108.864956,-7698.141797,1608.800546
406.726933,2368.659014,-8438.347739,1149.143247
406.727261,518.144159,-9548.656652,229.828649
406.727588,-1554.432478,-10881.027347,-689.485948
406.727916,-3182.885551,-11621.233289,-766.095498
406.728243,-2516.700203,-11251.130318,-1072.533697
406.728571,-1110.308913,-9918.759623,-689.485948
406.728899,1998.556043,-8956.491898,0.000000
406.729226,3923.091493,-7698.141797,1225.752797
406.729554,4293.194464,-7476.080014,1378.971896
406.729881,3034.844362,-8142.265362,612.876398
406.730209,740.205942,-9770.718434,229.828649
406.730536,-1702.473667,-10732.986159,-689.485948
406.730864,-3034.844362,-11621.233289,-1072.533697
406.731192,-2590.720797,-10658.965565,-919.314598
406.731519,-592.164754,-9474.636058,-306.438199
406.731847,2590.720797,-7994.224174,1608.800546
406.732174,4293.194464,-6587.832884,2987.772442
406.732502,3849.070898,-6661.853478,2757.943793
406.732830,2368.659014,-7328.038826,2374.896044
406.733157,-814.226536,-9252.574275,1072.533697
406.733485,-3330.926739,-11177.109724,229.828649
406.733812,-4663.297435,-10362.883188,0.000000
406.734140,-3775.050304,-10140.821405,229.828649
406.734467,-1776.494261,-9474.636058,1149.143247
406.734795,592.164754,-7105.977043,1685.410096
406.735123,2072.576638,-6439.791695,2681.334243
406.735450,1850.514855,-6439.791695,2374.896044
406.735778,-222.061783,-6587.832884,1072.533697
406.736105,-2516.700203,-8808.450710,383.047749
406.736433,-4367.215058,-10436.903782,-306.438199
406.736761,-5625.565159,-10214.842000,-995.924147
406.737088,-4367.215058,-9992.780217,-536.266849
406.737416,-2368.659014,-8956.491898,-153.219100
406.737743,444.123565,-7624.121203,1302.362347
406.738071,2664.741391,-6587.832884,1838.629195
406.738398,2738.761985,-6809.894666,1915.238745
406.738726,1998.556043,-7920.203579,1685.410096
406.739054,-296.082377,-8956.491898,76.609550
406.739381,-2516.700203,-10732.986159,-842.705048
406.739709,-3552.988522,-10955.047942,-1149.143247
406.740036,-2590.720797,-10807.006753,-1378.971896
406.740364,-1332.370696,-9622.677246,-1225.752797
406.740691,2294.638420,-8734.430116,0.000000
406.741019,4219.173869,-6661.853478,459.657299
406.741347,4885.359217,-7105.977043,1072.533697
406.741674,3849.070898,-8142.265362,919.314598
406.742002,814.226536,-9844.739029,-383.047749
406.742329,-2146.597232,-11325.150913,-995.924147
406.742657,-2738.761985,-11917.315666,-1685.410096
406.742985,-2294.638420,-11251.130318,-1302.362347
406.743312,-592.164754,-10510.924376,-383.047749
406.743640,2664.741391,-8956.491898,1072.533697
406.743967,4071.132681,-7254.018232,1838.629195
406.744295,4367.215058,-7179.997637,2451.505594
406.744622,2590.720797,-8068.244768,2298.286494
406.744950,-740.205942,-9548.656652,689.485948
406.745278,-3108.864956,-10955.047942,153.219100
406.745605,-4145.153275,-11251.130318,-153.219100
406.745933,-3923.091493,-10807.006753,-383.047749
406.746260,-1406.391290,-9844.739029,1378.971896
406.746588,518.144159,-8512.368333,1915.238745
406.746916,1702.473667,-7179.997637,2528.115143
406.747243,1850.514855,-7698.141797,2528.115143
406.747571,222.061783,-8068.244768,2145.067394
406.747898,-2738.761985,-9400.615463,383.047749
406.748226,-4737.318029,-11029.068536,-306.438199
406.748553,-5921.647536,-11325.150913,-459.657299
406.748881,-4663.297435,-9844.739029,-383.047749
406.749209,-1998.556043,-9400.615463,766.095498
406.749536,444.123565,-8216.285956,1762.019645
406.749864,2072.576638,-6809.894666,1685.410096
406.750191,2812.782580,-7179.997637,2145.067394
406.750519,1184.329507,-7994.224174,1455.581446
406.750846,-1924.535449,-9400.615463,0.000000
406.751174,-2738.761985,-11103.089130,-306.438199
406.751502,-4441.235652,-11325.150913,-1072.533697
406.751829,-3182.885551,-10140.821405,-766.095498
406.752157,-592.164754,-9548.656652,-383.047749
406.752484,2294.638420,-8290.306550,919.314598
406.752812,4293.194464,-6809.894666,766.095498
406.753140,4811.338623,-7031.956449,1149.143247
406.753467,3478.967927,-8290.306550,995.924147
406.753795,0.000000,-9622.677246,-153.219100
406.754122,-1776.494261,-11251.130318,-766.095498
406.754450,-2368.659014,-11251.130318,-842.705048
406.754777,-1480.411884,-10362.883188,-995.924147
406.755105,962.267725,-9548.656652,536.266849
406.755433,3849.070898,-8512.368333,2068.457845
406.755760,4663.297435,-7031.956449,2221.676944
406.756088,4293.194464,-7476.080014,2528.115143
406.756415,2146.597232,-8438.347739,2145.067394
406.756743,-1110.308913,-9696.697840,306.438199
406.757071,-3256.906145,-11325.150913,0.000000
406.757398,-3923.091493,-10881.027347,-153.219100
406.757726,-2886.803174,-9992.780217,0.000000
406.758053,-962.267725,-9030.512492,842.705048
406.758381,1554.432478,-7328.038826,2221.676944
406.758708,1850.514855,-6957.935855,2145.067394
406.759036,888.247130,-7402.059420,1991.848295
406.759364,-740.205942,-8364.327145,1532.190996
406.759691,-3923.091493,-9770.718434,-153.219100
406.760019,-5329.482782,-11251.130318,-383.047749
406.760346,-5625.565159,-10807.006753,-612.876398
406.760674,-4515.256246,-9696.697840,-612.876398
406.761001,-2072.576638,-9252.574275,153.219100
406.761329,1258.350101,-7772.162391,1532.190996
406.761657,2516.700203,-6809.894666,1455.581446
406.761984,2590.720797,-7402.059420,1378.971896
406.762312,1628.453072,-8290.306550,1149.143247
406.762639,-1110.308913,-9992.780217,153.219100
406.762967,-2368.659014,-11621.233289,-459.657299
406.763295,-2368.659014,-11325.150913,-459.657299
406.763622,-1628.453072,-10584.944971,-612.876398
406.763950,222.061783,-9696.697840,-229.828649
406.764277,3182.885551,-8734.430116,1302.362347
406.764605,4367.215058,-7476.080014,919.314598
406.764932,4071.132681,-7476.080014,919.314598
406.765260,3108.864956,-8142.265362,612.876398
406.765588,0.000000,-9918.759623,-612.876398
406.765915,-2220.617826,-11251.130318,-919.314598
406.766243,-2442.679609,-10807.006753,-1225.752797
406.766570,-1924.535449,-9770.718434,-536.266849
406.766898,444.123565,-8660.409521,0.000000
406.767226,3182.885551,-7772.162391,1532.190996
406.767553,3849.070898,-6883.915261,1838.629195
406.767881,3404.947333,-7328.038826,1915.238745
406.768208,1332.370696,-8660.409521,1455.581446
406.768536,-1628.453072,-9696.697840,306.438199
406.768863,-3849.070898,-10881.027347,0.000000
406.769191,-4071.132681,-10807.006753,0.000000
406.769519,-2516.700203,-9548.656652,76.609550
406.769846,-888.247130,-8660.409521,766.095498
406.770174,1850.514855,-7476.080014,1838.629195
406.770501,1998.556043,-6661.853478,1608.800546
406.770829,2072.576638,-7179.997637,1991.848295
406.771157,0.000000,-8142.265362,1072.533697
406.771484,-2812.782580,-9400.615463,-306.438199
406.771812,-4219.173869,-10732.986159,-153.219100
406.772139,-4367.215058,-10510.924376,0.000000
406.772467,-3108.864956,-9474.636058,153.219100
406.772794,-888.247130,-9104.533087,1072.533697
406.773122,1554.432478,-7772.162391,1915.238745
406.773450,2368.659014,-6883.915261,2374.896044
406.773777,2516.700203,-7105.977043,1991.848295
406.774105,1036.288319,-8438.347739,1532.190996
406.774432,-1702.473667,-9474.636058,76.609550
406.774760,-3182.885551,-11029.068536,76.609550
406.775087,-3997.112087,-11325.150913,-689.485948
406.775415,-3256.906145,-9844.739029,-536.266849
406.775743,-740.205942,-9030.512492,76.609550
406.776070,1628.453072,-7624.121203,383.047749
406.776398,3182.885551,-6661.853478,536.266849
406.776725,3701.029710,-7550.100608,995.924147
406.777053,1998.556043,-8438.347739,1149.143247
406.777381,-592.164754,-9918.759623,-842.705048
406.777708,-2368.659014,-11621.233289,-766.095498
406.778036,-3701.029710,-11547.212695,-1302.362347
406.778363,-2738.761985,-10436.903782,-689.485948
406.778691,0.000000,-9770.718434,76.609550
406.779018,2960.823768,-8438.347739,1762.019645
406.779346,4589.276840,-7105.977043,2145.067394
406.779674,4145.153275,-7550.100608,1991.848295
406.780001,2294.638420,-8216.285956,1685.410096
406.780329,-666.185348,-9918.759623,459.657299
406.780656,-2516.700203,-11399.171507,0.000000
406.780984,-3923.091493,-10658.965565,-383.047749
406.781312,-2368.659014,-10288.862594,-459.657299
406.781639,0.000000,-9326.594869,689.485948
406.781967,2220.617826,-7179.997637,1608.800546
406.782294,3256.906145,-7254.018232,2834.553343
406.782622,2442.679609,-7550.100608,2374.896044
406.782949,-370.102971,-8364.327145,1225.752797
406.783277,-2812.782580,-10510.924376,383.047749
406.783605,-4367.215058,-11547.212695,0.000000
406.783932,-4885.359217,-10140.821405,-612.876398
406.784260,-3404.947333,-10140.821405,-229.828649
406.784587,0.000000,-9178.553681,1455.581446
406.784915,1332.370696,-6735.874072,1608.800546
406.785242,3034.844362,-7179.997637,2834.553343
406.785570,2516.700203,-7179.997637,2757.943793
406.785898,-592.164754,-7994.224174,1532.190996
406.786225,-2368.659014,-10214.842000,459.657299
406.786553,-3701.029710,-11029.068536,-383.047749
406.786880,-4885.359217,-10584.944971,-1225.752797
406.787208,-2960.823768,-10362.883188,-612.876398
406.787536,-370.102971,-9400.615463,-536.266849
406.787863,1480.411884,-7105.977043,689.485948
406.788191,3701.029710,-7179.997637,1072.533697
406.788518,2886.803174,-7550.100608,842.705048
406.788846,814.226536,-8216.285956,306.438199
406.789173,-888.247130,-10288.862594,-1072.533697
406.789501,-2812.782580,-10807.006753,-1225.752797
406.789829,-3404.947333,-10658.965565,-1762.019645
406.790156,-1406.391290,-10510.924376,-612.876398
406.790484,666.185348,-9178.553681,0.000000
406.790811,4071.132681,-7624.121203,1915.238745
406.791139,5477.523971,-7476.080014,2451.505594
406.791467,3775.050304,-7772.162391,2221.676944
406.791794,1850.514855,-8956.491898,1532.190996
406.792122,-666.185348,-10362.883188,306.438199
406.792449,-2590.720797,-11399.171507,229.828649
406.792777,-2442.679609,-10362.883188,-229.828649
406.793104,-1184.329507,-9918.759623,689.485948
406.793432,370.102971,-8734.430116,842.705048
406.793760,2590.720797,-7698.141797,2068.457845
406.794087,2960.823768,-7105.977043,2068.457845
406.794415,1406.391290,-7254.018232,1532.190996
406.794742,-666.185348,-8512.368333,1149.143247
406.795070,-3478.967927,-9844.739029,-153.219100
406.795397,-5255.462188,-10807.006753,-536.266849
406.795725,-4959.379811,-10362.883188,-536.266849
406.796053,-3256.906145,-9178.553681,229.828649
406.796380,-1406.391290,-8068.244768,536.266849
406.796708,1110.308913,-7328.038826,1991.848295
406.797035,1998.556043,-6661.853478,1915.238745
406.797363,1258.350101,-7328.038826,1608.800546
406.797691,-518.144159,-8660.409521,1608.800546
406.798018,-2812.782580,-9548.656652,-229.828649
406.798346,-4367.215058,-10955.047942,-536.266849
406.798673,-3849.070898,-11177.109724,-229.828649
406.799001,-2368.659014,-10288.862594,-229.828649
406.799328,-222.061783,-9030.512492,306.438199
406.799656,2442.679609,-7994.224174,1532.190996
406.799984,3552.988522,-7254.018232,919.314598
406.800311,3627.009116,-7698.141797,842.705048
406.800639,2072.576638,-9400.615463,306.438199
406.800966,-962.267725,-10732.986159,-689.485948
406.801294,-2220.617826,-11325.150913,-1302.362347
406.801622,-2886.803174,-11769.274478,-1149.143247
406.801949,-1998.556043,-10584.944971,-995.924147
406.802277,1110.308913,-9252.574275,306.438199
406.802604,4219.173869,-7994.224174,1302.362347
406.802932,5551.544565,-7105.977043,1685.410096
406.803259,4737.318029,-7772.162391,2221.676944
406.803587,2146.597232,-9252.574275,1149.143247
406.803915,-1036.288319,-10584.944971,0.000000
406.804242,-2960.823768,-11251.130318,-306.438199
406.804570,-3478.967927,-11103.089130,-536.266849
406.804897,-2146.597232,-9918.759623,76.609550
406.805225,148.041188,-8586.388927,919.314598
406.805552,2220.617826,-7179.997637,1838.629195
406.805880,2886.803174,-6809.894666,2298.286494
406.806208,2220.617826,-7550.100608,2374.896044
406.806535,-740.205942,-8660.409521,1072.533697
406.806863,-3330.926739,-10214.842000,-153.219100
406.807190,-4589.276840,-11251.130318,-459.657299
406.807518,-5107.421000,-10807.006753,-229.828649
406.807846,-3182.885551,-9770.718434,689.485948
406.808173,0.000000,-8956.491898,1302.362347
406.808501,1406.391290,-7105.977043,2374.896044
406.808828,2294.638420,-7031.956449,2757.943793
406.809156,1776.494261,-7550.100608,2374.896044
406.809483,-1110.308913,-8364.327145,1072.533697
406.809811,-2664.741391,-10066.800811,306.438199
406.810139,-4589.276840,-10510.924376,-229.828649
406.810466,-4515.256246,-10288.862594,-536.266849
406.810794,-2812.782580,-9992.780217,-306.438199
406.811121,-444.123565,-8142.265362,306.438199
406.811449,2368.659014,-7105.977043,1072.533697
406.811776,3701.029710,-6883.915261,2145.067394
406.812104,2664.741391,-7105.977043,919.314598
406.812431,1184.329507,-9326.594869,229.828649
406.812759,-1702.473667,-10436.903782,-766.095498
406.813086,-3849.070898,-11843.295072,-1149.143247
406.813414,-3108.864956,-10658.965565,-1532.190996
406.813742,-1184.329507,-10362.883188,-1225.752797
406.814069,1554.432478,-9252.574275,229.828649
406.814397,4293.194464,-7328.038826,1302.362347
406.814724,5181.441594,-7105.977043,1838.629195
406.815052,4441.235652,-7550.100608,2221.676944
406.815379,1332.370696,-8882.471304,536.266849
406.815707,-1406.391290,-10658.965565,-153.219100
406.816034,-2368.659014,-11473.192101,-383.047749
406.816362,-2368.659014,-10658.965565,-919.314598
406.816689,0.000000,-10066.800811,536.266849
406.817017,2072.576638,-9252.574275,1072.533697
406.817345,2960.823768,-7402.059420,1455.581446
406.817672,3627.009116,-7698.141797,2145.067394
406.818000,2072.576638,-8142.265362,1685.410096
406.818327,-1480.411884,-8586.388927,306.438199
406.818655,-2812.782580,-10584.944971,229.828649
406.818982,-4515.256246,-11251.130318,-459.657299
406.819310,-4811.338623,-10288.862594,-995.924147
406.819637,-2590.720797,-9770.718434,153.219100
406.819965,-296.082377,-8364.327145,995.924147
406.820292,1554.432478,-6513.812290,2221.676944
406.820620,2294.638420,-6809.894666,2528.115143
406.820947,814.226536,-7476.080014,1838.629195
406.821275,-1258.350101,-8438.347739,995.924147
406.821603,-2886.803174,-10288.862594,306.438199
406.821930,-4219.173869,-11251.130318,612.876398
406.822258,-4441.235652,-10584.944971,-229.828649
406.822585,-2072.576638,-10140.821405,306.438199
406.822913,-666.185348,-8882.471304,612.876398
406.823240,1850.514855,-7624.121203,1149.143247
406.823568,3182.885551,-6661.853478,1302.362347
406.823895,2368.659014,-7624.121203,1302.362347
406.824223,518.144159,-8956.491898,383.047749
406.824550,-2442.679609,-10140.821405,-842.705048
406.824878,-3775.050304,-11103.089130,-1149.143247
406.825206,-2960.823768,-11029.068536,-1149.143247
406.825533,-888.247130,-9918.759623,-459.657299
406.825861,1258.350101,-8586.388927,76.609550
406.826188,4441.235652,-7920.203579,1685.410096
406.826516,4663.297435,-7402.059420,1685.410096
406.826843,3404.947333,-7846.182985,1532.190996
406.827171,1554.432478,-9326.594869,766.095498
406.827498,-1480.411884,-10584.944971,-459.657299
406.827826,-3108.864956,-11251.130318,-612.876398
406.828153,-2738.761985,-11251.130318,-689.485948
406.828481,-888.247130,-9770.718434,-229.828649
406.828808,1406.391290,-8438.347739,766.095498
406.829136,3108.864956,-7031.956449,1915.238745
406.829464,3552.988522,-6661.853478,1685.410096
406.829791,2368.659014,-7402.059420,995.924147
406.830119,-444.123565,-9030.512492,383.047749
406.830446,-3034.844362,-9992.780217,0.000000
406.830774,-4145.153275,-10362.883188,-919.314598
406.831101,-3997.112087,-10584.944971,-459.657299
406.831429,-1924.535449,-9622.677246,383.047749
406.831756,0.000000,-7994.224174,1608.800546
406.832084,1776.494261,-7105.977043,2451.505594
406.832411,2664.741391,-7328.038826,2528.115143
406.832739,1036.288319,-7994.224174,1915.238745
406.833067,-1184.329507,-9548.656652,689.485948
406.833394,-3330.926739,-10732.986159,0.000000
406.833722,-4219.173869,-11177.109724,-536.266849
406.834049,-3775.050304,-10510.924376,-229.828649
406.834377,-2442.679609,-9474.636058,383.047749
406.834704,148.041188,-8290.306550,995.924147
406.835032,2368.659014,-7031.956449,1455.581446
406.835359,2590.720797,-6809.894666,1302.362347
406.835687,1998.556043,-7105.977043,1225.752797
406.836014,0.000000,-9104.533087,229.828649
406.836342,-2664.741391,-10214.842000,-766.095498
406.836669,-3404.947333,-11547.212695,-229.828649
406.836997,-3404.947333,-11029.068536,-459.657299
406.837325,-1332.370696,-9474.636058,153.219100
406.837652,2294.638420,-8586.388927,1455.581446
406.837980,4071.132681,-7105.977043,1762.019645
406.838307,3552.988522,-7328.038826,2221.676944
406.838635,2960.823768,-7772.162391,1838.629195
406.838962,740.205942,-9030.512492,536.266849
406.839290,-1628.453072,-10584.944971,536.266849
406.839617,-2960.823768,-11177.109724,-459.657299
406.839945,-2590.720797,-10955.047942,-689.485948
406.840272,-1480.411884,-9992.780217,0.000000
406.840600,888.247130,-8586.388927,1072.533697
406.840927,2738.761985,-7254.018232,2068.457845
406.841255,2368.659014,-7179.997637,2221.676944
406.841583,1110.308913,-7550.100608,1225.752797
406.841910,-1258.350101,-9548.656652,306.438199
406.842238,-3330.926739,-10510.924376,-229.828649
406.842565,-4737.318029,-10362.883188,-229.828649
406.842893,-3478.967927,-10510.924376,-689.485948
406.843220,-1924.535449,-9400.615463,229.828649
406.843548,370.102971,-8512.368333,1378.971896
406.843875,2220.617826,-6883.915261,1915.238745
406.844203,2590.720797,-6735.874072,2451.505594
406.844530,2146.597232,-7402.059420,1378.971896
406.844858,-1036.288319,-9178.553681,536.266849
406.845186,-2664.741391,-10658.965565,153.219100
406.845513,-3627.009116,-11251.130318,-383.047749
406.845841,-3775.050304,-10658.965565,-383.047749
406.846168,-1480.411884,-10066.800811,306.438199
406.846496,814.226536,-8808.450710,536.266849
406.846823,2886.803174,-7105.977043,919.314598
406.847151,3627.009116,-6957.935855,1685.410096
406.847478,2664.741391,-7772.162391,1072.533697
406.847806,-296.082377,-8660.409521,0.000000
406.848133,-2368.659014,-10436.903782,-612.876398
406.848461,-3478.967927,-11547.212695,-995.924147
406.848788,-3478.967927,-10510.924376,-995.924147
406.849116,-1036.288319,-9696.697840,0.000000
406.849444,1480.411884,-8068.244768,383.047749
406.849771,3923.091493,-7254.018232,1378.971896
406.850099,3923.091493,-7031.956449,1685.410096
406.850426,2738.761985,-7624.121203,1378.971896
406.850754,148.041188,-9178.553681,536.266849
406.851081,-2368.659014,-10140.821405,-383.047749
406.851409,-3034.844362,-10732.986159,-459.657299
406.851736,-3108.864956,-10658.965565,-459.657299
406.852064,-1258.350101,-9474.636058,0.000000
406.852391,888.247130,-8364.327145,612.876398
406.852719,2960.823768,-7179.997637,1455.581446
406.853047,2812.782580,-7105.977043,2068.457845
406.853374,1702.473667,-8142.265362,995.924147
406.853702,-814.226536,-9622.677246,0.000000
406.854029,-3256.906145,-10807.006753,-612.876398
406.854357,-4515.256246,-11547.212695,-689.485948
406.854684,-3701.029710,-10658.965565,-383.047749
406.855012,-1776.494261,-9400.615463,229.828649
406.855339,814.226536,-8216.285956,1532.190996
406.855667,2812.782580,-7254.018232,2374.896044
406.855994,2738.761985,-6587.832884,2068.457845
406.856322,2146.597232,-7031.956449,2221.676944
406.856649,-518.144159,-8956.491898,919.314598
406.856977,-2590.720797,-10362.883188,229.828649
406.857305,-3478.967927,-10955.047942,-306.438199
406.857632,-3404.947333,-10732.986159,0.000000
406.857960,-1702.473667,-9400.615463,536.266849
406.858287,740.205942,-8216.285956,1762.019645
406.858615,2590.720797,-7402.059420,1991.848295
406.858942,2738.761985,-7105.977043,1991.848295
406.859270,1924.535449,-8142.265362,1455.581446
406.859597,-1258.350101,-9696.697840,306.438199
406.859925,-3478.967927,-10807.006753,0.000000
406.860252,-4811.338623,-11843.295072,-995.924147
406.860580,-4367.215058,-11177.109724,-842.705048
406.860908,-1702.473667,-9696.697840,0.000000
406.861235,1110.308913,-7846.182985,536.266849
406.861563,3552.988522,-6883.915261,1149.143247
406.861890,3627.009116,-6439.791695,1455.581446
406.862218,2516.700203,-7846.182985,1225.752797
406.862545,0.000000,-9400.615463,536.266849
406.862873,-2738.761985,-10436.903782,-383.047749
406.863200,-3404.947333,-11917.315666,-306.438199
406.863528,-2960.823768,-10881.027347,-383.047749
406.863855,-1480.411884,-9918.759623,0.000000
406.864183,1924.535449,-8882.471304,1608.800546
406.864510,3849.070898,-6883.915261,1455.581446
406.864838,3256.906145,-6883.915261,1762.019645
406.865166,2960.823768,-8142.265362,1302.362347
406.865493,-666.185348,-8956.491898,0.000000
406.865821,-2368.659014,-11103.089130,-229.828649
406.866148,-3478.967927,-11029.068536,-842.705048
406.866476,-3256.906145,-10584.944971,-1225.752797
406.866803,-518.144159,-9474.636058,536.266849
406.867131,1406.391290,-7994.224174,766.095498
406.867458,2886.803174,-7402.059420,2298.286494
406.867786,2960.823768,-7402.059420,2298.286494
406.868113,1332.370696,-8142.265362,1149.143247
406.868441,-592.164754,-9770.718434,306.438199
406.868769,-2664.741391,-11029.068536,0.000000
406.869096,-4219.173869,-11103.089130,-536.266849
406.869424,-3330.926739,-10510.924376,-689.485948
406.869751,-1036.288319,-9474.636058,153.219100
406.870079,1036.288319,-7254.018232,1455.581446
406.870406,2960.823768,-6513.812290,1302.362347
406.870734,3404.947333,-6735.874072,1838.629195
406.871061,1998.556043,-7476.080014,995.924147
406.871389,-1554.432478,-8882.471304,0.000000
406.871716,-3552.988522,-10658.965565,-383.047749
406.872044,-4071.132681,-11177.109724,-842.705048
406.872371,-3552.988522,-10436.903782,-689.485948
406.872699,-1258.350101,-9696.697840,76.609550
406.873027,2294.638420,-8586.388927,1378.971896
406.873354,3627.009116,-6883.915261,1915.238745
406.873682,3627.009116,-7254.018232,2298.286494
406.874009,2220.617826,-8660.409521,2145.067394
406.874337,-1406.391290,-9474.636058,229.828649
406.874664,-3256.906145,-11103.089130,-153.219100
406.874992,-3775.050304,-11843.295072,-306.438199
406.875319,-2960.823768,-10510.924376,-229.828649
406.875647,-740.205942,-9548.656652,0.000000
406.875974,2220.617826,-8438.347739,1455.581446
406.876302,2960.823768,-6735.874072,1608.800546
406.876629,3256.906145,-7328.038826,1915.238745
406.876957,1480.411884,-7994.224174,1455.581446
406.877285,-1480.411884,-9030.512492,-229.828649
406.877612,-3256.906145,-10807.006753,-536.266849
406.877940,-4071.132681,-10955.047942,-689.485948
406.878267,-3182.885551,-9992.780217,-612.876398
406.878595,-592.164754,-9030.512492,536.266849
406.878922,1850.514855,-7772.162391,1378.971896
406.879250,3182.885551,-7105.977043,1915.238745
406.879577,3108.864956,-7328.038826,1838.629195
406.879905,1184.329507,-8290.306550,1225.752797
406.880232,-1480.411884,-9696.697840,306.438199
406.880560,-3034.844362,-10955.047942,0.000000
406.880888,-3997.112087,-11251.130318,-459.657299
406.881215,-2590.720797,-10955.047942,0.000000
406.881543,-592.164754,-9474.636058,383.047749
406.881870,1258.350101,-8216.285956,919.314598
406.882198,3256.906145,-7179.997637,2298.286494
406.882525,2812.782580,-7105.977043,1149.143247
406.882853,1406.391290,-8364.327145,919.314598
406.883180,-814.226536,-9844.739029,0.000000
406.883508,-2738.761985,-10807.006753,-612.876398
406.883835,-3627.009116,-10658.965565,-459.657299
406.884163,-2146.597232,-10362.883188,0.000000
406.884490,0.000000,-8956.491898,612.876398
406.884818,2368.659014,-7772.162391,1762.019645
406.885146,3923.091493,-7179.997637,2451.505594
406.885473,3034.844362,-7031.956449,1838.629195
406.885801,1776.494261,-8438.347739,1378.971896
406.886128,-1110.308913,-9992.780217,306.438199
406.886456,-3256.906145,-10807.006753,-536.266849
406.886783,-3997.112087,-11399.171507,-766.095498
406.887111,-2960.823768,-10807.006753,-229.828649
406.887438,-888.247130,-8882.471304,153.219100
406.887766,1406.391290,-7476.080014,1072.533697
406.888093,2590.720797,-6809.894666,1608.800546
406.888421,2294.638420,-6957.935855,1072.533697
406.888749,740.205942,-8142.265362,383.047749
406.889076,-1850.514855,-9400.615463,-306.438199
406.889404,-3404.947333,-10807.006753,-1225.752797
406.889731,-3997.112087,-11251.130318,-1149.143247
406.890059,-3108.864956,-10510.924376,-689.485948
406.890386,-888.247130,-9252.574275,229.828649
406.890714,1480.411884,-7846.182985,1302.362347
406.891041,2812.782580,-7031.956449,1378.971896
406.891369,3034.844362,-7105.977043,1685.410096
406.891696,2294.638420,-8364.327145,1378.971896
406.892024,-296.082377,-9844.739029,306.438199
406.892351,-2220.617826,-11029.068536,0.000000
406.892679,-3256.906145,-11103.089130,153.219100
406.893007,-2590.720797,-11029.068536,0.000000
406.893334,-666.185348,-9474.636058,766.095498
406.893662,1998.556043,-8142.265362,1378.971896
406.893989,3256.906145,-7105.977043,1762.019645
406.894317,3330.926739,-7105.977043,1991.848295
406.894644,1776.494261,-8142.265362,1302.362347
406.894972,-1184.329507,-9622.677246,0.000000
406.895299,-3552.988522,-10732.986159,-536.266849
406.895627,-4145.153275,-11695.253884,-306.438199
406.895954,-3627.009116,-10807.006753,229.828649
406.896282,-1332.370696,-8808.450710,536.266849
406.896610,2072.576638,-7994.224174,1762.019645
406.896937,3256.906145,-6439.791695,2374.896044
406.897265,2664.741391,-6661.853478,2374.896044
406.897592,1628.453072,-8068.244768,1762.019645
406.897920,-2220.617826,-9104.533087,0.000000
406.898247,-3478.967927,-11177.109724,0.000000
406.898575,-4145.153275,-10955.047942,-459.657299
406.898902,-3478.967927,-10214.842000,-612.876398
406.899230,0.000000,-9696.697840,1072.533697
406.899557,2294.638420,-7328.038826,2145.067394
406.899885,1998.556043,-7031.956449,1915.238745
406.900212,2664.741391,-7402.059420,2145.067394
406.900540,592.164754,-8438.347739,536.266849
406.900868,-2072.576638,-9918.759623,0.000000
406.901195,-3182.885551,-11251.130318,-995.924147
406.901523,-4589.276840,-11177.109724,-1302.362347
406.901850,-2960.823768,-10362.883188,-689.485948
406.902178,-592.164754,-9548.656652,76.609550
406.902505,2072.576638,-8290.306550,1455.581446
406.902833,3182.885551,-5921.647536,1608.800546
406.903160,3627.009116,-7031.956449,1915.238745
406.903488,1776.494261,-8512.368333,1225.752797
406.903815,-1036.288319,-9770.718434,0.000000
406.904143,-2664.741391,-10955.047942,-383.047749
406.904471,-2738.761985,-10955.047942,-536.266849
406.904798,-1776.494261,-10362.883188,0.000000
406.905126,-148.041188,-9474.636058,76.609550
406.905453,2146.597232,-7550.100608,1378.971896
406.905781,3849.070898,-7328.038826,1991.848295
406.906108,3108.864956,-7550.100608,1838.629195
406.906436,1332.370696,-8068.244768,1072.533697
406.906763,-1480.411884,-9992.780217,-229.828649
406.907091,-3552.988522,-11177.109724,-766.095498
406.907418,-4219.173869,-11473.192101,-612.876398
406.907746,-2664.741391,-10362.883188,-459.657299
406.908073,-444.123565,-9030.512492,612.876398
406.908401,2590.720797,-8068.244768,1532.190996
406.908729,3478.967927,-7105.977043,2068.457845
406.909056,2590.720797,-6957.935855,1838.629195
406.909384,666.185348,-8512.368333,1378.971896
406.909711,-2072.576638,-9474.636058,306.438199
406.910039,-4515.256246,-10362.883188,-536.266849
406.910366,-4219.173869,-11029.068536,-766.095498
406.910694,-2960.823768,-9992.780217,-306.438199
406.911021,-888.247130,-8512.368333,536.266849
406.911349,1628.453072,-7328.038826,1072.533697
406.911676,2960.823768,-6661.853478,1072.533697
406.912004,2590.720797,-6661.853478,1225.752797
406.912331,888.247130,-8290.306550,612.876398
406.912659,-1702.473667,-9400.615463,-536.266849
406.912986,-3404.947333,-10732.986159,-842.705048
406.913314,-3701.029710,-11177.109724,-459.657299
406.913641,-2294.638420,-10288.862594,-536.266849
406.913969,0.000000,-9178.553681,536.266849
406.914296,2368.659014,-8142.265362,1685.410096
406.914624,3478.967927,-7328.038826,2145.067394
406.914951,3256.906145,-7179.997637,1991.848295
406.915279,888.247130,-8956.491898,995.924147
406.915606,-1332.370696,-10436.903782,229.828649
406.915934,-3256.906145,-11325.150913,-612.876398
406.916261,-3923.091493,-11473.192101,-842.705048
406.916589,-2368.659014,-10436.903782,76.609550
406.916916,-296.082377,-8734.430116,919.314598
406.917244,1850.514855,-7476.080014,1302.362347
406.917571,3256.906145,-6957.935855,1608.800546
406.917899,3108.864956,-7031.956449,1455.581446
406.918226,1184.329507,-8290.306550,383.047749
406.918554,-1406.391290,-9770.718434,0.000000
406.918881,-3478.967927,-10807.006753,-689.485948
406.919209,-3997.112087,-11103.089130,-689.485948
406.919536,-2664.741391,-10140.821405,153.219100
406.919864,0.000000,-9104.533087,1532.190996
406.920191,2590.720797,-7772.162391,2298.286494
406.920519,3478.967927,-7105.977043,2451.505594
406.920846,2664.741391,-7772.162391,2451.505594
406.921174,666.185348,-9030.512492,1455.581446
406.921501,-2072.576638,-10584.944971,383.047749
406.921829,-3849.070898,-11103.089130,-306.438199
406.922156,-4293.194464,-11473.192101,-306.438199
406.922484,-2812.782580,-10732.986159,0.000000
406.922811,-518.144159,-9252.574275,766.095498
406.923139,1702.473667,-7698.141797,1302.362347
406.923466,2442.679609,-6957.935855,1302.362347
406.923794,2072.576638,-6957.935855,1532.190996
406.924121,222.061783,-8438.347739,76.609550
406.924449,-2368.659014,-9770.718434,-766.095498
406.924776,-3552.988522,-11029.068536,-995.924147
406.925104,-4145.153275,-10881.027347,-842.705048
406.925431,-2368.659014,-10510.924376,-306.438199
406.925759,0.000000,-9030.512492,689.485948
406.926086,2220.617826,-7772.162391,1455.581446
406.926414,3478.967927,-7179.997637,1838.629195
406.926742,3108.864956,-7105.977043,1378.971896
406.927069,2146.597232,-8882.471304,306.438199
406.927397,-370.102971,-9844.739029,153.219100
406.927724,-2368.659014,-10955.047942,-536.266849
406.928052,-2590.720797,-11843.295072,-306.438199
406.928379,-1554.432478,-10732.986159,76.609550
406.928707,-444.123565,-8808.450710,459.657299
406.929034,2812.782580,-7402.059420,1455.581446
406.929362,3849.070898,-7179.997637,1608.800546
406.929689,2442.679609,-7402.059420,1149.143247
406.930017,1258.350101,-8512.368333,1072.533697
406.930344,-1776.494261,-9992.780217,-153.219100
406.930672,-3627.009116,-10807.006753,-995.924147
406.930999,-3701.029710,-10807.006753,-459.657299
406.931327,-2886.803174,-9992.780217,-383.047749
406.931654,-370.102971,-7772.162391,1072.533697
406.931982,2812.782580,-6883.915261,2374.896044
406.932309,2886.803174,-5699.585753,2604.724693
406.932637,2220.617826,-6069.688724,2451.505594
406.932964,296.082377,-7772.162391,1608.800546
406.933292,-2664.741391,-9326.594869,536.266849
406.933619,-4145.153275,-10436.903782,0.000000
406.933947,-3923.091493,-10881.027347,459.657299
406.934274,-2664.741391,-9992.780217,306.438199
406.934602,-370.102971,-8882.471304,1225.752797
406.934929,1998.556043,-8364.327145,2145.067394
406.935257,1776.494261,-6809.894666,1608.800546
406.935584,1628.453072,-7476.080014,1762.019645
406.935912,-296.082377,-8586.388927,536.266849
406.936239,-3108.864956,-10214.842000,-383.047749
406.936567,-4145.153275,-11251.130318,-766.095498
406.936894,-4071.132681,-11177.109724,-1225.752797
406.937222,-2738.761985,-9918.759623,-459.657299
406.937549,-370.102971,-8956.491898,76.609550
406.937877,2072.576638,-7550.100608,919.314598
406.938204,3256.906145,-7105.977043,1532.190996
406.938532,2886.803174,-7698.141797,995.924147
406.938859,740.205942,-8586.388927,689.485948
406.939187,-962.267725,-10066.800811,0.000000
406.939514,-2664.741391,-11399.171507,-689.485948
406.939842,-3108.864956,-11325.150913,-995.924147
406.940169,-1702.473667,-10658.965565,-919.314598
406.940497,444.123565,-9474.636058,0.000000
406.940824,3330.926739,-7920.203579,766.095498
406.941152,4219.173869,-6883.915261,1455.581446
406.941479,3849.070898,-7698.141797,1225.752797
406.941807,1776.494261,-9400.615463,536.266849
406.942134,-1036.288319,-10436.903782,-153.219100
406.942462,-2960.823768,-11621.233289,-689.485948
406.942789,-3256.906145,-11325.150913,-383.047749
406.943117,-1850.514855,-10288.862594,-153.219100
406.943444,1036.288319,-9252.574275,1072.533697
406.943772,3256.906145,-7846.182985,2145.067394
406.944099,3775.050304,-7105.977043,2604.724693
406.944427,2664.741391,-7624.121203,2451.505594
406.944754,-296.082377,-8956.491898,1455.581446
406.945082,-3182.885551,-9918.759623,536.266849
406.945410,-4219.173869,-10807.006753,76.609550
406.945737,-4737.318029,-10436.903782,0.000000
406.946065,-2738.761985,-9548.656652,612.876398
406.946392,-370.102971,-7846.182985,1685.410096
406.946720,1406.391290,-6809.894666,2221.676944
406.947047,1850.514855,-6143.709319,2145.067394
406.947375,1036.288319,-7105.977043,1225.752797
406.947702,-1332.370696,-8586.388927,612.876398
406.948030,-3923.091493,-9548.656652,-766.095498
406.948357,-5255.462188,-10955.047942,-1378.971896
406.948685,-5403.503377,-11103.089130,-995.924147
406.949012,-3256.906145,-10066.800811,-383.047749
406.949340,-740.205942,-8660.409521,842.705048
406.949667,2368.659014,-7254.018232,1532.190996
406.949995,3775.050304,-6661.853478,1762.019645
406.950322,3701.029710,-7105.977043,1455.581446
406.950650,1332.370696,-8216.285956,536.266849
406.950977,-888.247130,-9770.718434,-229.828649
406.951305,-2146.597232,-10807.006753,-612.876398
406.951632,-2590.720797,-10807.006753,-842.705048
406.951960,-1184.329507,-10362.883188,-459.657299
406.952287,1850.514855,-9326.594869,766.095498
406.952615,4145.153275,-7105.977043,1532.190996
406.952942,4737.318029,-7179.997637,1991.848295
406.953270,4589.276840,-7624.121203,1532.190996
406.953597,1406.391290,-8438.347739,383.047749
406.953925,-1258.350101,-10807.006753,-153.219100
406.954252,-3108.864956,-11251.130318,-689.485948
406.954580,-3108.864956,-10436.903782,-1225.752797
406.954907,-1850.514855,-9992.780217,-536.266849
406.955235,1110.308913,-9104.533087,919.314598
406.955562,2886.803174,-7031.956449,1532.190996
406.955890,3478.967927,-6957.935855,2451.505594
406.956217,2442.679609,-7624.121203,2145.067394
406.956545,-1110.308913,-8512.368333,1149.143247
406.956872,-3627.009116,-10807.006753,229.828649
406.957200,-4737.318029,-11547.212695,76.609550
406.957527,-4959.379811,-11029.068536,-459.657299
406.957855,-3182.885551,-9918.759623,536.266849
406.958182,-666.185348,-8586.388927,1838.629195
406.958510,888.247130,-6883.915261,1608.800546
406.958837,2294.638420,-6809.894666,1991.848295
406.959165,1258.350101,-7254.018232,1608.800546
406.959492,-1628.453072,-8290.306550,306.438199
406.959820,-3034.844362,-9918.759623,-306.438199
406.960147,-4663.297435,-10732.986159,-689.485948
406.960475,-4737.318029,-10436.903782,-1378.971896
406.960802,-2220.617826,-10140.821405,-306.438199
406.961130,74.020594,-9178.553681,459.657299
406.961457,2812.782580,-6957.935855,1685.410096
406.961785,4367.215058,-7994.224174,1838.629195
406.962112,3034.844362,-8290.306550,1455.581446
406.962440,370.102971,-9400.615463,766.095498
406.962767,-1036.288319,-11251.130318,0.000000
406.963095,-2812.782580,-11917.315666,-383.047749
406.963422,-2590.720797,-10807.006753,-536.266849
406.963750,-740.205942,-10140.821405,0.000000
406.964078,1258.350101,-9030.512492,153.219100
