#time,accel_x,accel_y,accel_z
501.999439,0.000000,-9030.512492,536.266849
501.999766,-370.102971,-9252.574275,689.485948
502.000094,-296.082377,-9178.553681,612.876398
502.000422,-444.123565,-9030.512492,536.266849
502.000749,-296.082377,-8734.430116,689.485948
502.001077,-444.123565,-8956.491898,612.876398
502.001405,-296.082377,-8956.491898,536.266849
502.001732,-370.102971,-9104.533087,612.876398
502.002060,0.000000,-9252.574275,536.266849
502.002387,-222.061783,-9030.512492,306.438199
502.002715,74.020594,-8956.491898,689.485948
502.003043,-666.185348,-8956.491898,766.095498
502.003370,-296.082377,-9104.533087,766.095498
502.003698,-148.041188,-8956.491898,766.095498
502.004026,-296.082377,-9030.512492,536.266849
502.004353,-740.205942,-8808.450710,919.314598
502.004681,-518.144159,-9030.512492,229.828649
502.005009,0.000000,-9252.574275,459.657299
502.005336,-148.041188,-9104.533087,689.485948
502.005664,-148.041188,-9030.512492,536.266849
502.005991,0.000000,-8882.471304,842.705048
502.006319,-370.102971,-9104.533087,995.924147
502.006647,-370.102971,-9252.574275,689.485948
502.006974,-296.082377,-9178.553681,536.266849
502.007302,-148.041188,-9030.512492,459.657299
502.007630,0.000000,-9178.553681,689.485948
502.007957,-296.082377,-8734.430116,689.485948
502.008285,0.000000,-9326.594869,689.485948
502.008613,-518.144159,-9252.574275,306.438199
502.008940,-1036.288319,-9178.553681,0.000000
502.009268,-1554.432478,-9548.656652,-153.219100
502.009595,-1332.370696,-9326.594869,0.000000
502.009923,-1110.308913,-9252.574275,-689.485948
502.010251,-592.164754,-8882.471304,-153.219100
502.010578,-518.144159,-8882.471304,-383.047749
502.010906,-888.247130,-9030.512492,-842.705048
502.011234,-962.267725,-9104.533087,-1149.143247
502.011561,-1184.329507,-8734.430116,-995.924147
502.011889,-1110.308913,-9030.512492,-1225.752797
502.012217,-888.247130,-9400.615463,-1302.362347
502.012544,-666.185348,-9178.553681,-1455.581446
502.012872,-296.082377,-8808.450710,-1149.143247
502.013199,74.020594,-8660.409521,-536.266849
502.013527,0.000000,-9326.594869,-1302.362347
502.013855,74.020594,-9474.636058,-1455.581446
502.014182,0.000000,-9252.574275,-1532.190996
502.014510,74.020594,-9178.553681,-1685.410096
502.014838,0.000000,-9178.553681,-1838.629195
502.015165,296.082377,-9400.615463,-1915.238745
502.015493,444.123565,-9400.615463,-1685.410096
502.015821,666.185348,-9104.533087,-1378.971896
502.016148,592.164754,-8956.491898,-1532.190996
502.016476,666.185348,-9474.636058,-1532.190996
502.016803,0.000000,-9178.553681,-1762.019645
502.017131,74.020594,-9252.574275,-1838.629195
502.017459,0.000000,-9252.574275,-1991.848295
502.017786,0.000000,-9252.574275,-1915.238745
502.018114,74.020594,-9474.636058,-1608.800546
502.018442,0.000000,-9474.636058,-2145.067394
502.018769,-740.205942,-9104.533087,-1991.848295
502.019097,-888.247130,-8956.491898,-1991.848295
502.019425,-1258.350101,-8956.491898,-2221.676944
502.019752,-1480.411884,-9030.512492,-2298.286494
502.020080,-1776.494261,-9178.553681,-2528.115143
502.020407,-1998.556043,-8956.491898,-3140.991542
502.020735,-1998.556043,-8882.471304,-3294.210641
502.021063,-1998.556043,-8956.491898,-3447.429741
502.021390,-2146.597232,-8882.471304,-3600.648841
502.021718,-1332.370696,-9252.574275,-4060.306139
502.022046,-2146.597232,-8734.430116,-4060.306139
502.022373,-1850.514855,-9030.512492,-4136.915689
502.022701,-1628.453072,-8882.471304,-4290.134789
502.023029,-1036.288319,-9030.512492,-4136.915689
502.023356,0.000000,-9104.533087,-3600.648841
502.023684,518.144159,-8808.450710,-3064.381992
502.024011,1406.391290,-8882.471304,-3140.991542
502.024339,1924.535449,-8808.450710,-2757.943793
502.024667,2368.659014,-9104.533087,-2221.676944
502.024994,2220.617826,-8586.388927,-2068.457845
502.025322,2516.700203,-9770.718434,-2298.286494
502.025650,1258.350101,-9992.780217,-2451.505594
502.025977,592.164754,-10288.862594,-2757.943793
502.026305,-518.144159,-10510.924376,-3140.991542
502.026633,-1332.370696,-10066.800811,-3753.867940
502.026960,-2072.576638,-10288.862594,-4673.182538
502.027288,-1628.453072,-9252.574275,-4903.011187
502.027615,-814.226536,-8808.450710,-4749.792088
502.027943,814.226536,-7846.182985,-4596.572988
502.028271,2146.597232,-7254.018232,-3677.258390
502.028598,2812.782580,-6883.915261,-2681.334243
502.028926,3034.844362,-7550.100608,-2451.505594
502.029254,1036.288319,-8660.409521,-2068.457845
502.029581,-592.164754,-9696.697840,-1915.238745
502.029909,-2590.720797,-10436.903782,-2374.896044
502.030237,-3552.988522,-10807.006753,-2834.553343
502.030564,-4145.153275,-10732.986159,-2604.724693
502.030892,-1406.391290,-9326.594869,-1838.629195
502.031220,3701.029710,-7105.977043,306.438199
502.031547,8882.471304,-5403.503377,2604.724693
502.031875,11251.130318,-5255.462188,4673.182538
502.032202,9326.594869,-7179.997637,4366.744339
502.032530,4219.173869,-9622.677246,3677.258390
502.032858,-2294.638420,-11991.336260,1838.629195
502.033185,-8142.265362,-13471.748144,-306.438199
502.033513,-11325.150913,-14285.974681,-1991.848295
502.033841,-12139.377449,-13767.830521,-3294.210641
502.034168,-11917.315666,-12583.501014,-3677.258390
502.034496,-6217.729913,-9400.615463,-4673.182538
502.034824,-4589.276840,-6587.832884,-2834.553343
502.035151,-296.082377,-3849.070898,-4290.134789
502.035479,814.226536,-4367.215058,-3907.087040
502.035806,-3330.926739,-5403.503377,-6052.154434
502.036134,-6365.771101,-7402.059420,-6971.469032
502.036462,-11251.130318,-9696.697840,-8350.440928
502.036789,-12509.480420,-9474.636058,-9193.145976
502.037117,-9030.512492,-9548.656652,-7967.393179
502.037445,-4959.379811,-8586.388927,-6281.983084
502.037772,2886.803174,-7476.080014,-4903.011187
502.038100,6661.853478,-7105.977043,-3064.381992
502.038428,8438.347739,-7772.162391,-3370.820191
502.038755,7772.162391,-9548.656652,-4060.306139
502.039083,4811.338623,-10436.903782,-5515.887586
502.039410,4589.276840,-11917.315666,-6358.592633
502.039738,6661.853478,-10732.986159,-5745.716235
502.040066,10140.821405,-8882.471304,-3600.648841
502.040393,13249.686362,-9474.636058,-766.095498
502.040721,12435.459826,-9622.677246,-229.828649
502.041049,9030.512492,-10288.862594,-1302.362347
502.041376,8290.306550,-11473.192101,-689.485948
502.041704,7105.977043,-10436.903782,-2374.896044
502.042032,4663.297435,-10658.965565,-1762.019645
502.042359,4441.235652,-11695.253884,-1762.019645
502.042687,-3182.885551,-12509.480420,-3064.381992
502.043014,-10288.862594,-13471.748144,-5362.668486
502.043342,-13249.686362,-10214.842000,-7660.954980
502.043670,-11547.212695,-6217.729913,-7584.345430
502.043997,-6069.688724,-2516.700203,-6588.421283
502.044325,1184.329507,-444.123565,-5209.449386
502.044653,1776.494261,-1184.329507,-2834.553343
502.044980,2812.782580,-2294.638420,-1762.019645
502.045308,-370.102971,-4515.256246,-842.705048
502.045636,-2368.659014,-4811.338623,-1072.533697
502.045963,-2664.741391,-7772.162391,-459.657299
502.046291,-3108.864956,-10807.006753,1225.752797
502.046618,-3034.844362,-11399.171507,2757.943793
502.046946,-1998.556043,-11917.315666,5286.058936
502.047274,296.082377,-10732.986159,7124.688131
502.047601,2442.679609,-9548.656652,6281.983084
502.047929,3552.988522,-10955.047942,5898.935335
502.048257,1406.391290,-11695.253884,3370.820191
502.048584,-1702.473667,-12361.439231,995.924147
502.048912,-3256.906145,-11177.109724,919.314598
502.049240,-1924.535449,-8586.388927,1378.971896
502.049567,222.061783,-7328.038826,1762.019645
502.049895,1332.370696,-8216.285956,2298.286494
502.050222,-296.082377,-9326.594869,2451.505594
502.050550,-5477.523971,-9400.615463,306.438199
502.050878,-7624.121203,-9104.533087,1685.410096
502.051205,-6735.874072,-8956.491898,-229.828649
502.051533,-6439.791695,-10510.924376,0.000000
502.051861,-5551.544565,-10955.047942,-995.924147
502.052188,-6291.750507,-10214.842000,-2145.067394
502.052516,-7031.956449,-8216.285956,-1915.238745
502.052844,-4293.194464,-6143.709319,-1991.848295
502.053171,-1702.473667,-4737.318029,-2068.457845
502.053499,1184.329507,-6587.832884,-2604.724693
502.053826,2738.761985,-8660.409521,-3294.210641
502.054154,3108.864956,-8734.430116,-3064.381992
502.054482,5107.421000,-8216.285956,-1455.581446
502.054810,7550.100608,-9474.636058,0.000000
502.055137,8364.327145,-11991.336260,842.705048
502.055465,7994.224174,-14804.118840,1072.533697
502.055793,5255.462188,-15544.324782,612.876398
502.056120,3404.947333,-13397.727550,1302.362347
502.056448,2738.761985,-12583.501014,1915.238745
502.056776,2590.720797,-12509.480420,1149.143247
502.057104,2590.720797,-12435.459826,842.705048
502.057431,3404.947333,-11991.336260,842.705048
502.057759,2368.659014,-8216.285956,459.657299
502.058087,3552.988522,-6069.688724,1532.190996
502.058414,2960.823768,-5255.462188,0.000000
502.058742,-1036.288319,-7179.997637,-995.924147
502.059070,-4145.153275,-7920.203579,-2757.943793
502.059398,-5181.441594,-6957.935855,-1991.848295
502.059725,-6217.729913,-5699.585753,-1838.629195
502.060053,-5255.462188,-5625.565159,-1149.143247
502.060381,-4885.359217,-8290.306550,-229.828649
502.060708,-5403.503377,-8882.471304,-1302.362347
502.061036,-3923.091493,-8364.327145,-1149.143247
502.061364,-2368.659014,-7105.977043,0.000000
502.061692,-3182.885551,-6735.874072,-229.828649
502.062019,-4145.153275,-7624.121203,-459.657299
502.062347,-4071.132681,-9030.512492,-766.095498
502.062675,-2812.782580,-9030.512492,-612.876398
502.063002,-222.061783,-7179.997637,229.828649
502.063330,2442.679609,-7105.977043,2068.457845
502.063658,3034.844362,-8512.368333,1762.019645
502.063986,2886.803174,-10436.903782,1915.238745
502.064313,3552.988522,-10807.006753,2374.896044
502.064641,4145.153275,-9474.636058,2451.505594
502.064969,4219.173869,-9104.533087,3217.601092
502.065296,3256.906145,-9844.739029,2604.724693
502.065624,814.226536,-10881.027347,1991.848295
502.065952,0.000000,-11029.068536,1762.019645
502.066280,444.123565,-8734.430116,1685.410096
502.066607,-222.061783,-7846.182985,689.485948
502.066935,-592.164754,-8364.327145,1225.752797
502.067263,-592.164754,-7994.224174,-153.219100
502.067590,-1776.494261,-8068.244768,306.438199
502.067918,1924.535449,-6217.729913,229.828649
502.068246,1776.494261,-6291.750507,689.485948
502.068574,0.000000,-8438.347739,995.924147
502.068901,-2812.782580,-10140.821405,153.219100
502.069229,-5107.421000,-11473.192101,306.438199
502.069557,-4737.318029,-10658.965565,153.219100
502.069884,-2368.659014,-9696.697840,919.314598
502.070212,-1776.494261,-9548.656652,536.266849
502.070540,-1036.288319,-10881.027347,153.219100
502.070868,-814.226536,-10436.903782,842.705048
502.071195,-148.041188,-8808.450710,1072.533697
502.071523,740.205942,-8512.368333,1532.190996
502.071851,296.082377,-8364.327145,919.314598
502.072178,-2294.638420,-10436.903782,-383.047749
502.072506,-3627.009116,-10436.903782,-612.876398
502.072834,-2516.700203,-9326.594869,-306.438199
502.073162,0.000000,-8068.244768,383.047749
502.073489,1406.391290,-8290.306550,689.485948
502.073817,1110.308913,-9844.739029,995.924147
502.074145,1036.288319,-9992.780217,919.314598
502.074472,814.226536,-9474.636058,1378.971896
502.074800,1628.453072,-9030.512492,1302.362347
502.075128,1258.350101,-10214.842000,1378.971896
502.075456,-518.144159,-11621.233289,766.095498
502.075783,-1702.473667,-11991.336260,766.095498
502.076111,-1998.556043,-10436.903782,76.609550
502.076439,-444.123565,-8882.471304,1225.752797
502.076767,1850.514855,-8586.388927,766.095498
502.077094,1110.308913,-9696.697840,612.876398
502.077422,370.102971,-9178.553681,0.000000
502.077750,962.267725,-8512.368333,153.219100
502.078077,1332.370696,-7550.100608,689.485948
502.078405,740.205942,-7846.182985,1072.533697
502.078733,592.164754,-9548.656652,1378.971896
502.079061,-2368.659014,-10288.862594,536.266849
502.079388,-2146.597232,-9770.718434,306.438199
502.079716,-2146.597232,-8586.388927,229.828649
502.080044,-1406.391290,-8290.306550,306.438199
502.080371,-962.267725,-9030.512492,0.000000
502.080699,-1628.453072,-9326.594869,-306.438199
502.081027,-666.185348,-7698.141797,0.000000
502.081355,814.226536,-6661.853478,459.657299
502.081682,1850.514855,-6069.688724,612.876398
502.082010,888.247130,-7402.059420,306.438199
502.082338,-740.205942,-9030.512492,0.000000
502.082665,-1850.514855,-9252.574275,-383.047749
502.082993,-962.267725,-8364.327145,153.219100
502.083321,0.000000,-8290.306550,459.657299
502.083649,592.164754,-8660.409521,1072.533697
502.083976,592.164754,-10066.800811,1072.533697
502.084304,740.205942,-9844.739029,1302.362347
502.084632,2072.576638,-8438.347739,1838.629195
502.084959,2072.576638,-8142.265362,1762.019645
502.085287,666.185348,-9104.533087,536.266849
502.085615,-2294.638420,-10362.883188,153.219100
502.085943,-2368.659014,-9992.780217,0.000000
502.086270,-1924.535449,-8660.409521,0.000000
502.086598,592.164754,-7328.038826,536.266849
502.086926,0.000000,-7994.224174,306.438199
502.087253,74.020594,-9770.718434,0.000000
502.087581,-962.267725,-8882.471304,-229.828649
502.087909,888.247130,-7179.997637,0.000000
502.088237,1480.411884,-6883.915261,383.047749
502.088564,814.226536,-8290.306550,153.219100
502.088892,-1110.308913,-9992.780217,153.219100
502.089220,-2516.700203,-9770.718434,-153.219100
502.089547,-1332.370696,-9326.594869,0.000000
502.089875,148.041188,-8882.471304,383.047749
502.090203,740.205942,-9474.636058,766.095498
502.090531,74.020594,-10362.883188,612.876398
502.090858,-222.061783,-9992.780217,536.266849
502.091186,666.185348,-9030.512492,842.705048
502.091514,1776.494261,-8882.471304,1455.581446
502.091841,1480.411884,-9622.677246,1455.581446
502.092169,-370.102971,-11399.171507,1149.143247
502.092497,-2590.720797,-11621.233289,1072.533697
502.092825,-2516.700203,-10807.006753,919.314598
502.093152,-1184.329507,-9770.718434,1149.143247
502.093480,-962.267725,-9844.739029,689.485948
502.093808,-1110.308913,-10436.903782,536.266849
502.094135,-1184.329507,-9326.594869,459.657299
502.094463,-444.123565,-8290.306550,919.314598
502.094791,1406.391290,-7254.018232,1149.143247
502.095119,1332.370696,-7994.224174,1608.800546
502.095446,-518.144159,-10066.800811,995.924147
502.095774,-2442.679609,-10510.924376,306.438199
502.096102,-3256.906145,-9770.718434,919.314598
502.096430,-1776.494261,-8438.347739,842.705048
502.096757,-222.061783,-8364.327145,1072.533697
502.097085,-518.144159,-9400.615463,842.705048
502.097413,-444.123565,-9696.697840,1608.800546
502.097740,296.082377,-8512.368333,1149.143247
502.098068,1406.391290,-7105.977043,1608.800546
502.098396,1554.432478,-7550.100608,1302.362347
502.098724,-222.061783,-9252.574275,612.876398
502.099051,-2220.617826,-10066.800811,0.000000
502.099379,-2368.659014,-9400.615463,0.000000
502.099707,-592.164754,-7698.141797,229.828649
502.100034,814.226536,-8068.244768,995.924147
502.100362,666.185348,-9400.615463,766.095498
502.100690,148.041188,-10066.800811,919.314598
502.101018,222.061783,-8808.450710,1378.971896
502.101345,888.247130,-8364.327145,1378.971896
502.101673,1184.329507,-8438.347739,1225.752797
502.102001,0.000000,-9770.718434,689.485948
502.102328,-1850.514855,-10214.842000,0.000000
502.102656,-2146.597232,-9696.697840,153.219100
502.102984,-592.164754,-7772.162391,229.828649
502.103312,666.185348,-6957.935855,306.438199
502.103639,1036.288319,-7476.080014,0.000000
502.103967,148.041188,-8438.347739,-306.438199
502.104295,0.000000,-8660.409521,0.000000
502.104622,1036.288319,-7550.100608,0.000000
502.104950,1924.535449,-7846.182985,306.438199
502.105278,1110.308913,-8956.491898,306.438199
502.105606,-592.164754,-10658.965565,-229.828649
502.105933,-1850.514855,-11325.150913,0.000000
502.106261,-592.164754,-9548.656652,76.609550
502.106589,370.102971,-9178.553681,383.047749
502.106916,592.164754,-9326.594869,383.047749
502.107244,0.000000,-10732.986159,306.438199
502.107572,0.000000,-10436.903782,536.266849
502.107900,962.267725,-8882.471304,306.438199
502.108227,1776.494261,-8290.306550,842.705048
502.108555,444.123565,-9178.553681,306.438199
502.108883,-1480.411884,-10658.965565,0.000000
502.109210,-2886.803174,-10955.047942,-229.828649
502.109538,-2072.576638,-9474.636058,-306.438199
502.109866,-592.164754,-8438.347739,459.657299
502.110194,518.144159,-8660.409521,459.657299
502.110521,148.041188,-9696.697840,842.705048
502.110849,-592.164754,-9992.780217,919.314598
502.111177,0.000000,-9252.574275,1455.581446
502.111504,-444.123565,-8068.244768,1532.190996
502.111832,-444.123565,-9030.512492,1302.362347
502.112160,-1850.514855,-10288.862594,536.266849
502.112488,-3108.864956,-10436.903782,153.219100
502.112815,-2516.700203,-9178.553681,383.047749
502.113143,-740.205942,-7402.059420,153.219100
502.113471,740.205942,-7550.100608,689.485948
502.113798,740.205942,-8660.409521,766.095498
502.114126,370.102971,-9252.574275,536.266849
502.114454,518.144159,-8438.347739,1149.143247
502.114782,1332.370696,-7994.224174,1302.362347
502.115109,370.102971,-8734.430116,1838.629195
502.115437,-1406.391290,-10362.883188,1072.533697
502.115765,-2738.761985,-11177.109724,766.095498
502.116093,-2960.823768,-10288.862594,612.876398
502.116420,-1702.473667,-9178.553681,919.314598
502.116748,-296.082377,-8734.430116,766.095498
502.117076,-1036.288319,-9252.574275,-153.219100
502.117403,-1258.350101,-9104.533087,-306.438199
502.117731,-370.102971,-7994.224174,-229.828649
502.118059,1776.494261,-6809.894666,306.438199
502.118387,2368.659014,-6513.812290,842.705048
502.118714,1554.432478,-8512.368333,459.657299
502.119042,-444.123565,-9992.780217,383.047749
502.119370,-1184.329507,-9992.780217,612.876398
502.119697,-518.144159,-9326.594869,1149.143247
502.120025,296.082377,-9400.615463,766.095498
502.120353,296.082377,-10214.842000,1072.533697
502.120681,370.102971,-10658.965565,995.924147
502.121008,1406.391290,-9178.553681,1378.971896
502.121336,2960.823768,-7846.182985,2221.676944
502.121664,3552.988522,-7254.018232,1762.019645
502.121991,1776.494261,-8438.347739,1072.533697
502.122319,-740.205942,-9622.677246,229.828649
502.122647,-2590.720797,-9696.697840,-383.047749
502.122975,-2294.638420,-8290.306550,-229.828649
502.123302,-740.205942,-8216.285956,0.000000
502.123630,-888.247130,-8438.347739,-306.438199
502.123958,-1554.432478,-9474.636058,-229.828649
502.124285,-1850.514855,-9252.574275,-229.828649
502.124613,-888.247130,-7624.121203,306.438199
502.124941,-370.102971,-7846.182985,766.095498
502.125269,-888.247130,-8216.285956,459.657299
502.125596,-2738.761985,-9622.677246,-459.657299
502.125924,-3849.070898,-9770.718434,-689.485948
502.126252,-2960.823768,-8956.491898,-383.047749
502.126579,-1628.453072,-8068.244768,76.609550
502.126907,-222.061783,-8290.306550,0.000000
502.127235,0.000000,-9252.574275,229.828649
502.127563,148.041188,-9104.533087,459.657299
502.127890,1924.535449,-8290.306550,612.876398
502.128218,2886.803174,-7624.121203,1302.362347
502.128546,2368.659014,-8660.409521,1532.190996
502.128873,814.226536,-10881.027347,383.047749
502.129201,-1332.370696,-11399.171507,0.000000
502.129529,-1554.432478,-10362.883188,383.047749
502.129857,0.000000,-9474.636058,229.828649
502.130184,518.144159,-9844.739029,229.828649
502.130512,1332.370696,-9770.718434,0.000000
502.130840,222.061783,-10066.800811,76.609550
502.131167,1332.370696,-8512.368333,536.266849
502.131495,2220.617826,-7698.141797,842.705048
502.131823,1924.535449,-8512.368333,689.485948
502.132151,148.041188,-9770.718434,383.047749
502.132478,-1924.535449,-11029.068536,229.828649
502.132806,-2146.597232,-9992.780217,459.657299
502.133134,-1184.329507,-8808.450710,612.876398
502.133461,-148.041188,-8956.491898,995.924147
502.133789,74.020594,-9696.697840,919.314598
502.134117,-370.102971,-9918.759623,995.924147
502.134445,740.205942,-8956.491898,1225.752797
502.134772,2146.597232,-8364.327145,2068.457845
502.135100,1998.556043,-8808.450710,1685.410096
502.135428,-222.061783,-10584.944971,1608.800546
502.135755,-2590.720797,-11325.150913,459.657299
502.136083,-3478.967927,-10881.027347,306.438199
502.136411,-2664.741391,-9622.677246,536.266849
502.136739,-1850.514855,-9400.615463,689.485948
502.137066,-1406.391290,-9252.574275,383.047749
502.137394,-1998.556043,-10436.903782,459.657299
502.137722,-1258.350101,-9030.512492,306.438199
502.138050,-148.041188,-7476.080014,459.657299
502.138377,444.123565,-7179.997637,536.266849
502.138705,-814.226536,-8142.265362,0.000000
502.139033,-1924.535449,-8808.450710,-536.266849
502.139360,-2664.741391,-8512.368333,0.000000
502.139688,-1110.308913,-7550.100608,383.047749
502.140016,592.164754,-7031.956449,1302.362347
502.140344,1628.453072,-7994.224174,1378.971896
502.140671,1776.494261,-8956.491898,1685.410096
502.140999,1776.494261,-8660.409521,2145.067394
502.141327,2738.761985,-7698.141797,2374.896044
502.141654,3108.864956,-7846.182985,2757.943793
502.141982,1924.535449,-8882.471304,1915.238745
502.142310,-518.144159,-10510.924376,1378.971896
502.142638,-1554.432478,-9844.739029,459.657299
502.142965,-1332.370696,-8882.471304,842.705048
502.143293,-370.102971,-8586.388927,689.485948
502.143621,-962.267725,-9252.574275,153.219100
502.143948,-1776.494261,-9918.759623,-306.438199
502.144276,-1850.514855,-9326.594869,0.000000
502.144604,-888.247130,-7994.224174,-459.657299
502.144932,-296.082377,-7105.977043,-153.219100
502.145259,-1184.329507,-7550.100608,-842.705048
502.145587,-3330.926739,-9178.553681,-1149.143247
502.145915,-4293.194464,-8586.388927,-1302.362347
502.146242,-3775.050304,-7550.100608,-919.314598
502.146570,-1924.535449,-6883.915261,-766.095498
502.146898,-296.082377,-6883.915261,-536.266849
502.147226,518.144159,-8364.327145,-306.438199
502.147553,666.185348,-8882.471304,0.000000
502.147881,1776.494261,-6883.915261,919.314598
502.148209,2812.782580,-7624.121203,995.924147
502.148536,3627.009116,-9326.594869,1225.752797
502.148864,1628.453072,-10436.903782,459.657299
502.149192,518.144159,-12509.480420,1225.752797
502.149520,-148.041188,-11029.068536,383.047749
502.149847,666.185348,-10955.047942,766.095498
502.150175,1332.370696,-11325.150913,536.266849
502.150503,814.226536,-12139.377449,0.000000
502.150830,518.144159,-11843.295072,229.828649
502.151158,814.226536,-10214.842000,0.000000
502.151486,1554.432478,-10214.842000,306.438199
502.151814,1184.329507,-9252.574275,536.266849
502.152141,-814.226536,-10140.821405,-229.828649
502.152469,-2812.782580,-10955.047942,-536.266849
502.152797,-3108.864956,-9400.615463,-306.438199
502.153124,-2146.597232,-8216.285956,229.828649
502.153452,-592.164754,-7846.182985,306.438199
502.153780,-148.041188,-8438.347739,306.438199
502.154108,-370.102971,-9326.594869,842.705048
502.154435,518.144159,-8808.450710,1378.971896
502.154763,1480.411884,-7994.224174,2145.067394
502.155091,1480.411884,-8290.306550,2298.286494
502.155418,0.000000,-9918.759623,1762.019645
502.155746,-1998.556043,-11251.130318,1225.752797
502.156074,-1924.535449,-10510.924376,919.314598
502.156402,-518.144159,-9474.636058,2068.457845
502.156729,444.123565,-9474.636058,1838.629195
502.157057,0.000000,-10362.883188,1455.581446
502.157385,-1110.308913,-11251.130318,1532.190996
502.157712,-888.247130,-10288.862594,1838.629195
502.158040,-1110.308913,-9252.574275,1378.971896
502.158368,-888.247130,-9326.594869,1302.362347
502.158696,-2072.576638,-9770.718434,383.047749
502.159023,-4071.132681,-10436.903782,0.000000
502.159351,-3923.091493,-9252.574275,0.000000
502.159679,-1850.514855,-7179.997637,76.609550
502.160006,0.000000,-6439.791695,689.485948
502.160334,592.164754,-6661.853478,766.095498
502.160662,296.082377,-7328.038826,919.314598
502.160989,740.205942,-7031.956449,919.314598
502.161317,1702.473667,-5773.606348,1685.410096
502.161645,2664.741391,-5921.647536,2068.457845
502.161973,1998.556043,-7624.121203,1532.190996
502.162300,222.061783,-9326.594869,1455.581446
502.162628,-666.185348,-9696.697840,1302.362347
502.162956,74.020594,-8734.430116,1225.752797
502.163283,1258.350101,-7846.182985,1455.581446
502.163611,1554.432478,-9548.656652,689.485948
502.163939,370.102971,-10584.944971,76.609550
502.164266,-666.185348,-10066.800811,-383.047749
502.164594,74.020594,-8734.430116,-383.047749
502.164922,1332.370696,-8068.244768,0.000000
502.165250,370.102971,-8734.430116,-459.657299
502.165577,-1850.514855,-10140.821405,-919.314598
502.165905,-3627.009116,-9844.739029,-1532.190996
502.166233,-3627.009116,-8734.430116,-1455.581446
502.166560,-2146.597232,-7402.059420,-995.924147
502.166888,-1184.329507,-7105.977043,-1149.143247
502.167216,-1110.308913,-8216.285956,-1149.143247
502.167543,-296.082377,-8216.285956,-459.657299
502.167871,666.185348,-7105.977043,-153.219100
502.168199,2368.659014,-6143.709319,612.876398
502.168527,2664.741391,-7179.997637,995.924147
502.168854,1110.308913,-9400.615463,459.657299
502.169182,0.000000,-10807.006753,459.657299
502.169510,148.041188,-10732.986159,536.266849
502.169837,1332.370696,-9992.780217,1149.143247
502.170165,2220.617826,-10140.821405,1302.362347
502.170493,1702.473667,-11769.274478,1149.143247
502.170820,740.205942,-12065.356855,459.657299
502.171148,814.226536,-11029.068536,612.876398
502.171476,1628.453072,-10140.821405,1072.533697
502.171804,1258.350101,-9474.636058,919.314598
502.172131,-888.247130,-10732.986159,76.609550
502.172459,-2886.803174,-11547.212695,-536.266849
502.172787,-3034.844362,-10140.821405,-459.657299
502.173114,-1924.535449,-8586.388927,0.000000
502.173442,-962.267725,-7846.182985,766.095498
502.173770,-740.205942,-8512.368333,536.266849
502.174097,-1110.308913,-9400.615463,919.314598
502.174425,-592.164754,-8290.306550,1532.190996
502.174753,592.164754,-6957.935855,1991.848295
502.175081,1258.350101,-7476.080014,2221.676944
502.175408,370.102971,-8956.491898,2374.896044
502.175736,-1776.494261,-10140.821405,1915.238745
502.176064,-1850.514855,-9992.780217,1762.019645
502.176391,-740.205942,-9548.656652,1991.848295
502.176719,-296.082377,-9622.677246,2145.067394
502.177047,-666.185348,-10732.986159,1838.629195
502.177374,-1332.370696,-11251.130318,1378.971896
502.177702,-1110.308913,-10436.903782,1072.533697
502.178030,74.020594,-9030.512492,1455.581446
502.178358,74.020594,-9178.553681,1225.752797
502.178685,-1110.308913,-9992.780217,1225.752797
502.179013,-3552.988522,-10732.986159,0.000000
502.179341,-4071.132681,-9400.615463,-459.657299
502.179668,-3182.885551,-7994.224174,-459.657299
502.179996,-1258.350101,-6735.874072,0.000000
502.180324,-518.144159,-6883.915261,229.828649
502.180651,-296.082377,-7328.038826,459.657299
502.180979,0.000000,-7031.956449,1149.143247
502.181307,1258.350101,-6365.771101,1762.019645
502.181635,2072.576638,-6513.812290,1838.629195
502.181962,1406.391290,-7179.997637,1302.362347
502.182290,296.082377,-9474.636058,842.705048
502.182618,-592.164754,-9030.512492,842.705048
502.182945,444.123565,-8068.244768,1072.533697
502.183273,1998.556043,-8142.265362,1225.752797
502.183601,2368.659014,-8882.471304,842.705048
502.183929,1776.494261,-10140.821405,536.266849
502.184256,814.226536,-9844.739029,-153.219100
502.184584,814.226536,-9400.615463,0.000000
502.184912,666.185348,-9400.615463,-306.438199
502.185239,-148.041188,-10066.800811,-459.657299
502.185567,-2738.761985,-11473.192101,-1455.581446
502.185895,-4071.132681,-11177.109724,-1915.238745
502.186222,-3627.009116,-9400.615463,-1762.019645
502.186550,-1998.556043,-7994.224174,-1685.410096
502.186878,-740.205942,-7772.162391,-1302.362347
502.187206,-518.144159,-8216.285956,-1378.971896
502.187533,-370.102971,-8216.285956,-995.924147
502.187861,444.123565,-7105.977043,-536.266849
502.188189,1850.514855,-6143.709319,0.000000
502.188516,2738.761985,-6883.915261,306.438199
502.188844,1924.535449,-9104.533087,689.485948
502.189172,740.205942,-9918.759623,306.438199
502.189499,592.164754,-9918.759623,995.924147
502.189827,1776.494261,-9548.656652,1455.581446
502.190155,2146.597232,-9844.739029,1532.190996
502.190483,1776.494261,-11547.212695,1225.752797
502.190810,1110.308913,-11917.315666,919.314598
502.191138,1480.411884,-11103.089130,1532.190996
502.191466,2072.576638,-10140.821405,1455.581446
502.191793,962.267725,-10436.903782,1378.971896
502.192121,-814.226536,-11621.233289,766.095498
502.192449,-3182.885551,-11843.295072,383.047749
502.192776,-3923.091493,-10436.903782,0.000000
502.193104,-2664.741391,-8808.450710,-229.828649
502.193432,-1924.535449,-8512.368333,612.876398
502.193760,-1554.432478,-8586.388927,612.876398
502.194087,-1850.514855,-8808.450710,612.876398
502.194415,-1406.391290,-7254.018232,766.095498
502.194743,0.000000,-6587.832884,2068.457845
502.195070,444.123565,-6587.832884,2528.115143
502.195398,-444.123565,-8068.244768,2221.676944
502.195726,-2442.679609,-9474.636058,2068.457845
502.196053,-2590.720797,-9252.574275,2374.896044
502.196381,-1702.473667,-8438.347739,2298.286494
502.196709,-444.123565,-8512.368333,2221.676944
502.197037,-370.102971,-9326.594869,1838.629195
502.197364,-740.205942,-10214.842000,1225.752797
502.197692,-148.041188,-9770.718434,1762.019645
502.198020,444.123565,-8882.471304,1072.533697
502.198347,592.164754,-8808.450710,995.924147
502.198675,-518.144159,-10214.842000,612.876398
502.199003,-2664.741391,-11473.192101,-536.266849
502.199330,-3923.091493,-10288.862594,-689.485948
502.199658,-2886.803174,-9030.512492,-459.657299
502.199986,-1924.535449,-8438.347739,-153.219100
502.200314,-888.247130,-8586.388927,-383.047749
502.200641,-1110.308913,-9252.574275,-459.657299
502.200969,0.000000,-7254.018232,-76.609550
502.201297,1702.473667,-5995.668130,459.657299
502.201624,3256.906145,-5773.606348,1225.752797
502.201952,2886.803174,-6809.894666,919.314598
502.202280,2146.597232,-8438.347739,995.924147
502.202607,1036.288319,-8808.450710,1455.581446
502.202935,1184.329507,-9030.512492,612.876398
502.203263,1850.514855,-9030.512492,919.314598
502.203591,1850.514855,-9548.656652,536.266849
502.203918,1702.473667,-11177.109724,153.219100
502.204246,1036.288319,-11103.089130,0.000000
502.204574,2294.638420,-10140.821405,153.219100
502.204901,2442.679609,-9696.697840,459.657299
502.205229,1554.432478,-10584.944971,-153.219100
502.205557,-1184.329507,-11843.295072,-1149.143247
502.205884,-3256.906145,-11991.336260,-1991.848295
502.206212,-3330.926739,-10436.903782,-1608.800546
502.206540,-2812.782580,-9252.574275,-995.924147
502.206868,-1258.350101,-8808.450710,-1149.143247
502.207195,-1628.453072,-9030.512492,-1302.362347
502.207523,-1480.411884,-8808.450710,-842.705048
502.207851,0.000000,-7772.162391,612.876398
502.208178,666.185348,-6513.812290,766.095498
502.208506,1110.308913,-6661.853478,383.047749
502.208834,0.000000,-8068.244768,153.219100
502.209161,-1332.370696,-9474.636058,229.828649
502.209489,-1332.370696,-9178.553681,766.095498
502.209817,222.061783,-8364.327145,1532.190996
502.210145,1628.453072,-8586.388927,2145.067394
502.210472,1702.473667,-9844.739029,2221.676944
502.210800,1628.453072,-10807.006753,2451.505594
502.211128,1850.514855,-10140.821405,2528.115143
502.211455,2294.638420,-9992.780217,2757.943793
502.211783,1036.288319,-10510.924376,2528.115143
502.212111,-1184.329507,-11769.274478,1378.971896
502.212438,-4071.132681,-12139.377449,612.876398
502.212766,-4145.153275,-10658.965565,0.000000
502.213094,-2812.782580,-8808.450710,383.047749
502.213422,-1480.411884,-7476.080014,536.266849
502.213749,-2294.638420,-7994.224174,383.047749
502.214077,-2442.679609,-7698.141797,229.828649
502.214405,-2294.638420,-6439.791695,229.828649
502.214732,-518.144159,-4885.359217,689.485948
502.215060,74.020594,-4811.338623,1149.143247
502.215388,-666.185348,-6439.791695,689.485948
502.215716,-2516.700203,-7994.224174,459.657299
502.216043,-2960.823768,-7994.224174,459.657299
502.216371,-1480.411884,-7254.018232,919.314598
502.216699,148.041188,-7031.956449,1685.410096
502.217026,1184.329507,-8512.368333,1455.581446
502.217354,1406.391290,-10140.821405,1378.971896
502.217682,1850.514855,-9992.780217,1685.410096
502.218009,2886.803174,-9400.615463,1685.410096
502.218337,3256.906145,-9992.780217,689.485948
502.218665,1258.350101,-11177.109724,689.485948
502.218993,-1258.350101,-12509.480420,-689.485948
502.219320,-2368.659014,-11917.315666,-1149.143247
502.219648,-962.267725,-10658.965565,-612.876398
502.219976,518.144159,-9326.594869,-459.657299
502.220303,148.041188,-8882.471304,-383.047749
502.220631,814.226536,-10140.821405,-383.047749
502.220959,296.082377,-9252.574275,-306.438199
502.221286,1110.308913,-7328.038826,0.000000
502.221614,1998.556043,-6883.915261,919.314598
502.221942,1702.473667,-7920.203579,1225.752797
502.222270,-370.102971,-8882.471304,459.657299
502.222597,-2072.576638,-8956.491898,536.266849
502.222925,-1924.535449,-7920.203579,689.485948
502.223253,-666.185348,-7698.141797,919.314598
502.223580,222.061783,-8068.244768,1225.752797
502.223908,222.061783,-9474.636058,383.047749
502.224236,518.144159,-9918.759623,612.876398
502.224563,1184.329507,-9474.636058,919.314598
502.224891,1850.514855,-9474.636058,1378.971896
502.225219,814.226536,-9918.759623,1685.410096
502.225547,-1258.350101,-11769.274478,0.000000
502.225874,-3330.926739,-11991.336260,-689.485948
502.226202,-3552.988522,-11399.171507,-612.876398
502.226530,-2664.741391,-10214.842000,-306.438199
502.226857,-1480.411884,-9992.780217,0.000000
502.227185,-1998.556043,-10214.842000,-153.219100
502.227513,-1998.556043,-9696.697840,-306.438199
502.227840,-666.185348,-8364.327145,536.266849
502.228168,666.185348,-6735.874072,1072.533697
502.228496,1702.473667,-6735.874072,1225.752797
502.228824,444.123565,-8142.265362,689.485948
502.229151,-1406.391290,-9252.574275,1149.143247
502.229479,-1850.514855,-8364.327145,1149.143247
502.229807,-592.164754,-7772.162391,1149.143247
502.230134,518.144159,-7624.121203,1378.971896
502.230462,1480.411884,-8660.409521,1762.019645
502.230790,962.267725,-10214.842000,1532.190996
502.231117,1554.432478,-9622.677246,1915.238745
502.231445,2442.679609,-8660.409521,1915.238745
502.231773,2146.597232,-9400.615463,1838.629195
502.232101,74.020594,-11251.130318,383.047749
502.232428,-2590.720797,-11991.336260,76.609550
502.232756,-3552.988522,-10881.027347,-306.438199
502.233084,-2220.617826,-9770.718434,0.000000
502.233411,-1184.329507,-9326.594869,0.000000
502.233739,-1258.350101,-9326.594869,-383.047749
502.234067,-1776.494261,-9326.594869,0.000000
502.234394,-1036.288319,-7772.162391,0.000000
502.234722,222.061783,-6069.688724,229.828649
502.235050,962.267725,-5921.647536,689.485948
502.235378,0.000000,-6661.853478,536.266849
502.235705,-1480.411884,-8364.327145,-306.438199
502.236033,-2442.679609,-8364.327145,0.000000
502.236361,-1184.329507,-7328.038826,536.266849
502.236688,814.226536,-7031.956449,1149.143247
502.237016,1702.473667,-7994.224174,1225.752797
502.237344,1998.556043,-9178.553681,1608.800546
502.237671,1850.514855,-9252.574275,995.924147
502.237999,2516.700203,-8586.388927,1072.533697
502.238327,2590.720797,-8956.491898,919.314598
502.238655,1554.432478,-10140.821405,536.266849
502.238982,-444.123565,-12065.356855,-153.219100
502.239310,-1924.535449,-11991.336260,-153.219100
502.239638,-962.267725,-10732.986159,0.000000
502.239965,222.061783,-9696.697840,306.438199
502.240293,518.144159,-10288.862594,459.657299
502.240621,0.000000,-10584.944971,0.000000
502.240948,-740.205942,-9696.697840,76.609550
502.241276,-222.061783,-8586.388927,689.485948
502.241604,592.164754,-7698.141797,919.314598
502.241932,-148.041188,-7698.141797,1149.143247
502.242259,-1998.556043,-8660.409521,612.876398
502.242587,-2590.720797,-8956.491898,76.609550
502.242915,-2664.741391,-7476.080014,153.219100
502.243242,-1258.350101,-6587.832884,689.485948
502.243570,296.082377,-6735.874072,919.314598
502.243898,592.164754,-7994.224174,919.314598
502.244226,444.123565,-9252.574275,1225.752797
502.244553,740.205942,-8586.388927,1225.752797
502.244881,1406.391290,-8882.471304,1455.581446
502.245209,148.041188,-9622.677246,1302.362347
502.245536,-1480.411884,-11695.253884,766.095498
502.245864,-3108.864956,-12213.398043,153.219100
502.246192,-2590.720797,-10881.027347,766.095498
502.246519,-1036.288319,-10288.862594,995.924147
502.246847,0.000000,-9770.718434,1149.143247
502.247175,0.000000,-10214.842000,1149.143247
502.247503,-370.102971,-10214.842000,842.705048
502.247830,-814.226536,-8364.327145,1225.752797
502.248158,740.205942,-7328.038826,1225.752797
502.248486,1110.308913,-7105.977043,1302.362347
502.248813,0.000000,-8216.285956,1149.143247
502.249141,-1924.535449,-8660.409521,842.705048
502.249469,-2812.782580,-7772.162391,1072.533697
502.249796,-1406.391290,-6957.935855,612.876398
502.250124,-222.061783,-6957.935855,612.876398
502.250452,296.082377,-8512.368333,612.876398
502.250780,-370.102971,-9104.533087,229.828649
502.251107,222.061783,-8438.347739,689.485948
502.251435,888.247130,-8290.306550,689.485948
502.251763,1702.473667,-8290.306550,689.485948
502.252090,370.102971,-9844.739029,76.609550
502.252418,-1258.350101,-11251.130318,-383.047749
502.252746,-1998.556043,-10807.006753,-1149.143247
502.253073,-814.226536,-9992.780217,-306.438199
502.253401,0.000000,-10140.821405,-383.047749
502.253729,0.000000,-10658.965565,-383.047749
502.254057,-888.247130,-11029.068536,-1149.143247
502.254384,-666.185348,-9696.697840,-995.924147
502.254712,740.205942,-8068.244768,-306.438199
502.255040,1924.535449,-8068.244768,153.219100
502.255367,1184.329507,-8956.491898,-306.438199
502.255695,-666.185348,-9844.739029,-383.047749
502.256023,-1554.432478,-9474.636058,-536.266849
502.256350,-888.247130,-8438.347739,-612.876398
502.256678,296.082377,-8438.347739,153.219100
502.257006,814.226536,-8956.491898,76.609550
502.257334,962.267725,-9696.697840,459.657299
502.257661,1258.350101,-9474.636058,536.266849
502.257989,2146.597232,-8512.368333,1378.971896
502.258316,2664.741391,-9030.512492,1762.019645
502.258644,1850.514855,-9992.780217,1149.143247
502.258971,0.000000,-11547.212695,766.095498
502.259299,-1036.288319,-11769.274478,536.266849
502.259627,-1110.308913,-10807.006753,1302.362347
502.259954,0.000000,-9918.759623,1302.362347
502.260282,444.123565,-10140.821405,995.924147
502.260609,-296.082377,-10510.924376,919.314598
502.260937,-666.185348,-9622.677246,1072.533697
502.261265,222.061783,-8290.306550,1762.019645
502.261592,370.102971,-7402.059420,1915.238745
502.261920,0.000000,-8142.265362,1838.629195
502.262247,-2368.659014,-9178.553681,1225.752797
502.262575,-4219.173869,-9548.656652,459.657299
502.262902,-4367.215058,-8290.306550,459.657299
502.263230,-2590.720797,-7105.977043,1149.143247
502.263558,-1628.453072,-7105.977043,1225.752797
502.263885,-1776.494261,-8142.265362,995.924147
502.264213,-1628.453072,-8586.388927,1072.533697
502.264540,-962.267725,-7550.100608,1378.971896
502.264868,-148.041188,-6661.853478,1838.629195
502.265196,296.082377,-7846.182985,1378.971896
502.265523,-1036.288319,-10140.821405,612.876398
502.265851,-2368.659014,-10881.027347,153.219100
502.266178,-1776.494261,-9770.718434,306.438199
502.266506,370.102971,-8660.409521,919.314598
502.266833,1332.370696,-9030.512492,842.705048
502.267161,814.226536,-9844.739029,612.876398
502.267489,592.164754,-10066.800811,766.095498
502.267816,1110.308913,-8142.265362,689.485948
502.268144,2516.700203,-6957.935855,995.924147
502.268471,2886.803174,-8290.306550,1302.362347
502.268799,518.144159,-9474.636058,766.095498
502.269126,-1332.370696,-9992.780217,153.219100
502.269454,-1554.432478,-8808.450710,0.000000
502.269782,-370.102971,-7624.121203,306.438199
502.270109,444.123565,-7402.059420,306.438199
502.270437,592.164754,-8364.327145,383.047749
502.270764,-370.102971,-9104.533087,0.000000
502.271092,0.000000,-8586.388927,0.000000
502.271420,888.247130,-7624.121203,0.000000
502.271747,1036.288319,-7476.080014,306.438199
502.272075,444.123565,-8956.491898,0.000000
502.272402,-1258.350101,-10436.903782,-842.705048
502.272730,-2516.700203,-10066.800811,-689.485948
502.273057,-1628.453072,-9622.677246,-306.438199
502.273385,-592.164754,-8808.450710,153.219100
502.273713,370.102971,-9696.697840,-306.438199
502.274040,-518.144159,-10362.883188,0.000000
502.274368,-370.102971,-9992.780217,153.219100
502.274695,814.226536,-8586.388927,1072.533697
502.275023,1332.370696,-8216.285956,766.095498
502.275351,814.226536,-9030.512492,842.705048
502.275678,-1258.350101,-9844.739029,229.828649
502.276006,-2072.576638,-9770.718434,0.000000
502.276333,-1480.411884,-8364.327145,0.000000
502.276661,148.041188,-7920.203579,766.095498
502.276988,1184.329507,-8142.265362,995.924147
502.277316,222.061783,-9178.553681,842.705048
502.277644,0.000000,-9178.553681,919.314598
502.277971,0.000000,-8586.388927,1072.533697
502.278299,518.144159,-7994.224174,1378.971896
502.278626,370.102971,-8660.409521,689.485948
502.278954,-1406.391290,-10066.800811,153.219100
502.279282,-2368.659014,-10436.903782,0.000000
502.279609,-1702.473667,-9474.636058,153.219100
502.279937,0.000000,-8660.409521,612.876398
502.280264,1036.288319,-8438.347739,1072.533697
502.280592,148.041188,-9548.656652,536.266849
502.280919,0.000000,-9918.759623,766.095498
502.281247,518.144159,-9252.574275,1532.190996
502.281575,1554.432478,-8882.471304,1685.410096
502.281902,962.267725,-9252.574275,1838.629195
502.282230,-962.267725,-10807.006753,1532.190996
502.282557,-2960.823768,-11251.130318,1072.533697
502.282885,-3108.864956,-9696.697840,919.314598
502.283212,-1480.411884,-8808.450710,919.314598
502.283540,-296.082377,-8290.306550,612.876398
502.283868,-1184.329507,-8586.388927,689.485948
502.284195,-1184.329507,-9400.615463,-229.828649
502.284523,-666.185348,-8216.285956,0.000000
502.284850,222.061783,-7328.038826,229.828649
502.285178,888.247130,-7624.121203,76.609550
502.285506,-222.061783,-9178.553681,0.000000
502.285833,-2072.576638,-9918.759623,-689.485948
502.286161,-2516.700203,-9696.697840,-383.047749
502.286488,-1406.391290,-9622.677246,153.219100
502.286816,-148.041188,-9770.718434,229.828649
502.287143,-444.123565,-10214.842000,229.828649
502.287471,222.061783,-10066.800811,0.000000
502.287799,1184.329507,-8660.409521,995.924147
502.288126,2886.803174,-7994.224174,1225.752797
502.288454,3478.967927,-8068.244768,1685.410096
502.288781,1998.556043,-8956.491898,1302.362347
502.289109,74.020594,-9844.739029,383.047749
502.289437,-962.267725,-9548.656652,229.828649
502.289764,-592.164754,-8734.430116,383.047749
502.290092,666.185348,-9178.553681,842.705048
502.290419,444.123565,-9622.677246,536.266849
502.290747,74.020594,-10140.821405,536.266849
502.291074,-222.061783,-9474.636058,766.095498
502.291402,888.247130,-8734.430116,919.314598
502.291730,592.164754,-8364.327145,612.876398
502.292057,0.000000,-9252.574275,536.266849
502.292385,-1998.556043,-9696.697840,536.266849
502.292712,-2590.720797,-9548.656652,-153.219100
502.293040,-1554.432478,-8438.347739,153.219100
502.293368,-592.164754,-8290.306550,383.047749
502.293695,-222.061783,-8808.450710,689.485948
502.294023,-814.226536,-9252.574275,153.219100
502.294350,-592.164754,-8660.409521,995.924147
502.294678,962.267725,-7772.162391,1378.971896
502.295005,2072.576638,-7846.182985,1915.238745
502.295333,962.267725,-9104.533087,1608.800546
502.295661,-1258.350101,-10510.924376,1149.143247
502.295988,-2368.659014,-10362.883188,536.266849
502.296316,-2294.638420,-8956.491898,306.438199
502.296643,-666.185348,-8512.368333,459.657299
502.296971,-370.102971,-8734.430116,383.047749
502.297298,-592.164754,-9770.718434,0.000000
502.297626,-1332.370696,-9474.636058,0.000000
502.297954,0.000000,-8512.368333,0.000000
502.298281,0.000000,-8364.327145,383.047749
502.298609,222.061783,-9030.512492,229.828649
502.298936,-1776.494261,-10214.842000,-536.266849
502.299264,-2294.638420,-10510.924376,-766.095498
502.299592,-1998.556043,-9104.533087,-459.657299
502.299919,0.000000,-8512.368333,306.438199
502.300247,1110.308913,-8068.244768,689.485948
502.300574,1036.288319,-8734.430116,766.095498
502.300902,1184.329507,-7994.224174,995.924147
502.301229,2368.659014,-7179.997637,1608.800546
502.301557,3108.864956,-7179.997637,1838.629195
502.301885,2294.638420,-7846.182985,2145.067394
502.302212,0.000000,-9918.759623,1225.752797
502.302540,-1850.514855,-10881.027347,919.314598
502.302867,-2072.576638,-9400.615463,612.876398
502.303195,-592.164754,-9252.574275,1072.533697
502.303523,222.061783,-8956.491898,842.705048
502.303850,-592.164754,-9770.718434,383.047749
502.304178,-1258.350101,-9474.636058,0.000000
502.304505,-962.267725,-8216.285956,-229.828649
502.304833,222.061783,-7328.038826,0.000000
502.305160,0.000000,-7698.141797,0.000000
502.305488,-1554.432478,-9252.574275,-459.657299
502.305816,-3404.947333,-10066.800811,-1072.533697
502.306143,-3034.844362,-9326.594869,-306.438199
502.306471,-1628.453072,-8660.409521,-536.266849
502.306798,0.000000,-8734.430116,612.876398
502.307126,296.082377,-9400.615463,766.095498
502.307454,0.000000,-9844.739029,995.924147
502.307781,1036.288319,-9326.594869,1608.800546
502.308109,2812.782580,-8068.244768,2681.334243
502.308436,3108.864956,-8956.491898,2374.896044
502.308764,1554.432478,-9992.780217,1915.238745
502.309091,-444.123565,-10881.027347,919.314598
502.309419,-1110.308913,-10214.842000,459.657299
502.309747,-222.061783,-8882.471304,842.705048
502.310074,740.205942,-9104.533087,1455.581446
502.310402,592.164754,-10436.903782,612.876398
502.310729,-1036.288319,-11251.130318,229.828649
502.311057,-1332.370696,-10214.842000,153.219100
502.311384,-740.205942,-9474.636058,76.609550
502.311712,-296.082377,-8808.450710,842.705048
502.312040,-1184.329507,-9326.594869,76.609550
502.312367,-2886.803174,-10214.842000,0.000000
502.312695,-3849.070898,-9400.615463,-689.485948
502.313022,-2516.700203,-8216.285956,-383.047749
502.313350,-1184.329507,-7105.977043,306.438199
502.313678,-666.185348,-7994.224174,229.828649
502.314005,-666.185348,-8882.471304,0.000000
502.314333,-296.082377,-8364.327145,766.095498
502.314660,1184.329507,-7105.977043,1455.581446
502.314988,2960.823768,-7254.018232,2681.334243
502.315315,2072.576638,-8364.327145,1915.238745
502.315643,370.102971,-10214.842000,1149.143247
502.315971,-1332.370696,-10288.862594,536.266849
502.316298,-1036.288319,-9622.677246,306.438199
502.316626,296.082377,-9030.512492,459.657299
502.316953,814.226536,-9548.656652,306.438199
502.317281,0.000000,-10436.903782,-153.219100
502.317609,-148.041188,-10066.800811,0.000000
502.317936,74.020594,-8734.430116,0.000000
502.318264,1554.432478,-7920.203579,689.485948
502.318591,1036.288319,-8512.368333,229.828649
502.318919,-1628.453072,-9622.677246,-842.705048
502.319246,-3034.844362,-9844.739029,-1072.533697
502.319574,-2368.659014,-8734.430116,-689.485948
502.319902,-666.185348,-7179.997637,0.000000
502.320229,888.247130,-7179.997637,306.438199
502.320557,592.164754,-7624.121203,612.876398
502.320884,740.205942,-7994.224174,766.095498
502.321212,1776.494261,-7254.018232,1302.362347
502.321540,2442.679609,-7031.956449,1608.800546
502.321867,2294.638420,-8142.265362,1532.190996
502.322195,0.000000,-9918.759623,842.705048
502.322522,-1850.514855,-11103.089130,612.876398
502.322850,-1924.535449,-10584.944971,383.047749
502.323177,-518.144159,-10140.821405,919.314598
502.323505,592.164754,-9548.656652,1149.143247
502.323833,0.000000,-9918.759623,766.095498
502.324160,-1332.370696,-10732.986159,153.219100
502.324488,-962.267725,-9474.636058,153.219100
502.324815,-666.185348,-8438.347739,153.219100
502.325143,-518.144159,-8216.285956,229.828649
502.325470,-1924.535449,-9178.553681,-306.438199
502.325798,-3923.091493,-10140.821405,-459.657299
502.326126,-3997.112087,-9104.533087,-383.047749
502.326453,-2516.700203,-7920.203579,76.609550
502.326781,-296.082377,-7402.059420,1455.581446
502.327108,222.061783,-8142.265362,612.876398
502.327436,74.020594,-8660.409521,842.705048
502.327764,370.102971,-7994.224174,1302.362347
502.328091,1702.473667,-7328.038826,1915.238745
502.328419,2442.679609,-8216.285956,2451.505594
502.328746,1332.370696,-8956.491898,1838.629195
502.329074,-296.082377,-10362.883188,1072.533697
502.329401,-962.267725,-10362.883188,689.485948
502.329729,74.020594,-9622.677246,1225.752797
502.330057,962.267725,-9696.697840,1455.581446
502.330384,1480.411884,-10066.800811,1225.752797
502.330712,-296.082377,-11695.253884,306.438199
502.331039,-888.247130,-10881.027347,0.000000
502.331367,-296.082377,-9844.739029,0.000000
502.331695,370.102971,-9474.636058,612.876398
502.332022,-666.185348,-9474.636058,459.657299
502.332350,-2146.597232,-10510.924376,-229.828649
502.332677,-3701.029710,-10140.821405,-842.705048
502.333005,-2664.741391,-8512.368333,-995.924147
502.333332,-1184.329507,-7476.080014,-689.485948
502.333660,-296.082377,-7550.100608,-229.828649
502.333988,-444.123565,-8660.409521,0.000000
502.334315,0.000000,-8216.285956,153.219100
502.334643,1406.391290,-7328.038826,919.314598
502.334970,2664.741391,-7179.997637,1608.800546
502.335298,2368.659014,-7994.224174,1378.971896
502.335626,666.185348,-9622.677246,1838.629195
502.335953,-444.123565,-10658.965565,842.705048
502.336281,148.041188,-10066.800811,919.314598
502.336608,1406.391290,-9918.759623,1225.752797
502.336936,1628.453072,-10288.862594,1532.190996
502.337263,1332.370696,-11621.233289,919.314598
502.337591,0.000000,-11251.130318,306.438199
502.337919,0.000000,-10066.800811,383.047749
502.338246,592.164754,-9030.512492,383.047749
502.338574,74.020594,-9400.615463,383.047749
502.338901,-2220.617826,-9770.718434,-383.047749
502.339229,-3997.112087,-9918.759623,-689.485948
502.339556,-4145.153275,-8808.450710,-689.485948
502.339884,-2294.638420,-7476.080014,0.000000
502.340212,-1110.308913,-6661.853478,0.000000
502.340539,-666.185348,-6883.915261,-306.438199
502.340867,-888.247130,-7105.977043,536.266849
502.341194,148.041188,-6439.791695,1072.533697
502.341522,962.267725,-5847.626942,1302.362347
502.341850,1332.370696,-6735.874072,1762.019645
502.342177,0.000000,-8438.347739,1532.190996
502.342505,-962.267725,-9474.636058,1302.362347
502.342832,-888.247130,-9474.636058,766.095498
502.343160,666.185348,-9104.533087,1685.410096
502.343487,1924.535449,-8956.491898,1991.848295
502.343815,1702.473667,-10140.821405,1685.410096
502.344143,0.000000,-10732.986159,842.705048
502.344470,74.020594,-10066.800811,766.095498
502.344798,0.000000,-9474.636058,383.047749
502.345125,0.000000,-9178.553681,459.657299
502.345453,-888.247130,-10066.800811,0.000000
502.345781,-3182.885551,-10732.986159,-689.485948
502.346108,-3330.926739,-9770.718434,-1225.752797
502.346436,-2294.638420,-8808.450710,-689.485948
502.346763,-296.082377,-7550.100608,0.000000
502.347091,370.102971,-7698.141797,0.000000
502.347418,296.082377,-7994.224174,229.828649
502.347746,222.061783,-7846.182985,229.828649
502.348074,1480.411884,-7476.080014,1149.143247
502.348401,2072.576638,-7624.121203,1762.019645
502.348729,962.267725,-8734.430116,1455.581446
502.349056,-740.205942,-10362.883188,995.924147
502.349384,-1036.288319,-10066.800811,995.924147
502.349712,0.000000,-9252.574275,1149.143247
502.350039,1702.473667,-9104.533087,1302.362347
502.350367,1554.432478,-9844.739029,1225.752797
502.350694,666.185348,-11029.068536,612.876398
502.351022,-222.061783,-11177.109724,536.266849
502.351349,74.020594,-9844.739029,229.828649
502.351677,370.102971,-9918.759623,383.047749
502.352005,-962.267725,-10362.883188,153.219100
502.352332,-3701.029710,-11399.171507,-842.705048
502.352660,-4737.318029,-10362.883188,-995.924147
502.352987,-3552.988522,-8660.409521,-919.314598
502.353315,-1406.391290,-7624.121203,-459.657299
502.353643,-148.041188,-7476.080014,0.000000
502.353970,-592.164754,-7846.182985,76.609550
502.354298,-296.082377,-8068.244768,-459.657299
502.354625,1036.288319,-6735.874072,766.095498
502.354953,2146.597232,-6291.750507,1838.629195
502.355280,2146.597232,-7328.038826,2221.676944
502.355608,814.226536,-9252.574275,1455.581446
502.355936,-814.226536,-10066.800811,1532.190996
502.356263,74.020594,-9474.636058,1685.410096
502.356591,1184.329507,-9400.615463,1608.800546
502.356918,1406.391290,-9918.759623,1302.362347
502.357246,296.082377,-10807.006753,383.047749
502.357573,-370.102971,-11177.109724,383.047749
502.357901,0.000000,-9992.780217,383.047749
502.358229,666.185348,-9104.533087,612.876398
502.358556,740.205942,-9696.697840,459.657299
502.358884,-1184.329507,-10362.883188,-383.047749
502.359211,-3404.947333,-10658.965565,-995.924147
502.359539,-3552.988522,-9696.697840,-919.314598
502.359866,-2368.659014,-8660.409521,-383.047749
502.360194,-1628.453072,-8438.347739,-153.219100
502.360521,-1480.411884,-8808.450710,-229.828649
502.360849,-1406.391290,-8734.430116,153.219100
502.361176,296.082377,-7105.977043,919.314598
502.361504,1702.473667,-6439.791695,1608.800546
502.361831,2886.803174,-6883.915261,2068.457845
502.362159,1554.432478,-8290.306550,1838.629195
502.362486,0.000000,-9696.697840,1378.971896
502.362814,-370.102971,-9622.677246,1378.971896
502.363141,370.102971,-9622.677246,1915.238745
502.363469,1110.308913,-10362.883188,1685.410096
502.363796,518.144159,-11473.192101,1302.362347
502.364124,-444.123565,-11917.315666,766.095498
502.364451,0.000000,-11399.171507,1149.143247
502.364779,1184.329507,-10214.842000,1149.143247
502.365106,740.205942,-10362.883188,1225.752797
502.365434,-518.144159,-11473.192101,612.876398
502.365761,-3108.864956,-12287.418637,-459.657299
502.366089,-4071.132681,-11103.089130,-919.314598
502.366416,-2960.823768,-9474.636058,-766.095498
502.366744,-1258.350101,-8512.368333,-536.266849
502.367071,-1258.350101,-8142.265362,-612.876398
502.367399,-814.226536,-8142.265362,-383.047749
502.367726,-370.102971,-6883.915261,0.000000
502.368054,1258.350101,-5921.647536,536.266849
502.368381,3034.844362,-5625.565159,1762.019645
502.368709,2072.576638,-7105.977043,1225.752797
502.369036,444.123565,-8956.491898,1072.533697
502.369364,-370.102971,-9474.636058,995.924147
502.369691,0.000000,-9178.553681,1302.362347
502.370019,1036.288319,-8660.409521,2145.067394
502.370346,1924.535449,-9770.718434,1225.752797
502.370674,1184.329507,-10510.924376,842.705048
502.371001,1110.308913,-9992.780217,536.266849
502.371329,1702.473667,-9252.574275,919.314598
502.371656,2294.638420,-8956.491898,842.705048
502.371984,444.123565,-9622.677246,0.000000
502.372311,-1924.535449,-10732.986159,-459.657299
502.372639,-3627.009116,-10658.965565,-1378.971896
502.372966,-3256.906145,-8734.430116,-1225.752797
502.373294,-1628.453072,-7772.162391,-1302.362347
502.373621,-1184.329507,-7550.100608,0.000000
502.373949,-1628.453072,-7772.162391,-153.219100
502.374276,-1776.494261,-7179.997637,0.000000
502.374604,0.000000,-6217.729913,383.047749
502.374931,814.226536,-5699.585753,842.705048
502.375259,666.185348,-6069.688724,1608.800546
502.375586,-740.205942,-7550.100608,612.876398
502.375914,-1776.494261,-8364.327145,612.876398
502.376241,-1258.350101,-7920.203579,689.485948
502.376569,296.082377,-7624.121203,1149.143247
502.376896,888.247130,-7920.203579,1532.190996
502.377224,814.226536,-9548.656652,1225.752797
502.377551,222.061783,-10510.924376,919.314598
502.377879,888.247130,-9992.780217,1302.362347
502.378206,1702.473667,-9844.739029,1532.190996
502.378534,962.267725,-10214.842000,2221.676944
502.378861,-1110.308913,-11695.253884,689.485948
502.379189,-3108.864956,-12065.356855,0.000000
502.379516,-3701.029710,-10955.047942,0.000000
502.379844,-2368.659014,-9326.594869,229.828649
502.380171,-1776.494261,-8290.306550,76.609550
502.380499,-1258.350101,-8586.388927,536.266849
502.380826,-1332.370696,-8808.450710,383.047749
502.381154,-740.205942,-7624.121203,689.485948
502.381481,74.020594,-6957.935855,1302.362347
502.381809,814.226536,-7179.997637,1455.581446
502.382136,-666.185348,-7624.121203,766.095498
502.382464,-1702.473667,-9548.656652,689.485948
502.382791,-2146.597232,-9326.594869,689.485948
502.383119,-444.123565,-8586.388927,1378.971896
502.383446,1036.288319,-8808.450710,1455.581446
502.383774,1480.411884,-9400.615463,1685.410096
502.384101,1184.329507,-10436.903782,1378.971896
502.384429,1332.370696,-10362.883188,1532.190996
502.384756,1258.350101,-10140.821405,1225.752797
502.385084,888.247130,-10658.965565,1378.971896
502.385411,-962.267725,-11695.253884,383.047749
502.385739,-3034.844362,-11991.336260,-383.047749
502.386066,-3330.926739,-11695.253884,-842.705048
502.386394,-2368.659014,-10288.862594,-689.485948
502.386721,-962.267725,-9474.636058,0.000000
502.387049,-444.123565,-9400.615463,-383.047749
502.387376,-444.123565,-9178.553681,306.438199
502.387704,148.041188,-8216.285956,0.000000
502.388031,888.247130,-7476.080014,612.876398
502.388359,1480.411884,-7105.977043,842.705048
502.388686,888.247130,-7624.121203,995.924147
502.389014,-592.164754,-7920.203579,766.095498
502.389341,-1258.350101,-9178.553681,842.705048
502.389669,-444.123565,-8734.430116,1149.143247
502.389996,740.205942,-8438.347739,1608.800546
502.390324,1110.308913,-8808.450710,1302.362347
502.390651,1184.329507,-9992.780217,919.314598
502.390979,1184.329507,-9918.759623,1225.752797
502.391306,1924.535449,-9548.656652,1378.971896
502.391634,1924.535449,-9474.636058,1532.190996
502.391961,1110.308913,-10140.821405,1072.533697
502.392289,-740.205942,-11251.130318,536.266849
502.392616,-3034.844362,-11103.089130,153.219100
502.392944,-2960.823768,-9918.759623,-383.047749
502.393271,-2220.617826,-9252.574275,-383.047749
502.393599,-1924.535449,-8586.388927,-842.705048
502.393926,-1850.514855,-8660.409521,-766.095498
502.394254,-1258.350101,-7624.121203,-995.924147
502.394581,0.000000,-6143.709319,0.000000
502.394909,1184.329507,-5847.626942,459.657299
502.395236,1406.391290,-6217.729913,1072.533697
502.395564,0.000000,-7179.997637,612.876398
502.395891,-1554.432478,-7402.059420,536.266849
502.396219,-1184.329507,-7698.141797,766.095498
502.396546,0.000000,-8068.244768,766.095498
502.396874,888.247130,-8586.388927,766.095498
502.397201,1480.411884,-9474.636058,995.924147
502.397529,1628.453072,-9844.739029,1149.143247
502.397856,2516.700203,-9104.533087,1378.971896
502.398184,3034.844362,-9326.594869,1532.190996
502.398511,2146.597232,-10140.821405,995.924147
502.398839,-296.082377,-11325.150913,76.609550
502.399166,-2738.761985,-11917.315666,-459.657299
502.399494,-3256.906145,-11177.109724,-383.047749
502.399821,-2220.617826,-10510.924376,-612.876398
502.400149,-1258.350101,-9992.780217,-306.438199
502.400477,-1628.453072,-9844.739029,-459.657299
502.400804,-1628.453072,-9474.636058,-536.266849
502.401132,-592.164754,-8290.306550,153.219100
502.401459,148.041188,-7105.977043,306.438199
502.401787,444.123565,-7105.977043,383.047749
502.402114,-740.205942,-7624.121203,76.609550
502.402442,-1702.473667,-8956.491898,-229.828649
502.402769,-1406.391290,-8290.306550,0.000000
502.403097,-222.061783,-7105.977043,766.095498
502.403424,1628.453072,-7624.121203,1072.533697
502.403752,1850.514855,-8512.368333,1378.971896
502.404079,1702.473667,-9474.636058,1225.752797
502.404407,1850.514855,-9992.780217,1455.581446
502.404734,1924.535449,-9548.656652,1532.190996
502.405062,1554.432478,-10658.965565,1762.019645
502.405389,222.061783,-11843.295072,995.924147
502.405717,-1702.473667,-12509.480420,459.657299
502.406044,-2220.617826,-11695.253884,306.438199
502.406372,-1036.288319,-10584.944971,536.266849
502.406699,-666.185348,-9992.780217,459.657299
502.407027,0.000000,-9474.636058,306.438199
502.407354,-1036.288319,-9400.615463,153.219100
502.407682,-962.267725,-8438.347739,383.047749
502.408009,0.000000,-7031.956449,459.657299
502.408337,222.061783,-7476.080014,1378.971896
502.408664,-444.123565,-7476.080014,1225.752797
502.408992,-2294.638420,-8438.347739,1149.143247
502.409319,-2812.782580,-8660.409521,766.095498
502.409647,-2072.576638,-7846.182985,689.485948
502.409974,-814.226536,-7772.162391,1532.190996
502.410302,148.041188,-8068.244768,1455.581446
502.410629,370.102971,-8734.430116,1072.533697
502.410957,740.205942,-8808.450710,1149.143247
502.411284,1776.494261,-8882.471304,1685.410096
502.411612,1998.556043,-9104.533087,1302.362347
502.411939,740.205942,-10066.800811,919.314598
502.412267,-1110.308913,-11251.130318,229.828649
502.412594,-2146.597232,-11251.130318,-229.828649
502.412922,-1258.350101,-10436.903782,0.000000
502.413249,-296.082377,-9548.656652,459.657299
502.413577,666.185348,-9474.636058,306.438199
502.413904,0.000000,-9844.739029,536.266849
502.414232,-370.102971,-9178.553681,306.438199
502.414559,-370.102971,-8216.285956,306.438199
502.414887,370.102971,-7179.997637,1302.362347
502.415214,296.082377,-7698.141797,689.485948
502.415542,-1184.329507,-8364.327145,612.876398
502.415869,-2220.617826,-8512.368333,0.000000
502.416197,-2146.597232,-7624.121203,229.828649
502.416524,-592.164754,-7550.100608,153.219100
502.416852,222.061783,-7476.080014,306.438199
502.417179,0.000000,-8364.327145,229.828649
502.417507,0.000000,-8882.471304,76.609550
502.417834,814.226536,-8142.265362,306.438199
502.418162,1628.453072,-8142.265362,766.095498
502.418489,1850.514855,-8438.347739,766.095498
502.418817,222.061783,-9992.780217,76.609550
502.419144,-1554.432478,-10732.986159,0.000000
502.419472,-2072.576638,-10658.965565,0.000000
502.419799,-1406.391290,-10362.883188,306.438199
502.420127,-740.205942,-10436.903782,689.485948
502.420454,-740.205942,-10362.883188,229.828649
502.420782,-1036.288319,-10140.821405,0.000000
502.421109,-370.102971,-8660.409521,383.047749
502.421437,888.247130,-7698.141797,995.924147
502.421764,1554.432478,-7105.977043,1378.971896
502.422092,444.123565,-7698.141797,229.828649
502.422419,-1332.370696,-8734.430116,0.000000
502.422747,-2146.597232,-8364.327145,0.000000
502.423074,-1554.432478,-7920.203579,76.609550
502.423402,-370.102971,-7994.224174,1072.533697
502.423729,222.061783,-8660.409521,689.485948
502.424057,-296.082377,-9474.636058,766.095498
502.424384,666.185348,-8956.491898,766.095498
502.424712,1406.391290,-8734.430116,995.924147
502.425039,1998.556043,-8956.491898,1685.410096
502.425367,888.247130,-10214.842000,842.705048
502.425694,-1110.308913,-11029.068536,153.219100
502.426022,-1998.556043,-10732.986159,0.000000
502.426349,-962.267725,-10214.842000,306.438199
502.426677,-222.061783,-9770.718434,612.876398
502.427004,740.205942,-9992.780217,612.876398
502.427332,0.000000,-9844.739029,536.266849
502.427659,-222.061783,-9104.533087,612.876398
502.427987,592.164754,-8364.327145,1072.533697
502.428314,740.205942,-8438.347739,1225.752797
502.428642,-74.020594,-9030.512492,1378.971896
502.428969,-1924.535449,-9474.636058,689.485948
502.429297,-2664.741391,-9474.636058,306.438199
502.429624,-2072.576638,-8660.409521,766.095498
502.429952,-814.226536,-8142.265362,919.314598
502.430279,-296.082377,-7846.182985,842.705048
502.430607,-370.102971,-8660.409521,383.047749
502.430934,-370.102971,-8068.244768,383.047749
502.431262,370.102971,-7846.182985,306.438199
502.431589,1184.329507,-7994.224174,536.266849
502.431917,814.226536,-9104.533087,1072.533697
502.432244,-962.267725,-10732.986159,0.000000
502.432572,-2146.597232,-11103.089130,0.000000
502.432899,-2220.617826,-10732.986159,229.828649
502.433227,-666.185348,-10436.903782,995.924147
502.433554,148.041188,-10584.944971,919.314598
502.433882,0.000000,-10214.842000,536.266849
502.434209,0.000000,-9844.739029,919.314598
502.434537,814.226536,-8660.409521,689.485948
502.434864,1702.473667,-7994.224174,1149.143247
502.435192,1332.370696,-8364.327145,919.314598
502.435519,0.000000,-8438.347739,689.485948
502.435847,-1776.494261,-8956.491898,306.438199
502.436174,-1924.535449,-8216.285956,0.000000
502.436502,-1036.288319,-7846.182985,76.609550
502.436829,444.123565,-8142.265362,306.438199
502.437157,0.000000,-8512.368333,383.047749
502.437484,-370.102971,-9030.512492,-153.219100
502.437812,-148.041188,-8734.430116,306.438199
502.438139,444.123565,-8512.368333,842.705048
502.438467,518.144159,-9030.512492,459.657299
502.438794,-888.247130,-9992.780217,536.266849
502.439122,-1998.556043,-10584.944971,383.047749
502.439449,-1998.556043,-10066.800811,0.000000
502.439777,-888.247130,-9696.697840,383.047749
502.440104,0.000000,-9252.574275,229.828649
502.440432,444.123565,-9770.718434,383.047749
502.440759,0.000000,-9770.718434,842.705048
502.441087,592.164754,-8660.409521,689.485948
502.441414,1258.350101,-8512.368333,1149.143247
502.441742,1406.391290,-8364.327145,1302.362347
502.442069,148.041188,-9104.533087,1149.143247
502.442397,-1258.350101,-9844.739029,306.438199
502.442724,-2072.576638,-8586.388927,459.657299
502.443052,-1036.288319,-8586.388927,536.266849
502.443379,74.020594,-8216.285956,919.314598
502.443707,0.000000,-8364.327145,919.314598
502.444034,0.000000,-8882.471304,842.705048
502.444362,444.123565,-8438.347739,842.705048
502.444689,518.144159,-7772.162391,919.314598
502.445017,666.185348,-8364.327145,842.705048
502.445344,-370.102971,-9326.594869,842.705048
502.445672,-2072.576638,-9770.718434,459.657299
502.445999,-2368.659014,-9844.739029,0.000000
502.446327,-1924.535449,-9548.656652,153.219100
502.446654,-518.144159,-9400.615463,612.876398
502.446982,0.000000,-9474.636058,612.876398
502.447309,74.020594,-9844.739029,919.314598
502.447637,518.144159,-9326.594869,766.095498
502.447964,1110.308913,-8660.409521,1532.190996
502.448292,1480.411884,-8586.388927,1762.019645
502.448619,666.185348,-9104.533087,1072.533697
502.448947,-962.267725,-9622.677246,1072.533697
502.449274,-2072.576638,-9474.636058,0.000000
502.449602,-1554.432478,-8808.450710,995.924147
502.449929,-444.123565,-8734.430116,612.876398
502.450257,0.000000,-8586.388927,612.876398
502.450584,-444.123565,-8882.471304,153.219100
502.450912,-518.144159,-8438.347739,0.000000
502.451239,296.082377,-7772.162391,-153.219100
502.451567,740.205942,-8290.306550,306.438199
502.451894,814.226536,-8808.450710,383.047749
502.452222,-592.164754,-9770.718434,229.828649
502.452549,-2368.659014,-10510.924376,0.000000
502.452877,-2072.576638,-9770.718434,229.828649
502.453204,-888.247130,-9992.780217,229.828649
502.453532,-444.123565,-9474.636058,76.609550
502.453859,-444.123565,-9474.636058,153.219100
502.454187,74.020594,-9474.636058,536.266849
502.454514,592.164754,-8068.244768,766.095498
502.454842,2072.576638,-8142.265362,995.924147
502.455169,1998.556043,-8438.347739,1225.752797
502.455497,0.000000,-9474.636058,459.657299
502.455824,-1776.494261,-10214.842000,153.219100
502.456152,-2368.659014,-9474.636058,-153.219100
502.456479,-1554.432478,-9252.574275,153.219100
502.456807,-592.164754,-8956.491898,229.828649
502.457134,-814.226536,-8956.491898,76.609550
502.457462,-592.164754,-9474.636058,0.000000
502.457789,296.082377,-8438.347739,612.876398
502.458117,1110.308913,-8216.285956,0.000000
502.458444,1406.391290,-8290.306550,612.876398
502.458772,0.000000,-9474.636058,306.438199
502.459099,-1776.494261,-10584.944971,0.000000
502.459427,-1924.535449,-9992.780217,459.657299
502.459754,-888.247130,-9474.636058,1072.533697
502.460082,148.041188,-9548.656652,1302.362347
502.460409,296.082377,-9474.636058,995.924147
502.460737,666.185348,-9622.677246,1072.533697
502.461064,1184.329507,-8068.244768,1149.143247
502.461392,2368.659014,-7402.059420,1991.848295
502.461719,2886.803174,-7846.182985,2298.286494
502.462047,1258.350101,-9104.533087,1762.019645
502.462374,-814.226536,-9844.739029,1302.362347
502.462702,-2294.638420,-9770.718434,842.705048
502.463029,-1702.473667,-9252.574275,1225.752797
502.463357,-1628.453072,-8956.491898,383.047749
502.463684,-1332.370696,-9400.615463,766.095498
502.464012,-2294.638420,-9474.636058,153.219100
502.464339,-1998.556043,-8512.368333,153.219100
502.464667,-814.226536,-7550.100608,306.438199
502.464994,296.082377,-7550.100608,0.000000
502.465322,-296.082377,-7994.224174,-459.657299
502.465649,-1924.535449,-9400.615463,-689.485948
502.465977,-2960.823768,-9474.636058,-383.047749
502.466304,-2294.638420,-8882.471304,-306.438199
502.466632,-888.247130,-8660.409521,0.000000
502.466959,0.000000,-8882.471304,536.266849
502.467287,296.082377,-9696.697840,919.314598
502.467614,814.226536,-9400.615463,1455.581446
502.467942,1924.535449,-8808.450710,1838.629195
502.468269,3330.926739,-9326.594869,2604.724693
502.468597,2590.720797,-9178.553681,2221.676944
502.468924,814.226536,-10066.800811,1302.362347
502.469252,-888.247130,-10140.821405,612.876398
502.469579,-1184.329507,-9474.636058,229.828649
502.469907,-666.185348,-9178.553681,1072.533697
502.470234,0.000000,-8660.409521,0.000000
502.470562,-740.205942,-9770.718434,-306.438199
502.470889,-1110.308913,-9400.615463,-459.657299
502.471217,-222.061783,-8364.327145,0.000000
502.471544,592.164754,-7550.100608,0.000000
502.471872,592.164754,-8142.265362,153.219100
502.472199,-740.205942,-9696.697840,-229.828649
502.472527,-2812.782580,-10140.821405,-766.095498
502.472854,-2516.700203,-9104.533087,-459.657299
502.473181,-1480.411884,-8586.388927,76.609550
502.473509,0.000000,-8364.327145,612.876398
502.473836,592.164754,-8512.368333,689.485948
502.474164,518.144159,-8660.409521,919.314598
502.474491,1332.370696,-7994.224174,1378.971896
502.474819,2294.638420,-7846.182985,1838.629195
502.475146,2220.617826,-8660.409521,1762.019645
502.475474,444.123565,-9474.636058,1072.533697
502.475801,-1184.329507,-10510.924376,612.876398
502.476129,-1702.473667,-10066.800811,459.657299
502.476456,-296.082377,-9548.656652,919.314598
502.476784,74.020594,-9474.636058,766.095498
502.477111,0.000000,-9252.574275,919.314598
502.477439,-518.144159,-9844.739029,536.266849
502.477766,-740.205942,-9030.512492,459.657299
502.478094,-518.144159,-8660.409521,536.266849
502.478421,0.000000,-8438.347739,842.705048
502.478749,-1184.329507,-8882.471304,229.828649
502.479076,-3182.885551,-9844.739029,0.000000
502.479404,-3701.029710,-8956.491898,-536.266849
502.479731,-2516.700203,-8512.368333,229.828649
502.480059,-962.267725,-7920.203579,612.876398
502.480386,-296.082377,-7698.141797,1072.533697
502.480714,0.000000,-8586.388927,612.876398
502.481041,740.205942,-8068.244768,919.314598
502.481369,1998.556043,-7772.162391,1455.581446
502.481696,2220.617826,-8290.306550,1608.800546
502.482024,1110.308913,-9178.553681,1532.190996
502.482351,0.000000,-10658.965565,459.657299
502.482679,-1406.391290,-10436.903782,536.266849
502.483006,-962.267725,-10140.821405,1072.533697
502.483334,0.000000,-10140.821405,919.314598
502.483661,148.041188,-10362.883188,1302.362347
502.483989,-222.061783,-10362.883188,383.047749
502.484316,-148.041188,-10214.842000,306.438199
502.484644,296.082377,-9474.636058,459.657299
502.484971,444.123565,-9252.574275,459.657299
502.485299,-518.144159,-9326.594869,76.609550
502.485626,-2220.617826,-9918.759623,-459.657299
502.485954,-3627.009116,-9696.697840,-689.485948
502.486281,-2442.679609,-8364.327145,-689.485948
502.486609,-814.226536,-7920.203579,229.828649
502.486936,666.185348,-7920.203579,229.828649
502.487264,1110.308913,-8068.244768,383.047749
502.487591,1110.308913,-7846.182985,766.095498
502.487919,1702.473667,-7772.162391,1225.752797
502.488246,1850.514855,-8290.306550,1608.800546
502.488574,1258.350101,-9326.594869,1838.629195
502.488901,-444.123565,-10066.800811,1838.629195
502.489229,-1628.453072,-10140.821405,995.924147
502.489556,-1258.350101,-9918.759623,1072.533697
502.489884,0.000000,-9622.677246,919.314598
502.490211,370.102971,-9474.636058,842.705048
502.490539,296.082377,-10140.821405,229.828649
502.490866,-148.041188,-9178.553681,76.609550
502.491194,-666.185348,-8882.471304,76.609550
502.491521,0.000000,-8734.430116,0.000000
502.491849,-296.082377,-8956.491898,76.609550
502.492176,-2072.576638,-9770.718434,-459.657299
502.492504,-3330.926739,-9252.574275,-919.314598
502.492831,-3404.947333,-8882.471304,-536.266849
502.493159,-1776.494261,-7772.162391,76.609550
502.493486,0.000000,-7476.080014,536.266849
502.493814,222.061783,-7846.182985,612.876398
502.494141,1184.329507,-8142.265362,1685.410096
502.494469,962.267725,-7254.018232,1685.410096
502.494796,1850.514855,-7031.956449,1991.848295
502.495124,2368.659014,-7698.141797,2145.067394
502.495451,1332.370696,-9030.512492,1685.410096
502.495779,0.000000,-9844.739029,1762.019645
502.496106,0.000000,-9104.533087,1378.971896
502.496434,740.205942,-9400.615463,1762.019645
502.496761,592.164754,-9548.656652,1225.752797
502.497089,0.000000,-10362.883188,612.876398
502.497416,-1184.329507,-10066.800811,0.000000
502.497744,-1110.308913,-9474.636058,0.000000
502.498071,-370.102971,-9030.512492,76.609550
502.498399,74.020594,-8956.491898,229.828649
502.498726,-1184.329507,-9622.677246,0.000000
502.499054,-2664.741391,-9918.759623,-383.047749
502.499381,-3182.885551,-8734.430116,-1149.143247
502.499709,-2368.659014,-7624.121203,-536.266849
502.500036,-814.226536,-7402.059420,76.609550
502.500364,74.020594,-7328.038826,383.047749
502.500691,518.144159,-7698.141797,689.485948
502.501019,962.267725,-7254.018232,842.705048
502.501346,1480.411884,-6883.915261,1455.581446
502.501673,2368.659014,-7994.224174,2068.457845
502.502001,814.226536,-9252.574275,1685.410096
502.502328,-518.144159,-10658.965565,1302.362347
502.502656,-1258.350101,-11029.068536,1685.410096
502.502983,-518.144159,-10288.862594,1072.533697
502.503311,740.205942,-10066.800811,1455.581446
502.503638,1036.288319,-10288.862594,1225.752797
502.503966,-148.041188,-11103.089130,383.047749
502.504293,-518.144159,-10584.944971,306.438199
502.504621,-370.102971,-9030.512492,536.266849
502.504948,0.000000,-9178.553681,153.219100
502.505276,-296.082377,-9474.636058,76.609550
502.505603,-2220.617826,-10510.924376,-383.047749
502.505931,-3923.091493,-10732.986159,-689.485948
502.506258,-3552.988522,-9474.636058,-536.266849
502.506586,-1924.535449,-8734.430116,76.609550
502.506913,-222.061783,-8216.285956,536.266849
502.507241,444.123565,-8586.388927,995.924147
502.507568,1332.370696,-8586.388927,1532.190996
502.507896,2590.720797,-7846.182985,2145.067394
502.508223,3997.112087,-6957.935855,3370.820191
502.508551,4663.297435,-7698.141797,3600.648841
502.508878,3552.988522,-9178.553681,3524.039291
502.509206,1258.350101,-10881.027347,3217.601092
502.509533,370.102971,-11251.130318,3677.258390
502.509861,962.267725,-9992.780217,3447.429741
502.510188,1258.350101,-10140.821405,3600.648841
502.510516,1480.411884,-11399.171507,3677.258390
502.510843,-740.205942,-12065.356855,2604.724693
502.511171,-1480.411884,-11251.130318,2528.115143
502.511498,-1554.432478,-9770.718434,2604.724693
502.511826,-592.164754,-9030.512492,2911.162892
502.512153,-962.267725,-9400.615463,2834.553343
502.512481,-2664.741391,-10362.883188,2145.067394
502.512808,-5699.585753,-10066.800811,1455.581446
502.513136,-6143.709319,-8512.368333,689.485948
502.513463,-4367.215058,-6809.894666,1608.800546
502.513791,-2368.659014,-6217.729913,2068.457845
502.514118,-962.267725,-6661.853478,2374.896044
502.514446,-888.247130,-7476.080014,2528.115143
502.514773,-1554.432478,-6883.915261,2145.067394
502.515101,74.020594,-6069.688724,3217.601092
502.515428,1924.535449,-6143.709319,3983.696590
502.515756,3330.926739,-7624.121203,4749.792088
502.516083,2960.823768,-9548.656652,5056.230287
502.516411,1998.556043,-11103.089130,4903.011187
502.516738,962.267725,-11029.068536,4596.572988
502.517066,1702.473667,-10584.944971,4826.401637
502.517393,3256.906145,-10362.883188,5132.839837
502.517721,4071.132681,-11251.130318,5132.839837
502.518048,3108.864956,-11991.336260,4443.353888
502.518376,518.144159,-11843.295072,3447.429741
502.518703,-1628.453072,-10955.047942,2987.772442
502.519031,-1998.556043,-9548.656652,2374.896044
502.519358,-814.226536,-8438.347739,2604.724693
502.519686,666.185348,-8512.368333,2987.772442
502.520013,0.000000,-8216.285956,3907.087040
502.520341,-2812.782580,-8216.285956,3140.991542
502.520668,-5403.503377,-7772.162391,2298.286494
502.520996,-6883.915261,-7846.182985,1072.533697
502.521323,-5773.606348,-7920.203579,306.438199
502.521651,-2442.679609,-7179.997637,306.438199
502.521978,-296.082377,-6809.894666,2221.676944
502.522306,814.226536,-6513.812290,3217.601092
502.522633,0.000000,-7031.956449,2987.772442
502.522961,-740.205942,-8364.327145,2528.115143
502.523288,-1036.288319,-9770.718434,2451.505594
502.523616,-444.123565,-9992.780217,919.314598
502.523943,1110.308913,-10066.800811,1991.848295
502.524271,3330.926739,-9622.677246,3907.087040
502.524598,5477.523971,-10140.821405,5745.716235
502.524926,5699.585753,-11103.089130,6665.030833
502.525253,4737.318029,-11917.315666,5745.716235
502.525581,1924.535449,-12287.418637,4596.572988
502.525908,-666.185348,-12139.377449,3830.477490
502.526236,-1554.432478,-11621.233289,2834.553343
502.526563,-814.226536,-10658.965565,3677.258390
502.526891,1998.556043,-8882.471304,4903.011187
502.527218,3849.070898,-8216.285956,5592.497135
502.527546,2072.576638,-7846.182985,5592.497135
502.527873,-888.247130,-7920.203579,4366.744339
502.528201,-4293.194464,-8068.244768,3140.991542
502.528528,-6809.894666,-7994.224174,1762.019645
502.528856,-6217.729913,-7624.121203,1149.143247
502.529183,-4145.153275,-7550.100608,1762.019645
502.529511,-1036.288319,-6661.853478,3370.820191
502.529838,666.185348,-6143.709319,4979.620737
502.530165,962.267725,-7105.977043,5822.325785
502.530493,74.020594,-7994.224174,5209.449386
502.530820,-2294.638420,-9474.636058,3677.258390
502.531148,-4219.173869,-10732.986159,2145.067394
502.531475,-4663.297435,-11473.192101,1532.190996
502.531803,-3404.947333,-11177.109724,1762.019645
502.532130,-148.041188,-10140.821405,3217.601092
502.532458,2072.576638,-9178.553681,3753.867940
502.532785,3701.029710,-8882.471304,4136.915689
502.533113,3775.050304,-8734.430116,4213.525239
502.533440,2220.617826,-9104.533087,3294.210641
502.533768,1184.329507,-9622.677246,2911.162892
502.534095,444.123565,-9770.718434,2374.896044
502.534423,518.144159,-9992.780217,2911.162892
502.534750,888.247130,-9622.677246,3753.867940
502.535078,888.247130,-8956.491898,4366.744339
502.535405,1406.391290,-8512.368333,4673.182538
502.535733,518.144159,-8364.327145,3524.039291
502.536060,0.000000,-8438.347739,3294.210641
502.536388,0.000000,-7624.121203,2145.067394
502.536715,-592.164754,-8142.265362,2298.286494
502.537043,370.102971,-7994.224174,1838.629195
502.537370,1036.288319,-7698.141797,2911.162892
502.537698,888.247130,-8142.265362,3370.820191
502.538025,1924.535449,-8882.471304,3677.258390
502.538353,888.247130,-9400.615463,3830.477490
502.538680,0.000000,-9992.780217,3677.258390
502.539008,-1184.329507,-10362.883188,3524.039291
502.539335,-1850.514855,-10584.944971,3217.601092
502.539663,-1924.535449,-10658.965565,3140.991542
502.539990,-1850.514855,-10584.944971,3294.210641
502.540318,-1554.432478,-9696.697840,3217.601092
502.540645,-740.205942,-9104.533087,3524.039291
502.540973,-370.102971,-8364.327145,3294.210641
502.541300,-888.247130,-7994.224174,2834.553343
502.541628,-888.247130,-7698.141797,2987.772442
502.541955,-1184.329507,-7254.018232,2528.115143
502.542283,-1110.308913,-7328.038826,2757.943793
502.542610,-592.164754,-7476.080014,2911.162892
502.542938,-222.061783,-8438.347739,3524.039291
502.543265,444.123565,-9252.574275,3983.696590
502.543593,666.185348,-9696.697840,3983.696590
502.543920,148.041188,-10288.862594,4443.353888
502.544248,-518.144159,-10436.903782,4060.306139
502.544575,-1480.411884,-10436.903782,3370.820191
502.544903,-1258.350101,-10066.800811,3524.039291
502.545230,296.082377,-9622.677246,2987.772442
502.545558,814.226536,-9474.636058,2834.553343
502.545885,1110.308913,-8734.430116,2834.553343
502.546213,962.267725,-9548.656652,2681.334243
502.546540,0.000000,-9844.739029,2604.724693
502.546868,-518.144159,-9992.780217,2374.896044
502.547195,-518.144159,-10066.800811,1915.238745
502.547523,-592.164754,-9178.553681,2068.457845
502.547850,-444.123565,-8956.491898,1915.238745
502.548178,-592.164754,-8734.430116,1915.238745
502.548505,-740.205942,-9104.533087,1915.238745
502.548833,-814.226536,-9030.512492,1991.848295
502.549160,-888.247130,-9030.512492,2298.286494
502.549488,-1110.308913,-8216.285956,1378.971896
502.549815,-888.247130,-8364.327145,1455.581446
502.550143,-222.061783,-8142.265362,1302.362347
502.550470,0.000000,-8068.244768,1149.143247
502.550798,740.205942,-8364.327145,766.095498
502.551125,518.144159,-8290.306550,995.924147
502.551453,444.123565,-9178.553681,1455.581446
502.551780,0.000000,-9696.697840,1225.752797
502.552108,296.082377,-10288.862594,1378.971896
502.552435,740.205942,-10732.986159,1532.190996
502.552763,814.226536,-10288.862594,1762.019645
502.553090,1480.411884,-10584.944971,1685.410096
502.553418,1554.432478,-10288.862594,2068.457845
502.553745,370.102971,-9918.759623,1455.581446
502.554073,-148.041188,-9548.656652,1455.581446
502.554400,-296.082377,-8512.368333,689.485948
502.554728,-1184.329507,-8512.368333,919.314598
502.555055,-592.164754,-8364.327145,995.924147
502.555383,-518.144159,-8068.244768,842.705048
502.555710,-518.144159,-8068.244768,766.095498
502.556038,-296.082377,-8068.244768,536.266849
502.556365,-592.164754,-7846.182985,689.485948
502.556693,-962.267725,-8142.265362,306.438199
502.557020,-962.267725,-8068.244768,536.266849
502.557348,-962.267725,-8512.368333,383.047749
502.557675,-444.123565,-8734.430116,842.705048
502.558003,-296.082377,-9104.533087,229.828649
502.558330,-666.185348,-9252.574275,1149.143247
502.558657,-444.123565,-9474.636058,842.705048
502.558985,-370.102971,-9696.697840,1149.143247
502.559312,-148.041188,-9474.636058,689.485948
502.559640,-370.102971,-9326.594869,995.924147
502.559967,148.041188,-8956.491898,766.095498
502.560295,148.041188,-8956.491898,766.095498
502.560622,148.041188,-9326.594869,1072.533697
502.560950,0.000000,-9474.636058,1072.533697
502.561277,0.000000,-9326.594869,1302.362347
502.561605,0.000000,-9400.615463,842.705048
502.561932,-296.082377,-9400.615463,612.876398
502.562260,-222.061783,-8956.491898,1072.533697
502.562587,0.000000,-8438.347739,536.266849
502.562915,-296.082377,-8364.327145,1225.752797
502.563242,-148.041188,-8068.244768,766.095498
502.563570,-592.164754,-8882.471304,842.705048
502.563897,-814.226536,-8586.388927,842.705048
502.564224,-740.205942,-8882.471304,919.314598
502.564552,-1036.288319,-8956.491898,536.266849
502.564879,-666.185348,-9178.553681,612.876398
502.565207,-814.226536,-9326.594869,306.438199
502.565534,-592.164754,-9400.615463,536.266849
502.565862,-296.082377,-9252.574275,612.876398
502.566189,0.000000,-9474.636058,536.266849
502.566517,0.000000,-9178.553681,1225.752797
502.566844,0.000000,-9474.636058,383.047749
502.567172,0.000000,-9474.636058,612.876398
502.567499,-444.123565,-9622.677246,536.266849
502.567827,-518.144159,-9622.677246,689.485948
502.568154,-370.102971,-9474.636058,536.266849
502.568482,-370.102971,-9622.677246,689.485948
502.568809,0.000000,-9548.656652,842.705048
502.569137,0.000000,-9030.512492,689.485948
502.569464,222.061783,-9104.533087,689.485948
502.569792,370.102971,-8660.409521,995.924147
502.570119,74.020594,-8956.491898,612.876398
502.570446,0.000000,-8956.491898,459.657299
502.570774,74.020594,-9104.533087,459.657299
502.571101,0.000000,-9474.636058,612.876398
502.571429,148.041188,-9548.656652,306.438199
502.571756,666.185348,-9400.615463,383.047749
502.572084,148.041188,-9326.594869,306.438199
502.572411,148.041188,-9178.553681,229.828649
502.572739,0.000000,-9326.594869,383.047749
502.573066,-148.041188,-9178.553681,153.219100
502.573394,-518.144159,-8956.491898,306.438199
502.573721,-518.144159,-8660.409521,306.438199
502.574049,-740.205942,-9252.574275,383.047749
502.574376,-740.205942,-9252.574275,153.219100
502.574704,-888.247130,-9178.553681,383.047749
502.575031,-740.205942,-8586.388927,919.314598
502.575359,-222.061783,-8808.450710,459.657299
502.575686,-666.185348,-8438.347739,306.438199
502.576013,-518.144159,-8586.388927,383.047749
502.576341,-444.123565,-8364.327145,383.047749
502.576668,-666.185348,-8438.347739,689.485948
502.576996,-518.144159,-8956.491898,766.095498
502.577323,-962.267725,-9400.615463,612.876398
502.577651,-888.247130,-9622.677246,766.095498
502.577978,-666.185348,-9548.656652,842.705048
502.578306,-666.185348,-9030.512492,612.876398
502.578633,0.000000,-9030.512492,842.705048
502.578961,-148.041188,-8882.471304,842.705048
502.579288,-370.102971,-8808.450710,842.705048
502.579616,-222.061783,-8956.491898,536.266849
502.579943,-296.082377,-9400.615463,842.705048
502.580271,-592.164754,-9326.594869,1149.143247
502.580598,-592.164754,-9178.553681,536.266849
502.580926,-370.102971,-9252.574275,919.314598
502.581253,-370.102971,-9178.553681,536.266849
502.581580,0.000000,-9178.553681,766.095498
502.581908,-444.123565,-8364.327145,689.485948
502.582235,-148.041188,-8882.471304,536.266849
502.582563,-518.144159,-9030.512492,612.876398
502.582890,-666.185348,-9104.533087,612.876398
502.583218,-888.247130,-9030.512492,536.266849
502.583545,-518.144159,-8956.491898,459.657299
502.583873,-444.123565,-9178.553681,536.266849
502.584200,-518.144159,-8882.471304,536.266849
502.584528,-592.164754,-8956.491898,459.657299
502.584855,-370.102971,-8956.491898,229.828649
502.585183,-222.061783,-9104.533087,459.657299
502.585510,-518.144159,-9030.512492,689.485948
502.585838,-148.041188,-9474.636058,459.657299
502.586165,-592.164754,-9622.677246,612.876398
502.586493,-518.144159,-9770.718434,459.657299
502.586820,-592.164754,-9696.697840,536.266849
502.587147,-222.061783,-9252.574275,459.657299
502.587475,0.000000,-8882.471304,612.876398
502.587802,-222.061783,-8660.409521,459.657299
502.588130,-518.144159,-8438.347739,229.828649
502.588457,-666.185348,-8660.409521,459.657299
502.588785,-444.123565,-8734.430116,459.657299
502.589112,-518.144159,-9030.512492,689.485948
502.589440,-888.247130,-8660.409521,766.095498
502.589767,-518.144159,-9030.512492,536.266849
502.590095,-222.061783,-8808.450710,689.485948
502.590422,222.061783,-8734.430116,536.266849
502.590750,296.082377,-8734.430116,459.657299
502.591077,74.020594,-8882.471304,536.266849
502.591405,0.000000,-9326.594869,612.876398
502.591732,-222.061783,-9474.636058,919.314598
502.592060,-296.082377,-9992.780217,919.314598
502.592387,0.000000,-9844.739029,1302.362347
502.592714,0.000000,-9622.677246,1072.533697
502.593042,148.041188,-9178.553681,536.266849
502.593369,296.082377,-8512.368333,459.657299
502.593697,592.164754,-8438.347739,306.438199
502.594024,296.082377,-7920.203579,153.219100
502.594352,0.000000,-8438.347739,229.828649
502.594679,-370.102971,-8660.409521,612.876398
502.595007,-370.102971,-8882.471304,383.047749
502.595334,-296.082377,-8956.491898,766.095498
502.595662,-148.041188,-9030.512492,842.705048
502.595989,0.000000,-8660.409521,383.047749
502.596317,296.082377,-8882.471304,383.047749
502.596644,444.123565,-8364.327145,153.219100
502.596972,518.144159,-8660.409521,229.828649
502.597299,74.020594,-8734.430116,459.657299
502.597627,74.020594,-9252.574275,76.609550
502.597954,-222.061783,-9400.615463,383.047749
502.598281,0.000000,-9548.656652,383.047749
502.598609,-444.123565,-9844.739029,536.266849
502.598936,0.000000,-9992.780217,383.047749
502.599264,0.000000,-9400.615463,459.657299
502.599591,-148.041188,-8734.430116,229.828649
502.599919,74.020594,-8882.471304,459.657299
502.600246,0.000000,-9474.636058,536.266849
502.600574,0.000000,-9474.636058,383.047749
502.600901,0.000000,-9770.718434,766.095498
502.601229,296.082377,-9770.718434,689.485948
502.601556,0.000000,-9844.739029,689.485948
502.601884,0.000000,-9474.636058,536.266849
502.602211,0.000000,-9400.615463,612.876398
502.602539,-296.082377,-9104.533087,842.705048
502.602866,0.000000,-9326.594869,842.705048
502.603194,-296.082377,-9548.656652,842.705048
502.603521,-592.164754,-9548.656652,842.705048
502.603848,-592.164754,-9548.656652,536.266849
502.604176,-518.144159,-9696.697840,612.876398
502.604503,-296.082377,-9696.697840,842.705048
502.604831,-370.102971,-9474.636058,766.095498
502.605158,-444.123565,-9030.512492,153.219100
502.605486,-370.102971,-9104.533087,153.219100
502.605813,-518.144159,-9104.533087,306.438199
502.606141,-666.185348,-9252.574275,842.705048
502.606468,-888.247130,-9400.615463,612.876398
502.606796,-1110.308913,-9622.677246,766.095498
502.607123,-1036.288319,-9770.718434,919.314598
502.607451,-1036.288319,-9474.636058,766.095498
502.607778,-296.082377,-8956.491898,1149.143247
502.608106,-518.144159,-8808.450710,536.266849
502.608433,-444.123565,-8660.409521,459.657299
502.608761,-370.102971,-8808.450710,689.485948
502.609088,-370.102971,-8956.491898,536.266849
502.609415,-296.082377,-8956.491898,919.314598
502.609743,-518.144159,-9178.553681,766.095498
502.610070,-740.205942,-9178.553681,842.705048
502.610398,-740.205942,-9178.553681,842.705048
502.610725,-370.102971,-8956.491898,689.485948
502.611053,-222.061783,-8734.430116,459.657299
502.611380,148.041188,-8734.430116,153.219100
502.611708,-370.102971,-8586.388927,306.438199
502.612035,-370.102971,-8586.388927,536.266849
502.612363,-370.102971,-8734.430116,689.485948
502.612690,-592.164754,-9104.533087,766.095498
502.613018,-444.123565,-9178.553681,689.485948
502.613345,-518.144159,-8808.450710,689.485948
502.613673,-518.144159,-8660.409521,306.438199
502.614000,-148.041188,-8882.471304,153.219100
502.614328,0.000000,-8512.368333,459.657299
502.614655,0.000000,-8216.285956,536.266849
502.614983,518.144159,-8586.388927,459.657299
502.615310,148.041188,-8956.491898,459.657299
502.615637,0.000000,-9252.574275,536.266849
502.615965,0.000000,-9326.594869,536.266849
502.616292,222.061783,-9326.594869,842.705048
502.616620,148.041188,-9622.677246,612.876398
502.616947,74.020594,-9252.574275,229.828649
502.617275,148.041188,-8882.471304,383.047749
502.617602,148.041188,-8734.430116,229.828649
502.617930,0.000000,-8882.471304,306.438199
502.618257,74.020594,-8364.327145,919.314598
502.618585,0.000000,-8882.471304,459.657299
502.618912,-74.020594,-9030.512492,459.657299
502.619240,-370.102971,-9104.533087,612.876398
502.619567,-444.123565,-9104.533087,306.438199
502.619895,-444.123565,-9030.512492,995.924147
502.620222,-296.082377,-8956.491898,383.047749
502.620550,-370.102971,-9252.574275,536.266849
502.620877,-148.041188,-9178.553681,689.485948
502.621204,-222.061783,-9474.636058,612.876398
502.621532,-148.041188,-9104.533087,919.314598
502.621859,0.000000,-9474.636058,689.485948
502.622187,0.000000,-9474.636058,612.876398
502.622514,0.000000,-9252.574275,536.266849
502.622842,0.000000,-9104.533087,459.657299
502.623169,0.000000,-9474.636058,1072.533697
502.623497,74.020594,-9474.636058,536.266849
502.623824,0.000000,-9474.636058,612.876398
502.624152,-296.082377,-9474.636058,612.876398
502.624479,0.000000,-9474.636058,459.657299
502.624807,0.000000,-9474.636058,536.266849
502.625134,0.000000,-9030.512492,459.657299
502.625462,-296.082377,-9326.594869,536.266849
502.625789,-444.123565,-9400.615463,459.657299
502.626117,-444.123565,-9326.594869,459.657299
502.626444,-296.082377,-9474.636058,536.266849
502.626771,0.000000,-9104.533087,306.438199
502.627099,-518.144159,-9326.594869,153.219100
502.627426,-222.061783,-9326.594869,459.657299
502.627754,-148.041188,-9474.636058,306.438199
502.628081,-296.082377,-9178.553681,612.876398
502.628409,148.041188,-9104.533087,919.314598
502.628736,0.000000,-8956.491898,459.657299
502.629064,-148.041188,-9104.533087,689.485948
502.629391,-370.102971,-9326.594869,383.047749
502.629719,-370.102971,-9400.615463,689.485948
502.630046,0.000000,-9252.574275,536.266849
502.630374,0.000000,-9474.636058,536.266849
502.630701,-296.082377,-9104.533087,842.705048
502.631029,-296.082377,-9104.533087,459.657299
502.631356,-296.082377,-9030.512492,612.876398
502.631684,-222.061783,-8882.471304,536.266849
502.632011,0.000000,-9104.533087,536.266849
502.632338,-370.102971,-8882.471304,766.095498
502.632666,-518.144159,-8956.491898,612.876398
502.632993,-666.185348,-8956.491898,689.485948
502.633321,-518.144159,-8882.471304,612.876398
502.633648,-296.082377,-8956.491898,153.219100
502.633976,-592.164754,-8734.430116,766.095498
502.634303,-222.061783,-9104.533087,459.657299
502.634631,0.000000,-9030.512492,383.047749
502.634958,-148.041188,-8956.491898,383.047749
502.635286,-296.082377,-8808.450710,842.705048
502.635613,0.000000,-8808.450710,766.095498
502.635941,-296.082377,-9030.512492,689.485948
502.636268,-296.082377,-9400.615463,612.876398
502.636596,-222.061783,-9252.574275,612.876398
502.636923,-370.102971,-9104.533087,459.657299
502.637251,-296.082377,-9104.533087,919.314598
502.637578,-370.102971,-9104.533087,766.095498
502.637905,-296.082377,-8956.491898,383.047749
502.638233,-370.102971,-8956.491898,689.485948
502.638560,-444.123565,-8512.368333,229.828649
502.638888,-222.061783,-8808.450710,306.438199
502.639215,-148.041188,-8882.471304,612.876398
502.639543,-518.144159,-8956.491898,459.657299
502.639870,-740.205942,-8882.471304,459.657299
502.640198,-592.164754,-8956.491898,306.438199
502.640525,-518.144159,-8808.450710,536.266849
502.640853,-296.082377,-9104.533087,612.876398
502.641180,-518.144159,-9104.533087,612.876398
502.641508,-370.102971,-9252.574275,459.657299
502.641835,-666.185348,-9178.553681,536.266849
502.642163,-148.041188,-9030.512492,459.657299
502.642490,0.000000,-8734.430116,995.924147
502.642818,-296.082377,-9030.512492,459.657299
502.643145,-148.041188,-9178.553681,459.657299
502.643472,-444.123565,-9030.512492,536.266849
502.643800,-296.082377,-9030.512492,383.047749
502.644127,-370.102971,-8734.430116,536.266849
502.644455,-296.082377,-8808.450710,383.047749
502.644782,-592.164754,-9030.512492,536.266849
502.645110,-444.123565,-9104.533087,459.657299
502.645437,-592.164754,-8956.491898,612.876398
502.645765,-222.061783,-8586.388927,766.095498
502.646092,-518.144159,-8956.491898,76.609550
502.646420,-444.123565,-8956.491898,306.438199
502.646747,-592.164754,-9030.512492,459.657299
502.647075,-666.185348,-9030.512492,383.047749
502.647402,-740.205942,-8808.450710,0.000000
502.647730,-666.185348,-8586.388927,536.266849
502.648057,-444.123565,-9178.553681,459.657299
502.648385,-296.082377,-9252.574275,689.485948
502.648712,-370.102971,-9178.553681,383.047749
502.649039,0.000000,-9030.512492,153.219100
502.649367,148.041188,-9030.512492,689.485948
502.649694,0.000000,-9178.553681,536.266849
502.650022,0.000000,-9252.574275,536.266849
502.650349,0.000000,-9252.574275,536.266849
502.650677,0.000000,-9178.553681,612.876398
502.651004,148.041188,-9178.553681,1072.533697
502.651332,-444.123565,-9178.553681,919.314598
502.651659,-592.164754,-9104.533087,612.876398
502.651987,-370.102971,-8734.430116,766.095498
502.652314,-296.082377,-8808.450710,612.876398
502.652642,-444.123565,-8512.368333,766.095498
502.652969,-370.102971,-8956.491898,153.219100
502.653297,-296.082377,-9030.512492,689.485948
502.653624,-222.061783,-9104.533087,536.266849
502.653952,-148.041188,-9252.574275,536.266849
502.654279,-222.061783,-9474.636058,612.876398
502.654606,-296.082377,-8956.491898,919.314598
502.654934,0.000000,-9474.636058,459.657299
502.655261,0.000000,-9548.656652,766.095498
502.655589,148.041188,-9770.718434,459.657299
502.655916,222.061783,-9474.636058,919.314598
502.656244,148.041188,-9474.636058,1072.533697
502.656571,444.123565,-9474.636058,612.876398
502.656899,296.082377,-9622.677246,536.266849
502.657226,0.000000,-9548.656652,612.876398
502.657554,0.000000,-9474.636058,536.266849
502.657881,518.144159,-9474.636058,383.047749
502.658209,0.000000,-9474.636058,306.438199
502.658536,-222.061783,-9474.636058,459.657299
502.658864,-222.061783,-9400.615463,383.047749
502.659191,0.000000,-9474.636058,536.266849
502.659519,-148.041188,-8808.450710,229.828649
502.659846,-592.164754,-8660.409521,612.876398
502.660174,-370.102971,-9178.553681,536.266849
502.660498,-444.123565,-9178.553681,536.266849
502.660825,-518.144159,-9326.594869,536.266849
502.661153,-296.082377,-9474.636058,842.705048
502.661480,-740.205942,-9474.636058,842.705048
502.661808,-518.144159,-9548.656652,612.876398
502.662136,-370.102971,-9474.636058,689.485948
502.662463,-222.061783,-9400.615463,842.705048
502.662791,0.000000,-9474.636058,536.266849
502.663118,0.000000,-9104.533087,1072.533697
502.663446,-370.102971,-9104.533087,766.095498
502.663774,-296.082377,-9178.553681,842.705048
502.664101,-518.144159,-9030.512492,689.485948
502.664429,-592.164754,-9030.512492,689.485948
502.664756,-666.185348,-8364.327145,919.314598
502.665084,-592.164754,-8808.450710,766.095498
502.665411,-444.123565,-8734.430116,459.657299
502.665739,-444.123565,-8512.368333,459.657299
502.666067,-592.164754,-8512.368333,536.266849
502.666394,-814.226536,-8216.285956,1072.533697
502.666722,-592.164754,-8364.327145,459.657299
502.667049,-666.185348,-8438.347739,383.047749
502.667377,-444.123565,-8734.430116,536.266849
502.667704,-592.164754,-8956.491898,612.876398
502.668032,-592.164754,-8882.471304,766.095498
502.668360,0.000000,-8734.430116,766.095498
502.668687,-148.041188,-8808.450710,306.438199
502.669015,-296.082377,-8956.491898,229.828649
502.669342,-148.041188,-8882.471304,459.657299
502.669670,-148.041188,-8734.430116,459.657299
502.669997,0.000000,-8882.471304,306.438199
502.670325,0.000000,-8956.491898,459.657299
502.670653,-296.082377,-8956.491898,383.047749
502.670980,-518.144159,-8956.491898,306.438199
502.671308,-370.102971,-8882.471304,536.266849
502.671635,-444.123565,-8660.409521,459.657299
502.671963,-296.082377,-8808.450710,689.485948
502.672290,-370.102971,-8438.347739,306.438199
502.672618,-518.144159,-8808.450710,229.828649
502.672946,-444.123565,-9030.512492,229.828649
502.673273,-370.102971,-8734.430116,612.876398
502.673601,-296.082377,-9030.512492,229.828649
502.673928,-518.144159,-9104.533087,306.438199
502.674256,-518.144159,-9030.512492,459.657299
502.674583,-370.102971,-9474.636058,306.438199
502.674911,-370.102971,-9326.594869,919.314598
502.675239,0.000000,-9326.594869,459.657299
502.675566,0.000000,-9178.553681,536.266849
502.675894,0.000000,-9326.594869,383.047749
502.676221,148.041188,-9548.656652,766.095498
502.676549,0.000000,-9252.574275,766.095498
502.676876,148.041188,-9252.574275,536.266849
502.677204,0.000000,-9252.574275,766.095498
502.677532,-296.082377,-9622.677246,689.485948
502.677859,-296.082377,-9548.656652,842.705048
502.678187,-148.041188,-9326.594869,919.314598
502.678514,148.041188,-8956.491898,383.047749
502.678842,222.061783,-8956.491898,842.705048
502.679169,-222.061783,-8956.491898,306.438199
502.679497,0.000000,-8956.491898,536.266849
502.679825,-370.102971,-9178.553681,536.266849
502.680152,-444.123565,-9252.574275,76.609550
502.680480,-518.144159,-9178.553681,766.095498
502.680807,-370.102971,-9474.636058,459.657299
502.681135,-518.144159,-9474.636058,536.266849
502.681462,-296.082377,-9474.636058,536.266849
502.681790,-222.061783,-9252.574275,536.266849
502.682118,0.000000,-9178.553681,1149.143247
502.682445,74.020594,-9326.594869,766.095498
502.682773,148.041188,-9326.594869,689.485948
502.683100,148.041188,-9474.636058,689.485948
502.683428,0.000000,-9548.656652,689.485948
502.683756,74.020594,-9474.636058,459.657299
502.684083,0.000000,-9326.594869,229.828649
502.684411,-296.082377,-9252.574275,612.876398
502.684738,0.000000,-9252.574275,536.266849
502.685066,0.000000,-9252.574275,766.095498
502.685393,0.000000,-9178.553681,689.485948
502.685721,-444.123565,-8956.491898,689.485948
502.686049,-296.082377,-9104.533087,612.876398
502.686376,-148.041188,-9178.553681,536.266849
502.686704,-222.061783,-9178.553681,536.266849
502.687031,-148.041188,-9030.512492,1378.971896
502.687359,-222.061783,-9178.553681,536.266849
502.687686,-370.102971,-9104.533087,459.657299
502.688014,-370.102971,-9178.553681,459.657299
502.688342,-148.041188,-9252.574275,689.485948
502.688669,0.000000,-9252.574275,383.047749
502.688997,0.000000,-8734.430116,766.095498
502.689324,-296.082377,-8956.491898,689.485948
502.689652,-370.102971,-9252.574275,766.095498
502.689979,-518.144159,-9252.574275,766.095498
502.690307,-592.164754,-9178.553681,459.657299
502.690635,-222.061783,-9104.533087,766.095498
502.690962,-370.102971,-9326.594869,536.266849
502.691290,-222.061783,-9030.512492,383.047749
502.691617,0.000000,-8956.491898,459.657299
502.691945,0.000000,-8660.409521,306.438199
502.692272,0.000000,-8660.409521,689.485948
502.692600,-296.082377,-8660.409521,153.219100
502.692928,-444.123565,-8808.450710,229.828649
502.693255,-740.205942,-8956.491898,459.657299
502.693583,-666.185348,-8882.471304,459.657299
502.693910,-592.164754,-9030.512492,842.705048
502.694238,-370.102971,-9178.553681,383.047749
502.694565,-296.082377,-9178.553681,306.438199
502.694893,-592.164754,-8956.491898,229.828649
502.695221,-148.041188,-8808.450710,612.876398
502.695548,-444.123565,-8956.491898,459.657299
502.695876,0.000000,-8882.471304,612.876398
502.696203,-444.123565,-8808.450710,459.657299
502.696531,-370.102971,-8882.471304,383.047749
502.696858,-444.123565,-9252.574275,536.266849
502.697186,-592.164754,-9178.553681,229.828649
502.697514,-444.123565,-8956.491898,1072.533697
502.697841,-148.041188,-8660.409521,612.876398
502.698169,-222.061783,-8808.450710,536.266849
502.698496,0.000000,-8882.471304,306.438199
502.698824,-148.041188,-8882.471304,766.095498
502.699151,0.000000,-8660.409521,919.314598
502.699479,-148.041188,-8734.430116,536.266849
502.699807,-370.102971,-8956.491898,459.657299
502.700134,-518.144159,-9252.574275,536.266849
502.700462,-296.082377,-9104.533087,536.266849
502.700789,74.020594,-9104.533087,919.314598
502.701117,0.000000,-9400.615463,536.266849
502.701444,-222.061783,-8882.471304,766.095498
502.701772,0.000000,-9252.574275,842.705048
502.702100,-296.082377,-9030.512492,612.876398
502.702427,-296.082377,-9252.574275,612.876398
502.702755,-148.041188,-9030.512492,612.876398
502.703082,-222.061783,-9400.615463,766.095498
502.703410,-296.082377,-9178.553681,766.095498
502.703738,-444.123565,-9252.574275,612.876398
502.704065,-370.102971,-9252.574275,612.876398
502.704393,0.000000,-8956.491898,536.266849
502.704720,-296.082377,-9104.533087,536.266849
502.705048,-296.082377,-8956.491898,689.485948
502.705375,-148.041188,-8956.491898,766.095498
502.705703,-370.102971,-9104.533087,689.485948
502.706031,-148.041188,-8956.491898,766.095498
502.706358,-222.061783,-9400.615463,612.876398
502.706686,-296.082377,-9326.594869,536.266849
502.707013,-444.123565,-9252.574275,306.438199
502.707341,-222.061783,-9474.636058,383.047749
502.707668,74.020594,-9252.574275,153.219100
502.707996,-148.041188,-9178.553681,842.705048
502.708324,0.000000,-9252.574275,306.438199
502.708651,0.000000,-9622.677246,383.047749
502.708979,0.000000,-9474.636058,383.047749
502.709306,0.000000,-9474.636058,536.266849
502.709634,518.144159,-9474.636058,459.657299
502.709961,0.000000,-9400.615463,306.438199
502.710289,-296.082377,-9474.636058,536.266849
502.710617,-296.082377,-9400.615463,689.485948
502.710944,0.000000,-9326.594869,612.876398
502.711272,-296.082377,-9178.553681,306.438199
502.711599,-222.061783,-8956.491898,536.266849
502.711927,-296.082377,-9104.533087,536.266849
502.712254,-296.082377,-9030.512492,383.047749
502.712582,-148.041188,-8956.491898,536.266849
502.712910,-444.123565,-8660.409521,153.219100
502.713237,-370.102971,-9030.512492,766.095498
502.713565,-518.144159,-9030.512492,306.438199
502.713892,-592.164754,-8882.471304,459.657299
502.714220,-444.123565,-8956.491898,536.266849
502.714547,-370.102971,-8882.471304,689.485948
502.714875,-370.102971,-8882.471304,919.314598
502.715203,-296.082377,-9252.574275,536.266849
502.715530,-222.061783,-9104.533087,689.485948
502.715858,-296.082377,-8956.491898,689.485948
502.716185,-296.082377,-9252.574275,306.438199
502.716513,-518.144159,-8882.471304,766.095498
502.716840,0.000000,-9104.533087,536.266849
502.717168,0.000000,-9030.512492,459.657299
502.717496,-148.041188,-9178.553681,612.876398
502.717823,-148.041188,-9030.512492,383.047749
502.718151,-592.164754,-8734.430116,459.657299
502.718478,0.000000,-8956.491898,689.485948
502.718806,-370.102971,-9030.512492,536.266849
502.719133,-296.082377,-9030.512492,612.876398
502.719461,-296.082377,-9104.533087,612.876398
502.719789,-444.123565,-8660.409521,306.438199
502.720116,0.000000,-8734.430116,995.924147
502.720444,-444.123565,-9252.574275,459.657299
502.720771,-518.144159,-9104.533087,306.438199
502.721099,-370.102971,-9252.574275,612.876398
502.721426,0.000000,-9104.533087,459.657299
502.721754,222.061783,-9252.574275,306.438199
502.722082,0.000000,-8882.471304,383.047749
502.722409,-148.041188,-8882.471304,766.095498
502.722737,0.000000,-9252.574275,612.876398
502.723064,-296.082377,-9178.553681,612.876398
502.723392,0.000000,-9104.533087,76.609550
502.723720,-296.082377,-9178.553681,995.924147
502.724047,-222.061783,-9104.533087,842.705048
502.724375,-222.061783,-9178.553681,612.876398
502.724702,-370.102971,-8882.471304,612.876398
502.725030,-296.082377,-8660.409521,229.828649
502.725357,-444.123565,-8660.409521,1149.143247
502.725685,-592.164754,-8734.430116,612.876398
502.726013,-592.164754,-8882.471304,612.876398
502.726340,-592.164754,-8808.450710,459.657299
502.726668,-740.205942,-8734.430116,1378.971896
502.726995,-370.102971,-8882.471304,689.485948
502.727323,-444.123565,-8956.491898,459.657299
502.727650,-444.123565,-9178.553681,612.876398
502.727978,-444.123565,-8956.491898,689.485948
502.728306,-444.123565,-9104.533087,536.266849
502.728633,0.000000,-9104.533087,383.047749
502.728961,-518.144159,-9252.574275,689.485948
502.729288,-518.144159,-9104.533087,459.657299
502.729616,-518.144159,-9252.574275,536.266849
502.729943,-370.102971,-9178.553681,612.876398
502.730271,-222.061783,-9178.553681,919.314598
502.730599,0.000000,-8956.491898,612.876398
502.730926,-148.041188,-8956.491898,459.657299
502.731254,0.000000,-9030.512492,383.047749
502.731581,-222.061783,-8808.450710,689.485948
502.731909,222.061783,-8808.450710,689.485948
502.732236,-370.102971,-8956.491898,842.705048
502.732564,-370.102971,-8882.471304,536.266849
502.732892,-222.061783,-9252.574275,536.266849
502.733219,-296.082377,-8956.491898,536.266849
502.733547,-222.061783,-8882.471304,612.876398
502.733874,0.000000,-8734.430116,766.095498
502.734202,-296.082377,-9030.512492,459.657299
502.734529,0.000000,-9030.512492,536.266849
502.734857,0.000000,-8956.491898,459.657299
502.735185,-148.041188,-9030.512492,306.438199
502.735512,0.000000,-9252.574275,995.924147
502.735840,-296.082377,-9104.533087,612.876398
502.736167,-148.041188,-9178.553681,459.657299
502.736495,0.000000,-9474.636058,612.876398
502.736822,-296.082377,-9400.615463,383.047749
502.737150,0.000000,-9474.636058,229.828649
502.737478,-148.041188,-9178.553681,842.705048
502.737805,0.000000,-9252.574275,536.266849
502.738133,-296.082377,-9252.574275,612.876398
502.738460,-370.102971,-9252.574275,459.657299
502.738788,-296.082377,-9178.553681,229.828649
502.739115,0.000000,-9400.615463,766.095498
502.739443,-296.082377,-9178.553681,612.876398
502.739771,-222.061783,-9252.574275,229.828649
502.740098,-148.041188,-9178.553681,459.657299
502.740426,0.000000,-8734.430116,919.314598
502.740753,148.041188,-8956.491898,766.095498
502.741081,-222.061783,-9252.574275,383.047749
502.741408,-148.041188,-9474.636058,459.657299
502.741736,0.000000,-9548.656652,536.266849
502.742064,0.000000,-9474.636058,459.657299
502.742391,370.102971,-9400.615463,689.485948
502.742719,0.000000,-9252.574275,383.047749
502.743046,0.000000,-9252.574275,459.657299
502.743374,0.000000,-9252.574275,536.266849
502.743702,0.000000,-9252.574275,383.047749
502.744029,148.041188,-9474.636058,766.095498
502.744357,-148.041188,-9178.553681,536.266849
502.744684,-370.102971,-9474.636058,459.657299
502.745012,-444.123565,-9622.677246,536.266849
502.745339,-222.061783,-9178.553681,536.266849
502.745667,-148.041188,-9030.512492,536.266849
502.745995,-444.123565,-8956.491898,536.266849
502.746322,-444.123565,-9030.512492,459.657299
502.746650,-592.164754,-9104.533087,766.095498
502.746977,-666.185348,-8956.491898,536.266849
502.747305,-444.123565,-8808.450710,995.924147
502.747632,-518.144159,-8882.471304,1225.752797
502.747960,-740.205942,-9104.533087,766.095498
502.748288,-592.164754,-9104.533087,689.485948
502.748615,-592.164754,-9252.574275,536.266849
502.748943,-444.123565,-8808.450710,689.485948
502.749270,-444.123565,-8438.347739,536.266849
502.749598,148.041188,-8956.491898,612.876398
502.749925,0.000000,-9030.512492,766.095498
502.750253,-296.082377,-8882.471304,766.095498
502.750581,-666.185348,-8882.471304,689.485948
502.750908,-148.041188,-8882.471304,1072.533697
502.751236,-518.144159,-9030.512492,689.485948
502.751563,-370.102971,-8882.471304,536.266849
502.751891,-370.102971,-8660.409521,383.047749
502.752218,0.000000,-8882.471304,306.438199
502.752546,-148.041188,-8512.368333,612.876398
502.752874,0.000000,-8586.388927,306.438199
502.753201,-296.082377,-8734.430116,459.657299
502.753529,-296.082377,-8808.450710,383.047749
502.753856,-444.123565,-9104.533087,459.657299
502.754184,-518.144159,-9252.574275,0.000000
502.754511,0.000000,-9104.533087,76.609550
502.754839,-222.061783,-9030.512492,459.657299
502.755167,-222.061783,-9030.512492,153.219100
502.755494,-222.061783,-9178.553681,306.438199
502.755822,-148.041188,-9252.574275,383.047749
502.756149,0.000000,-9104.533087,612.876398
502.756477,-148.041188,-9178.553681,536.266849
502.756804,-296.082377,-9400.615463,689.485948
502.757132,-370.102971,-9400.615463,689.485948
502.757460,-518.144159,-9252.574275,459.657299
502.757787,-370.102971,-8808.450710,689.485948
502.758115,-592.164754,-9104.533087,459.657299
502.758442,-444.123565,-9030.512492,459.657299
502.758770,-296.082377,-9030.512492,536.266849
502.759098,-296.082377,-9030.512492,689.485948
502.759425,0.000000,-8882.471304,1225.752797
502.759753,-296.082377,-8808.450710,612.876398
502.760081,-518.144159,-9030.512492,459.657299
502.760408,-740.205942,-9030.512492,842.705048
502.760736,-444.123565,-9178.553681,766.095498
502.761064,-444.123565,-9252.574275,612.876398
502.761391,-148.041188,-9326.594869,383.047749
502.761719,-148.041188,-9030.512492,612.876398
502.762047,0.000000,-9326.594869,459.657299
502.762374,-222.061783,-9326.594869,612.876398
502.762702,-222.061783,-9400.615463,612.876398
502.763030,148.041188,-9178.553681,919.314598
502.763357,0.000000,-9326.594869,459.657299
502.763685,0.000000,-9622.677246,383.047749
502.764013,0.000000,-9770.718434,536.266849
502.764340,0.000000,-9326.594869,536.266849
502.764668,222.061783,-9178.553681,689.485948
502.764995,0.000000,-9400.615463,306.438199
502.765323,0.000000,-9326.594869,76.609550
502.765651,74.020594,-9252.574275,229.828649
502.765978,74.020594,-9104.533087,229.828649
502.766306,0.000000,-8808.450710,383.047749
502.766634,0.000000,-8734.430116,0.000000
502.766961,0.000000,-8808.450710,536.266849
502.767289,-222.061783,-8882.471304,306.438199
502.767617,-444.123565,-9178.553681,306.438199
502.767944,-148.041188,-9326.594869,306.438199
502.768272,0.000000,-8512.368333,536.266849
502.768600,74.020594,-9252.574275,536.266849
502.768927,74.020594,-9252.574275,612.876398
502.769255,222.061783,-9474.636058,536.266849
502.769583,0.000000,-9326.594869,766.095498
502.769910,-222.061783,-8808.450710,1149.143247
502.770238,0.000000,-9178.553681,612.876398
502.770566,-296.082377,-9178.553681,612.876398
502.770893,-370.102971,-9400.615463,842.705048
502.771221,-296.082377,-9252.574275,689.485948
502.771549,-740.205942,-8660.409521,919.314598
502.771876,0.000000,-8882.471304,1072.533697
502.772204,-518.144159,-8808.450710,766.095498
502.772532,-296.082377,-8956.491898,842.705048
502.772859,-444.123565,-8734.430116,842.705048
502.773187,-370.102971,-8882.471304,612.876398
502.773515,-370.102971,-9030.512492,842.705048
502.773842,-666.185348,-9104.533087,689.485948
502.774170,-518.144159,-9326.594869,612.876398
502.774498,-666.185348,-9030.512492,689.485948
502.774825,-444.123565,-9178.553681,612.876398
502.775153,-296.082377,-9104.533087,689.485948
502.775481,0.000000,-9326.594869,459.657299
502.775808,0.000000,-9030.512492,766.095498
502.776136,0.000000,-9030.512492,612.876398
502.776464,-296.082377,-9326.594869,536.266849
502.776791,0.000000,-9252.574275,229.828649
502.777119,74.020594,-9252.574275,306.438199
502.777447,-222.061783,-9474.636058,306.438199
502.777774,-148.041188,-9474.636058,383.047749
502.778102,-222.061783,-9178.553681,536.266849
502.778430,-296.082377,-8882.471304,612.876398
502.778757,0.000000,-8660.409521,612.876398
502.779085,-222.061783,-8660.409521,306.438199
502.779412,-296.082377,-8808.450710,306.438199
502.779740,-740.205942,-8956.491898,536.266849
502.780068,-666.185348,-8882.471304,229.828649
502.780395,0.000000,-8956.491898,612.876398
502.780723,-444.123565,-8882.471304,383.047749
502.781051,-592.164754,-8956.491898,383.047749
502.781378,-592.164754,-8808.450710,536.266849
502.781706,-370.102971,-8956.491898,383.047749
502.782034,-222.061783,-8586.388927,536.266849
502.782361,-370.102971,-8882.471304,383.047749
502.782689,-296.082377,-8808.450710,459.657299
502.783017,-370.102971,-8956.491898,766.095498
502.783344,-370.102971,-9252.574275,536.266849
502.783672,-296.082377,-9548.656652,229.828649
502.784000,-444.123565,-8364.327145,689.485948
502.784327,-592.164754,-9178.553681,536.266849
502.784655,-370.102971,-8808.450710,459.657299
502.784983,-222.061783,-8956.491898,536.266849
502.785310,-222.061783,-8512.368333,536.266849
502.785638,222.061783,-8364.327145,536.266849
502.785966,-370.102971,-8734.430116,536.266849
502.786293,-518.144159,-8882.471304,383.047749
502.786621,-666.185348,-8808.450710,689.485948
502.786949,-592.164754,-8956.491898,1072.533697
502.787276,0.000000,-8882.471304,76.609550
502.787604,-222.061783,-8956.491898,459.657299
502.787932,0.000000,-8956.491898,459.657299
502.788259,-148.041188,-8956.491898,459.657299
502.788587,0.000000,-9178.553681,612.876398
502.788915,0.000000,-9030.512492,995.924147
502.789242,0.000000,-9400.615463,689.485948
502.789570,0.000000,-9474.636058,383.047749
502.789898,0.000000,-9474.636058,536.266849
502.790225,0.000000,-9548.656652,536.266849
502.790553,-222.061783,-9326.594869,842.705048
502.790881,148.041188,-9474.636058,536.266849
502.791208,0.000000,-9326.594869,536.266849
502.791536,0.000000,-9252.574275,306.438199
502.791864,0.000000,-9178.553681,612.876398
502.792191,0.000000,-9178.553681,612.876398
502.792519,0.000000,-9252.574275,536.266849
502.792846,-444.123565,-9326.594869,612.876398
502.793174,-518.144159,-9326.594869,612.876398
502.793502,-370.102971,-9474.636058,612.876398
502.793829,-518.144159,-9326.594869,689.485948
502.794157,-222.061783,-8882.471304,766.095498
502.794485,-148.041188,-9252.574275,689.485948
502.794812,-296.082377,-9326.594869,459.657299
502.795140,-370.102971,-9104.533087,689.485948
502.795468,-370.102971,-9326.594869,689.485948
502.795795,-222.061783,-9252.574275,1149.143247
502.796123,-444.123565,-9400.615463,766.095498
502.796451,-592.164754,-9622.677246,766.095498
502.796778,-370.102971,-9548.656652,689.485948
502.797106,-222.061783,-9622.677246,842.705048
502.797434,-148.041188,-9326.594869,842.705048
502.797761,0.000000,-9178.553681,536.266849
502.798089,0.000000,-9178.553681,383.047749
502.798417,0.000000,-9178.553681,689.485948
502.798744,-296.082377,-8808.450710,536.266849
502.799072,0.000000,-8660.409521,919.314598
502.799400,-148.041188,-9178.553681,306.438199
502.799727,-296.082377,-9030.512492,536.266849
502.800055,-296.082377,-9178.553681,306.438199
502.800383,-444.123565,-8956.491898,536.266849
502.800710,-370.102971,-9030.512492,459.657299
502.801038,0.000000,-9104.533087,383.047749
502.801366,-370.102971,-8956.491898,612.876398
502.801693,0.000000,-8882.471304,612.876398
502.802021,-222.061783,-9030.512492,459.657299
502.802349,-148.041188,-9400.615463,459.657299
502.802676,0.000000,-9252.574275,612.876398
502.803004,-296.082377,-8882.471304,689.485948
502.803332,0.000000,-9178.553681,459.657299
502.803659,-296.082377,-8956.491898,306.438199
502.803987,0.000000,-9178.553681,383.047749
502.804315,0.000000,-8734.430116,383.047749
502.804642,0.000000,-8586.388927,536.266849
502.804970,-148.041188,-8808.450710,536.266849
502.805298,-444.123565,-8808.450710,536.266849
502.805625,-296.082377,-8956.491898,536.266849
502.805953,-370.102971,-8586.388927,842.705048
502.806281,-296.082377,-8438.347739,919.314598
502.806608,-296.082377,-8734.430116,536.266849
502.806936,-518.144159,-8956.491898,536.266849
502.807263,-592.164754,-8882.471304,459.657299
502.807591,-518.144159,-8882.471304,612.876398
502.807919,-148.041188,-8808.450710,842.705048
502.808246,-444.123565,-9104.533087,612.876398
502.808574,-444.123565,-9252.574275,689.485948
502.808902,-370.102971,-9400.615463,766.095498
502.809229,-222.061783,-9400.615463,612.876398
502.809557,0.000000,-9548.656652,1072.533697
502.809885,0.000000,-9178.553681,459.657299
502.810212,-148.041188,-9252.574275,766.095498
502.810540,-148.041188,-9178.553681,536.266849
502.810868,-148.041188,-9178.553681,459.657299
502.811195,-222.061783,-9178.553681,306.438199
502.811523,-296.082377,-9178.553681,842.705048
502.811851,-370.102971,-9178.553681,459.657299
502.812178,-518.144159,-8956.491898,612.876398
502.812506,-296.082377,-8956.491898,306.438199
502.812834,-296.082377,-8882.471304,689.485948
502.813161,0.000000,-8734.430116,306.438199
502.813489,-296.082377,-8956.491898,229.828649
502.813817,-370.102971,-8956.491898,306.438199
502.814144,-518.144159,-9104.533087,306.438199
502.814472,-296.082377,-9178.553681,536.266849
502.814800,-592.164754,-9030.512492,229.828649
502.815127,0.000000,-9474.636058,383.047749
502.815455,0.000000,-9252.574275,76.609550
502.815783,148.041188,-9326.594869,459.657299
502.816110,148.041188,-9400.615463,459.657299
502.816438,-74.020594,-9178.553681,612.876398
502.816766,-148.041188,-9474.636058,842.705048
502.817093,-296.082377,-9326.594869,612.876398
502.817421,0.000000,-9474.636058,536.266849
502.817749,-222.061783,-9326.594869,536.266849
502.818076,-148.041188,-9252.574275,536.266849
502.818404,-148.041188,-9030.512492,612.876398
502.818732,-296.082377,-8956.491898,459.657299
502.819059,-296.082377,-8956.491898,306.438199
502.819387,-444.123565,-8882.471304,536.266849
502.819715,-518.144159,-8586.388927,612.876398
502.820042,-222.061783,-8512.368333,842.705048
502.820370,-518.144159,-8882.471304,766.095498
502.820697,-444.123565,-9104.533087,995.924147
502.821025,-222.061783,-9030.512492,919.314598
502.821353,-296.082377,-9326.594869,766.095498
502.821680,74.020594,-9104.533087,995.924147
502.822008,-148.041188,-9030.512492,919.314598
502.822336,0.000000,-9178.553681,689.485948
502.822663,148.041188,-9400.615463,766.095498
502.822991,148.041188,-9400.615463,995.924147
502.823319,74.020594,-9400.615463,689.485948
502.823646,0.000000,-9622.677246,766.095498
502.823974,0.000000,-9474.636058,612.876398
502.824302,0.000000,-9252.574275,689.485948
502.824629,0.000000,-9400.615463,306.438199
502.824957,148.041188,-9178.553681,1225.752797
502.825285,0.000000,-9252.574275,689.485948
502.825612,0.000000,-9400.615463,536.266849
502.825940,0.000000,-9178.553681,536.266849
502.826268,-222.061783,-9178.553681,612.876398
502.826595,-222.061783,-9252.574275,383.047749
502.826923,222.061783,-9326.594869,0.000000
502.827251,-296.082377,-9326.594869,536.266849
502.827578,-296.082377,-9252.574275,459.657299
502.827906,-222.061783,-9400.615463,536.266849
502.828234,-148.041188,-9252.574275,536.266849
502.828561,0.000000,-9474.636058,612.876398
502.828889,-222.061783,-9252.574275,766.095498
502.829217,0.000000,-9400.615463,536.266849
502.829544,-148.041188,-9252.574275,612.876398
502.829872,0.000000,-9400.615463,612.876398
502.830200,-296.082377,-9474.636058,306.438199
502.830527,0.000000,-8956.491898,766.095498
502.830855,-222.061783,-9178.553681,536.266849
502.831183,-444.123565,-9030.512492,612.876398
502.831510,-444.123565,-9104.533087,459.657299
502.831838,-296.082377,-8808.450710,1149.143247
502.832166,-370.102971,-8956.491898,766.095498
502.832493,-444.123565,-8808.450710,536.266849
502.832821,-518.144159,-8586.388927,383.047749
502.833149,-444.123565,-8882.471304,459.657299
502.833476,-444.123565,-8734.430116,536.266849
