#time,accel_x,accel_y,accel_z
295.823247,-592.164754,-8660.409521,306.438199
295.823575,0.000000,-9178.553681,612.876398
295.823903,0.000000,-9030.512492,536.266849
295.824231,0.000000,-9326.594869,459.657299
295.824559,-296.082377,-9252.574275,612.876398
295.824886,-296.082377,-8956.491898,995.924147
295.825214,-148.041188,-8956.491898,766.095498
295.825542,-296.082377,-9178.553681,689.485948
295.825870,-370.102971,-9178.553681,536.266849
295.826198,-444.123565,-9252.574275,689.485948
295.826526,-148.041188,-9030.512492,459.657299
295.826853,0.000000,-9104.533087,612.876398
295.827181,-222.061783,-8882.471304,612.876398
295.827509,-296.082377,-9252.574275,842.705048
295.827837,-148.041188,-9178.553681,536.266849
295.828165,-296.082377,-9178.553681,689.485948
295.828492,0.000000,-8882.471304,612.876398
295.828820,-370.102971,-9104.533087,689.485948
295.829148,-370.102971,-9252.574275,612.876398
295.829476,-222.061783,-9104.533087,459.657299
295.829804,-148.041188,-9252.574275,612.876398
295.830132,0.000000,-9030.512492,919.314598
295.830459,-148.041188,-9474.636058,612.876398
295.830787,-370.102971,-9178.553681,689.485948
295.831115,-148.041188,-9178.553681,689.485948
295.831443,-296.082377,-9178.553681,536.266849
295.831771,0.000000,-9252.574275,689.485948
295.832099,-222.061783,-8882.471304,383.047749
295.832426,0.000000,-9030.512492,536.266849
295.832754,-592.164754,-9030.512492,306.438199
295.833082,-962.267725,-9252.574275,76.609550
295.833410,-1258.350101,-9474.636058,0.000000
295.833738,-1110.308913,-9474.636058,-612.876398
295.834065,-1036.288319,-8956.491898,-459.657299
295.834393,-518.144159,-8734.430116,-306.438199
295.834721,-592.164754,-9178.553681,-306.438199
295.835049,-740.205942,-9474.636058,-536.266849
295.835377,-888.247130,-9474.636058,-612.876398
295.835705,-1258.350101,-9030.512492,-1302.362347
295.836032,-1110.308913,-9030.512492,-1378.971896
295.836360,-814.226536,-9400.615463,-1302.362347
295.836688,-444.123565,-9326.594869,-1378.971896
295.837016,-370.102971,-8734.430116,-1455.581446
295.837344,74.020594,-9400.615463,-995.924147
295.837672,0.000000,-9326.594869,-1455.581446
295.837999,0.000000,-9400.615463,-1685.410096
295.838327,-148.041188,-9400.615463,-1685.410096
295.838655,0.000000,-9252.574275,-1532.190996
295.838983,518.144159,-9548.656652,-2068.457845
295.839311,296.082377,-9474.636058,-1685.410096
295.839638,518.144159,-9252.574275,-1762.019645
295.839966,740.205942,-9104.533087,-1302.362347
295.840294,1258.350101,-9030.512492,-1378.971896
295.840622,1258.350101,-9252.574275,-995.924147
295.840950,666.185348,-9548.656652,-1225.752797
295.841278,370.102971,-9474.636058,-1302.362347
295.841605,148.041188,-9030.512492,-1302.362347
295.841933,370.102971,-9252.574275,-919.314598
295.842261,666.185348,-9104.533087,-1072.533697
295.842589,0.000000,-9178.553681,-1149.143247
295.842917,0.000000,-9178.553681,-919.314598
295.843245,-592.164754,-8808.450710,-919.314598
295.843572,-888.247130,-8956.491898,-1149.143247
295.843900,-1258.350101,-8808.450710,-1072.533697
295.844228,-1258.350101,-9178.553681,-1225.752797
295.844556,-1702.473667,-9030.512492,-1302.362347
295.844884,-1924.535449,-8956.491898,-1838.629195
295.845211,-2368.659014,-9030.512492,-1608.800546
295.845539,-1924.535449,-8660.409521,-1762.019645
295.845867,-1702.473667,-8956.491898,-2068.457845
295.846195,-1628.453072,-8438.347739,-2221.676944
295.846523,-1332.370696,-8586.388927,-1991.848295
295.846851,-1110.308913,-8586.388927,-1838.629195
295.847178,-666.185348,-8660.409521,-1378.971896
295.847506,-222.061783,-8956.491898,-1685.410096
295.847834,0.000000,-9030.512492,-1225.752797
295.848162,222.061783,-9178.553681,-1072.533697
295.848490,444.123565,-9104.533087,-842.705048
295.848817,740.205942,-9326.594869,-383.047749
295.849145,1702.473667,-9252.574275,0.000000
295.849473,1776.494261,-9326.594869,0.000000
295.849801,2220.617826,-9252.574275,383.047749
295.850129,2442.679609,-9104.533087,459.657299
295.850457,2368.659014,-9326.594869,919.314598
295.850784,2220.617826,-9474.636058,919.314598
295.851112,1406.391290,-9474.636058,1225.752797
295.851440,740.205942,-9400.615463,766.095498
295.851768,0.000000,-9770.718434,536.266849
295.852096,-740.205942,-9770.718434,76.609550
295.852424,-1480.411884,-9622.677246,-153.219100
295.852751,-2442.679609,-9252.574275,0.000000
295.853079,-2368.659014,-9252.574275,-536.266849
295.853407,-2516.700203,-8808.450710,-766.095498
295.853735,-2442.679609,-8660.409521,-995.924147
295.854063,-2368.659014,-8290.306550,-383.047749
295.854390,-2516.700203,-7994.224174,-766.095498
295.854718,-2590.720797,-8290.306550,-919.314598
295.855046,-2368.659014,-8216.285956,-919.314598
295.855374,-1702.473667,-8068.244768,-459.657299
295.855702,-592.164754,-8142.265362,153.219100
295.856030,296.082377,-8068.244768,1072.533697
295.856357,1332.370696,-8586.388927,1455.581446
295.856685,1628.453072,-8956.491898,1991.848295
295.857013,1776.494261,-9400.615463,2451.505594
295.857341,1554.432478,-9844.739029,2451.505594
295.857669,1628.453072,-10066.800811,1685.410096
295.857997,1110.308913,-10214.842000,2374.896044
295.858324,888.247130,-10584.944971,1991.848295
295.858652,814.226536,-10436.903782,1838.629195
295.858980,444.123565,-10214.842000,1225.752797
295.859308,296.082377,-9548.656652,1608.800546
295.859636,814.226536,-9400.615463,995.924147
295.859963,74.020594,-9474.636058,689.485948
295.860291,-888.247130,-9104.533087,229.828649
295.860619,-1184.329507,-9326.594869,0.000000
295.860947,-1998.556043,-9178.553681,0.000000
295.861275,-2664.741391,-9104.533087,306.438199
295.861603,-2294.638420,-8660.409521,153.219100
295.861930,-2368.659014,-8512.368333,153.219100
295.862258,-1702.473667,-8068.244768,536.266849
295.862586,-1110.308913,-8142.265362,612.876398
295.862914,-1036.288319,-7476.080014,612.876398
295.863242,-296.082377,-8290.306550,842.705048
295.863570,-444.123565,-8512.368333,842.705048
295.863897,-370.102971,-8438.347739,536.266849
295.864225,0.000000,-9030.512492,766.095498
295.864553,0.000000,-9178.553681,689.485948
295.864881,-148.041188,-9326.594869,306.438199
295.865209,0.000000,-9844.739029,229.828649
295.865536,222.061783,-9918.759623,0.000000
295.865864,444.123565,-10066.800811,0.000000
295.866192,740.205942,-10510.924376,0.000000
295.866520,592.164754,-9696.697840,306.438199
295.866848,888.247130,-10066.800811,306.438199
295.867176,740.205942,-9770.718434,383.047749
295.867503,666.185348,-9474.636058,153.219100
295.867831,74.020594,-9178.553681,306.438199
295.868159,888.247130,-8512.368333,536.266849
295.868487,444.123565,-8660.409521,612.876398
295.868815,296.082377,-8438.347739,842.705048
295.869143,888.247130,-8364.327145,995.924147
295.869470,962.267725,-7920.203579,1072.533697
295.869798,814.226536,-8216.285956,1072.533697
295.870126,296.082377,-8216.285956,842.705048
295.870454,0.000000,-8586.388927,919.314598
295.870782,-666.185348,-8882.471304,459.657299
295.871109,-1184.329507,-8882.471304,229.828649
295.871437,-1332.370696,-8882.471304,0.000000
295.871765,-1258.350101,-9104.533087,0.000000
295.872093,-1480.411884,-9104.533087,-536.266849
295.872421,-1332.370696,-9178.553681,-459.657299
295.872749,-1332.370696,-9326.594869,-306.438199
295.873076,-1258.350101,-9326.594869,0.000000
295.873404,-1554.432478,-9030.512492,-766.095498
295.873732,-1036.288319,-9252.574275,-229.828649
295.874060,-1036.288319,-9326.594869,76.609550
295.874388,-666.185348,-9252.574275,459.657299
295.874715,-370.102971,-8882.471304,612.876398
295.875043,0.000000,-8512.368333,0.000000
295.875371,814.226536,-8512.368333,1302.362347
295.875699,962.267725,-8586.388927,1532.190996
295.876027,1036.288319,-8586.388927,1608.800546
295.876355,1406.391290,-8882.471304,1455.581446
295.876682,1184.329507,-8956.491898,1378.971896
295.877010,444.123565,-8808.450710,766.095498
295.877338,74.020594,-9400.615463,919.314598
295.877666,-370.102971,-9326.594869,153.219100
295.877994,-962.267725,-9474.636058,0.000000
295.878322,-518.144159,-9474.636058,306.438199
295.878649,-296.082377,-9474.636058,-306.438199
295.878977,-518.144159,-9474.636058,0.000000
295.879305,-222.061783,-9622.677246,0.000000
295.879633,-592.164754,-9548.656652,153.219100
295.879961,-666.185348,-8660.409521,0.000000
295.880288,-592.164754,-9104.533087,459.657299
295.880616,-444.123565,-9326.594869,306.438199
295.880944,-518.144159,-8808.450710,612.876398
295.881272,148.041188,-8734.430116,1072.533697
295.881600,370.102971,-8438.347739,1455.581446
295.881927,740.205942,-8290.306550,1225.752797
295.882255,518.144159,-8512.368333,1762.019645
295.882582,296.082377,-8586.388927,1455.581446
295.882910,74.020594,-8808.450710,1455.581446
295.883237,-370.102971,-9104.533087,1378.971896
295.883565,-814.226536,-9252.574275,842.705048
295.883893,-888.247130,-9252.574275,536.266849
295.884220,-888.247130,-9326.594869,689.485948
295.884548,-740.205942,-9252.574275,612.876398
295.884875,-962.267725,-9326.594869,536.266849
295.885203,-888.247130,-9474.636058,459.657299
295.885530,-1184.329507,-9474.636058,0.000000
295.885858,-962.267725,-9696.697840,153.219100
295.886185,-1554.432478,-9770.718434,153.219100
295.886513,-1258.350101,-9548.656652,229.828649
295.886840,-888.247130,-9474.636058,689.485948
295.887168,-1036.288319,-9104.533087,612.876398
295.887495,-444.123565,-8586.388927,766.095498
295.887823,0.000000,-8364.327145,995.924147
295.888150,222.061783,-8364.327145,1302.362347
295.888478,296.082377,-8512.368333,1072.533697
295.888805,148.041188,-8068.244768,1149.143247
295.889133,666.185348,-8660.409521,842.705048
295.889461,444.123565,-9030.512492,459.657299
295.889788,0.000000,-9030.512492,76.609550
295.890116,-222.061783,-9178.553681,76.609550
295.890443,0.000000,-9030.512492,-306.438199
295.890771,-370.102971,-9104.533087,0.000000
295.891098,0.000000,-9474.636058,-153.219100
295.891426,0.000000,-9326.594869,0.000000
295.891753,0.000000,-9548.656652,-306.438199
295.892081,0.000000,-9252.574275,-306.438199
295.892408,0.000000,-9474.636058,0.000000
295.892736,0.000000,-9696.697840,383.047749
295.893063,0.000000,-9474.636058,229.828649
295.893391,74.020594,-9474.636058,383.047749
295.893718,74.020594,-9104.533087,1302.362347
295.894046,814.226536,-8956.491898,766.095498
295.894374,888.247130,-8660.409521,1302.362347
295.894701,814.226536,-8438.347739,1532.190996
295.895029,518.144159,-8808.450710,1302.362347
295.895356,74.020594,-8956.491898,1225.752797
295.895684,-814.226536,-8660.409521,1149.143247
295.896011,-814.226536,-9104.533087,612.876398
295.896339,-1258.350101,-8882.471304,76.609550
295.896666,-1554.432478,-8734.430116,153.219100
295.896994,-1258.350101,-9104.533087,-229.828649
295.897321,-1480.411884,-9030.512492,383.047749
295.897649,-370.102971,-8882.471304,-306.438199
295.897976,-1184.329507,-9030.512492,0.000000
295.898304,-1480.411884,-9178.553681,-229.828649
295.898631,-1554.432478,-9326.594869,-306.438199
295.898959,-962.267725,-9474.636058,0.000000
295.899287,-962.267725,-8882.471304,459.657299
295.899614,-814.226536,-9030.512492,153.219100
295.899942,0.000000,-9030.512492,766.095498
295.900269,370.102971,-8882.471304,919.314598
295.900597,740.205942,-8660.409521,1072.533697
295.900924,1110.308913,-8512.368333,1532.190996
295.901252,962.267725,-8586.388927,1225.752797
295.901579,814.226536,-9104.533087,1378.971896
295.901907,444.123565,-8956.491898,995.924147
295.902234,370.102971,-9400.615463,842.705048
295.902562,0.000000,-9474.636058,842.705048
295.902889,-444.123565,-9326.594869,306.438199
295.903217,0.000000,-9474.636058,229.828649
295.903544,0.000000,-9252.574275,76.609550
295.903872,0.000000,-9326.594869,0.000000
295.904200,518.144159,-9178.553681,459.657299
295.904527,0.000000,-9178.553681,0.000000
295.904855,0.000000,-9474.636058,153.219100
295.905182,-222.061783,-9252.574275,459.657299
295.905510,-222.061783,-9474.636058,919.314598
295.905837,-222.061783,-9030.512492,1532.190996
295.906165,0.000000,-9326.594869,1149.143247
295.906492,-148.041188,-9178.553681,1532.190996
295.906820,148.041188,-8808.450710,1762.019645
295.907147,148.041188,-8660.409521,2068.457845
295.907475,0.000000,-8956.491898,1762.019645
295.907802,74.020594,-8956.491898,1685.410096
295.908130,-740.205942,-9252.574275,1072.533697
295.908457,-1258.350101,-8882.471304,919.314598
295.908785,-1258.350101,-8808.450710,536.266849
295.909112,-1554.432478,-9104.533087,536.266849
295.909440,-1776.494261,-8808.450710,766.095498
295.909768,-1332.370696,-8956.491898,612.876398
295.910095,-1110.308913,-9252.574275,383.047749
295.910423,-1110.308913,-9252.574275,76.609550
295.910750,-1110.308913,-9400.615463,0.000000
295.911078,-1332.370696,-9474.636058,612.876398
295.911405,-592.164754,-9770.718434,306.438199
295.911733,-1036.288319,-9400.615463,536.266849
295.912060,-444.123565,-9178.553681,919.314598
295.912388,0.000000,-9104.533087,842.705048
295.912715,740.205942,-8586.388927,1455.581446
295.913043,888.247130,-9030.512492,1072.533697
295.913370,1110.308913,-8734.430116,1149.143247
295.913698,1036.288319,-8956.491898,1072.533697
295.914025,814.226536,-8882.471304,842.705048
295.914353,592.164754,-9178.553681,536.266849
295.914681,148.041188,-8660.409521,76.609550
295.915008,0.000000,-9326.594869,153.219100
295.915336,0.000000,-9178.553681,0.000000
295.915663,-518.144159,-9030.512492,-229.828649
295.915991,-444.123565,-9104.533087,0.000000
295.916318,0.000000,-9178.553681,0.000000
295.916646,-296.082377,-8882.471304,-459.657299
295.916973,0.000000,-9252.574275,-383.047749
295.917301,-148.041188,-9178.553681,0.000000
295.917628,-222.061783,-9400.615463,229.828649
295.917956,0.000000,-9252.574275,229.828649
295.918283,0.000000,-9400.615463,459.657299
295.918611,0.000000,-9252.574275,689.485948
295.918938,0.000000,-8956.491898,919.314598
295.919266,148.041188,-8660.409521,1225.752797
295.919594,814.226536,-8586.388927,1532.190996
295.919921,888.247130,-9178.553681,1532.190996
295.920249,444.123565,-9178.553681,1378.971896
295.920576,0.000000,-9252.574275,919.314598
295.920904,-666.185348,-9104.533087,766.095498
295.921231,-888.247130,-9400.615463,383.047749
295.921559,-1036.288319,-8882.471304,536.266849
295.921886,-1480.411884,-8882.471304,229.828649
295.922214,-1110.308913,-9178.553681,153.219100
295.922541,-1036.288319,-9178.553681,0.000000
295.922869,-1036.288319,-9104.533087,0.000000
295.923196,-666.185348,-8882.471304,0.000000
295.923524,-1036.288319,-9326.594869,0.000000
295.923851,-1184.329507,-9326.594869,76.609550
295.924179,-1036.288319,-9252.574275,153.219100
295.924507,-888.247130,-8882.471304,306.438199
295.924834,-148.041188,-8734.430116,995.924147
295.925162,0.000000,-8808.450710,383.047749
295.925489,370.102971,-8734.430116,1225.752797
295.925817,814.226536,-8808.450710,1149.143247
295.926144,888.247130,-8734.430116,1225.752797
295.926472,740.205942,-8882.471304,842.705048
295.926799,370.102971,-8734.430116,995.924147
295.927127,74.020594,-9622.677246,536.266849
295.927454,0.000000,-9548.656652,383.047749
295.927782,-592.164754,-9400.615463,153.219100
295.928109,-666.185348,-9474.636058,0.000000
295.928437,-518.144159,-8956.491898,0.000000
295.928764,0.000000,-9474.636058,-153.219100
295.929092,-296.082377,-8956.491898,0.000000
295.929420,0.000000,-8956.491898,-306.438199
295.929747,0.000000,-8956.491898,0.000000
295.930075,0.000000,-9030.512492,229.828649
295.930402,74.020594,-9030.512492,459.657299
295.930730,148.041188,-9178.553681,612.876398
295.931057,222.061783,-8956.491898,995.924147
295.931385,666.185348,-8660.409521,1302.362347
295.931712,592.164754,-8660.409521,2068.457845
295.932040,962.267725,-8808.450710,1838.629195
295.932367,666.185348,-8956.491898,1685.410096
295.932695,370.102971,-9104.533087,1762.019645
295.933022,0.000000,-9178.553681,1302.362347
295.933350,-592.164754,-9252.574275,1072.533697
295.933677,-666.185348,-9030.512492,459.657299
295.934005,-1110.308913,-9104.533087,689.485948
295.934332,-1036.288319,-9030.512492,459.657299
295.934660,-1258.350101,-9030.512492,306.438199
295.934988,-1036.288319,-9252.574275,153.219100
295.935315,-1628.453072,-8956.491898,153.219100
295.935643,-1332.370696,-9326.594869,229.828649
295.935970,-1480.411884,-9400.615463,0.000000
295.936298,-1406.391290,-9326.594869,153.219100
295.936625,-1332.370696,-9252.574275,306.438199
295.936953,-1480.411884,-8956.491898,919.314598
295.937280,0.000000,-8956.491898,1149.143247
295.937608,-148.041188,-8808.450710,1072.533697
295.937935,296.082377,-8512.368333,919.314598
295.938263,592.164754,-8660.409521,1378.971896
295.938590,1110.308913,-8660.409521,1149.143247
295.938918,666.185348,-9104.533087,1608.800546
295.939245,444.123565,-9400.615463,842.705048
295.939573,0.000000,-9326.594869,689.485948
295.939901,0.000000,-9400.615463,689.485948
295.940228,0.000000,-9474.636058,383.047749
295.940556,0.000000,-9252.574275,0.000000
295.940883,0.000000,-9474.636058,229.828649
295.941211,0.000000,-9474.636058,0.000000
295.941538,0.000000,-9326.594869,76.609550
295.941866,0.000000,-9326.594869,0.000000
295.942193,148.041188,-9252.574275,306.438199
295.942521,-444.123565,-9178.553681,383.047749
295.942848,-148.041188,-9326.594869,459.657299
295.943176,-592.164754,-9178.553681,842.705048
295.943503,-296.082377,-9030.512492,919.314598
295.943831,222.061783,-8956.491898,919.314598
295.944158,296.082377,-8808.450710,995.924147
295.944486,444.123565,-8586.388927,1378.971896
295.944814,444.123565,-8734.430116,1378.971896
295.945141,296.082377,-8956.491898,1072.533697
295.945469,148.041188,-8882.471304,1378.971896
295.945796,-370.102971,-9104.533087,459.657299
295.946124,-1036.288319,-9030.512492,459.657299
295.946451,-1332.370696,-9326.594869,76.609550
295.946779,-1258.350101,-9326.594869,76.609550
295.947106,-1480.411884,-9326.594869,0.000000
295.947434,-962.267725,-9326.594869,153.219100
295.947761,-1110.308913,-9326.594869,-153.219100
295.948089,-1258.350101,-9252.574275,0.000000
295.948416,-1036.288319,-9326.594869,-153.219100
295.948744,-962.267725,-9326.594869,0.000000
295.949071,-740.205942,-9104.533087,0.000000
295.949399,-814.226536,-8660.409521,229.828649
295.949727,-148.041188,-8882.471304,612.876398
295.950054,74.020594,-8734.430116,919.314598
295.950382,666.185348,-8808.450710,1072.533697
295.950709,888.247130,-8808.450710,1608.800546
295.951037,1332.370696,-9326.594869,1455.581446
295.951364,740.205942,-9104.533087,1225.752797
295.951692,814.226536,-9104.533087,995.924147
295.952019,222.061783,-9178.553681,383.047749
295.952347,-148.041188,-9178.553681,612.876398
295.952674,-444.123565,-9326.594869,536.266849
295.953002,-592.164754,-9474.636058,-306.438199
295.953329,-518.144159,-9474.636058,-229.828649
295.953657,-444.123565,-9178.553681,-306.438199
295.953984,-592.164754,-9104.533087,-383.047749
295.954312,-222.061783,-8882.471304,0.000000
295.954639,-370.102971,-9104.533087,-383.047749
295.954967,-370.102971,-9252.574275,0.000000
295.955295,0.000000,-9178.553681,383.047749
295.955622,-296.082377,-9030.512492,306.438199
295.955950,0.000000,-9030.512492,842.705048
295.956277,444.123565,-8808.450710,1378.971896
295.956605,592.164754,-8882.471304,1302.362347
295.956932,740.205942,-8660.409521,1915.238745
295.957260,814.226536,-8882.471304,1532.190996
295.957587,592.164754,-8956.491898,1685.410096
295.957915,148.041188,-9548.656652,1762.019645
295.958242,0.000000,-9178.553681,1302.362347
295.958570,-518.144159,-8882.471304,1149.143247
295.958897,-740.205942,-9400.615463,919.314598
295.959225,-1036.288319,-9178.553681,842.705048
295.959552,-888.247130,-9474.636058,383.047749
295.959880,-1110.308913,-9252.574275,536.266849
295.960208,-1110.308913,-9252.574275,383.047749
295.960535,-1628.453072,-9326.594869,383.047749
295.960863,-1776.494261,-9770.718434,76.609550
295.961190,-1554.432478,-9474.636058,1072.533697
295.961518,-1554.432478,-9474.636058,689.485948
295.961845,-1406.391290,-9178.553681,689.485948
295.962173,-888.247130,-8956.491898,842.705048
295.962500,-518.144159,-8734.430116,1302.362347
295.962828,148.041188,-7994.224174,1072.533697
295.963155,148.041188,-8512.368333,1685.410096
295.963483,222.061783,-8586.388927,1149.143247
295.963810,296.082377,-8734.430116,1378.971896
295.964138,222.061783,-9104.533087,1149.143247
295.964465,0.000000,-9178.553681,919.314598
295.964793,148.041188,-9326.594869,689.485948
295.965121,0.000000,-9474.636058,383.047749
295.965448,-370.102971,-9474.636058,0.000000
295.965776,-296.082377,-9474.636058,76.609550
295.966103,0.000000,-9770.718434,153.219100
295.966431,-222.061783,-9474.636058,0.000000
295.966758,0.000000,-9548.656652,0.000000
295.967086,0.000000,-9548.656652,153.219100
295.967413,148.041188,-9696.697840,-153.219100
295.967741,0.000000,-9474.636058,229.828649
295.968068,0.000000,-8956.491898,459.657299
295.968396,0.000000,-9400.615463,536.266849
295.968723,222.061783,-8956.491898,536.266849
295.969051,666.185348,-8734.430116,842.705048
295.969378,666.185348,-8660.409521,1225.752797
295.969706,1332.370696,-8438.347739,919.314598
295.970034,444.123565,-8808.450710,1302.362347
295.970361,148.041188,-8586.388927,1072.533697
295.970689,-296.082377,-8660.409521,842.705048
295.971016,-592.164754,-9104.533087,536.266849
295.971344,-888.247130,-9030.512492,153.219100
295.971671,-1258.350101,-8808.450710,0.000000
295.971999,-1258.350101,-8956.491898,-306.438199
295.972326,-1110.308913,-8956.491898,-459.657299
295.972654,-1036.288319,-9104.533087,-689.485948
295.972981,-1332.370696,-9252.574275,-383.047749
295.973309,-1258.350101,-9252.574275,-612.876398
295.973636,-1480.411884,-9400.615463,-306.438199
295.973964,-1110.308913,-9178.553681,-229.828649
295.974291,-1184.329507,-9178.553681,76.609550
295.974619,-296.082377,-9104.533087,306.438199
295.974946,0.000000,-8734.430116,536.266849
295.975274,740.205942,-8660.409521,459.657299
295.975602,1036.288319,-8660.409521,1302.362347
295.975929,1332.370696,-8586.388927,1302.362347
295.976257,1110.308913,-8882.471304,1225.752797
295.976584,962.267725,-9030.512492,689.485948
295.976912,444.123565,-8956.491898,1072.533697
295.977239,0.000000,-9252.574275,612.876398
295.977567,-296.082377,-9400.615463,536.266849
295.977894,-518.144159,-9252.574275,383.047749
295.978222,-222.061783,-8956.491898,459.657299
295.978549,-370.102971,-8882.471304,766.095498
295.978877,-148.041188,-9252.574275,0.000000
295.979204,-222.061783,-9178.553681,0.000000
295.979532,-222.061783,-9252.574275,0.000000
295.979859,0.000000,-9178.553681,76.609550
295.980187,-296.082377,-8956.491898,842.705048
295.980515,-444.123565,-9252.574275,612.876398
295.980842,-296.082377,-9400.615463,919.314598
295.981170,-370.102971,-8956.491898,1225.752797
295.981497,-222.061783,-8808.450710,1608.800546
295.981825,0.000000,-8364.327145,1838.629195
295.982153,0.000000,-8882.471304,1532.190996
295.982480,0.000000,-8808.450710,1685.410096
295.982808,-148.041188,-8882.471304,1378.971896
295.983135,-370.102971,-8882.471304,1225.752797
295.983463,-962.267725,-9326.594869,842.705048
295.983790,-962.267725,-9252.574275,459.657299
295.984118,-1110.308913,-9178.553681,153.219100
295.984446,-1184.329507,-9030.512492,153.219100
295.984773,-1036.288319,-9326.594869,229.828649
295.985101,-962.267725,-8956.491898,76.609550
295.985428,-1036.288319,-9400.615463,766.095498
295.985756,-1258.350101,-9474.636058,76.609550
295.986083,-1184.329507,-9622.677246,76.609550
295.986411,-1184.329507,-9474.636058,229.828649
295.986739,-962.267725,-9400.615463,459.657299
295.987066,-518.144159,-9104.533087,766.095498
295.987394,148.041188,-8882.471304,612.876398
295.987721,518.144159,-8956.491898,1149.143247
295.988049,814.226536,-8956.491898,1149.143247
295.988376,1036.288319,-8734.430116,1455.581446
295.988704,814.226536,-8882.471304,1225.752797
295.989032,518.144159,-9030.512492,995.924147
295.989359,370.102971,-9400.615463,766.095498
295.989687,148.041188,-9474.636058,536.266849
295.990014,0.000000,-9474.636058,306.438199
295.990342,-296.082377,-9252.574275,76.609550
295.990670,-148.041188,-9474.636058,459.657299
295.990997,-296.082377,-9326.594869,0.000000
295.991325,-296.082377,-9474.636058,0.000000
295.991652,-222.061783,-9326.594869,0.000000
295.991980,-222.061783,-9252.574275,0.000000
295.992307,-296.082377,-8882.471304,0.000000
295.992635,-148.041188,-9400.615463,76.609550
295.992963,-444.123565,-9326.594869,76.609550
295.993290,-222.061783,-9178.553681,536.266849
295.993618,-296.082377,-8956.491898,766.095498
295.993945,0.000000,-8512.368333,1532.190996
295.994273,518.144159,-8734.430116,919.314598
295.994600,666.185348,-8512.368333,1302.362347
295.994928,592.164754,-8364.327145,1455.581446
295.995256,222.061783,-8808.450710,1225.752797
295.995583,-444.123565,-8586.388927,1455.581446
295.995911,-222.061783,-9178.553681,459.657299
295.996238,-740.205942,-9104.533087,536.266849
295.996566,-962.267725,-8956.491898,383.047749
295.996893,-1036.288319,-8956.491898,76.609550
295.997221,-962.267725,-9030.512492,-383.047749
295.997549,-1332.370696,-8586.388927,76.609550
295.997876,-1184.329507,-8808.450710,0.000000
295.998204,-962.267725,-9178.553681,153.219100
295.998531,-1110.308913,-9326.594869,0.000000
295.998859,-1184.329507,-9252.574275,0.000000
295.999186,-888.247130,-9326.594869,536.266849
295.999514,-740.205942,-9178.553681,383.047749
295.999842,-296.082377,-8882.471304,766.095498
296.000169,0.000000,-8808.450710,919.314598
296.000497,518.144159,-8734.430116,1302.362347
296.000824,1110.308913,-8438.347739,1072.533697
296.001152,1258.350101,-8512.368333,1378.971896
296.001480,148.041188,-8956.491898,1072.533697
296.001807,0.000000,-9178.553681,919.314598
296.002135,-222.061783,-9252.574275,612.876398
296.002462,-444.123565,-8660.409521,383.047749
296.002790,-370.102971,-9400.615463,153.219100
296.003117,-888.247130,-9326.594869,-229.828649
296.003445,-518.144159,-9178.553681,76.609550
296.003773,-592.164754,-9326.594869,0.000000
296.004100,-370.102971,-9104.533087,-459.657299
296.004428,-296.082377,-9252.574275,-459.657299
296.004755,0.000000,-9400.615463,153.219100
296.005083,-222.061783,-9326.594869,76.609550
296.005410,-370.102971,-9400.615463,536.266849
296.005738,-296.082377,-9474.636058,612.876398
296.006066,0.000000,-9104.533087,1072.533697
296.006393,0.000000,-8882.471304,1225.752797
296.006721,148.041188,-8808.450710,1532.190996
296.007048,518.144159,-8956.491898,1685.410096
296.007376,814.226536,-9030.512492,1685.410096
296.007703,444.123565,-8808.450710,1608.800546
296.008031,74.020594,-8956.491898,1302.362347
296.008359,0.000000,-9474.636058,766.095498
296.008686,-740.205942,-9030.512492,536.266849
296.009014,-740.205942,-9474.636058,229.828649
296.009341,-1110.308913,-8956.491898,612.876398
296.009669,-1184.329507,-9326.594869,-306.438199
296.009997,-962.267725,-9252.574275,153.219100
296.010324,-888.247130,-9252.574275,0.000000
296.010652,-1332.370696,-9400.615463,-229.828649
296.010979,-1702.473667,-9696.697840,0.000000
296.011307,-1258.350101,-9030.512492,-995.924147
296.011634,-1332.370696,-9474.636058,153.219100
296.011962,-1184.329507,-9030.512492,153.219100
296.012290,-518.144159,-8808.450710,306.438199
296.012617,296.082377,-8882.471304,842.705048
296.012945,444.123565,-7698.141797,766.095498
296.013272,962.267725,-9030.512492,1225.752797
296.013600,888.247130,-8734.430116,995.924147
296.013927,740.205942,-8956.491898,1149.143247
296.014255,296.082377,-9178.553681,689.485948
296.014583,296.082377,-9252.574275,459.657299
296.014910,148.041188,-9844.739029,383.047749
296.015238,-296.082377,-9030.512492,153.219100
296.015565,-370.102971,-9696.697840,0.000000
296.015893,0.000000,-9252.574275,0.000000
296.016220,0.000000,-8956.491898,76.609550
296.016548,0.000000,-9104.533087,0.000000
296.016876,0.000000,-9474.636058,0.000000
296.017203,0.000000,-9030.512492,0.000000
296.017531,-148.041188,-9326.594869,76.609550
296.017858,-518.144159,-9030.512492,383.047749
296.018186,-148.041188,-8956.491898,995.924147
296.018514,-888.247130,-8882.471304,919.314598
296.018841,-148.041188,-8734.430116,919.314598
296.019169,444.123565,-8660.409521,1225.752797
296.019496,74.020594,-8364.327145,1149.143247
296.019824,1036.288319,-8882.471304,1762.019645
296.020151,74.020594,-8956.491898,842.705048
296.020479,-296.082377,-8808.450710,919.314598
296.020807,-814.226536,-8882.471304,766.095498
296.021134,-1184.329507,-9030.512492,689.485948
296.021462,-1184.329507,-9252.574275,689.485948
296.021789,-1628.453072,-8586.388927,76.609550
296.022117,-1036.288319,-8882.471304,153.219100
296.022444,-814.226536,-9622.677246,0.000000
296.022772,-888.247130,-9178.553681,-229.828649
296.023100,-962.267725,-9622.677246,0.000000
296.023427,-1036.288319,-9474.636058,-153.219100
296.023755,-962.267725,-9474.636058,383.047749
296.024082,-962.267725,-9918.759623,0.000000
296.024410,-444.123565,-9252.574275,459.657299
296.024737,74.020594,-9178.553681,459.657299
296.025065,296.082377,-8438.347739,-76.609550
296.025393,1110.308913,-9252.574275,1072.533697
296.025720,1332.370696,-8216.285956,1608.800546
296.026048,888.247130,-9030.512492,1225.752797
296.026375,518.144159,-9030.512492,1225.752797
296.026703,1258.350101,-9696.697840,1225.752797
296.027031,0.000000,-9400.615463,689.485948
296.027358,-222.061783,-9622.677246,383.047749
296.027686,-296.082377,-9474.636058,383.047749
296.028013,-740.205942,-9696.697840,0.000000
296.028341,-814.226536,-9178.553681,0.000000
296.028668,-148.041188,-9178.553681,-459.657299
296.028996,0.000000,-9548.656652,0.000000
296.029324,-740.205942,-9030.512492,-153.219100
296.029651,-296.082377,-8956.491898,0.000000
296.029979,-444.123565,-8808.450710,76.609550
296.030306,-222.061783,-9178.553681,995.924147
296.030634,-370.102971,-9326.594869,459.657299
296.030961,-444.123565,-8956.491898,1225.752797
296.031289,-444.123565,-8808.450710,1225.752797
296.031617,74.020594,-8808.450710,1302.362347
296.031944,814.226536,-8956.491898,1072.533697
296.032272,444.123565,-8660.409521,1762.019645
296.032599,370.102971,-8882.471304,1685.410096
296.032927,0.000000,-8882.471304,1072.533697
296.033254,-370.102971,-9030.512492,1302.362347
296.033582,-740.205942,-8956.491898,612.876398
296.033910,-1110.308913,-9104.533087,306.438199
296.034237,-962.267725,-8956.491898,383.047749
296.034565,-1110.308913,-9104.533087,0.000000
296.034892,-1036.288319,-9178.553681,153.219100
296.035220,-740.205942,-9030.512492,0.000000
296.035547,-1184.329507,-8956.491898,0.000000
296.035875,-1258.350101,-9474.636058,0.000000
296.036203,-1258.350101,-9474.636058,0.000000
296.036530,-1110.308913,-9252.574275,0.000000
296.036858,-1036.288319,-8956.491898,612.876398
296.037185,-592.164754,-8882.471304,612.876398
296.037513,0.000000,-8808.450710,229.828649
296.037841,814.226536,-8734.430116,1072.533697
296.038168,962.267725,-8512.368333,1225.752797
296.038496,1406.391290,-8808.450710,1378.971896
296.038823,888.247130,-8438.347739,1455.581446
296.039151,740.205942,-9178.553681,1072.533697
296.039478,444.123565,-9400.615463,766.095498
296.039806,148.041188,-9400.615463,689.485948
296.040134,0.000000,-9252.574275,229.828649
296.040461,0.000000,-9548.656652,306.438199
296.040789,-518.144159,-9104.533087,153.219100
296.041116,0.000000,-9400.615463,0.000000
296.041444,0.000000,-9400.615463,0.000000
296.041771,0.000000,-9104.533087,-153.219100
296.042099,0.000000,-9474.636058,76.609550
296.042427,0.000000,-9104.533087,76.609550
296.042754,-592.164754,-9400.615463,459.657299
296.043082,-814.226536,-9252.574275,536.266849
296.043409,-666.185348,-9178.553681,842.705048
296.043737,-518.144159,-8660.409521,1302.362347
296.044064,0.000000,-8734.430116,1608.800546
296.044392,222.061783,-8660.409521,1225.752797
296.044720,444.123565,-8660.409521,1378.971896
296.045047,222.061783,-8808.450710,1149.143247
296.045375,0.000000,-8956.491898,1302.362347
296.045702,-666.185348,-8956.491898,919.314598
296.046030,-1036.288319,-9178.553681,919.314598
296.046358,-1184.329507,-9252.574275,459.657299
296.046685,-1110.308913,-9326.594869,229.828649
296.047013,-1110.308913,-9252.574275,306.438199
296.047340,-962.267725,-9030.512492,153.219100
296.047668,-1036.288319,-9252.574275,153.219100
296.047995,-962.267725,-9548.656652,153.219100
296.048323,-1036.288319,-9474.636058,153.219100
296.048651,-1110.308913,-9400.615463,0.000000
296.048978,-740.205942,-9474.636058,229.828649
296.049306,-814.226536,-9178.553681,-306.438199
296.049633,-370.102971,-9178.553681,689.485948
296.049961,74.020594,-8956.491898,842.705048
296.050288,666.185348,-8734.430116,995.924147
296.050616,888.247130,-8734.430116,1532.190996
296.050944,444.123565,-8586.388927,1532.190996
296.051271,740.205942,-8808.450710,1072.533697
296.051599,666.185348,-9252.574275,995.924147
296.051926,0.000000,-9252.574275,612.876398
296.052254,-296.082377,-9474.636058,459.657299
296.052581,-592.164754,-9400.615463,383.047749
296.052909,-666.185348,-9474.636058,76.609550
296.053237,-518.144159,-9474.636058,0.000000
296.053564,-740.205942,-9400.615463,-229.828649
296.053892,-444.123565,-9326.594869,-306.438199
296.054219,-74.020594,-9030.512492,-459.657299
296.054547,-444.123565,-9252.574275,229.828649
296.054875,-222.061783,-9030.512492,76.609550
296.055202,-148.041188,-9104.533087,459.657299
296.055530,-370.102971,-9178.553681,76.609550
296.055857,0.000000,-9326.594869,536.266849
296.056185,0.000000,-9252.574275,229.828649
296.056512,148.041188,-8882.471304,1072.533697
296.056840,370.102971,-9030.512492,1455.581446
296.057168,740.205942,-8882.471304,1532.190996
296.057495,666.185348,-8882.471304,1532.190996
296.057823,592.164754,-8808.450710,1072.533697
296.058150,74.020594,-9104.533087,919.314598
296.058478,-296.082377,-9104.533087,689.485948
296.058805,-666.185348,-9104.533087,689.485948
296.059133,-962.267725,-9178.553681,459.657299
296.059461,-1036.288319,-8586.388927,-229.828649
296.059788,-1332.370696,-9178.553681,0.000000
296.060116,-1036.288319,-9400.615463,0.000000
296.060443,-1110.308913,-9326.594869,0.000000
296.060771,-1036.288319,-9474.636058,0.000000
296.061098,-962.267725,-9030.512492,76.609550
296.061426,-1332.370696,-9252.574275,-536.266849
296.061754,-1110.308913,-9400.615463,229.828649
296.062081,-814.226536,-9104.533087,306.438199
296.062409,-222.061783,-8808.450710,766.095498
296.062736,0.000000,-8586.388927,1302.362347
296.063064,888.247130,-8734.430116,1378.971896
296.063391,814.226536,-8734.430116,1072.533697
296.063719,814.226536,-8956.491898,1225.752797
296.064047,666.185348,-8956.491898,919.314598
296.064374,296.082377,-8956.491898,766.095498
296.064702,296.082377,-9252.574275,612.876398
296.065029,0.000000,-9474.636058,306.438199
296.065357,-296.082377,-9178.553681,0.000000
296.065685,-222.061783,-9178.553681,306.438199
296.066012,0.000000,-9326.594869,153.219100
296.066340,222.061783,-9696.697840,383.047749
296.066667,0.000000,-9252.574275,229.828649
296.066995,0.000000,-9326.594869,229.828649
296.067322,-296.082377,-9474.636058,383.047749
296.067650,-444.123565,-9252.574275,842.705048
296.067978,-370.102971,-9622.677246,1685.410096
296.068305,-370.102971,-8956.491898,919.314598
296.068633,-296.082377,-8808.450710,1225.752797
296.068960,0.000000,-8808.450710,1378.971896
296.069288,-148.041188,-8586.388927,1608.800546
296.069615,222.061783,-8438.347739,1838.629195
296.069943,0.000000,-8290.306550,1532.190996
296.070271,0.000000,-8660.409521,1302.362347
296.070598,-592.164754,-8808.450710,1149.143247
296.070926,-1036.288319,-8956.491898,919.314598
296.071253,-1406.391290,-8882.471304,612.876398
296.071581,-1480.411884,-8882.471304,229.828649
296.071908,-1258.350101,-9030.512492,229.828649
296.072236,-1332.370696,-9252.574275,229.828649
296.072564,-1258.350101,-9178.553681,153.219100
296.072891,-1036.288319,-9178.553681,229.828649
296.073219,-962.267725,-9104.533087,0.000000
296.073546,-962.267725,-9474.636058,76.609550
296.073874,-814.226536,-9622.677246,459.657299
296.074202,-740.205942,-9474.636058,459.657299
296.074529,-666.185348,-9326.594869,689.485948
296.074857,0.000000,-9178.553681,536.266849
296.075184,592.164754,-9030.512492,1072.533697
296.075512,888.247130,-9030.512492,1455.581446
296.075839,888.247130,-8660.409521,1149.143247
296.076167,962.267725,-8808.450710,1455.581446
296.076495,1036.288319,-9104.533087,1378.971896
296.076822,222.061783,-9030.512492,1072.533697
296.077150,0.000000,-9252.574275,459.657299
296.077477,-370.102971,-9400.615463,76.609550
296.077805,-518.144159,-9474.636058,0.000000
296.078132,-740.205942,-9474.636058,-306.438199
296.078460,-592.164754,-8956.491898,-306.438199
296.078788,-444.123565,-9400.615463,-612.876398
296.079115,-444.123565,-9104.533087,-459.657299
296.079443,-296.082377,-9326.594869,-612.876398
296.079770,-296.082377,-9104.533087,-229.828649
296.080098,0.000000,-9104.533087,0.000000
296.080425,-444.123565,-9104.533087,0.000000
296.080753,-222.061783,-8882.471304,0.000000
296.081081,74.020594,-8882.471304,306.438199
296.081408,518.144159,-8808.450710,766.095498
296.081736,1110.308913,-9030.512492,1225.752797
296.082063,1258.350101,-8438.347739,1378.971896
296.082391,962.267725,-9104.533087,1455.581446
296.082718,666.185348,-9030.512492,1378.971896
296.083046,222.061783,-9104.533087,1072.533697
296.083373,-222.061783,-8808.450710,995.924147
296.083701,-370.102971,-9178.553681,919.314598
296.084028,-888.247130,-9400.615463,689.485948
296.084356,-1110.308913,-8956.491898,383.047749
296.084683,-1110.308913,-8956.491898,153.219100
296.085011,-1036.288319,-9030.512492,0.000000
296.085338,-1036.288319,-8956.491898,383.047749
296.085666,-1184.329507,-9252.574275,153.219100
296.085993,-1184.329507,-9104.533087,153.219100
296.086321,-1258.350101,-9178.553681,153.219100
296.086648,-1184.329507,-9252.574275,459.657299
296.086976,-1036.288319,-9326.594869,459.657299
296.087303,-888.247130,-8734.430116,689.485948
296.087631,-444.123565,-8882.471304,1072.533697
296.087958,74.020594,-8660.409521,1302.362347
296.088286,370.102971,-8734.430116,1302.362347
296.088613,740.205942,-9178.553681,1455.581446
296.088941,666.185348,-8438.347739,1072.533697
296.089268,222.061783,-9104.533087,1302.362347
296.089596,-148.041188,-9400.615463,689.485948
296.089923,-370.102971,-9474.636058,459.657299
296.090250,-740.205942,-9178.553681,306.438199
296.090578,-814.226536,-9474.636058,0.000000
296.090905,-370.102971,-9400.615463,153.219100
296.091233,-296.082377,-9326.594869,0.000000
296.091560,-444.123565,-9400.615463,0.000000
296.091888,-370.102971,-9400.615463,76.609550
296.092215,0.000000,-9474.636058,306.438199
296.092543,-814.226536,-9178.553681,306.438199
296.092870,-518.144159,-9252.574275,383.047749
296.093198,-296.082377,-9178.553681,689.485948
296.093525,0.000000,-8956.491898,842.705048
296.093853,518.144159,-8956.491898,1302.362347
296.094180,370.102971,-8438.347739,1149.143247
296.094508,888.247130,-8808.450710,1225.752797
296.094835,1036.288319,-8734.430116,1302.362347
296.095163,370.102971,-9030.512492,1455.581446
296.095490,0.000000,-8438.347739,995.924147
296.095818,74.020594,-9104.533087,842.705048
296.096145,-518.144159,-9400.615463,536.266849
296.096473,-814.226536,-9178.553681,306.438199
296.096800,-740.205942,-9178.553681,536.266849
296.097128,-666.185348,-9178.553681,76.609550
296.097455,-592.164754,-9252.574275,-153.219100
296.097783,-1036.288319,-9030.512492,0.000000
296.098110,-962.267725,-9104.533087,-306.438199
296.098438,-962.267725,-9030.512492,76.609550
296.098765,-1184.329507,-9326.594869,0.000000
296.099093,-962.267725,-9104.533087,229.828649
296.099420,-1036.288319,-9178.553681,612.876398
296.099748,-518.144159,-8808.450710,612.876398
296.100075,-296.082377,-8956.491898,919.314598
296.100403,74.020594,-8512.368333,842.705048
296.100730,592.164754,-8364.327145,1149.143247
296.101058,666.185348,-8734.430116,1608.800546
296.101385,370.102971,-8586.388927,919.314598
296.101713,148.041188,-9178.553681,1149.143247
296.102040,0.000000,-9252.574275,842.705048
296.102368,-296.082377,-9104.533087,459.657299
296.102695,-1036.288319,-9252.574275,0.000000
296.103023,-592.164754,-9400.615463,-153.219100
296.103350,-666.185348,-9548.656652,76.609550
296.103678,-444.123565,-9252.574275,-153.219100
296.104005,-296.082377,-9252.574275,0.000000
296.104333,-296.082377,-9104.533087,-612.876398
296.104660,-222.061783,-9178.553681,0.000000
296.104988,0.000000,-9474.636058,306.438199
296.105315,-222.061783,-9104.533087,383.047749
296.105643,0.000000,-9326.594869,536.266849
296.105970,444.123565,-9326.594869,689.485948
296.106298,666.185348,-9400.615463,1072.533697
296.106625,740.205942,-8956.491898,1455.581446
296.106953,888.247130,-8956.491898,1608.800546
296.107280,814.226536,-9104.533087,1838.629195
296.107608,592.164754,-9178.553681,1685.410096
296.107935,222.061783,-9252.574275,1455.581446
296.108263,-296.082377,-9326.594869,1149.143247
296.108590,-888.247130,-9326.594869,689.485948
296.108918,-1184.329507,-9400.615463,459.657299
296.109245,-1110.308913,-9178.553681,306.438199
296.109572,-1184.329507,-8660.409521,0.000000
296.109900,-1258.350101,-9474.636058,0.000000
296.110227,-1332.370696,-9252.574275,0.000000
296.110555,-1332.370696,-9474.636058,76.609550
296.110882,-1184.329507,-9474.636058,-153.219100
296.111210,-1184.329507,-9326.594869,153.219100
296.111537,-1258.350101,-9474.636058,229.828649
296.111865,-1110.308913,-9104.533087,306.438199
296.112192,-740.205942,-9178.553681,536.266849
296.112520,-296.082377,-8882.471304,842.705048
296.112847,518.144159,-9104.533087,1225.752797
296.113175,962.267725,-8512.368333,995.924147
296.113502,740.205942,-8882.471304,1302.362347
296.113830,888.247130,-8808.450710,1302.362347
296.114157,740.205942,-9178.553681,689.485948
296.114485,296.082377,-8808.450710,536.266849
296.114812,222.061783,-9474.636058,612.876398
296.115140,0.000000,-9400.615463,76.609550
296.115467,-296.082377,-9474.636058,0.000000
296.115795,0.000000,-9474.636058,0.000000
296.116122,-222.061783,-9400.615463,-459.657299
296.116450,-222.061783,-9326.594869,0.000000
296.116777,-222.061783,-9326.594869,-306.438199
296.117105,-296.082377,-9696.697840,-612.876398
296.117432,-370.102971,-9030.512492,-306.438199
296.117760,-370.102971,-9252.574275,-153.219100
296.118087,-296.082377,-8956.491898,0.000000
296.118415,222.061783,-9178.553681,536.266849
296.118742,370.102971,-8808.450710,766.095498
296.119070,888.247130,-8586.388927,919.314598
296.119397,1332.370696,-8586.388927,1532.190996
296.119725,1036.288319,-8660.409521,2068.457845
296.120052,814.226536,-8734.430116,1302.362347
296.120380,444.123565,-8882.471304,1302.362347
296.120707,0.000000,-9252.574275,1149.143247
296.121035,-370.102971,-9400.615463,766.095498
296.121362,-666.185348,-9104.533087,612.876398
296.121690,-666.185348,-9178.553681,229.828649
296.122017,-740.205942,-9030.512492,459.657299
296.122345,-814.226536,-9030.512492,459.657299
296.122672,-888.247130,-8956.491898,153.219100
296.123000,-1110.308913,-9030.512492,612.876398
296.123327,-962.267725,-9252.574275,153.219100
296.123655,-1554.432478,-9178.553681,459.657299
296.123982,-1628.453072,-9104.533087,689.485948
296.124310,-1480.411884,-9252.574275,536.266849
296.124637,-1184.329507,-8956.491898,842.705048
296.124965,-444.123565,-8438.347739,1455.581446
296.125292,-296.082377,-8364.327145,1532.190996
296.125620,0.000000,-8438.347739,1608.800546
296.125947,222.061783,-8660.409521,1608.800546
296.126275,0.000000,-8438.347739,1455.581446
296.126602,296.082377,-8438.347739,995.924147
296.126930,-518.144159,-9030.512492,919.314598
296.127257,-814.226536,-9400.615463,689.485948
296.127585,-962.267725,-9400.615463,306.438199
296.127912,-888.247130,-9474.636058,76.609550
296.128240,-518.144159,-9474.636058,229.828649
296.128567,-518.144159,-9400.615463,-459.657299
296.128895,-296.082377,-9474.636058,0.000000
296.129222,0.000000,-9400.615463,0.000000
296.129549,0.000000,-9400.615463,153.219100
296.129877,0.000000,-9622.677246,0.000000
296.130204,222.061783,-9770.718434,229.828649
296.130532,148.041188,-9474.636058,459.657299
296.130859,148.041188,-9400.615463,689.485948
296.131187,370.102971,-9326.594869,919.314598
296.131514,592.164754,-9178.553681,1225.752797
296.131842,1406.391290,-9252.574275,1302.362347
296.132169,1184.329507,-9104.533087,1685.410096
296.132497,888.247130,-8956.491898,1532.190996
296.132824,518.144159,-8956.491898,1149.143247
296.133152,148.041188,-9252.574275,919.314598
296.133479,0.000000,-9178.553681,536.266849
296.133807,-814.226536,-9104.533087,459.657299
296.134134,-1184.329507,-9178.553681,536.266849
296.134462,-1406.391290,-9326.594869,0.000000
296.134789,-1406.391290,-9326.594869,0.000000
296.135117,-1406.391290,-8882.471304,0.000000
296.135444,-1332.370696,-9252.574275,153.219100
296.135772,-1480.411884,-9252.574275,0.000000
296.136099,-1480.411884,-9474.636058,0.000000
296.136427,-1850.514855,-9252.574275,0.000000
296.136754,-1184.329507,-9474.636058,0.000000
296.137082,-962.267725,-8808.450710,612.876398
296.137409,-444.123565,-8808.450710,536.266849
296.137737,0.000000,-8734.430116,766.095498
296.138064,518.144159,-8734.430116,1225.752797
296.138392,740.205942,-8734.430116,995.924147
296.138719,1406.391290,-8660.409521,1149.143247
296.139047,740.205942,-8660.409521,995.924147
296.139374,666.185348,-9030.512492,766.095498
296.139702,222.061783,-9252.574275,306.438199
296.140029,0.000000,-9326.594869,383.047749
296.140357,0.000000,-8808.450710,229.828649
296.140684,-222.061783,-9104.533087,76.609550
296.141012,-148.041188,-9252.574275,-153.219100
296.141339,0.000000,-9104.533087,-153.219100
296.141667,0.000000,-9178.553681,0.000000
296.141994,0.000000,-9178.553681,-229.828649
296.142322,0.000000,-9104.533087,383.047749
296.142649,-222.061783,-9400.615463,306.438199
296.142977,-370.102971,-9400.615463,459.657299
296.143304,-444.123565,-9252.574275,612.876398
296.143632,-222.061783,-8956.491898,842.705048
296.143959,296.082377,-8438.347739,1225.752797
296.144287,370.102971,-8734.430116,1455.581446
296.144614,444.123565,-8512.368333,1455.581446
296.144942,370.102971,-8660.409521,1378.971896
296.145269,0.000000,-8882.471304,1225.752797
296.145597,-518.144159,-8734.430116,919.314598
296.145924,-888.247130,-8956.491898,689.485948
296.146252,-1184.329507,-9104.533087,536.266849
296.146579,-1258.350101,-8956.491898,229.828649
296.146907,-1036.288319,-8956.491898,306.438199
296.147234,-962.267725,-9030.512492,76.609550
296.147562,-518.144159,-8956.491898,689.485948
296.147889,-962.267725,-9400.615463,306.438199
296.148217,-1036.288319,-9622.677246,229.828649
296.148544,-1332.370696,-9622.677246,153.219100
296.148872,-1480.411884,-9622.677246,-766.095498
296.149199,-740.205942,-9474.636058,229.828649
296.149526,-666.185348,-9400.615463,459.657299
296.149854,-222.061783,-8956.491898,842.705048
296.150181,296.082377,-8808.450710,995.924147
296.150509,666.185348,-8734.430116,1225.752797
296.150836,1036.288319,-8586.388927,1532.190996
296.151164,666.185348,-8956.491898,1225.752797
296.151491,666.185348,-9178.553681,1072.533697
296.151819,74.020594,-9178.553681,842.705048
296.152146,74.020594,-9474.636058,689.485948
296.152474,0.000000,-9474.636058,459.657299
296.152801,-222.061783,-9400.615463,0.000000
296.153129,-444.123565,-9474.636058,0.000000
296.153456,-518.144159,-9326.594869,-306.438199
296.153784,-296.082377,-9400.615463,-229.828649
296.154111,-518.144159,-9252.574275,0.000000
296.154439,-222.061783,-9104.533087,-536.266849
296.154766,-148.041188,-9326.594869,0.000000
296.155094,-222.061783,-9326.594869,306.438199
296.155421,-222.061783,-9030.512492,76.609550
296.155749,-148.041188,-9400.615463,689.485948
296.156076,0.000000,-8956.491898,1225.752797
296.156404,0.000000,-8808.450710,1072.533697
296.156731,296.082377,-8956.491898,1149.143247
296.157059,814.226536,-8808.450710,1302.362347
296.157386,740.205942,-8734.430116,1378.971896
296.157714,592.164754,-8956.491898,1608.800546
296.158041,0.000000,-8882.471304,995.924147
296.158369,-592.164754,-9104.533087,995.924147
296.158696,-962.267725,-9178.553681,689.485948
296.159024,-1110.308913,-9326.594869,459.657299
296.159351,-1628.453072,-8734.430116,459.657299
296.159679,-962.267725,-9326.594869,0.000000
296.160006,-1184.329507,-9104.533087,153.219100
296.160334,-1110.308913,-9178.553681,0.000000
296.160661,-1110.308913,-9252.574275,76.609550
296.160989,-1110.308913,-9178.553681,0.000000
296.161316,-1184.329507,-9252.574275,459.657299
296.161644,-1110.308913,-9252.574275,153.219100
296.161971,-1110.308913,-9252.574275,612.876398
296.162299,-370.102971,-8956.491898,842.705048
296.162626,0.000000,-8660.409521,1302.362347
296.162954,1036.288319,-8586.388927,1378.971896
296.163281,666.185348,-8660.409521,1225.752797
296.163609,740.205942,-8808.450710,1149.143247
296.163936,666.185348,-9030.512492,1072.533697
296.164264,444.123565,-9252.574275,766.095498
296.164591,148.041188,-9252.574275,842.705048
296.164919,-296.082377,-9252.574275,306.438199
296.165246,-370.102971,-9326.594869,229.828649
296.165574,-370.102971,-9400.615463,0.000000
296.165901,-370.102971,-9474.636058,-229.828649
296.166229,-370.102971,-9030.512492,0.000000
296.166556,0.000000,-9474.636058,-229.828649
296.166884,-222.061783,-9400.615463,0.000000
296.167211,0.000000,-9400.615463,0.000000
296.167539,-296.082377,-9400.615463,0.000000
296.167866,74.020594,-9104.533087,383.047749
296.168194,74.020594,-9252.574275,536.266849
296.168521,0.000000,-9178.553681,612.876398
296.168849,296.082377,-9030.512492,842.705048
296.169176,296.082377,-8808.450710,1149.143247
296.169503,592.164754,-8882.471304,1378.971896
296.169831,740.205942,-8808.450710,919.314598
296.170158,518.144159,-9104.533087,1302.362347
296.170486,0.000000,-9030.512492,1302.362347
296.170813,-296.082377,-9252.574275,919.314598
296.171141,-740.205942,-9178.553681,612.876398
296.171468,-962.267725,-8956.491898,153.219100
296.171796,-962.267725,-9252.574275,306.438199
296.172123,-740.205942,-9178.553681,153.219100
296.172451,-888.247130,-8956.491898,306.438199
296.172778,-666.185348,-9104.533087,153.219100
296.173106,-962.267725,-9252.574275,306.438199
296.173433,-1258.350101,-9326.594869,306.438199
296.173761,-1184.329507,-9474.636058,306.438199
296.174088,-1258.350101,-9400.615463,229.828649
296.174416,-962.267725,-9400.615463,842.705048
296.174743,-518.144159,-8882.471304,1225.752797
296.175071,0.000000,-8364.327145,1302.362347
296.175398,518.144159,-8586.388927,1072.533697
296.175726,814.226536,-8586.388927,1455.581446
296.176053,592.164754,-8734.430116,1455.581446
296.176381,296.082377,-8734.430116,1072.533697
296.176708,148.041188,-8882.471304,383.047749
296.177036,0.000000,-9178.553681,689.485948
296.177363,-444.123565,-9030.512492,612.876398
296.177691,-518.144159,-9400.615463,306.438199
296.178018,-518.144159,-9104.533087,0.000000
296.178346,-148.041188,-8660.409521,612.876398
296.178673,0.000000,-9252.574275,0.000000
296.179001,-444.123565,-9326.594869,153.219100
296.179328,-148.041188,-9326.594869,0.000000
296.179656,-296.082377,-9030.512492,153.219100
296.179983,0.000000,-9178.553681,612.876398
296.180311,74.020594,-9104.533087,536.266849
296.180638,0.000000,-9252.574275,536.266849
296.180966,0.000000,-9178.553681,919.314598
296.181293,148.041188,-8808.450710,1149.143247
296.181621,444.123565,-8660.409521,1685.410096
296.181948,814.226536,-8142.265362,1762.019645
296.182276,444.123565,-8882.471304,1378.971896
296.182603,370.102971,-8882.471304,1378.971896
296.182931,74.020594,-9030.512492,1072.533697
296.183258,-370.102971,-9030.512492,842.705048
296.183586,-592.164754,-9030.512492,842.705048
296.183913,-1184.329507,-9178.553681,153.219100
296.184240,-1554.432478,-9030.512492,229.828649
296.184568,-1480.411884,-8882.471304,0.000000
296.184895,-1258.350101,-9326.594869,0.000000
296.185223,-1184.329507,-8808.450710,229.828649
296.185550,-962.267725,-9326.594869,0.000000
296.185878,-1184.329507,-9474.636058,-306.438199
296.186205,-1332.370696,-9400.615463,0.000000
296.186532,-1332.370696,-9104.533087,0.000000
296.186860,-1110.308913,-8882.471304,689.485948
296.187187,0.000000,-9326.594869,306.438199
296.187515,74.020594,-8808.450710,459.657299
296.187842,296.082377,-8734.430116,842.705048
296.188170,814.226536,-9030.512492,919.314598
296.188497,1110.308913,-8882.471304,842.705048
296.188824,740.205942,-8660.409521,1072.533697
296.189152,592.164754,-9400.615463,536.266849
296.189479,296.082377,-9326.594869,766.095498
296.189807,222.061783,-9400.615463,153.219100
296.190134,0.000000,-9326.594869,229.828649
296.190462,-296.082377,-8956.491898,0.000000
296.190789,-296.082377,-9696.697840,0.000000
296.191116,-148.041188,-9474.636058,-229.828649
296.191444,-444.123565,-9474.636058,0.000000
296.191771,-370.102971,-9030.512492,-229.828649
296.192099,-444.123565,-9104.533087,612.876398
296.192426,-222.061783,-9252.574275,0.000000
296.192754,-444.123565,-9178.553681,306.438199
296.193081,-370.102971,-8882.471304,306.438199
296.193408,-296.082377,-8956.491898,766.095498
296.193736,148.041188,-9030.512492,995.924147
296.194063,296.082377,-8512.368333,1225.752797
296.194391,666.185348,-8808.450710,1149.143247
296.194718,888.247130,-8734.430116,1685.410096
296.195046,518.144159,-8734.430116,1532.190996
296.195373,148.041188,-9178.553681,1455.581446
296.195701,0.000000,-8882.471304,995.924147
296.196028,-592.164754,-9104.533087,1225.752797
296.196355,-740.205942,-9030.512492,842.705048
296.196683,-962.267725,-8956.491898,689.485948
296.197010,-814.226536,-9326.594869,459.657299
296.197338,-962.267725,-8956.491898,766.095498
296.197665,-1110.308913,-9030.512492,153.219100
296.197993,-962.267725,-9326.594869,229.828649
296.198320,-1258.350101,-9400.615463,383.047749
296.198647,-1554.432478,-9474.636058,229.828649
296.198975,-1406.391290,-8882.471304,612.876398
296.199302,-1332.370696,-9326.594869,383.047749
296.199630,-1258.350101,-8956.491898,766.095498
296.199957,-592.164754,-8808.450710,1302.362347
296.200285,0.000000,-8512.368333,1455.581446
296.200612,444.123565,-8290.306550,1532.190996
296.200939,592.164754,-8660.409521,1378.971896
296.201267,296.082377,-8734.430116,1072.533697
296.201594,148.041188,-9104.533087,689.485948
296.201922,0.000000,-9178.553681,689.485948
296.202249,-296.082377,-9326.594869,612.876398
296.202577,-296.082377,-9474.636058,306.438199
296.202904,-518.144159,-9474.636058,229.828649
296.203231,-518.144159,-9326.594869,0.000000
296.203559,-518.144159,-9326.594869,-153.219100
296.203886,0.000000,-9326.594869,-153.219100
296.204214,0.000000,-9326.594869,-536.266849
296.204541,0.000000,-9326.594869,0.000000
296.204869,0.000000,-9474.636058,383.047749
296.205196,0.000000,-9474.636058,306.438199
296.205523,0.000000,-9548.656652,612.876398
296.205851,370.102971,-9178.553681,536.266849
296.206178,222.061783,-9474.636058,842.705048
296.206506,444.123565,-9178.553681,1302.362347
296.206833,592.164754,-9030.512492,1608.800546
296.207161,592.164754,-8882.471304,1685.410096
296.207488,518.144159,-8956.491898,1915.238745
296.207816,148.041188,-8734.430116,1378.971896
296.208143,0.000000,-9030.512492,766.095498
296.208470,-814.226536,-9030.512492,459.657299
296.208798,-1036.288319,-9104.533087,536.266849
296.209125,-1480.411884,-9104.533087,229.828649
296.209453,-1258.350101,-8660.409521,0.000000
296.209780,-1554.432478,-8882.471304,-153.219100
296.210108,-1332.370696,-8956.491898,-229.828649
296.210435,-1036.288319,-9400.615463,0.000000
296.210762,-1480.411884,-8956.491898,-229.828649
296.211090,-1406.391290,-9548.656652,76.609550
296.211417,-1332.370696,-9104.533087,76.609550
296.211745,-1702.473667,-9104.533087,229.828649
296.212072,-1184.329507,-9252.574275,229.828649
296.212400,-518.144159,-8734.430116,766.095498
296.212727,-370.102971,-8142.265362,919.314598
296.213054,888.247130,-8808.450710,612.876398
296.213382,740.205942,-8660.409521,919.314598
296.213709,1110.308913,-8956.491898,1072.533697
296.214037,1036.288319,-8956.491898,536.266849
296.214364,814.226536,-8882.471304,612.876398
296.214692,74.020594,-9178.553681,459.657299
296.215019,222.061783,-9548.656652,76.609550
296.215346,0.000000,-9400.615463,306.438199
296.215674,-370.102971,-9104.533087,0.000000
296.216001,0.000000,-10140.821405,0.000000
296.216329,74.020594,-9474.636058,-536.266849
296.216656,0.000000,-9474.636058,0.000000
296.216984,74.020594,-9400.615463,0.000000
296.217311,0.000000,-9252.574275,76.609550
296.217638,0.000000,-9474.636058,306.438199
296.217966,0.000000,-9030.512492,383.047749
296.218293,74.020594,-9104.533087,536.266849
296.218621,-222.061783,-9030.512492,1149.143247
296.218948,0.000000,-8364.327145,1378.971896
296.219276,148.041188,-8956.491898,1302.362347
296.219603,296.082377,-8438.347739,1915.238745
296.219931,370.102971,-8586.388927,1378.971896
296.220258,-222.061783,-9104.533087,1225.752797
296.220585,-740.205942,-8956.491898,1149.143247
296.220913,-962.267725,-9326.594869,995.924147
296.221240,-1258.350101,-9030.512492,612.876398
296.221568,-1480.411884,-8956.491898,76.609550
296.221895,-1110.308913,-8956.491898,383.047749
296.222223,-888.247130,-9178.553681,383.047749
296.222550,-1036.288319,-9030.512492,153.219100
296.222877,-888.247130,-9104.533087,0.000000
296.223205,-814.226536,-9548.656652,306.438199
296.223532,-888.247130,-9548.656652,76.609550
296.223860,-1184.329507,-9474.636058,459.657299
296.224187,-1036.288319,-9622.677246,306.438199
296.224515,-518.144159,-9252.574275,536.266849
296.224842,0.000000,-8808.450710,1302.362347
296.225169,666.185348,-8808.450710,1149.143247
296.225497,814.226536,-8660.409521,1532.190996
296.225824,740.205942,-8956.491898,1532.190996
296.226152,740.205942,-8808.450710,1149.143247
296.226479,518.144159,-8882.471304,1302.362347
296.226807,296.082377,-8660.409521,612.876398
296.227134,0.000000,-9326.594869,766.095498
296.227461,-296.082377,-9178.553681,536.266849
296.227789,-222.061783,-9474.636058,229.828649
296.228116,-74.020594,-9326.594869,229.828649
296.228444,-148.041188,-8882.471304,689.485948
296.228771,-296.082377,-9252.574275,76.609550
296.229099,-148.041188,-9178.553681,0.000000
296.229426,-296.082377,-9252.574275,0.000000
296.229753,-148.041188,-9326.594869,229.828649
296.230081,0.000000,-9252.574275,459.657299
296.230408,-370.102971,-9104.533087,689.485948
296.230736,-296.082377,-9178.553681,689.485948
296.231063,-296.082377,-9030.512492,1225.752797
296.231391,-222.061783,-8734.430116,1225.752797
296.231718,74.020594,-8364.327145,1532.190996
296.232046,518.144159,-8882.471304,1378.971896
296.232373,370.102971,-8808.450710,1302.362347
296.232700,296.082377,-8956.491898,1302.362347
296.233028,0.000000,-8808.450710,1149.143247
296.233355,-666.185348,-8882.471304,766.095498
296.233683,-740.205942,-9178.553681,229.828649
296.234010,-1036.288319,-9030.512492,306.438199
296.234338,-1332.370696,-9104.533087,153.219100
296.234665,-1332.370696,-9178.553681,0.000000
296.234992,-1258.350101,-9030.512492,0.000000
296.235320,-666.185348,-8956.491898,0.000000
296.235647,-962.267725,-9326.594869,0.000000
296.235975,-1110.308913,-9252.574275,-229.828649
296.236302,-1184.329507,-9474.636058,0.000000
296.236630,-962.267725,-9252.574275,-229.828649
296.236957,-1332.370696,-8660.409521,536.266849
296.237284,-666.185348,-8734.430116,459.657299
296.237612,222.061783,-8956.491898,612.876398
296.237939,888.247130,-8882.471304,766.095498
296.238267,1110.308913,-8882.471304,1072.533697
296.238594,1036.288319,-8512.368333,1455.581446
296.238922,962.267725,-8882.471304,766.095498
296.239249,370.102971,-9326.594869,612.876398
296.239576,222.061783,-9400.615463,689.485948
296.239904,-222.061783,-9400.615463,306.438199
296.240231,0.000000,-9104.533087,0.000000
296.240559,-222.061783,-9252.574275,-229.828649
296.240886,-296.082377,-9474.636058,-383.047749
296.241214,-296.082377,-9178.553681,-459.657299
296.241541,-444.123565,-9178.553681,-383.047749
296.241868,-148.041188,-9178.553681,-383.047749
296.242196,-222.061783,-9104.533087,-612.876398
296.242523,-296.082377,-9104.533087,76.609550
296.242851,-296.082377,-9178.553681,229.828649
296.243178,-222.061783,-9252.574275,459.657299
296.243506,-296.082377,-9178.553681,612.876398
296.243833,296.082377,-8808.450710,842.705048
296.244160,370.102971,-8734.430116,1149.143247
296.244488,666.185348,-8882.471304,1455.581446
296.244815,740.205942,-8956.491898,1455.581446
296.245143,296.082377,-8956.491898,1532.190996
296.245470,148.041188,-9030.512492,1225.752797
296.245798,-296.082377,-8808.450710,1072.533697
296.246125,-666.185348,-9030.512492,689.485948
296.246453,-888.247130,-9252.574275,612.876398
296.246780,-1184.329507,-8956.491898,383.047749
296.247107,-888.247130,-8808.450710,689.485948
296.247435,-1184.329507,-8734.430116,383.047749
296.247762,-1184.329507,-9104.533087,229.828649
296.248090,-1036.288319,-9474.636058,229.828649
296.248417,-1406.391290,-9474.636058,229.828649
296.248745,-1554.432478,-9400.615463,153.219100
296.249072,-1924.535449,-8808.450710,766.095498
296.249399,-1258.350101,-9178.553681,459.657299
296.249727,-814.226536,-8808.450710,919.314598
296.250054,-148.041188,-8586.388927,1378.971896
296.250382,148.041188,-8364.327145,1378.971896
296.250709,962.267725,-7994.224174,1225.752797
296.251037,370.102971,-8364.327145,1302.362347
296.251364,222.061783,-8734.430116,1072.533697
296.251691,296.082377,-9104.533087,1072.533697
296.252019,0.000000,-9326.594869,995.924147
296.252346,-148.041188,-9474.636058,459.657299
296.252674,0.000000,-9474.636058,689.485948
296.253001,-148.041188,-9400.615463,153.219100
296.253329,0.000000,-9474.636058,229.828649
296.253656,148.041188,-9178.553681,229.828649
296.253983,74.020594,-9178.553681,536.266849
296.254311,296.082377,-8956.491898,459.657299
296.254638,0.000000,-9474.636058,459.657299
296.254966,0.000000,-9252.574275,536.266849
296.255293,0.000000,-9474.636058,459.657299
296.255621,-296.082377,-9400.615463,842.705048
296.255948,-148.041188,-9178.553681,1685.410096
296.256275,-222.061783,-8956.491898,919.314598
296.256603,296.082377,-8734.430116,1378.971896
296.256930,592.164754,-8808.450710,1532.190996
296.257258,444.123565,-8734.430116,1532.190996
296.257585,0.000000,-8734.430116,1532.190996
296.257913,0.000000,-8882.471304,1072.533697
296.258240,-666.185348,-8956.491898,1072.533697
296.258568,-1184.329507,-8956.491898,459.657299
296.258895,-1406.391290,-9252.574275,383.047749
296.259222,-1554.432478,-9178.553681,459.657299
296.259550,-1332.370696,-9030.512492,0.000000
296.259877,-1406.391290,-9104.533087,0.000000
296.260205,-962.267725,-9400.615463,0.000000
296.260532,-1258.350101,-9326.594869,0.000000
296.260860,-1332.370696,-9104.533087,76.609550
296.261187,-1036.288319,-9474.636058,-229.828649
296.261514,-1184.329507,-9178.553681,0.000000
296.261842,-814.226536,-9178.553681,383.047749
296.262169,-222.061783,-9030.512492,689.485948
296.262497,222.061783,-9030.512492,766.095498
296.262824,1110.308913,-8586.388927,459.657299
296.263152,1480.411884,-8882.471304,1225.752797
296.263479,1184.329507,-8660.409521,1302.362347
296.263806,1184.329507,-9030.512492,1072.533697
296.264134,962.267725,-9178.553681,1225.752797
296.264461,814.226536,-9474.636058,306.438199
296.264789,222.061783,-9178.553681,536.266849
296.265116,-444.123565,-9252.574275,306.438199
296.265444,-444.123565,-9400.615463,76.609550
296.265771,-740.205942,-9326.594869,0.000000
296.266098,-740.205942,-9178.553681,76.609550
296.266426,-592.164754,-8364.327145,-306.438199
296.266753,-592.164754,-9104.533087,-229.828649
296.267081,-592.164754,-9252.574275,-383.047749
296.267408,-518.144159,-9104.533087,-229.828649
296.267736,-444.123565,-8734.430116,383.047749
296.268063,-370.102971,-8660.409521,612.876398
296.268390,-370.102971,-9104.533087,229.828649
296.268718,-370.102971,-8882.471304,919.314598
296.269045,0.000000,-8586.388927,995.924147
296.269373,148.041188,-8438.347739,1149.143247
296.269700,370.102971,-8660.409521,1302.362347
296.270028,592.164754,-8660.409521,1225.752797
296.270355,296.082377,-8734.430116,1149.143247
296.270683,-222.061783,-8882.471304,1072.533697
296.271010,-444.123565,-9030.512492,612.876398
296.271337,-740.205942,-8882.471304,459.657299
296.271665,-814.226536,-9104.533087,229.828649
296.271992,-962.267725,-9104.533087,0.000000
296.272320,-962.267725,-9104.533087,153.219100
296.272647,-962.267725,-9474.636058,306.438199
296.272975,-740.205942,-9474.636058,0.000000
296.273302,-1110.308913,-9252.574275,0.000000
296.273629,-1184.329507,-9622.677246,0.000000
296.273957,-1332.370696,-9548.656652,0.000000
296.274284,-1184.329507,-9474.636058,306.438199
296.274612,-888.247130,-9104.533087,536.266849
296.274939,0.000000,-8882.471304,612.876398
296.275267,296.082377,-8586.388927,1072.533697
296.275594,592.164754,-8660.409521,1072.533697
296.275921,666.185348,-8660.409521,1072.533697
296.276249,740.205942,-8882.471304,1072.533697
296.276576,444.123565,-8586.388927,995.924147
296.276904,222.061783,-9400.615463,1225.752797
296.277231,0.000000,-9474.636058,612.876398
296.277559,-148.041188,-9474.636058,459.657299
296.277886,-518.144159,-9474.636058,153.219100
296.278213,-740.205942,-9252.574275,229.828649
296.278541,74.020594,-9474.636058,0.000000
296.278868,-148.041188,-9326.594869,0.000000
296.279196,-296.082377,-9474.636058,0.000000
296.279523,-222.061783,-9474.636058,153.219100
296.279851,0.000000,-9770.718434,766.095498
296.280178,0.000000,-9474.636058,612.876398
296.280505,-518.144159,-9252.574275,612.876398
296.280833,-370.102971,-9252.574275,919.314598
296.281160,-148.041188,-9326.594869,1149.143247
296.281488,0.000000,-8882.471304,1455.581446
296.281815,666.185348,-8734.430116,1762.019645
296.282143,370.102971,-8586.388927,1838.629195
296.282470,444.123565,-8808.450710,1608.800546
296.282798,148.041188,-8956.491898,1378.971896
296.283125,-370.102971,-8882.471304,1378.971896
296.283453,-888.247130,-9104.533087,1302.362347
296.283780,-1184.329507,-9178.553681,383.047749
296.284108,-1332.370696,-9104.533087,229.828649
296.284435,-1258.350101,-9252.574275,306.438199
296.284763,-1110.308913,-9104.533087,306.438199
296.285090,-1036.288319,-9030.512492,153.219100
296.285417,-1258.350101,-9326.594869,536.266849
296.285745,-1036.288319,-9474.636058,306.438199
296.286072,-1184.329507,-9474.636058,-153.219100
296.286400,-1036.288319,-9548.656652,0.000000
296.286727,-1110.308913,-9326.594869,0.000000
296.287055,-444.123565,-9178.553681,612.876398
296.287382,-148.041188,-8956.491898,612.876398
296.287710,148.041188,-8882.471304,919.314598
296.288037,740.205942,-9030.512492,842.705048
296.288365,814.226536,-8956.491898,1072.533697
296.288692,888.247130,-9030.512492,459.657299
296.289020,888.247130,-9104.533087,919.314598
296.289347,518.144159,-9400.615463,842.705048
296.289675,74.020594,-9326.594869,612.876398
296.290002,0.000000,-9400.615463,229.828649
296.290330,-296.082377,-9104.533087,536.266849
296.290657,-370.102971,-9178.553681,0.000000
296.290984,-370.102971,-9400.615463,-229.828649
296.291312,-222.061783,-9252.574275,-612.876398
296.291639,-370.102971,-9252.574275,-383.047749
296.291967,0.000000,-9178.553681,0.000000
296.292294,0.000000,-9326.594869,76.609550
296.292622,0.000000,-9474.636058,76.609550
296.292949,-148.041188,-9474.636058,229.828649
296.293277,0.000000,-9326.594869,383.047749
296.293604,-296.082377,-9030.512492,689.485948
296.293932,148.041188,-8734.430116,1378.971896
296.294259,518.144159,-9030.512492,1225.752797
296.294587,666.185348,-8882.471304,1378.971896
296.294914,592.164754,-8956.491898,1225.752797
296.295242,296.082377,-9030.512492,1225.752797
296.295569,0.000000,-9104.533087,1072.533697
296.295897,-518.144159,-9178.553681,536.266849
296.296224,-962.267725,-9104.533087,536.266849
296.296551,-962.267725,-9030.512492,383.047749
296.296879,-1110.308913,-9104.533087,153.219100
296.297206,-1036.288319,-9030.512492,229.828649
296.297534,-518.144159,-9252.574275,612.876398
296.297861,-888.247130,-9104.533087,229.828649
296.298189,-962.267725,-9326.594869,229.828649
296.298516,-1332.370696,-9326.594869,229.828649
296.298844,-1480.411884,-9474.636058,229.828649
296.299171,-1258.350101,-9104.533087,459.657299
296.299499,-888.247130,-8956.491898,766.095498
296.299826,-370.102971,-8586.388927,1072.533697
296.300154,222.061783,-8808.450710,1455.581446
296.300481,666.185348,-8734.430116,1685.410096
296.300809,444.123565,-8438.347739,1455.581446
296.301136,814.226536,-8808.450710,1378.971896
296.301463,370.102971,-9104.533087,1225.752797
296.301791,0.000000,-9252.574275,919.314598
296.302118,-296.082377,-9326.594869,842.705048
296.302446,-666.185348,-9252.574275,383.047749
296.302773,0.000000,-9104.533087,383.047749
296.303101,-222.061783,-9030.512492,153.219100
296.303428,-222.061783,-9030.512492,383.047749
296.303756,0.000000,-9104.533087,229.828649
296.304083,-222.061783,-8808.450710,383.047749
296.304411,0.000000,-9252.574275,459.657299
296.304738,0.000000,-9474.636058,459.657299
296.305066,-370.102971,-9326.594869,612.876398
296.305393,-222.061783,-9400.615463,842.705048
296.305721,-222.061783,-9252.574275,766.095498
296.306048,-222.061783,-8956.491898,1072.533697
296.306376,0.000000,-8808.450710,1149.143247
296.306703,370.102971,-9030.512492,1608.800546
296.307030,296.082377,-8808.450710,1532.190996
296.307358,0.000000,-8660.409521,1378.971896
296.307685,148.041188,-8660.409521,1072.533697
296.308013,-148.041188,-9030.512492,995.924147
296.308340,-814.226536,-8882.471304,842.705048
296.308668,-1036.288319,-9326.594869,459.657299
296.308995,-888.247130,-9326.594869,383.047749
296.309323,-1628.453072,-8808.450710,76.609550
296.309650,-962.267725,-9104.533087,-229.828649
296.309978,-888.247130,-9104.533087,-153.219100
296.310305,-1258.350101,-9030.512492,76.609550
296.310633,-814.226536,-9474.636058,0.000000
296.310960,-888.247130,-9104.533087,383.047749
296.311288,-1184.329507,-9474.636058,0.000000
296.311615,-888.247130,-9252.574275,76.609550
296.311943,-592.164754,-9326.594869,306.438199
296.312270,-296.082377,-9252.574275,842.705048
296.312597,148.041188,-8882.471304,612.876398
296.312925,444.123565,-8808.450710,1072.533697
296.313252,962.267725,-8808.450710,766.095498
296.313580,962.267725,-8660.409521,1149.143247
296.313907,666.185348,-9104.533087,842.705048
296.314235,444.123565,-9326.594869,689.485948
296.314562,222.061783,-9326.594869,229.828649
296.314890,-370.102971,-9474.636058,229.828649
296.315217,-370.102971,-9400.615463,0.000000
296.315545,-592.164754,-9474.636058,-229.828649
296.315872,-740.205942,-9252.574275,-229.828649
296.316200,-592.164754,-9252.574275,0.000000
296.316527,-518.144159,-8882.471304,-383.047749
296.316855,-296.082377,-9104.533087,-306.438199
296.317182,-296.082377,-9104.533087,-306.438199
296.317510,-296.082377,-9104.533087,-306.438199
296.317837,0.000000,-8734.430116,383.047749
296.318164,-74.020594,-9104.533087,612.876398
296.318492,0.000000,-8882.471304,459.657299
296.318819,148.041188,-8660.409521,919.314598
296.319147,740.205942,-8660.409521,1225.752797
296.319474,814.226536,-8882.471304,1608.800546
296.319802,962.267725,-8660.409521,1378.971896
296.320129,444.123565,-9104.533087,1225.752797
296.320457,74.020594,-9252.574275,995.924147
296.320784,0.000000,-9030.512492,766.095498
296.321112,-666.185348,-9474.636058,766.095498
296.321439,-592.164754,-9400.615463,76.609550
296.321767,-592.164754,-8956.491898,383.047749
296.322094,-592.164754,-9030.512492,229.828649
296.322422,-888.247130,-9178.553681,153.219100
296.322749,-888.247130,-9178.553681,76.609550
296.323077,-666.185348,-9030.512492,0.000000
296.323404,-1184.329507,-9030.512492,0.000000
296.323731,-1332.370696,-9252.574275,0.000000
296.324059,-1258.350101,-9326.594869,153.219100
296.324386,-888.247130,-9252.574275,459.657299
296.324714,-222.061783,-8882.471304,842.705048
296.325041,148.041188,-8364.327145,612.876398
296.325369,592.164754,-8660.409521,1378.971896
296.325696,888.247130,-8808.450710,1455.581446
296.326024,740.205942,-8956.491898,1532.190996
296.326351,222.061783,-8882.471304,1225.752797
296.326679,148.041188,-9104.533087,1455.581446
296.327006,0.000000,-9178.553681,766.095498
296.327334,-296.082377,-9326.594869,383.047749
296.327661,-370.102971,-9400.615463,536.266849
296.327989,0.000000,-9326.594869,383.047749
296.328316,0.000000,-9548.656652,-306.438199
296.328643,74.020594,-9474.636058,0.000000
296.328971,-296.082377,-9326.594869,76.609550
296.329298,-370.102971,-9400.615463,536.266849
296.329626,-148.041188,-9326.594869,536.266849
296.329953,-444.123565,-9400.615463,0.000000
296.330281,-592.164754,-8956.491898,1149.143247
296.330608,-518.144159,-9252.574275,1149.143247
296.330936,-370.102971,-9104.533087,1149.143247
296.331263,-222.061783,-8956.491898,1685.410096
296.331591,74.020594,-8512.368333,1915.238745
296.331918,370.102971,-8586.388927,2221.676944
296.332246,296.082377,-8882.471304,1532.190996
296.332573,0.000000,-8956.491898,1378.971896
296.332901,-296.082377,-9178.553681,1225.752797
296.333228,-592.164754,-9252.574275,995.924147
296.333556,-666.185348,-8734.430116,689.485948
296.333883,-1332.370696,-9104.533087,383.047749
296.334210,-1332.370696,-9252.574275,153.219100
296.334538,-1332.370696,-9104.533087,229.828649
296.334865,-1184.329507,-9104.533087,459.657299
296.335193,-666.185348,-9030.512492,0.000000
296.335520,-962.267725,-9252.574275,0.000000
296.335848,-1110.308913,-9548.656652,0.000000
296.336175,-962.267725,-9474.636058,0.000000
296.336503,-814.226536,-9474.636058,306.438199
296.336830,-592.164754,-9030.512492,153.219100
296.337158,-370.102971,-8734.430116,153.219100
296.337485,222.061783,-8808.450710,842.705048
296.337813,814.226536,-8438.347739,1072.533697
296.338140,1036.288319,-8586.388927,919.314598
296.338468,1110.308913,-8956.491898,995.924147
296.338795,1036.288319,-8956.491898,1302.362347
296.339123,666.185348,-9104.533087,689.485948
296.339450,148.041188,-9400.615463,459.657299
296.339777,0.000000,-9252.574275,76.609550
296.340105,0.000000,-9474.636058,153.219100
296.340432,-518.144159,-9178.553681,0.000000
296.340760,-370.102971,-9252.574275,-459.657299
296.341087,-592.164754,-9178.553681,-383.047749
296.341415,-444.123565,-9326.594869,-383.047749
296.341742,-444.123565,-9326.594869,-383.047749
296.342070,-296.082377,-9030.512492,-229.828649
296.342397,-370.102971,-9104.533087,-536.266849
296.342725,-222.061783,-9030.512492,0.000000
296.343052,-444.123565,-8808.450710,229.828649
296.343380,-148.041188,-8808.450710,383.047749
296.343707,-370.102971,-8808.450710,1149.143247
296.344035,444.123565,-8438.347739,1378.971896
296.344362,444.123565,-8586.388927,1225.752797
296.344690,666.185348,-8808.450710,1225.752797
296.345017,370.102971,-8882.471304,1378.971896
296.345344,0.000000,-9030.512492,1072.533697
296.345672,-370.102971,-8808.450710,919.314598
296.345999,-740.205942,-9326.594869,842.705048
296.346327,-1110.308913,-9104.533087,689.485948
296.346654,-1258.350101,-9178.553681,153.219100
296.346982,-962.267725,-9030.512492,153.219100
296.347309,-888.247130,-9326.594869,995.924147
296.347637,-1036.288319,-9104.533087,229.828649
296.347964,-962.267725,-9178.553681,0.000000
296.348292,-1258.350101,-9474.636058,0.000000
296.348619,-1110.308913,-9400.615463,0.000000
296.348947,-962.267725,-8956.491898,306.438199
296.349274,-962.267725,-9252.574275,383.047749
296.349602,-592.164754,-8808.450710,689.485948
296.349929,0.000000,-8808.450710,995.924147
296.350257,296.082377,-8586.388927,1302.362347
296.350584,888.247130,-8216.285956,1225.752797
296.350911,962.267725,-8586.388927,1838.629195
296.351239,666.185348,-9030.512492,1532.190996
296.351566,444.123565,-9252.574275,1149.143247
296.351894,0.000000,-9474.636058,842.705048
296.352221,0.000000,-9326.594869,459.657299
296.352549,-148.041188,-9400.615463,536.266849
296.352876,-148.041188,-9474.636058,383.047749
296.353204,0.000000,-9326.594869,383.047749
296.353531,0.000000,-9400.615463,229.828649
296.353859,0.000000,-9400.615463,0.000000
296.354186,0.000000,-9548.656652,306.438199
296.354514,-296.082377,-9548.656652,0.000000
296.354841,-592.164754,-9474.636058,229.828649
296.355169,-740.205942,-9400.615463,306.438199
296.355496,-740.205942,-9400.615463,842.705048
296.355824,-592.164754,-9326.594869,995.924147
296.356151,-518.144159,-8512.368333,1072.533697
296.356478,0.000000,-8956.491898,1225.752797
296.356806,74.020594,-8882.471304,1378.971896
296.357133,370.102971,-8734.430116,1378.971896
296.357461,74.020594,-8586.388927,1455.581446
296.357788,-148.041188,-8586.388927,1455.581446
296.358116,-296.082377,-9104.533087,995.924147
296.358443,-740.205942,-8956.491898,766.095498
296.358771,-1110.308913,-9178.553681,536.266849
296.359098,-1184.329507,-9326.594869,612.876398
296.359426,-1554.432478,-9030.512492,536.266849
296.359753,-1036.288319,-9104.533087,0.000000
296.360081,-814.226536,-9178.553681,0.000000
296.360408,-740.205942,-9326.594869,0.000000
296.360736,-1036.288319,-9622.677246,76.609550
296.361063,-518.144159,-9252.574275,76.609550
296.361390,-888.247130,-9474.636058,306.438199
296.361718,-814.226536,-9252.574275,383.047749
296.362045,-518.144159,-9252.574275,536.266849
296.362373,0.000000,-8808.450710,919.314598
296.362700,740.205942,-8734.430116,1072.533697
296.363028,888.247130,-8734.430116,1302.362347
296.363355,1036.288319,-8956.491898,1149.143247
296.363683,814.226536,-8882.471304,1072.533697
296.364010,666.185348,-9252.574275,919.314598
296.364338,370.102971,-8956.491898,383.047749
296.364665,0.000000,-9030.512492,766.095498
296.364993,-370.102971,-9104.533087,306.438199
296.365320,-740.205942,-9252.574275,229.828649
296.365648,-666.185348,-9178.553681,0.000000
296.365975,-592.164754,-9104.533087,-229.828649
296.366303,-444.123565,-8660.409521,0.000000
296.366630,-296.082377,-9104.533087,-229.828649
296.366957,-518.144159,-8956.491898,-306.438199
296.367285,-148.041188,-9178.553681,153.219100
296.367612,-370.102971,-9178.553681,0.000000
296.367940,-296.082377,-9030.512492,612.876398
296.368267,0.000000,-9178.553681,306.438199
296.368595,0.000000,-9178.553681,689.485948
296.368922,296.082377,-8660.409521,766.095498
296.369250,444.123565,-8734.430116,1149.143247
296.369577,296.082377,-8808.450710,1225.752797
296.369905,814.226536,-8734.430116,1762.019645
296.370232,518.144159,-9030.512492,1225.752797
296.370560,148.041188,-8956.491898,919.314598
296.370887,-296.082377,-9178.553681,536.266849
296.371215,-518.144159,-9326.594869,536.266849
296.371542,-888.247130,-9030.512492,766.095498
296.371870,-1184.329507,-9104.533087,0.000000
296.372197,-888.247130,-9178.553681,0.000000
296.372524,-1036.288319,-9178.553681,0.000000
296.372852,-1110.308913,-9400.615463,0.000000
296.373179,-1184.329507,-9030.512492,0.000000
296.373507,-1184.329507,-9326.594869,0.000000
296.373834,-1406.391290,-9400.615463,0.000000
296.374162,-1258.350101,-9178.553681,0.000000
296.374489,-740.205942,-9104.533087,536.266849
296.374817,-148.041188,-8808.450710,536.266849
296.375144,444.123565,-8512.368333,842.705048
296.375472,740.205942,-8660.409521,1455.581446
296.375799,1036.288319,-8956.491898,1302.362347
296.376127,888.247130,-9178.553681,1225.752797
296.376454,444.123565,-8882.471304,1149.143247
296.376782,444.123565,-9548.656652,995.924147
296.377109,222.061783,-9474.636058,612.876398
296.377437,-148.041188,-9400.615463,536.266849
296.377764,-370.102971,-9474.636058,306.438199
296.378091,-222.061783,-9400.615463,383.047749
296.378419,74.020594,-9252.574275,306.438199
296.378746,0.000000,-9400.615463,229.828649
296.379074,0.000000,-9252.574275,76.609550
296.379401,-296.082377,-9178.553681,0.000000
296.379729,-444.123565,-9400.615463,536.266849
296.380056,-444.123565,-9030.512492,612.876398
296.380384,-592.164754,-9326.594869,842.705048
296.380711,-666.185348,-9178.553681,995.924147
296.381039,-666.185348,-9104.533087,1225.752797
296.381366,-148.041188,-8882.471304,1455.581446
296.381694,0.000000,-9104.533087,1455.581446
296.382021,296.082377,-8142.265362,2145.067394
296.382349,0.000000,-8734.430116,1532.190996
296.382676,0.000000,-8808.450710,1532.190996
296.383003,-296.082377,-9030.512492,1302.362347
296.383331,-1036.288319,-9030.512492,995.924147
296.383658,-518.144159,-8808.450710,689.485948
296.383986,-1110.308913,-9030.512492,459.657299
296.384313,-1110.308913,-8882.471304,536.266849
296.384641,-1036.288319,-9030.512492,306.438199
296.384968,-740.205942,-9104.533087,766.095498
296.385296,-814.226536,-9030.512492,229.828649
296.385623,-888.247130,-9400.615463,153.219100
296.385951,-1036.288319,-9474.636058,76.609550
296.386278,-962.267725,-9400.615463,229.828649
296.386605,-1110.308913,-9474.636058,306.438199
296.386933,-962.267725,-8882.471304,1302.362347
296.387260,-518.144159,-8734.430116,919.314598
296.387588,222.061783,-8808.450710,842.705048
296.387915,666.185348,-8882.471304,995.924147
296.388243,814.226536,-8734.430116,919.314598
296.388570,592.164754,-8364.327145,995.924147
296.388898,814.226536,-9030.512492,689.485948
296.389225,296.082377,-9030.512492,689.485948
296.389553,74.020594,-9030.512492,306.438199
296.389880,-444.123565,-9326.594869,229.828649
296.390207,-296.082377,-9548.656652,383.047749
296.390535,-444.123565,-9474.636058,-153.219100
296.390862,-666.185348,-9178.553681,-459.657299
296.391190,-592.164754,-9400.615463,-459.657299
296.391517,-222.061783,-9400.615463,-459.657299
296.391845,-444.123565,-9474.636058,-459.657299
296.392172,0.000000,-8882.471304,-153.219100
296.392500,0.000000,-8956.491898,153.219100
296.392827,0.000000,-9178.553681,0.000000
296.393154,-222.061783,-9030.512492,306.438199
296.393482,0.000000,-8882.471304,306.438199
296.393809,518.144159,-8808.450710,995.924147
296.394137,592.164754,-8734.430116,995.924147
296.394464,814.226536,-8734.430116,1378.971896
296.394792,888.247130,-8808.450710,1302.362347
296.395119,592.164754,-9104.533087,1302.362347
296.395447,518.144159,-8956.491898,1072.533697
296.395774,0.000000,-9400.615463,995.924147
296.396102,-592.164754,-9548.656652,229.828649
296.396429,-1036.288319,-9400.615463,229.828649
296.396756,-1036.288319,-9252.574275,0.000000
296.397084,-1036.288319,-9178.553681,0.000000
296.397411,-814.226536,-9474.636058,536.266849
296.397739,-888.247130,-9252.574275,0.000000
296.398066,-962.267725,-9326.594869,0.000000
296.398394,-1036.288319,-9400.615463,0.000000
296.398721,-1184.329507,-9252.574275,0.000000
296.399049,-592.164754,-9474.636058,612.876398
296.399376,-962.267725,-9030.512492,383.047749
296.399704,-518.144159,-8808.450710,689.485948
296.400031,0.000000,-8734.430116,1072.533697
296.400358,370.102971,-8438.347739,1532.190996
296.400686,740.205942,-8882.471304,1225.752797
296.401013,814.226536,-8734.430116,1915.238745
296.401341,296.082377,-8956.491898,1225.752797
296.401668,148.041188,-9178.553681,995.924147
296.401996,-148.041188,-9252.574275,689.485948
296.402323,-222.061783,-9548.656652,0.000000
296.402651,0.000000,-9474.636058,536.266849
296.402978,-592.164754,-9400.615463,229.828649
296.403305,-518.144159,-9400.615463,229.828649
296.403633,-296.082377,-9104.533087,76.609550
296.403960,-444.123565,-8956.491898,612.876398
296.404288,-296.082377,-8660.409521,459.657299
296.404615,-296.082377,-9252.574275,229.828649
296.404943,-444.123565,-9252.574275,459.657299
296.405270,-444.123565,-9474.636058,689.485948
296.405598,-592.164754,-9252.574275,919.314598
296.405925,-592.164754,-8734.430116,1225.752797
296.406253,-222.061783,-8882.471304,1455.581446
296.406580,0.000000,-8586.388927,1532.190996
296.406907,296.082377,-8808.450710,1608.800546
296.407235,518.144159,-8586.388927,1378.971896
296.407562,296.082377,-8660.409521,1302.362347
296.407890,148.041188,-8808.450710,1225.752797
296.408217,-222.061783,-9030.512492,919.314598
296.408545,-592.164754,-9030.512492,766.095498
296.408872,-740.205942,-9030.512492,383.047749
296.409200,-444.123565,-9030.512492,229.828649
296.409527,-1036.288319,-9030.512492,0.000000
296.409854,-1036.288319,-9104.533087,0.000000
296.410182,-740.205942,-9326.594869,153.219100
296.410509,-888.247130,-9474.636058,76.609550
296.410837,-962.267725,-9104.533087,76.609550
296.411164,-740.205942,-9400.615463,0.000000
296.411492,-1110.308913,-9326.594869,229.828649
296.411819,-1036.288319,-9474.636058,229.828649
296.412147,-740.205942,-9104.533087,536.266849
296.412474,0.000000,-8882.471304,689.485948
296.412802,518.144159,-8882.471304,612.876398
296.413129,592.164754,-8438.347739,1378.971896
296.413456,888.247130,-8734.430116,1072.533697
296.413784,814.226536,-8882.471304,995.924147
296.414111,666.185348,-9104.533087,766.095498
296.414439,148.041188,-9400.615463,1149.143247
296.414766,0.000000,-9474.636058,-153.219100
296.415094,-518.144159,-9474.636058,0.000000
296.415421,-444.123565,-9548.656652,-229.828649
296.415749,-666.185348,-9474.636058,-459.657299
296.416076,-370.102971,-9178.553681,-76.609550
296.416404,-296.082377,-9178.553681,-229.828649
296.416731,-296.082377,-9252.574275,0.000000
296.417058,-296.082377,-9474.636058,0.000000
296.417386,-296.082377,-9252.574275,-76.609550
296.417713,0.000000,-9400.615463,76.609550
296.418041,148.041188,-8956.491898,536.266849
296.418368,0.000000,-9030.512492,306.438199
296.418696,148.041188,-9104.533087,689.485948
296.419023,444.123565,-8660.409521,1225.752797
296.419351,444.123565,-8586.388927,1149.143247
296.419678,370.102971,-8290.306550,1608.800546
296.420005,1036.288319,-8808.450710,1225.752797
296.420333,148.041188,-8882.471304,1072.533697
296.420660,-518.144159,-8734.430116,842.705048
296.420988,-666.185348,-9178.553681,689.485948
296.421315,-1480.411884,-8660.409521,459.657299
296.421643,-1110.308913,-9104.533087,383.047749
296.421970,-1554.432478,-9030.512492,0.000000
296.422298,-1110.308913,-9030.512492,0.000000
296.422625,-1332.370696,-8882.471304,-153.219100
296.422953,-1110.308913,-8882.471304,-383.047749
296.423280,-1332.370696,-9400.615463,0.000000
296.423607,-1554.432478,-9030.512492,0.000000
296.423935,-1258.350101,-9252.574275,153.219100
296.424262,-1110.308913,-8882.471304,306.438199
296.424590,-666.185348,-8882.471304,459.657299
296.424917,222.061783,-8734.430116,842.705048
296.425245,444.123565,-8142.265362,995.924147
296.425572,1110.308913,-8734.430116,1532.190996
296.425900,1110.308913,-8882.471304,1608.800546
296.426227,666.185348,-8586.388927,1378.971896
296.426555,592.164754,-8734.430116,1302.362347
296.426882,296.082377,-9104.533087,919.314598
296.427209,0.000000,-9252.574275,689.485948
296.427537,-222.061783,-9696.697840,459.657299
296.427864,0.000000,-9548.656652,76.609550
296.428192,0.000000,-9178.553681,306.438199
296.428519,0.000000,-9474.636058,-153.219100
296.428847,-518.144159,-9400.615463,0.000000
296.429174,-296.082377,-9400.615463,0.000000
296.429502,-592.164754,-9178.553681,76.609550
296.429829,-518.144159,-9474.636058,0.000000
296.430156,0.000000,-9548.656652,459.657299
296.430484,-592.164754,-9326.594869,383.047749
296.430811,-296.082377,-9622.677246,766.095498
296.431139,-370.102971,-9030.512492,995.924147
296.431466,0.000000,-9104.533087,1302.362347
296.431794,-296.082377,-8734.430116,1532.190996
296.432121,740.205942,-9178.553681,1608.800546
296.432449,0.000000,-8586.388927,1302.362347
296.432776,74.020594,-9178.553681,1455.581446
296.433104,0.000000,-9252.574275,1302.362347
296.433431,-296.082377,-9252.574275,689.485948
296.433758,-888.247130,-8956.491898,689.485948
296.434086,-518.144159,-9326.594869,536.266849
296.434413,-814.226536,-9474.636058,459.657299
296.434741,-518.144159,-8882.471304,536.266849
296.435068,-962.267725,-9400.615463,0.000000
296.435396,-296.082377,-9252.574275,612.876398
296.435723,-1110.308913,-9474.636058,229.828649
296.436051,-1332.370696,-9548.656652,383.047749
296.436378,-1258.350101,-9696.697840,459.657299
296.436706,-962.267725,-9030.512492,612.876398
296.437033,-666.185348,-8586.388927,919.314598
296.437360,-148.041188,-8956.491898,766.095498
296.437688,74.020594,-8808.450710,766.095498
296.438015,592.164754,-8660.409521,1149.143247
296.438343,888.247130,-8586.388927,1225.752797
296.438670,888.247130,-8512.368333,612.876398
296.438998,518.144159,-8808.450710,995.924147
296.439325,148.041188,-8882.471304,919.314598
296.439653,0.000000,-9104.533087,612.876398
296.439980,-370.102971,-9400.615463,612.876398
296.440307,-666.185348,-9030.512492,153.219100
296.440635,-740.205942,-9326.594869,76.609550
296.440962,-740.205942,-9104.533087,-153.219100
296.441290,-518.144159,-9252.574275,0.000000
296.441617,-222.061783,-9252.574275,0.000000
296.441945,0.000000,-9400.615463,0.000000
296.442272,0.000000,-8808.450710,229.828649
296.442600,74.020594,-9104.533087,229.828649
296.442927,0.000000,-9104.533087,229.828649
296.443255,-148.041188,-9104.533087,536.266849
296.443582,0.000000,-9178.553681,1225.752797
296.443909,0.000000,-8364.327145,1608.800546
296.444237,296.082377,-8808.450710,995.924147
296.444564,740.205942,-8808.450710,1608.800546
296.444892,444.123565,-8660.409521,1455.581446
296.445219,296.082377,-9104.533087,1225.752797
296.445547,-518.144159,-8734.430116,1149.143247
296.445874,-518.144159,-9178.553681,766.095498
296.446202,-888.247130,-9104.533087,229.828649
296.446529,-1110.308913,-8956.491898,76.609550
296.446857,-962.267725,-9178.553681,153.219100
296.447184,-888.247130,-8512.368333,-153.219100
296.447511,-962.267725,-8956.491898,-153.219100
296.447839,-1110.308913,-9104.533087,0.000000
296.448166,-1184.329507,-9178.553681,-459.657299
296.448494,-1406.391290,-9400.615463,-383.047749
296.448821,-814.226536,-9622.677246,-536.266849
296.449149,-1036.288319,-9030.512492,306.438199
296.449476,-444.123565,-9252.574275,229.828649
296.449804,74.020594,-9104.533087,459.657299
296.450131,444.123565,-8956.491898,689.485948
296.450458,740.205942,-8660.409521,689.485948
296.450786,1184.329507,-8512.368333,995.924147
296.451113,814.226536,-8882.471304,1149.143247
296.451441,518.144159,-9178.553681,995.924147
296.451768,222.061783,-9326.594869,766.095498
296.452096,148.041188,-9252.574275,459.657299
296.452423,0.000000,-9104.533087,995.924147
296.452751,-370.102971,-9326.594869,383.047749
296.453078,-444.123565,-9548.656652,0.000000
296.453406,-148.041188,-9252.574275,0.000000
296.453733,-148.041188,-9178.553681,0.000000
296.454060,-222.061783,-9400.615463,-306.438199
296.454388,-370.102971,-9178.553681,536.266849
296.454715,-222.061783,-9474.636058,229.828649
296.455043,-296.082377,-9326.594869,306.438199
296.455370,-444.123565,-9326.594869,766.095498
296.455698,-592.164754,-9474.636058,1225.752797
296.456025,-296.082377,-8882.471304,995.924147
296.456353,0.000000,-9030.512492,1378.971896
296.456680,222.061783,-8734.430116,1455.581446
296.457007,370.102971,-8808.450710,1991.848295
296.457335,222.061783,-8808.450710,1838.629195
296.457662,-370.102971,-8734.430116,1838.629195
296.457990,-222.061783,-8956.491898,1225.752797
296.458317,-666.185348,-9030.512492,1302.362347
296.458645,-888.247130,-8956.491898,1072.533697
296.458972,-1110.308913,-9030.512492,766.095498
296.459300,-962.267725,-8364.327145,689.485948
296.459627,-888.247130,-9104.533087,766.095498
296.459955,-888.247130,-9178.553681,536.266849
296.460282,-888.247130,-9252.574275,459.657299
296.460609,-1036.288319,-9326.594869,306.438199
296.460937,-1258.350101,-9178.553681,919.314598
296.461264,-1110.308913,-9622.677246,306.438199
296.461592,-1332.370696,-9326.594869,459.657299
296.461919,-962.267725,-9400.615463,689.485948
296.462247,-370.102971,-9030.512492,766.095498
296.462574,148.041188,-8512.368333,1302.362347
296.462902,444.123565,-8734.430116,1455.581446
296.463229,666.185348,-8586.388927,1302.362347
296.463557,592.164754,-8586.388927,1149.143247
296.463884,518.144159,-8660.409521,766.095498
296.464211,222.061783,-9178.553681,995.924147
296.464539,148.041188,-9030.512492,612.876398
296.464866,-370.102971,-9252.574275,383.047749
296.465194,-444.123565,-9252.574275,76.609550
296.465521,-666.185348,-9474.636058,0.000000
296.465849,-518.144159,-9400.615463,-306.438199
296.466176,-222.061783,-9104.533087,0.000000
296.466504,-518.144159,-8956.491898,-153.219100
296.466831,-222.061783,-9030.512492,-306.438199
296.467158,0.000000,-9326.594869,0.000000
296.467486,0.000000,-9252.574275,0.000000
296.467813,0.000000,-9104.533087,76.609550
296.468141,74.020594,-9326.594869,229.828649
296.468468,0.000000,-9252.574275,383.047749
296.468796,74.020594,-9178.553681,842.705048
296.469123,518.144159,-8734.430116,1149.143247
296.469451,1036.288319,-8512.368333,1149.143247
296.469778,740.205942,-8882.471304,995.924147
296.470106,444.123565,-9104.533087,1149.143247
296.470433,0.000000,-9252.574275,919.314598
296.470760,-296.082377,-9030.512492,612.876398
296.471088,-740.205942,-9030.512492,306.438199
296.471415,-814.226536,-9252.574275,0.000000
296.471743,-1332.370696,-9104.533087,-153.219100
296.472070,-1258.350101,-9178.553681,0.000000
296.472398,-962.267725,-8882.471304,0.000000
296.472725,-1036.288319,-8956.491898,0.000000
296.473053,-1110.308913,-8882.471304,0.000000
296.473380,-1184.329507,-9104.533087,0.000000
296.473708,-1406.391290,-9326.594869,-76.609550
296.474035,-1110.308913,-9326.594869,0.000000
296.474362,-814.226536,-9178.553681,383.047749
296.474690,-370.102971,-9104.533087,76.609550
296.475017,444.123565,-9178.553681,1072.533697
296.475345,666.185348,-8660.409521,1072.533697
296.475672,1110.308913,-8808.450710,1302.362347
296.476000,962.267725,-8808.450710,1532.190996
296.476327,518.144159,-8808.450710,1608.800546
296.476655,592.164754,-9104.533087,1378.971896
296.476982,296.082377,-9400.615463,536.266849
296.477309,0.000000,-9400.615463,689.485948
296.477637,0.000000,-9474.636058,306.438199
296.477964,-296.082377,-9474.636058,0.000000
296.478292,0.000000,-9104.533087,0.000000
296.478619,-296.082377,-9030.512492,76.609550
296.478947,-370.102971,-9178.553681,0.000000
296.479274,-592.164754,-9104.533087,229.828649
296.479602,-518.144159,-9178.553681,0.000000
296.479929,-740.205942,-9252.574275,689.485948
296.480257,-518.144159,-9178.553681,612.876398
296.480584,-518.144159,-9104.533087,919.314598
296.480911,-370.102971,-9178.553681,842.705048
296.481239,0.000000,-9104.533087,1378.971896
296.481566,222.061783,-8586.388927,2068.457845
296.481894,296.082377,-8364.327145,1838.629195
296.482221,222.061783,-8956.491898,1685.410096
296.482549,222.061783,-9326.594869,1685.410096
296.482876,0.000000,-8956.491898,1455.581446
296.483204,-148.041188,-9252.574275,1455.581446
296.483531,-592.164754,-8882.471304,1455.581446
296.483859,-962.267725,-9252.574275,612.876398
296.484186,-962.267725,-9252.574275,536.266849
296.484512,-1184.329507,-8956.491898,459.657299
296.484840,-1036.288319,-9178.553681,229.828649
296.485168,-962.267725,-9252.574275,306.438199
296.485495,-518.144159,-9326.594869,306.438199
296.485823,-1554.432478,-9474.636058,76.609550
296.486150,-1332.370696,-9474.636058,153.219100
296.486478,-1480.411884,-9326.594869,76.609550
296.486806,-1184.329507,-8734.430116,612.876398
296.487133,-592.164754,-9104.533087,306.438199
296.487461,0.000000,-8512.368333,536.266849
296.487788,148.041188,-8660.409521,842.705048
296.488116,962.267725,-8882.471304,995.924147
296.488444,814.226536,-8734.430116,1378.971896
296.488771,740.205942,-8882.471304,689.485948
296.489099,666.185348,-9548.656652,689.485948
296.489426,74.020594,-9104.533087,229.828649
296.489754,0.000000,-9770.718434,306.438199
296.490082,0.000000,-9474.636058,76.609550
296.490409,-444.123565,-9474.636058,-383.047749
296.490737,0.000000,-9474.636058,153.219100
296.491064,0.000000,-9400.615463,-766.095498
296.491392,-148.041188,-9252.574275,-383.047749
296.491720,518.144159,-9474.636058,-229.828649
296.492047,222.061783,-9326.594869,-536.266849
296.492375,148.041188,-9326.594869,0.000000
296.492702,0.000000,-9474.636058,0.000000
296.493030,-296.082377,-9178.553681,229.828649
296.493358,0.000000,-9252.574275,459.657299
296.493685,370.102971,-9104.533087,612.876398
296.494013,222.061783,-8586.388927,1302.362347
296.494341,592.164754,-9178.553681,1225.752797
296.494668,1036.288319,-8956.491898,1302.362347
296.494996,296.082377,-9030.512492,1302.362347
296.495323,222.061783,-9104.533087,1608.800546
296.495651,-444.123565,-9030.512492,1149.143247
296.495979,-740.205942,-9030.512492,612.876398
296.496306,-1258.350101,-9104.533087,0.000000
296.496634,-1628.453072,-8956.491898,0.000000
296.496961,-1332.370696,-9030.512492,76.609550
296.497289,-1554.432478,-8734.430116,153.219100
296.497617,-962.267725,-9178.553681,76.609550
296.497944,-1406.391290,-9104.533087,0.000000
296.498272,-1036.288319,-9474.636058,0.000000
296.498599,-1480.411884,-9548.656652,-306.438199
296.498927,-1110.308913,-9770.718434,76.609550
296.499255,-518.144159,-9622.677246,153.219100
296.499582,-518.144159,-8882.471304,612.876398
296.499910,0.000000,-8808.450710,1072.533697
296.500237,444.123565,-8734.430116,919.314598
296.500565,1258.350101,-8734.430116,1302.362347
296.500893,1332.370696,-8512.368333,1302.362347
296.501220,1036.288319,-9178.553681,995.924147
296.501548,666.185348,-9252.574275,1072.533697
296.501875,74.020594,-9548.656652,612.876398
296.502203,0.000000,-9548.656652,1072.533697
296.502531,0.000000,-8882.471304,459.657299
296.502858,-148.041188,-9696.697840,383.047749
296.503186,-296.082377,-9400.615463,229.828649
296.503513,-296.082377,-9474.636058,153.219100
296.503841,-296.082377,-9326.594869,153.219100
296.504169,-148.041188,-8956.491898,536.266849
296.504496,-222.061783,-9178.553681,76.609550
296.504824,-296.082377,-9178.553681,459.657299
296.505152,-444.123565,-9178.553681,306.438199
296.505479,-518.144159,-9400.615463,536.266849
296.505807,-592.164754,-8882.471304,995.924147
296.506134,0.000000,-8882.471304,919.314598
296.506462,74.020594,-8734.430116,1532.190996
296.506790,74.020594,-8586.388927,1455.581446
296.507117,444.123565,-8586.388927,1685.410096
296.507445,518.144159,-8438.347739,1991.848295
296.507772,296.082377,-8660.409521,1378.971896
296.508100,-222.061783,-8956.491898,1302.362347
296.508428,-592.164754,-8956.491898,995.924147
296.508755,-740.205942,-9326.594869,919.314598
296.509083,-1110.308913,-8808.450710,306.438199
296.509410,-518.144159,-9104.533087,383.047749
296.509738,-592.164754,-9252.574275,612.876398
296.510066,-888.247130,-9104.533087,383.047749
296.510393,-962.267725,-9252.574275,383.047749
296.510721,-1184.329507,-9474.636058,153.219100
296.511048,-1258.350101,-9622.677246,229.828649
296.511376,-1332.370696,-9474.636058,229.828649
296.511704,-1406.391290,-9474.636058,383.047749
296.512031,-888.247130,-9178.553681,766.095498
296.512359,-296.082377,-8808.450710,766.095498
296.512686,74.020594,-8364.327145,766.095498
296.513014,814.226536,-8586.388927,689.485948
296.513342,666.185348,-8586.388927,995.924147
296.513669,518.144159,-8586.388927,919.314598
296.513997,444.123565,-8882.471304,612.876398
296.514324,444.123565,-8956.491898,306.438199
296.514652,74.020594,-9326.594869,76.609550
296.514980,-148.041188,-9400.615463,153.219100
296.515307,-222.061783,-9326.594869,0.000000
296.515635,-222.061783,-9474.636058,0.000000
296.515962,0.000000,-9400.615463,-153.219100
296.516290,0.000000,-9030.512492,0.000000
296.516618,0.000000,-9178.553681,-229.828649
296.516945,0.000000,-9400.615463,0.000000
296.517273,0.000000,-9548.656652,153.219100
296.517601,0.000000,-9400.615463,306.438199
296.517928,222.061783,-9326.594869,459.657299
296.518256,74.020594,-9326.594869,612.876398
296.518583,-148.041188,-9326.594869,995.924147
296.518911,148.041188,-9104.533087,1302.362347
296.519239,518.144159,-8808.450710,1455.581446
296.519566,296.082377,-8290.306550,1225.752797
296.519894,148.041188,-9030.512492,1455.581446
296.520221,0.000000,-9030.512492,1225.752797
296.520549,-370.102971,-8956.491898,1149.143247
296.520877,-888.247130,-8956.491898,842.705048
296.521204,-1332.370696,-8808.450710,153.219100
296.521532,-1628.453072,-8882.471304,612.876398
296.521859,-1554.432478,-9104.533087,306.438199
296.522187,-1628.453072,-9104.533087,229.828649
296.522515,-1406.391290,-8956.491898,0.000000
296.522842,-1406.391290,-9030.512492,0.000000
296.523170,-1406.391290,-9474.636058,0.000000
296.523497,-1480.411884,-9400.615463,-229.828649
296.523825,-1332.370696,-9326.594869,0.000000
296.524153,-1184.329507,-9252.574275,306.438199
296.524480,-740.205942,-9030.512492,0.000000
296.524808,-222.061783,-9252.574275,536.266849
296.525135,518.144159,-8956.491898,612.876398
296.525463,814.226536,-8734.430116,1149.143247
296.525791,962.267725,-8734.430116,1149.143247
296.526118,1332.370696,-8956.491898,1455.581446
296.526446,962.267725,-9104.533087,842.705048
296.526773,666.185348,-9400.615463,1302.362347
296.527101,296.082377,-9326.594869,536.266849
296.527429,0.000000,-9474.636058,383.047749
296.527756,0.000000,-9474.636058,229.828649
296.528084,-296.082377,-9252.574275,-229.828649
296.528412,-370.102971,-9326.594869,76.609550
296.528739,-148.041188,-9326.594869,0.000000
296.529067,-296.082377,-9104.533087,-153.219100
296.529394,-444.123565,-9178.553681,-153.219100
296.529722,-148.041188,-9400.615463,0.000000
296.530050,-296.082377,-8956.491898,76.609550
296.530377,-296.082377,-8956.491898,153.219100
296.530705,-370.102971,-8956.491898,383.047749
296.531032,-370.102971,-9104.533087,612.876398
296.531360,0.000000,-9104.533087,919.314598
296.531688,222.061783,-8438.347739,1225.752797
296.532015,888.247130,-8586.388927,1532.190996
296.532343,592.164754,-8882.471304,1532.190996
296.532670,296.082377,-9104.533087,1532.190996
296.532998,0.000000,-9252.574275,1225.752797
296.533326,-370.102971,-8882.471304,1302.362347
296.533653,-518.144159,-8956.491898,766.095498
296.533981,-666.185348,-9178.553681,536.266849
296.534308,-888.247130,-9178.553681,612.876398
296.534636,-888.247130,-9326.594869,306.438199
296.534964,-814.226536,-9104.533087,153.219100
296.535291,-962.267725,-9326.594869,229.828649
296.535619,-1036.288319,-9474.636058,383.047749
296.535946,-1258.350101,-9622.677246,306.438199
296.536274,-1480.411884,-9622.677246,306.438199
296.536602,-1332.370696,-9474.636058,229.828649
296.536929,-1332.370696,-8660.409521,306.438199
296.537257,-592.164754,-9030.512492,766.095498
296.537584,-296.082377,-8660.409521,612.876398
296.537912,148.041188,-8512.368333,1072.533697
296.538240,518.144159,-8586.388927,1149.143247
296.538567,740.205942,-8364.327145,1532.190996
296.538895,740.205942,-8512.368333,842.705048
296.539222,444.123565,-9178.553681,689.485948
296.539550,0.000000,-9326.594869,612.876398
296.539878,0.000000,-9474.636058,459.657299
296.540205,-444.123565,-9104.533087,536.266849
296.540533,0.000000,-9178.553681,76.609550
296.540861,0.000000,-9474.636058,76.609550
296.541188,0.000000,-9474.636058,-306.438199
296.541516,0.000000,-9400.615463,-153.219100
296.541843,222.061783,-9104.533087,229.828649
296.542171,518.144159,-9030.512492,0.000000
296.542499,74.020594,-9474.636058,383.047749
296.542826,0.000000,-9474.636058,842.705048
296.543154,0.000000,-9400.615463,612.876398
296.543481,-148.041188,-8808.450710,842.705048
296.543809,296.082377,-8808.450710,1302.362347
296.544137,0.000000,-9178.553681,1225.752797
296.544464,222.061783,-9030.512492,1378.971896
296.544792,222.061783,-8586.388927,1378.971896
296.545119,74.020594,-8660.409521,1378.971896
296.545447,-444.123565,-8586.388927,1225.752797
296.545775,-666.185348,-9252.574275,689.485948
296.546102,-1332.370696,-8956.491898,383.047749
296.546430,-1406.391290,-8808.450710,0.000000
296.546757,-1554.432478,-8882.471304,0.000000
296.547085,-1554.432478,-9030.512492,-153.219100
296.547413,-1480.411884,-8660.409521,153.219100
296.547740,-1554.432478,-8956.491898,-153.219100
296.548068,-1332.370696,-9178.553681,-383.047749
296.548395,-1184.329507,-9474.636058,-229.828649
296.548723,-1332.370696,-9400.615463,229.828649
296.549051,-814.226536,-9030.512492,0.000000
296.549378,-518.144159,-9252.574275,153.219100
296.549706,0.000000,-8956.491898,459.657299
296.550033,444.123565,-8882.471304,766.095498
296.550361,962.267725,-8734.430116,1072.533697
296.550689,1924.535449,-9178.553681,1378.971896
296.551016,1776.494261,-9104.533087,1072.533697
296.551344,1036.288319,-9178.553681,1149.143247
296.551672,814.226536,-9474.636058,1149.143247
296.551999,518.144159,-9474.636058,766.095498
296.552327,148.041188,-9252.574275,383.047749
296.552654,-296.082377,-9548.656652,842.705048
296.552982,-370.102971,-9326.594869,0.000000
296.553310,-296.082377,-9178.553681,0.000000
296.553637,-222.061783,-9104.533087,-306.438199
296.553965,-148.041188,-9252.574275,-383.047749
296.554292,-222.061783,-9104.533087,0.000000
296.554620,-444.123565,-9030.512492,-153.219100
296.554948,-370.102971,-9178.553681,229.828649
296.555275,-296.082377,-9326.594869,459.657299
296.555603,-666.185348,-9326.594869,612.876398
296.555930,-592.164754,-8438.347739,1302.362347
296.556258,-148.041188,-9030.512492,995.924147
296.556586,0.000000,-8808.450710,1455.581446
296.556913,74.020594,-8882.471304,1685.410096
296.557241,74.020594,-8734.430116,1838.629195
296.557568,74.020594,-8586.388927,1991.848295
296.557896,222.061783,-8882.471304,1685.410096
296.558224,-296.082377,-9104.533087,1225.752797
296.558551,-814.226536,-9104.533087,1072.533697
296.558879,-888.247130,-9252.574275,842.705048
296.559206,-1110.308913,-8734.430116,995.924147
296.559534,-518.144159,-9104.533087,766.095498
296.559862,-1036.288319,-9252.574275,536.266849
296.560189,-888.247130,-9400.615463,383.047749
296.560517,-1332.370696,-9400.615463,306.438199
296.560844,-1036.288319,-9104.533087,229.828649
296.561172,-1332.370696,-9252.574275,153.219100
296.561500,-1480.411884,-9400.615463,306.438199
296.561827,-1332.370696,-9326.594869,383.047749
296.562155,-814.226536,-9104.533087,612.876398
296.562482,0.000000,-8956.491898,766.095498
296.562810,666.185348,-8290.306550,1072.533697
296.563138,444.123565,-8586.388927,1378.971896
296.563465,666.185348,-8660.409521,1072.533697
296.563793,592.164754,-8956.491898,842.705048
296.564121,444.123565,-9104.533087,766.095498
296.564448,296.082377,-9178.553681,842.705048
296.564776,0.000000,-9474.636058,76.609550
296.565103,-296.082377,-9474.636058,229.828649
296.565431,-370.102971,-9400.615463,153.219100
296.565759,-222.061783,-9400.615463,0.000000
296.566086,-296.082377,-8808.450710,0.000000
296.566414,-148.041188,-9252.574275,-383.047749
296.566741,0.000000,-9400.615463,0.000000
296.567069,148.041188,-9252.574275,76.609550
296.567397,74.020594,-9252.574275,0.000000
296.567724,0.000000,-9400.615463,459.657299
296.568052,74.020594,-9326.594869,-153.219100
296.568379,0.000000,-9178.553681,459.657299
296.568707,0.000000,-9030.512492,995.924147
296.569035,222.061783,-8660.409521,1072.533697
296.569362,370.102971,-8882.471304,1149.143247
296.569690,888.247130,-8808.450710,1455.581446
296.570017,148.041188,-8808.450710,1225.752797
296.570345,0.000000,-8808.450710,1225.752797
296.570673,-444.123565,-9178.553681,766.095498
296.571000,-888.247130,-9104.533087,459.657299
296.571328,-962.267725,-8956.491898,383.047749
296.571655,-1554.432478,-8882.471304,0.000000
296.571983,-1406.391290,-9252.574275,229.828649
296.572311,-1258.350101,-9030.512492,76.609550
296.572638,-1110.308913,-9252.574275,-153.219100
296.572966,-1184.329507,-9252.574275,306.438199
296.573293,-1110.308913,-8956.491898,-229.828649
296.573621,-1332.370696,-9474.636058,-153.219100
296.573949,-888.247130,-9474.636058,0.000000
296.574276,-814.226536,-9178.553681,76.609550
296.574604,-370.102971,-8882.471304,612.876398
296.574932,148.041188,-8808.450710,842.705048
296.575259,518.144159,-8882.471304,1072.533697
296.575587,962.267725,-8956.491898,1072.533697
296.575914,1110.308913,-9030.512492,1455.581446
296.576242,962.267725,-9030.512492,1302.362347
296.576570,444.123565,-9252.574275,1378.971896
296.576897,370.102971,-9326.594869,842.705048
296.577225,0.000000,-9474.636058,689.485948
296.577552,-444.123565,-9474.636058,229.828649
296.577880,-518.144159,-9474.636058,153.219100
296.578208,-222.061783,-9326.594869,536.266849
296.578535,-444.123565,-8956.491898,-306.438199
296.578863,-222.061783,-9474.636058,-306.438199
296.579190,-296.082377,-9178.553681,0.000000
296.579518,-370.102971,-9326.594869,0.000000
296.579846,-296.082377,-8882.471304,306.438199
296.580173,-740.205942,-9104.533087,306.438199
296.580501,-444.123565,-9252.574275,689.485948
296.580828,-444.123565,-9252.574275,919.314598
296.581156,-222.061783,-8956.491898,1225.752797
296.581484,0.000000,-8734.430116,1378.971896
296.581811,962.267725,-8882.471304,2374.896044
296.582139,370.102971,-8808.450710,1915.238745
296.582466,370.102971,-9104.533087,1532.190996
296.582794,0.000000,-8956.491898,1608.800546
296.583122,-148.041188,-9104.533087,1378.971896
296.583449,-222.061783,-9104.533087,842.705048
296.583777,-814.226536,-9178.553681,995.924147
296.584104,-1036.288319,-9178.553681,612.876398
296.584432,-1110.308913,-9104.533087,536.266849
296.584760,-962.267725,-9104.533087,383.047749
296.585087,-1110.308913,-9104.533087,0.000000
296.585415,-1480.411884,-9104.533087,459.657299
296.585742,-1554.432478,-9400.615463,229.828649
296.586070,-1332.370696,-9474.636058,0.000000
296.586398,-1480.411884,-9252.574275,0.000000
296.586725,-666.185348,-9474.636058,76.609550
296.587053,-740.205942,-8882.471304,229.828649
296.587380,-370.102971,-8512.368333,995.924147
296.587708,222.061783,-8438.347739,919.314598
296.588035,740.205942,-8512.368333,919.314598
296.588363,444.123565,-8660.409521,1072.533697
296.588690,296.082377,-8512.368333,1302.362347
296.589018,444.123565,-8882.471304,689.485948
296.589345,296.082377,-9178.553681,612.876398
296.589673,296.082377,-9474.636058,306.438199
296.590001,0.000000,-9474.636058,306.438199
296.590328,-148.041188,-9326.594869,383.047749
296.590656,-148.041188,-8956.491898,-229.828649
296.590983,0.000000,-9326.594869,0.000000
296.591311,0.000000,-9474.636058,-229.828649
296.591638,222.061783,-9474.636058,-306.438199
296.591966,-222.061783,-9326.594869,153.219100
296.592293,148.041188,-9326.594869,153.219100
296.592621,74.020594,-9474.636058,229.828649
296.592948,0.000000,-9104.533087,306.438199
296.593276,-222.061783,-9252.574275,459.657299
296.593604,-222.061783,-9030.512492,766.095498
296.593931,222.061783,-9030.512492,919.314598
296.594259,444.123565,-8808.450710,1378.971896
296.594586,444.123565,-8956.491898,919.314598
296.594914,222.061783,-8882.471304,1455.581446
296.595241,-296.082377,-9030.512492,1149.143247
296.595569,0.000000,-9178.553681,1225.752797
296.595896,-814.226536,-9178.553681,689.485948
296.596224,-1110.308913,-9030.512492,383.047749
296.596551,-1184.329507,-9104.533087,0.000000
296.596879,-1480.411884,-8956.491898,76.609550
296.597207,-814.226536,-9104.533087,76.609550
296.597534,-1036.288319,-8734.430116,-383.047749
296.597862,-1110.308913,-9104.533087,0.000000
296.598189,-1036.288319,-9474.636058,0.000000
296.598517,-1184.329507,-9400.615463,0.000000
296.598844,-1258.350101,-9326.594869,306.438199
296.599172,-888.247130,-8734.430116,153.219100
296.599499,-444.123565,-9030.512492,383.047749
296.599827,0.000000,-8808.450710,842.705048
296.600154,370.102971,-8808.450710,995.924147
296.600482,1036.288319,-8808.450710,1532.190996
296.600810,1332.370696,-8660.409521,1302.362347
296.601137,962.267725,-9030.512492,1302.362347
296.601465,740.205942,-9178.553681,1225.752797
296.601792,370.102971,-9252.574275,1072.533697
296.602120,0.000000,-9252.574275,536.266849
296.602447,0.000000,-9326.594869,0.000000
296.602775,-518.144159,-8956.491898,153.219100
296.603102,-666.185348,-9326.594869,0.000000
296.603430,-888.247130,-9252.574275,76.609550
296.603757,-370.102971,-9252.574275,0.000000
296.604085,0.000000,-8956.491898,0.000000
296.604413,-444.123565,-9400.615463,153.219100
296.604740,-296.082377,-9178.553681,0.000000
296.605068,-148.041188,-8956.491898,229.828649
296.605395,-370.102971,-9178.553681,306.438199
296.605723,74.020594,-9252.574275,842.705048
296.606050,-444.123565,-8808.450710,842.705048
296.606378,-296.082377,-9104.533087,1225.752797
296.606705,370.102971,-8956.491898,1685.410096
296.607033,444.123565,-8438.347739,1685.410096
296.607360,296.082377,-9104.533087,1838.629195
296.607688,-444.123565,-8808.450710,2068.457845
296.608016,0.000000,-9252.574275,1302.362347
296.608343,-518.144159,-9030.512492,1072.533697
296.608671,-740.205942,-9252.574275,842.705048
296.608998,-1110.308913,-9030.512492,153.219100
296.609326,-1184.329507,-8882.471304,612.876398
296.609653,-1110.308913,-9252.574275,76.609550
296.609981,-1332.370696,-8956.491898,153.219100
296.610308,-1184.329507,-9326.594869,0.000000
296.610636,-1332.370696,-9474.636058,0.000000
296.610963,-1332.370696,-9326.594869,229.828649
296.611291,-1258.350101,-9400.615463,153.219100
296.611619,-1258.350101,-9474.636058,76.609550
296.611946,-962.267725,-9178.553681,689.485948
296.612274,-444.123565,-8956.491898,459.657299
296.612601,518.144159,-8734.430116,842.705048
296.612929,666.185348,-8512.368333,1225.752797
296.613256,888.247130,-8956.491898,1378.971896
296.613584,1110.308913,-8734.430116,1072.533697
296.613911,666.185348,-9030.512492,766.095498
296.614239,592.164754,-9326.594869,689.485948
296.614566,74.020594,-8882.471304,306.438199
296.614894,0.000000,-9400.615463,229.828649
296.615222,74.020594,-9474.636058,229.828649
296.615549,0.000000,-9622.677246,153.219100
296.615877,0.000000,-9474.636058,0.000000
296.616204,0.000000,-9178.553681,-229.828649
296.616532,-222.061783,-9178.553681,0.000000
296.616859,0.000000,-9400.615463,0.000000
296.617187,-222.061783,-9474.636058,76.609550
296.617514,-370.102971,-9104.533087,229.828649
296.617842,-74.020594,-9474.636058,229.828649
296.618169,-370.102971,-8956.491898,1072.533697
296.618497,-592.164754,-9104.533087,842.705048
296.618825,0.000000,-8882.471304,1072.533697
296.619152,0.000000,-8586.388927,919.314598
296.619480,370.102971,-8216.285956,1302.362347
296.619807,148.041188,-8438.347739,1532.190996
296.620135,222.061783,-8734.430116,1072.533697
296.620462,0.000000,-9104.533087,919.314598
296.620790,-666.185348,-8586.388927,842.705048
296.621117,-962.267725,-8956.491898,459.657299
296.621445,-1184.329507,-8734.430116,383.047749
296.621772,-1184.329507,-9178.553681,76.609550
296.622100,-1332.370696,-8956.491898,153.219100
296.622428,-1184.329507,-8956.491898,0.000000
296.622755,-1036.288319,-9104.533087,-153.219100
296.623083,-666.185348,-9992.780217,0.000000
296.623410,-444.123565,-9400.615463,153.219100
296.623738,-814.226536,-9474.636058,229.828649
296.624065,-814.226536,-9252.574275,229.828649
296.624393,-518.144159,-9178.553681,383.047749
296.624720,148.041188,-9178.553681,383.047749
296.625048,370.102971,-8512.368333,612.876398
296.625375,1036.288319,-8808.450710,995.924147
296.625703,1036.288319,-8808.450710,1378.971896
296.626031,1036.288319,-9030.512492,1378.971896
296.626358,1036.288319,-8956.491898,1455.581446
296.626686,518.144159,-8882.471304,1072.533697
296.627013,148.041188,-9474.636058,919.314598
296.627341,-296.082377,-9474.636058,383.047749
296.627668,-592.164754,-9474.636058,76.609550
296.627996,-666.185348,-9400.615463,0.000000
296.628323,-222.061783,-9030.512492,306.438199
296.628651,-518.144159,-9252.574275,0.000000
296.628978,-666.185348,-9400.615463,0.000000
296.629306,-370.102971,-9252.574275,0.000000
296.629634,-222.061783,-9326.594869,0.000000
296.629961,-222.061783,-9178.553681,229.828649
296.630289,0.000000,-9400.615463,383.047749
296.630616,-592.164754,-9474.636058,612.876398
296.630944,-296.082377,-9252.574275,842.705048
296.631271,-148.041188,-9030.512492,1302.362347
296.631599,296.082377,-8882.471304,1991.848295
296.631926,518.144159,-8438.347739,1378.971896
296.632254,444.123565,-9104.533087,1685.410096
296.632581,222.061783,-9178.553681,1532.190996
296.632909,-148.041188,-8882.471304,1455.581446
296.633237,-296.082377,-8808.450710,1302.362347
296.633564,-296.082377,-9104.533087,612.876398
296.633892,-1184.329507,-9030.512492,612.876398
296.634219,-1036.288319,-9030.512492,612.876398
296.634547,-1036.288319,-8882.471304,383.047749
296.634874,-962.267725,-8956.491898,229.828649
296.635202,-1110.308913,-9252.574275,383.047749
296.635529,-1184.329507,-9030.512492,153.219100
296.635857,-1406.391290,-9326.594869,229.828649
296.636184,-1554.432478,-9474.636058,-306.438199
296.636512,-1480.411884,-9252.574275,306.438199
296.636840,-1332.370696,-9326.594869,153.219100
296.637167,-740.205942,-8512.368333,612.876398
296.637495,0.000000,-8734.430116,536.266849
296.637822,518.144159,-8438.347739,766.095498
296.638150,814.226536,-8364.327145,995.924147
296.638477,814.226536,-8290.306550,919.314598
296.638805,814.226536,-8438.347739,689.485948
296.639132,592.164754,-9400.615463,689.485948
296.639460,518.144159,-9326.594869,459.657299
296.639787,296.082377,-9326.594869,459.657299
296.640115,148.041188,-9252.574275,229.828649
296.640443,0.000000,-9178.553681,842.705048
296.640770,0.000000,-9548.656652,76.609550
296.641098,74.020594,-9104.533087,0.000000
296.641425,148.041188,-9252.574275,0.000000
296.641753,74.020594,-9252.574275,153.219100
296.642080,0.000000,-9178.553681,229.828649
296.642408,0.000000,-9326.594869,229.828649
296.642735,-296.082377,-9030.512492,229.828649
296.643063,-518.144159,-9400.615463,536.266849
296.643390,-148.041188,-9252.574275,842.705048
296.643718,-296.082377,-9178.553681,306.438199
296.644046,0.000000,-8216.285956,1378.971896
296.644373,148.041188,-8512.368333,1378.971896
296.644701,296.082377,-8734.430116,1532.190996
296.645028,0.000000,-8734.430116,1302.362347
296.645356,-370.102971,-8734.430116,995.924147
296.645683,-666.185348,-8660.409521,1149.143247
296.646011,-1110.308913,-9030.512492,919.314598
296.646338,-1184.329507,-9252.574275,383.047749
296.646666,-1258.350101,-9178.553681,383.047749
296.646993,-1332.370696,-9104.533087,1149.143247
296.647321,-888.247130,-8734.430116,153.219100
296.647649,-962.267725,-9252.574275,229.828649
296.647976,-962.267725,-9400.615463,0.000000
296.648304,-1184.329507,-9474.636058,229.828649
296.648631,-814.226536,-9548.656652,0.000000
296.648959,-666.185348,-9400.615463,383.047749
296.649286,-814.226536,-9178.553681,612.876398
296.649614,-148.041188,-9474.636058,612.876398
296.649941,370.102971,-8956.491898,1149.143247
296.650269,666.185348,-8808.450710,1149.143247
296.650596,888.247130,-8734.430116,1149.143247
296.650924,814.226536,-9326.594869,1838.629195
296.651252,740.205942,-9178.553681,1455.581446
296.651579,222.061783,-9252.574275,1225.752797
296.651907,222.061783,-9326.594869,612.876398
296.652234,-444.123565,-9104.533087,1072.533697
296.652562,-444.123565,-9252.574275,229.828649
296.652889,-888.247130,-9178.553681,0.000000
296.653217,-740.205942,-8808.450710,0.000000
296.653544,-666.185348,-9030.512492,-306.438199
296.653872,-592.164754,-8956.491898,0.000000
296.654199,-592.164754,-8882.471304,0.000000
296.654527,-592.164754,-9104.533087,0.000000
296.654855,-518.144159,-8956.491898,76.609550
296.655182,-444.123565,-9104.533087,229.828649
296.655510,-370.102971,-8956.491898,459.657299
296.655837,-296.082377,-8882.471304,842.705048
296.656165,0.000000,-9030.512492,766.095498
296.656492,0.000000,-8512.368333,1072.533697
296.656820,444.123565,-8956.491898,1225.752797
296.657147,592.164754,-8660.409521,1455.581446
296.657475,1036.288319,-8512.368333,1762.019645
296.657802,740.205942,-8734.430116,1455.581446
296.658130,518.144159,-9178.553681,1072.533697
296.658458,-296.082377,-9104.533087,842.705048
296.658785,-518.144159,-8956.491898,536.266849
296.659113,-592.164754,-8882.471304,76.609550
296.659440,-888.247130,-8956.491898,1149.143247
296.659768,-962.267725,-8956.491898,229.828649
296.660095,-1332.370696,-9252.574275,76.609550
296.660423,-1184.329507,-9548.656652,0.000000
296.660750,-962.267725,-9474.636058,0.000000
296.661078,-1924.535449,-8808.450710,229.828649
296.661405,-1258.350101,-9474.636058,153.219100
296.661733,-1628.453072,-9178.553681,0.000000
296.662061,-888.247130,-8808.450710,76.609550
296.662388,-444.123565,-8882.471304,306.438199
296.662716,222.061783,-8142.265362,459.657299
296.663043,518.144159,-8956.491898,612.876398
296.663371,592.164754,-8586.388927,842.705048
296.663698,296.082377,-8734.430116,1072.533697
296.664026,1036.288319,-9326.594869,919.314598
296.664353,0.000000,-8956.491898,919.314598
296.664681,1036.288319,-9696.697840,1072.533697
296.665008,296.082377,-9622.677246,306.438199
296.665336,74.020594,-9252.574275,689.485948
296.665664,0.000000,-9548.656652,229.828649
296.665991,0.000000,-9548.656652,383.047749
296.666319,296.082377,-9326.594869,306.438199
296.666646,-592.164754,-9400.615463,0.000000
296.666974,0.000000,-9622.677246,153.219100
296.667301,-444.123565,-9548.656652,76.609550
