#time,accel_x,accel_y,accel_z
514.105200,148.041188,-8956.491898,229.828649
514.105528,-148.041188,-9326.594869,612.876398
514.105856,-148.041188,-9326.594869,536.266849
514.106183,-370.102971,-9030.512492,612.876398
514.106511,-148.041188,-8808.450710,536.266849
514.106839,0.000000,-9252.574275,306.438199
514.107166,-444.123565,-9104.533087,536.266849
514.107494,-222.061783,-9030.512492,383.047749
514.107822,-222.061783,-9104.533087,766.095498
514.108149,-148.041188,-9104.533087,536.266849
514.108477,-370.102971,-9030.512492,306.438199
514.108805,0.000000,-9104.533087,766.095498
514.109132,-296.082377,-9030.512492,536.266849
514.109460,0.000000,-9104.533087,536.266849
514.109788,0.000000,-9104.533087,383.047749
514.110115,-444.123565,-8808.450710,612.876398
514.110443,0.000000,-9104.533087,612.876398
514.110771,-296.082377,-9178.553681,459.657299
514.111098,-370.102971,-9104.533087,612.876398
514.111426,-370.102971,-9178.553681,536.266849
514.111754,-148.041188,-8882.471304,306.438199
514.112081,-148.041188,-8882.471304,842.705048
514.112409,-296.082377,-9178.553681,766.095498
514.112737,-296.082377,-9252.574275,612.876398
514.113064,-370.102971,-9030.512492,689.485948
514.113392,-222.061783,-8808.450710,842.705048
514.113720,-222.061783,-9030.512492,612.876398
514.114047,-148.041188,-9252.574275,919.314598
514.114375,-222.061783,-9178.553681,689.485948
514.114703,-296.082377,-8956.491898,536.266849
514.115030,-444.123565,-9178.553681,842.705048
514.115358,-296.082377,-9252.574275,842.705048
514.115686,-888.247130,-9474.636058,306.438199
514.116013,-1258.350101,-9474.636058,-306.438199
514.116341,-1406.391290,-9400.615463,-153.219100
514.116669,-1036.288319,-9178.553681,-306.438199
514.116996,-518.144159,-8956.491898,0.000000
514.117324,-518.144159,-8808.450710,-459.657299
514.117652,-814.226536,-9178.553681,-383.047749
514.117979,-962.267725,-9326.594869,-766.095498
514.118307,-1184.329507,-9178.553681,-1149.143247
514.118635,-666.185348,-9178.553681,-1225.752797
514.118962,-444.123565,-9252.574275,-995.924147
514.119290,-444.123565,-9104.533087,-1302.362347
514.119618,-296.082377,-9400.615463,-1225.752797
514.119945,0.000000,-9178.553681,-1225.752797
514.120273,0.000000,-9030.512492,-1302.362347
514.120601,222.061783,-9104.533087,-1149.143247
514.120928,148.041188,-9326.594869,-1532.190996
514.121256,74.020594,-9400.615463,-1532.190996
514.121584,296.082377,-9326.594869,-1532.190996
514.121911,296.082377,-9252.574275,-1532.190996
514.122239,0.000000,-8660.409521,-1532.190996
514.122567,518.144159,-9178.553681,-1915.238745
514.122894,296.082377,-9474.636058,-1915.238745
514.123222,444.123565,-9326.594869,-1915.238745
514.123550,74.020594,-9104.533087,-2068.457845
514.123877,222.061783,-9030.512492,-1762.019645
514.124205,296.082377,-8734.430116,-1915.238745
514.124533,222.061783,-9252.574275,-1991.848295
514.124860,74.020594,-9030.512492,-1915.238745
514.125188,-222.061783,-9178.553681,-1915.238745
514.125516,-518.144159,-9030.512492,-2298.286494
514.125843,-740.205942,-8660.409521,-2221.676944
514.126171,-1184.329507,-9104.533087,-2145.067394
514.126499,-962.267725,-9326.594869,-2451.505594
514.126826,-1258.350101,-9178.553681,-2528.115143
514.127154,-1480.411884,-9178.553681,-2604.724693
514.127482,-1924.535449,-8808.450710,-2451.505594
514.127809,-1998.556043,-9030.512492,-3140.991542
514.128137,-2072.576638,-8882.471304,-3294.210641
514.128465,-1924.535449,-9104.533087,-3677.258390
514.128792,-2072.576638,-8956.491898,-4060.306139
514.129120,-1702.473667,-9104.533087,-4136.915689
514.129448,-1406.391290,-8956.491898,-3983.696590
514.129775,-1110.308913,-8808.450710,-3907.087040
514.130103,-666.185348,-8956.491898,-3677.258390
514.130431,222.061783,-9030.512492,-3447.429741
514.130758,814.226536,-8956.491898,-3217.601092
514.131086,1258.350101,-8956.491898,-2298.286494
514.131414,1776.494261,-9178.553681,-2298.286494
514.131741,2072.576638,-9400.615463,-2145.067394
514.132069,1998.556043,-9474.636058,-2068.457845
514.132397,1702.473667,-9992.780217,-2221.676944
514.132724,148.041188,-9918.759623,-2145.067394
514.133052,-962.267725,-10362.883188,-3140.991542
514.133380,-1480.411884,-10510.924376,-3600.648841
514.133708,-1850.514855,-10214.842000,-4290.134789
514.134035,-1924.535449,-9622.677246,-4903.011187
514.134363,-1184.329507,-8438.347739,-4136.915689
514.134691,592.164754,-8142.265362,-4290.134789
514.135018,1702.473667,-7254.018232,-3600.648841
514.135346,2812.782580,-7179.997637,-2757.943793
514.135674,2886.803174,-7624.121203,-2145.067394
514.136001,1332.370696,-8512.368333,-1302.362347
514.136329,296.082377,-9770.718434,-1762.019645
514.136657,-2294.638420,-10288.862594,-2221.676944
514.136984,-3478.967927,-11177.109724,-2451.505594
514.137312,-3997.112087,-11029.068536,-2681.334243
514.137640,-2294.638420,-9992.780217,-1378.971896
514.137967,2590.720797,-7846.182985,-689.485948
514.138295,7254.018232,-5995.668130,1838.629195
514.138623,10510.924376,-5329.482782,3983.696590
514.138950,9548.656652,-6587.832884,4443.353888
514.139278,5551.544565,-9030.512492,4136.915689
514.139606,0.000000,-11103.089130,2451.505594
514.139933,-6291.750507,-13175.665768,0.000000
514.140261,-10214.842000,-14211.954086,-1685.410096
514.140589,-12065.356855,-14137.933492,-3217.601092
514.140916,-10658.965565,-12583.501014,-3677.258390
514.141244,-8956.491898,-9252.574275,-4366.744339
514.141572,-4367.215058,-7550.100608,-2987.772442
514.141899,-1480.411884,-4219.173869,-4213.525239
514.142227,814.226536,-4219.173869,-3983.696590
514.142555,-2146.597232,-5329.482782,-5439.278036
514.142882,-4663.297435,-6735.874072,-6052.154434
514.143210,-10140.821405,-9326.594869,-8273.831378
514.143538,-12065.356855,-9622.677246,-9576.193725
514.143865,-9326.594869,-9918.759623,-8044.002729
514.144193,-6217.729913,-9104.533087,-7048.078582
514.144521,962.267725,-7254.018232,-4903.011187
514.144848,6365.771101,-7105.977043,-3677.258390
514.145176,8956.491898,-7624.121203,-3294.210641
514.145504,8512.368333,-9178.553681,-3524.039291
514.145831,5477.523971,-10658.965565,-5286.058936
514.146159,4589.276840,-11325.150913,-5669.106685
514.146487,5995.668130,-11103.089130,-5745.716235
514.146814,9400.615463,-9474.636058,-3753.867940
514.147142,12657.521608,-9030.512492,-1225.752797
514.147470,12657.521608,-9918.759623,0.000000
514.147797,10214.842000,-10214.842000,-306.438199
514.148125,8216.285956,-11251.130318,0.000000
514.148453,6661.853478,-10955.047942,-2298.286494
514.148780,4219.173869,-10732.986159,-1532.190996
514.149108,4219.173869,-11177.109724,-2068.457845
514.149436,-2072.576638,-12287.418637,-2528.115143
514.149763,-8438.347739,-13397.727550,-4673.182538
514.150091,-13027.624579,-11621.233289,-7201.297681
514.150419,-12657.521608,-7031.956449,-7814.174080
514.150746,-8808.450710,-3478.967927,-7507.735880
514.151074,-814.226536,-1332.370696,-5515.887586
514.151402,1258.350101,-1184.329507,-3294.210641
514.151729,2442.679609,-1628.453072,-3064.381992
514.152057,222.061783,-4145.153275,-1149.143247
514.152385,-2368.659014,-4885.359217,-1378.971896
514.152712,-2886.803174,-7402.059420,-229.828649
514.153040,-3478.967927,-9918.759623,689.485948
514.153368,-3775.050304,-11029.068536,1685.410096
514.153695,-3627.009116,-11991.336260,3217.601092
514.154023,-1258.350101,-11399.171507,4979.620737
514.154351,2368.659014,-9548.656652,5898.935335
514.154678,3775.050304,-9992.780217,4903.011187
514.155006,3552.988522,-11103.089130,3370.820191
514.155334,-370.102971,-12065.356855,766.095498
514.155661,-2220.617826,-11843.295072,-153.219100
514.155989,-1554.432478,-9030.512492,0.000000
514.156317,592.164754,-7550.100608,536.266849
514.156644,2072.576638,-8216.285956,1072.533697
514.156972,370.102971,-9252.574275,689.485948
514.157300,-4145.153275,-10066.800811,1225.752797
514.157627,-5033.400406,-8364.327145,229.828649
514.157955,-4885.359217,-9992.780217,766.095498
514.158283,-4737.318029,-9918.759623,536.266849
514.158610,-5033.400406,-10807.006753,-1072.533697
514.158938,-6069.688724,-10214.842000,-2221.676944
514.159266,-5847.626942,-8956.491898,-2374.896044
514.159593,-3701.029710,-5255.462188,-1915.238745
514.159921,-1184.329507,-5255.462188,-1225.752797
514.160249,222.061783,-6439.791695,-3217.601092
514.160576,518.144159,-8068.244768,-4213.525239
514.160904,1184.329507,-9104.533087,-3370.820191
514.161232,3478.967927,-8216.285956,-3140.991542
514.161559,4367.215058,-8734.430116,-2451.505594
514.161887,4441.235652,-12065.356855,-1608.800546
514.162215,3775.050304,-14434.015869,-612.876398
514.162543,2886.803174,-13619.789333,-995.924147
514.162870,3627.009116,-12213.398043,-306.438199
514.163198,4441.235652,-11399.171507,612.876398
514.163526,3256.906145,-11621.233289,1072.533697
514.163853,3478.967927,-12287.418637,383.047749
514.164181,4737.318029,-10362.883188,1455.581446
514.164509,4885.359217,-8290.306550,919.314598
514.164836,4145.153275,-7624.121203,1302.362347
514.165164,814.226536,-7328.038826,-1302.362347
514.165492,-1628.453072,-8734.430116,-1455.581446
514.165819,-518.144159,-7772.162391,-1762.019645
514.166147,-1998.556043,-6291.750507,-1608.800546
514.166475,-2590.720797,-5921.647536,-842.705048
514.166803,-2960.823768,-7179.997637,-536.266849
514.167130,-2590.720797,-7031.956449,612.876398
514.167458,-2146.597232,-7920.203579,229.828649
514.167786,-518.144159,-7402.059420,1072.533697
514.168113,-2960.823768,-8290.306550,229.828649
514.168441,-4959.379811,-9770.718434,229.828649
514.168769,-6217.729913,-9400.615463,306.438199
514.169097,-5329.482782,-8438.347739,0.000000
514.169424,-2812.782580,-7402.059420,383.047749
514.169752,-1702.473667,-7105.977043,842.705048
514.170080,-518.144159,-8808.450710,1455.581446
514.170407,-222.061783,-9326.594869,1838.629195
514.170735,1036.288319,-7846.182985,1991.848295
514.171063,1406.391290,-8512.368333,1225.752797
514.171390,148.041188,-10066.800811,612.876398
514.171718,-1702.473667,-9770.718434,153.219100
514.172046,-1554.432478,-9252.574275,229.828649
514.172374,296.082377,-8142.265362,1455.581446
514.172701,962.267725,-7476.080014,995.924147
514.173029,1110.308913,-8734.430116,1455.581446
514.173357,1628.453072,-8956.491898,1532.190996
514.173684,1850.514855,-7698.141797,1685.410096
514.174012,2664.741391,-7772.162391,1685.410096
514.174340,2072.576638,-8290.306550,1838.629195
514.174668,666.185348,-9770.718434,459.657299
514.174995,-296.082377,-9992.780217,229.828649
514.175323,888.247130,-9770.718434,1072.533697
514.175651,518.144159,-9400.615463,1455.581446
514.175978,-222.061783,-9104.533087,1455.581446
514.176306,148.041188,-11103.089130,1685.410096
514.176634,814.226536,-10955.047942,1302.362347
514.176961,0.000000,-10066.800811,1072.533697
514.177289,740.205942,-9622.677246,995.924147
514.177617,-1406.391290,-10436.903782,0.000000
514.177945,-4367.215058,-11621.233289,-842.705048
514.178272,-4367.215058,-10436.903782,-536.266849
514.178600,-3256.906145,-8808.450710,-919.314598
514.178928,-1998.556043,-7550.100608,-383.047749
514.179255,-1850.514855,-7328.038826,-995.924147
514.179583,-1480.411884,-8438.347739,0.000000
514.179911,-740.205942,-7846.182985,153.219100
514.180239,-222.061783,-7402.059420,459.657299
514.180566,-148.041188,-9030.512492,536.266849
514.180894,-1702.473667,-10584.944971,995.924147
514.181222,-2368.659014,-10881.027347,153.219100
514.181549,-1554.432478,-10288.862594,689.485948
514.181877,444.123565,-9622.677246,1072.533697
514.182205,1258.350101,-9548.656652,1455.581446
514.182532,1998.556043,-9918.759623,1838.629195
514.182860,3256.906145,-9548.656652,2145.067394
514.183188,2960.823768,-8882.471304,1685.410096
514.183516,2294.638420,-9548.656652,1532.190996
514.183843,1258.350101,-10214.842000,689.485948
514.184171,-296.082377,-10807.006753,612.876398
514.184499,-1628.453072,-10140.821405,153.219100
514.184826,-1184.329507,-9696.697840,689.485948
514.185154,74.020594,-8512.368333,689.485948
514.185482,-1258.350101,-9474.636058,689.485948
514.185809,-888.247130,-8882.471304,383.047749
514.186137,0.000000,-8216.285956,689.485948
514.186465,222.061783,-7698.141797,766.095498
514.186793,296.082377,-7698.141797,306.438199
514.187120,-1332.370696,-8512.368333,-383.047749
514.187448,-2368.659014,-8660.409521,-306.438199
514.187776,-1850.514855,-7179.997637,-459.657299
514.188103,-740.205942,-6883.915261,0.000000
514.188431,0.000000,-6513.812290,153.219100
514.188759,0.000000,-7328.038826,459.657299
514.189087,370.102971,-7698.141797,536.266849
514.189414,1110.308913,-7328.038826,995.924147
514.189742,666.185348,-8216.285956,612.876398
514.190070,-370.102971,-10066.800811,459.657299
514.190397,-2146.597232,-11103.089130,153.219100
514.190725,-2516.700203,-10584.944971,0.000000
514.191053,-962.267725,-9474.636058,0.000000
514.191380,296.082377,-8660.409521,1072.533697
514.191708,222.061783,-9030.512492,306.438199
514.192036,370.102971,-9326.594869,612.876398
514.192364,1258.350101,-7846.182985,383.047749
514.192691,2072.576638,-7698.141797,1302.362347
514.193019,740.205942,-7920.203579,995.924147
514.193347,-296.082377,-9622.677246,383.047749
514.193674,-888.247130,-9474.636058,0.000000
514.194002,-1184.329507,-8808.450710,689.485948
514.194330,222.061783,-7920.203579,919.314598
514.194658,1110.308913,-8216.285956,919.314598
514.194985,444.123565,-8956.491898,842.705048
514.195313,1258.350101,-9326.594869,1608.800546
514.195641,1184.329507,-8808.450710,1532.190996
514.195968,666.185348,-9104.533087,1532.190996
514.196296,-666.185348,-10732.986159,229.828649
514.196624,-2442.679609,-11029.068536,459.657299
514.196951,-3034.844362,-11103.089130,0.000000
514.197279,-2294.638420,-9844.739029,306.438199
514.197607,-1406.391290,-9104.533087,383.047749
514.197935,-1332.370696,-9252.574275,459.657299
514.198262,-666.185348,-9548.656652,383.047749
514.198590,-740.205942,-9104.533087,459.657299
514.198918,518.144159,-8290.306550,612.876398
514.199245,0.000000,-8882.471304,766.095498
514.199573,-1924.535449,-10362.883188,766.095498
514.199901,-2886.803174,-10732.986159,383.047749
514.200229,-3182.885551,-10288.862594,459.657299
514.200556,-2146.597232,-9252.574275,842.705048
514.200884,-1110.308913,-8734.430116,766.095498
514.201212,-592.164754,-9696.697840,766.095498
514.201539,0.000000,-9548.656652,842.705048
514.201867,1332.370696,-8364.327145,1378.971896
514.202195,2368.659014,-8216.285956,1455.581446
514.202522,1628.453072,-9178.553681,1149.143247
514.202850,0.000000,-9992.780217,612.876398
514.203178,-518.144159,-9622.677246,459.657299
514.203506,74.020594,-7994.224174,689.485948
514.203833,888.247130,-8808.450710,919.314598
514.204161,444.123565,-9474.636058,919.314598
514.204489,296.082377,-9918.759623,1072.533697
514.204816,1406.391290,-9622.677246,1455.581446
514.205144,1924.535449,-8512.368333,2374.896044
514.205472,1554.432478,-9474.636058,1838.629195
514.205800,-740.205942,-10584.944971,919.314598
514.206127,-2294.638420,-10436.903782,153.219100
514.206455,-2368.659014,-9104.533087,0.000000
514.206783,-1554.432478,-7476.080014,0.000000
514.207110,-1332.370696,-7179.997637,0.000000
514.207438,-1036.288319,-7698.141797,-536.266849
514.207766,-740.205942,-7698.141797,-689.485948
514.208093,444.123565,-6883.915261,0.000000
514.208421,1406.391290,-6735.874072,536.266849
514.208749,888.247130,-8290.306550,76.609550
514.209077,-740.205942,-9770.718434,-229.828649
514.209404,-1924.535449,-10436.903782,-153.219100
514.209732,-1776.494261,-9622.677246,459.657299
514.210060,-296.082377,-9622.677246,536.266849
514.210387,296.082377,-9622.677246,919.314598
514.210715,222.061783,-10584.944971,689.485948
514.211043,1184.329507,-10066.800811,1225.752797
514.211371,2072.576638,-8660.409521,919.314598
514.211698,2368.659014,-8586.388927,536.266849
514.212026,962.267725,-9252.574275,-612.876398
514.212354,-444.123565,-10066.800811,-229.828649
514.212681,-740.205942,-9252.574275,-459.657299
514.213009,0.000000,-7994.224174,0.000000
514.213337,888.247130,-8068.244768,383.047749
514.213664,666.185348,-8808.450710,536.266849
514.213992,0.000000,-8734.430116,842.705048
514.214320,370.102971,-8956.491898,1378.971896
514.214648,296.082377,-8882.471304,1378.971896
514.214975,-962.267725,-9474.636058,1072.533697
514.215303,-2368.659014,-10881.027347,842.705048
514.215631,-2442.679609,-10362.883188,153.219100
514.215958,-2368.659014,-9030.512492,306.438199
514.216286,-888.247130,-7994.224174,612.876398
514.216614,-444.123565,-7846.182985,306.438199
514.216942,0.000000,-8290.306550,766.095498
514.217269,296.082377,-8734.430116,1072.533697
514.217597,444.123565,-8438.347739,919.314598
514.217925,222.061783,-9474.636058,1072.533697
514.218252,-1554.432478,-10658.965565,536.266849
514.218580,-3256.906145,-11251.130318,229.828649
514.218908,-3478.967927,-10732.986159,0.000000
514.219235,-2368.659014,-9622.677246,842.705048
514.219563,-814.226536,-9030.512492,919.314598
514.219891,-666.185348,-8882.471304,459.657299
514.220219,0.000000,-8586.388927,612.876398
514.220546,1258.350101,-7846.182985,995.924147
514.220874,1776.494261,-7476.080014,919.314598
514.221202,1406.391290,-7772.162391,229.828649
514.221529,0.000000,-9474.636058,612.876398
514.221857,-814.226536,-10140.821405,229.828649
514.222185,-740.205942,-9252.574275,995.924147
514.222513,592.164754,-8808.450710,995.924147
514.222840,1406.391290,-9178.553681,1378.971896
514.223168,1406.391290,-9548.656652,1302.362347
514.223496,2368.659014,-9548.656652,1915.238745
514.223823,3404.947333,-8956.491898,2451.505594
514.224151,2960.823768,-9326.594869,2451.505594
514.224479,1258.350101,-10214.842000,1378.971896
514.224806,-814.226536,-10881.027347,919.314598
514.225134,-1924.535449,-10214.842000,306.438199
514.225462,-1850.514855,-9104.533087,459.657299
514.225790,-1702.473667,-8364.327145,306.438199
514.226117,-1998.556043,-8586.388927,-306.438199
514.226445,-1628.453072,-8512.368333,-306.438199
514.226773,-1036.288319,-7624.121203,-153.219100
514.227100,0.000000,-6883.915261,76.609550
514.227428,-666.185348,-7328.038826,0.000000
514.227756,-2738.761985,-8364.327145,0.000000
514.228084,-3552.988522,-9030.512492,-536.266849
514.228411,-3330.926739,-8142.265362,-536.266849
514.228739,-2368.659014,-7476.080014,-306.438199
514.229067,-962.267725,-8068.244768,383.047749
514.229394,-444.123565,-8660.409521,459.657299
514.229722,666.185348,-8512.368333,842.705048
514.230050,2516.700203,-7698.141797,1455.581446
514.230377,2960.823768,-8142.265362,1838.629195
514.230705,1924.535449,-9474.636058,1915.238745
514.231033,370.102971,-10658.965565,459.657299
514.231361,-888.247130,-10510.924376,536.266849
514.231688,-370.102971,-9474.636058,842.705048
514.232016,0.000000,-9400.615463,459.657299
514.232344,296.082377,-10362.883188,459.657299
514.232671,888.247130,-9548.656652,0.000000
514.232999,592.164754,-8956.491898,536.266849
514.233327,1998.556043,-8290.306550,842.705048
514.233655,962.267725,-9474.636058,306.438199
514.233982,-1036.288319,-10807.006753,0.000000
514.234310,-2220.617826,-10436.903782,-536.266849
514.234638,-2664.741391,-9400.615463,153.219100
514.234965,-1184.329507,-8068.244768,76.609550
514.235293,0.000000,-8142.265362,689.485948
514.235621,518.144159,-8586.388927,1072.533697
514.235948,1036.288319,-8364.327145,1838.629195
514.236276,1628.453072,-8586.388927,1762.019645
514.236604,1110.308913,-9104.533087,1685.410096
514.236932,-518.144159,-10214.842000,766.095498
514.237259,-2516.700203,-11325.150913,306.438199
514.237587,-3256.906145,-10955.047942,-383.047749
514.237915,-2368.659014,-9992.780217,-153.219100
514.238242,-962.267725,-9770.718434,229.828649
514.238570,-962.267725,-9622.677246,229.828649
514.238898,-740.205942,-9770.718434,0.000000
514.239226,-296.082377,-9104.533087,-153.219100
514.239553,518.144159,-8586.388927,0.000000
514.239881,0.000000,-9104.533087,-306.438199
514.240209,-1184.329507,-10066.800811,-536.266849
514.240536,-1998.556043,-9770.718434,-153.219100
514.240864,-1998.556043,-8660.409521,0.000000
514.241192,592.164754,-7624.121203,1149.143247
514.241519,888.247130,-7179.997637,842.705048
514.241847,1554.432478,-8068.244768,1838.629195
514.242175,2516.700203,-7772.162391,2221.676944
514.242503,3034.844362,-7402.059420,2834.553343
514.242830,3701.029710,-7476.080014,3524.039291
514.243158,2812.782580,-8734.430116,2374.896044
514.243486,814.226536,-9770.718434,1838.629195
514.243813,-888.247130,-9844.739029,1685.410096
514.244141,-1406.391290,-8808.450710,1378.971896
514.244469,-1258.350101,-8586.388927,1149.143247
514.244797,-1480.411884,-9030.512492,1072.533697
514.245124,-2368.659014,-9696.697840,153.219100
514.245452,-1702.473667,-8808.450710,0.000000
514.245780,-814.226536,-7698.141797,0.000000
514.246107,-814.226536,-7920.203579,0.000000
514.246435,-2146.597232,-9474.636058,-536.266849
514.246763,-4441.235652,-9474.636058,-1378.971896
514.247090,-4737.318029,-8290.306550,-1225.752797
514.247418,-3404.947333,-7254.018232,-842.705048
514.247746,-2368.659014,-7031.956449,0.000000
514.248074,-1850.514855,-7254.018232,0.000000
514.248401,-296.082377,-7402.059420,919.314598
514.248729,1258.350101,-7105.977043,1302.362347
514.249057,2220.617826,-7031.956449,1608.800546
514.249384,1628.453072,-7698.141797,1225.752797
514.249712,814.226536,-10732.986159,459.657299
514.250040,-592.164754,-10510.924376,229.828649
514.250367,-444.123565,-9992.780217,76.609550
514.250695,1332.370696,-10362.883188,0.000000
514.251023,1184.329507,-10140.821405,-229.828649
514.251351,1628.453072,-11251.130318,0.000000
514.251678,2516.700203,-11251.130318,306.438199
514.252006,2812.782580,-9918.759623,76.609550
514.252334,2368.659014,-10955.047942,153.219100
514.252661,740.205942,-11399.171507,-536.266849
514.252989,-1702.473667,-12287.418637,-766.095498
514.253317,-2146.597232,-11177.109724,-842.705048
514.253645,-1258.350101,-9696.697840,-919.314598
514.253972,-296.082377,-9178.553681,-153.219100
514.254300,-296.082377,-9178.553681,0.000000
514.254628,444.123565,-9030.512492,766.095498
514.254955,1258.350101,-8808.450710,1685.410096
514.255283,2368.659014,-8290.306550,1991.848295
514.255611,740.205942,-8808.450710,1302.362347
514.255938,-740.205942,-9992.780217,842.705048
514.256266,-1332.370696,-9992.780217,689.485948
514.256594,-1628.453072,-8956.491898,459.657299
514.256922,-592.164754,-9104.533087,995.924147
514.257249,-814.226536,-9622.677246,1225.752797
514.257577,-1480.411884,-9992.780217,1225.752797
514.257905,-740.205942,-9918.759623,1225.752797
514.258232,-592.164754,-9696.697840,1302.362347
514.258560,-814.226536,-9844.739029,1225.752797
514.258888,-2516.700203,-11473.192101,306.438199
514.259216,-3404.947333,-11251.130318,0.000000
514.259543,-3478.967927,-10140.821405,153.219100
514.259871,-1702.473667,-8512.368333,612.876398
514.260199,0.000000,-7328.038826,1378.971896
514.260526,1036.288319,-7698.141797,1302.362347
514.260854,1332.370696,-7402.059420,1991.848295
514.261182,1924.535449,-6365.771101,2221.676944
514.261509,2368.659014,-6069.688724,2911.162892
514.261837,1110.308913,-7254.018232,2834.553343
514.262165,-518.144159,-8586.388927,2451.505594
514.262493,-1258.350101,-8660.409521,1915.238745
514.262820,-814.226536,-7402.059420,1455.581446
514.263148,370.102971,-7254.018232,2145.067394
514.263476,370.102971,-7550.100608,1149.143247
514.263803,0.000000,-8364.327145,1302.362347
514.264131,0.000000,-8512.368333,459.657299
514.264458,0.000000,-7994.224174,229.828649
514.264786,0.000000,-8364.327145,-383.047749
514.265114,-1702.473667,-10140.821405,-995.924147
514.265441,-2960.823768,-10807.006753,-1378.971896
514.265769,-3404.947333,-10140.821405,-1532.190996
514.266097,-2590.720797,-8586.388927,-1378.971896
514.266424,-1628.453072,-7698.141797,-995.924147
514.266752,-814.226536,-8216.285956,-1072.533697
514.267080,-296.082377,-8364.327145,-153.219100
514.267407,740.205942,-7698.141797,459.657299
514.267735,1480.411884,-7328.038826,536.266849
514.268063,1554.432478,-7994.224174,689.485948
514.268390,148.041188,-9474.636058,459.657299
514.268718,74.020594,-9326.594869,383.047749
514.269046,666.185348,-9400.615463,919.314598
514.269373,1332.370696,-8734.430116,919.314598
514.269701,1924.535449,-8808.450710,612.876398
514.270029,1554.432478,-10066.800811,306.438199
514.270356,1406.391290,-10584.944971,0.000000
514.270684,2368.659014,-9622.677246,229.828649
514.271012,2516.700203,-9696.697840,76.609550
514.271339,518.144159,-11325.150913,-229.828649
514.271667,-1036.288319,-12583.501014,-536.266849
514.271995,-2294.638420,-11843.295072,-919.314598
514.272322,-2146.597232,-10436.903782,-842.705048
514.272650,-666.185348,-10436.903782,-229.828649
514.272978,-1036.288319,-10362.883188,0.000000
514.273305,-740.205942,-10214.842000,76.609550
514.273633,518.144159,-9622.677246,1072.533697
514.273961,1332.370696,-8512.368333,2298.286494
514.274288,814.226536,-8808.450710,1991.848295
514.274616,-222.061783,-9770.718434,1608.800546
514.274944,-1480.411884,-9918.759623,1149.143247
514.275271,-2072.576638,-9104.533087,1532.190996
514.275599,-1036.288319,-8364.327145,1455.581446
514.275927,-1332.370696,-8438.347739,919.314598
514.276254,-1628.453072,-9178.553681,1378.971896
514.276582,-740.205942,-9178.553681,1378.971896
514.276910,0.000000,-8512.368333,1455.581446
514.277237,148.041188,-8956.491898,1532.190996
514.277565,-592.164754,-10362.883188,919.314598
514.277893,-3182.885551,-10510.924376,0.000000
514.278220,-3404.947333,-10140.821405,-229.828649
514.278548,-2590.720797,-8808.450710,229.828649
514.278876,-1406.391290,-8290.306550,306.438199
514.279203,-1184.329507,-7994.224174,459.657299
514.279531,-222.061783,-8660.409521,1608.800546
514.279859,222.061783,-8142.265362,1762.019645
514.280186,1332.370696,-7550.100608,2451.505594
514.280514,1554.432478,-7920.203579,2374.896044
514.280842,222.061783,-8660.409521,2068.457845
514.281169,-666.185348,-8512.368333,1532.190996
514.281497,-666.185348,-7328.038826,1532.190996
514.281825,-296.082377,-6735.874072,1302.362347
514.282152,518.144159,-6809.894666,919.314598
514.282480,296.082377,-7550.100608,919.314598
514.282808,296.082377,-7772.162391,536.266849
514.283135,444.123565,-7179.997637,536.266849
514.283463,962.267725,-7772.162391,153.219100
514.283791,-814.226536,-9178.553681,-689.485948
514.284118,-3404.947333,-10288.862594,-1685.410096
514.284446,-2590.720797,-10584.944971,-1378.971896
514.284774,-2294.638420,-9104.533087,-1991.848295
514.285101,-888.247130,-8808.450710,-919.314598
514.285429,-222.061783,-9178.553681,-689.485948
514.285756,148.041188,-9622.677246,-689.485948
514.286084,740.205942,-9178.553681,0.000000
514.286412,1924.535449,-8142.265362,229.828649
514.286739,2516.700203,-8586.388927,383.047749
514.287067,1332.370696,-9844.739029,306.438199
514.287395,444.123565,-10436.903782,229.828649
514.287722,222.061783,-9178.553681,689.485948
514.288050,1628.453072,-8882.471304,1149.143247
514.288378,2146.597232,-8956.491898,1149.143247
514.288705,1776.494261,-9474.636058,612.876398
514.289033,1702.473667,-9844.739029,1149.143247
514.289361,2146.597232,-9104.533087,842.705048
514.289688,1406.391290,-9252.574275,306.438199
514.290016,148.041188,-10732.986159,0.000000
514.290344,-2294.638420,-11917.315666,-766.095498
514.290671,-3034.844362,-11251.130318,-1149.143247
514.290999,-2368.659014,-9770.718434,-1149.143247
514.291327,-1332.370696,-9030.512492,-229.828649
514.291654,-1036.288319,-9918.759623,0.000000
514.291982,-740.205942,-9474.636058,0.000000
514.292310,-296.082377,-9326.594869,842.705048
514.292637,518.144159,-8734.430116,1532.190996
514.292965,222.061783,-8734.430116,1532.190996
514.293293,-296.082377,-10214.842000,1762.019645
514.293620,-1776.494261,-10288.862594,1762.019645
514.293948,-2368.659014,-9326.594869,1608.800546
514.294276,-1702.473667,-8660.409521,1991.848295
514.294603,-1184.329507,-8142.265362,2068.457845
514.294931,-1332.370696,-8364.327145,1608.800546
514.295259,-518.144159,-8586.388927,1378.971896
514.295586,0.000000,-7624.121203,1149.143247
514.295914,74.020594,-7550.100608,1072.533697
514.296242,-666.185348,-8956.491898,76.609550
514.296569,-2368.659014,-10066.800811,-459.657299
514.296897,-3627.009116,-10288.862594,-536.266849
514.297225,-3330.926739,-9326.594869,-459.657299
514.297552,-1924.535449,-8438.347739,0.000000
514.297880,-1332.370696,-8956.491898,0.000000
514.298208,-740.205942,-8660.409521,153.219100
514.298535,888.247130,-8586.388927,842.705048
514.298863,1998.556043,-7476.080014,1302.362347
514.299191,2960.823768,-8068.244768,1915.238745
514.299518,2072.576638,-9030.512492,1608.800546
514.299846,888.247130,-9030.512492,1455.581446
514.300174,666.185348,-9252.574275,1302.362347
514.300501,518.144159,-8438.347739,1225.752797
514.300829,1036.288319,-8438.347739,1302.362347
514.301157,962.267725,-9104.533087,842.705048
514.301484,1406.391290,-8734.430116,1072.533697
514.301812,2146.597232,-8068.244768,536.266849
514.302140,2220.617826,-8438.347739,766.095498
514.302467,740.205942,-9252.574275,76.609550
514.302795,-1850.514855,-10807.006753,-1302.362347
514.303123,-3108.864956,-10584.944971,-1991.848295
514.303450,-2590.720797,-9770.718434,-1302.362347
514.303778,-1924.535449,-9178.553681,-1072.533697
514.304106,-962.267725,-9252.574275,-612.876398
514.304433,-592.164754,-9622.677246,-612.876398
514.304761,296.082377,-9178.553681,0.000000
514.305089,1184.329507,-8068.244768,229.828649
514.305416,1258.350101,-8808.450710,459.657299
514.305744,0.000000,-9400.615463,76.609550
514.306072,-1406.391290,-10658.965565,229.828649
514.306399,-1850.514855,-9992.780217,383.047749
514.306727,-666.185348,-8438.347739,1685.410096
514.307054,740.205942,-8586.388927,1455.581446
514.307382,1258.350101,-8512.368333,1762.019645
514.307710,1850.514855,-9326.594869,2298.286494
514.308037,1850.514855,-8882.471304,2068.457845
514.308365,1924.535449,-8364.327145,2221.676944
514.308693,518.144159,-9992.780217,1072.533697
514.309020,-2516.700203,-10955.047942,229.828649
514.309348,-3775.050304,-11177.109724,-229.828649
514.309676,-3182.885551,-9918.759623,0.000000
514.310003,-2368.659014,-8586.388927,0.000000
514.310331,-1480.411884,-8290.306550,536.266849
514.310659,-1850.514855,-8142.265362,0.000000
514.310986,-1258.350101,-8364.327145,229.828649
514.311314,148.041188,-7550.100608,842.705048
514.311642,0.000000,-7105.977043,919.314598
514.311969,0.000000,-8068.244768,1149.143247
514.312297,-1258.350101,-9104.533087,919.314598
514.312625,-2368.659014,-8956.491898,766.095498
514.312952,-1628.453072,-8142.265362,842.705048
514.313280,-444.123565,-7550.100608,1149.143247
514.313608,-222.061783,-7624.121203,919.314598
514.313935,370.102971,-8956.491898,1455.581446
514.314263,1258.350101,-8512.368333,1455.581446
514.314591,1924.535449,-7846.182985,1149.143247
514.314918,1850.514855,-8734.430116,1072.533697
514.315246,370.102971,-9696.697840,229.828649
514.315574,-1480.411884,-10436.903782,-1378.971896
514.315901,-1702.473667,-10066.800811,-995.924147
514.316229,-1036.288319,-9178.553681,-689.485948
514.316557,-222.061783,-9400.615463,-536.266849
514.316884,-296.082377,-10214.842000,-459.657299
514.317212,666.185348,-9844.739029,-229.828649
514.317540,2146.597232,-8808.450710,766.095498
514.317867,2442.679609,-8882.471304,1455.581446
514.318195,1332.370696,-10140.821405,1302.362347
514.318523,-148.041188,-10584.944971,612.876398
514.318850,-1332.370696,-9696.697840,536.266849
514.319178,-1036.288319,-8142.265362,459.657299
514.319506,814.226536,-8364.327145,919.314598
514.319833,1406.391290,-8290.306550,1225.752797
514.320161,1850.514855,-8512.368333,1378.971896
514.320489,2368.659014,-7994.224174,1762.019645
514.320816,2072.576638,-7994.224174,1378.971896
514.321144,666.185348,-9400.615463,995.924147
514.321472,-1924.535449,-10658.965565,-306.438199
514.321799,-3256.906145,-11177.109724,-1072.533697
514.322127,-3552.988522,-10362.883188,-536.266849
514.322455,-2516.700203,-9474.636058,0.000000
514.322782,-1998.556043,-9030.512492,-383.047749
514.323110,-1924.535449,-9474.636058,-306.438199
514.323438,-814.226536,-9400.615463,0.000000
514.323765,-222.061783,-8882.471304,612.876398
514.324093,444.123565,-7994.224174,995.924147
514.324421,-962.267725,-9474.636058,612.876398
514.324748,-2664.741391,-11177.109724,766.095498
514.325076,-2960.823768,-10214.842000,459.657299
514.325404,-1776.494261,-9178.553681,995.924147
514.325731,-148.041188,-7772.162391,1608.800546
514.326059,814.226536,-8068.244768,1838.629195
514.326387,1110.308913,-9178.553681,1991.848295
514.326714,1184.329507,-8438.347739,2145.067394
514.327042,1628.453072,-7846.182985,2145.067394
514.327370,1776.494261,-9400.615463,2298.286494
514.327697,-444.123565,-10214.842000,766.095498
514.328025,-2368.659014,-10584.944971,153.219100
514.328352,-1850.514855,-9770.718434,0.000000
514.328680,-1554.432478,-9178.553681,229.828649
514.329008,-740.205942,-9104.533087,76.609550
514.329335,-592.164754,-9400.615463,0.000000
514.329663,0.000000,-9400.615463,0.000000
514.329991,1110.308913,-8142.265362,536.266849
514.330318,1554.432478,-7920.203579,536.266849
514.330646,1184.329507,-8956.491898,995.924147
514.330974,74.020594,-9844.739029,383.047749
514.331301,-1702.473667,-9400.615463,76.609550
514.331629,-1702.473667,-8512.368333,612.876398
514.331957,-370.102971,-8364.327145,842.705048
514.332284,-296.082377,-8142.265362,536.266849
514.332612,0.000000,-8142.265362,383.047749
514.332940,1184.329507,-8216.285956,1378.971896
514.333267,2072.576638,-7550.100608,1149.143247
514.333595,2220.617826,-7550.100608,919.314598
514.333923,888.247130,-9326.594869,306.438199
514.334250,-1036.288319,-10214.842000,-383.047749
514.334578,-1406.391290,-10362.883188,-842.705048
514.334906,-1036.288319,-9474.636058,-459.657299
514.335233,0.000000,-9474.636058,-383.047749
514.335561,-666.185348,-9918.759623,0.000000
514.335889,148.041188,-10288.862594,842.705048
514.336216,814.226536,-9696.697840,612.876398
514.336544,1184.329507,-9252.574275,995.924147
514.336872,370.102971,-9474.636058,612.876398
514.337199,-1332.370696,-9844.739029,229.828649
514.337527,-2368.659014,-9696.697840,-383.047749
514.337855,-1406.391290,-8142.265362,0.000000
514.338182,0.000000,-7402.059420,612.876398
514.338510,592.164754,-7031.956449,919.314598
514.338838,1258.350101,-7328.038826,1149.143247
514.339165,1480.411884,-7550.100608,1685.410096
514.339493,2072.576638,-7402.059420,1915.238745
514.339821,740.205942,-8216.285956,1608.800546
514.340148,-1480.411884,-9622.677246,229.828649
514.340476,-2738.761985,-10436.903782,0.000000
514.340804,-2886.803174,-10214.842000,0.000000
514.341131,-1850.514855,-9252.574275,612.876398
514.341459,-888.247130,-8290.306550,995.924147
514.341787,-444.123565,-9252.574275,842.705048
514.342114,-962.267725,-9622.677246,919.314598
514.342442,-296.082377,-8956.491898,689.485948
514.342770,296.082377,-8216.285956,536.266849
514.343097,0.000000,-8956.491898,842.705048
514.343425,-1850.514855,-10140.821405,229.828649
514.343753,-2590.720797,-10288.862594,0.000000
514.344080,-2294.638420,-8808.450710,459.657299
514.344408,-370.102971,-7254.018232,919.314598
514.344736,1110.308913,-7698.141797,1302.362347
514.345063,592.164754,-8808.450710,1225.752797
514.345391,592.164754,-8586.388927,1532.190996
514.345719,740.205942,-8364.327145,1225.752797
514.346046,592.164754,-8586.388927,995.924147
514.346374,-296.082377,-9622.677246,919.314598
514.346702,-1924.535449,-10510.924376,-306.438199
514.347029,-1628.453072,-9918.759623,-306.438199
514.347357,-370.102971,-8512.368333,153.219100
514.347685,666.185348,-8734.430116,306.438199
514.348012,0.000000,-9252.574275,153.219100
514.348340,0.000000,-9474.636058,-536.266849
514.348667,814.226536,-9992.780217,0.000000
514.348995,1258.350101,-9622.677246,536.266849
514.349323,962.267725,-10436.903782,229.828649
514.349650,0.000000,-11473.192101,306.438199
514.349978,-1258.350101,-11547.212695,153.219100
514.350306,-1924.535449,-10140.821405,0.000000
514.350633,-296.082377,-9548.656652,229.828649
514.350961,-296.082377,-9548.656652,153.219100
514.351289,0.000000,-9474.636058,76.609550
514.351616,74.020594,-8882.471304,306.438199
514.351944,1554.432478,-8512.368333,766.095498
514.352272,2220.617826,-8808.450710,1072.533697
514.352599,1036.288319,-9474.636058,842.705048
514.352927,0.000000,-10140.821405,536.266849
514.353255,-1036.288319,-9622.677246,383.047749
514.353582,0.000000,-9178.553681,919.314598
514.353910,-296.082377,-8956.491898,612.876398
514.354238,-296.082377,-9474.636058,689.485948
514.354565,-148.041188,-9622.677246,612.876398
514.354893,962.267725,-9474.636058,1302.362347
514.355221,2072.576638,-8808.450710,2298.286494
514.355548,1258.350101,-9400.615463,1991.848295
514.355876,-518.144159,-10807.006753,1302.362347
514.356204,-2516.700203,-10807.006753,536.266849
514.356531,-3108.864956,-9844.739029,76.609550
514.356859,-2368.659014,-7846.182985,842.705048
514.357187,-2072.576638,-7920.203579,536.266849
514.357514,-1776.494261,-8586.388927,612.876398
514.357842,-1480.411884,-8142.265362,842.705048
514.358170,-740.205942,-7254.018232,995.924147
514.358497,-148.041188,-6883.915261,842.705048
514.358825,-1406.391290,-8068.244768,229.828649
514.359153,-3108.864956,-8956.491898,-689.485948
514.359480,-2738.761985,-8290.306550,-766.095498
514.359808,-1480.411884,-6957.935855,-229.828649
514.360136,148.041188,-6809.894666,612.876398
514.360463,518.144159,-7698.141797,689.485948
514.360791,888.247130,-8364.327145,919.314598
514.361119,1850.514855,-8142.265362,1302.362347
514.361446,2220.617826,-8216.285956,1302.362347
514.361774,1850.514855,-9474.636058,612.876398
514.362102,-296.082377,-10881.027347,306.438199
514.362429,-1184.329507,-11103.089130,-229.828649
514.362757,-444.123565,-9918.759623,0.000000
514.363085,888.247130,-8438.347739,383.047749
514.363412,1406.391290,-8734.430116,842.705048
514.363740,666.185348,-9400.615463,995.924147
514.364067,1332.370696,-8956.491898,766.095498
514.364395,962.267725,-8216.285956,383.047749
514.364722,1628.453072,-7920.203579,383.047749
514.365050,666.185348,-8660.409521,229.828649
514.365378,-740.205942,-9474.636058,76.609550
514.365705,-1702.473667,-9252.574275,-229.828649
514.366033,-1184.329507,-8438.347739,383.047749
514.366360,-518.144159,-7772.162391,842.705048
514.366688,-740.205942,-8512.368333,689.485948
514.367015,-962.267725,-9104.533087,459.657299
514.367343,-222.061783,-8808.450710,919.314598
514.367670,518.144159,-8438.347739,995.924147
514.367998,518.144159,-8512.368333,1072.533697
514.368325,-148.041188,-9992.780217,1072.533697
514.368653,-1332.370696,-10214.842000,1072.533697
514.368981,-1924.535449,-9400.615463,459.657299
514.369308,-1332.370696,-9474.636058,536.266849
514.369636,-814.226536,-9252.574275,689.485948
514.369963,-1406.391290,-9326.594869,153.219100
514.370291,-518.144159,-10140.821405,536.266849
514.370618,222.061783,-9400.615463,919.314598
514.370946,740.205942,-8586.388927,1072.533697
514.371273,740.205942,-9252.574275,1149.143247
514.371601,-1184.329507,-9696.697840,766.095498
514.371929,-1998.556043,-9770.718434,459.657299
514.372256,-1110.308913,-8586.388927,306.438199
514.372584,-518.144159,-7920.203579,459.657299
514.372911,-148.041188,-8438.347739,383.047749
514.373239,0.000000,-9104.533087,842.705048
514.373566,888.247130,-8586.388927,766.095498
514.373894,1924.535449,-8216.285956,2221.676944
514.374221,2368.659014,-8882.471304,2068.457845
514.374549,148.041188,-10658.965565,1608.800546
514.374876,-2146.597232,-11325.150913,459.657299
514.375204,-2960.823768,-10955.047942,229.828649
514.375532,-2590.720797,-9918.759623,229.828649
514.375859,-1258.350101,-8808.450710,0.000000
514.376187,-1332.370696,-9918.759623,-153.219100
514.376514,-888.247130,-9474.636058,0.000000
514.376842,-592.164754,-8438.347739,-153.219100
514.377169,370.102971,-8142.265362,-383.047749
514.377497,-370.102971,-8438.347739,-1225.752797
514.377824,-1850.514855,-9918.759623,-1302.362347
514.378152,-2368.659014,-9696.697840,-1532.190996
514.378479,-2146.597232,-8660.409521,-1072.533697
514.378807,-444.123565,-8142.265362,-383.047749
514.379135,814.226536,-8364.327145,383.047749
514.379462,1628.453072,-8956.491898,612.876398
514.379790,2146.597232,-8586.388927,1532.190996
514.380117,2738.761985,-8216.285956,1915.238745
514.380445,2368.659014,-8734.430116,1762.019645
514.380772,740.205942,-9548.656652,1225.752797
514.381100,-592.164754,-10510.924376,919.314598
514.381427,-666.185348,-9622.677246,306.438199
514.381755,592.164754,-8956.491898,612.876398
514.382082,1998.556043,-8512.368333,1072.533697
514.382410,1628.453072,-8660.409521,842.705048
514.382738,1406.391290,-9400.615463,1838.629195
514.383065,1332.370696,-9400.615463,1225.752797
514.383393,592.164754,-9030.512492,842.705048
514.383720,-296.082377,-10066.800811,766.095498
514.384048,-1480.411884,-10955.047942,536.266849
514.384375,-2886.803174,-9622.677246,689.485948
514.384703,-1554.432478,-8956.491898,766.095498
514.385030,-592.164754,-8438.347739,1225.752797
514.385358,-814.226536,-8142.265362,1302.362347
514.385686,-444.123565,-8660.409521,1838.629195
514.386013,-148.041188,-8142.265362,1455.581446
514.386341,0.000000,-7254.018232,1915.238745
514.386668,592.164754,-8216.285956,2221.676944
514.386996,-1184.329507,-9400.615463,1532.190996
514.387323,-2738.761985,-9548.656652,612.876398
514.387651,-2516.700203,-9178.553681,689.485948
514.387978,-2220.617826,-8882.471304,536.266849
514.388306,-1110.308913,-8512.368333,306.438199
514.388633,-888.247130,-8882.471304,229.828649
514.388961,-1258.350101,-9770.718434,0.000000
514.389289,-592.164754,-9400.615463,306.438199
514.389616,370.102971,-9474.636058,383.047749
514.389944,0.000000,-9844.739029,306.438199
514.390271,-1332.370696,-10584.944971,-153.219100
514.390599,-1850.514855,-11325.150913,-229.828649
514.390926,-1850.514855,-9770.718434,-383.047749
514.391254,0.000000,-8808.450710,0.000000
514.391581,296.082377,-7846.182985,153.219100
514.391909,888.247130,-8364.327145,306.438199
514.392236,2146.597232,-7624.121203,612.876398
514.392564,3256.906145,-7105.977043,1149.143247
514.392892,3552.988522,-7624.121203,1915.238745
514.393219,2072.576638,-8734.430116,1685.410096
514.393547,74.020594,-10510.924376,995.924147
514.393874,-888.247130,-10436.903782,689.485948
514.394202,-888.247130,-9770.718434,383.047749
514.394529,-666.185348,-9252.574275,383.047749
514.394857,-1110.308913,-9252.574275,153.219100
514.395184,-592.164754,-9696.697840,-383.047749
514.395512,74.020594,-8364.327145,-306.438199
514.395839,666.185348,-7254.018232,-306.438199
514.396167,888.247130,-8216.285956,-612.876398
514.396495,-370.102971,-9400.615463,-1225.752797
514.396822,-2664.741391,-9474.636058,-1225.752797
514.397150,-2960.823768,-9030.512492,-1072.533697
514.397477,-2072.576638,-8586.388927,-459.657299
514.397805,-1036.288319,-9252.574275,153.219100
514.398132,-444.123565,-9326.594869,766.095498
514.398460,74.020594,-9178.553681,1302.362347
514.398787,1850.514855,-8512.368333,2451.505594
514.399115,2368.659014,-8660.409521,2604.724693
514.399443,1702.473667,-9770.718434,2374.896044
514.399770,370.102971,-10066.800811,1532.190996
514.400098,-666.185348,-9548.656652,766.095498
514.400425,-370.102971,-8882.471304,842.705048
514.400753,370.102971,-8586.388927,306.438199
514.401080,0.000000,-9474.636058,153.219100
514.401408,296.082377,-9622.677246,459.657299
514.401735,444.123565,-9030.512492,1225.752797
514.402063,370.102971,-9326.594869,919.314598
514.402390,-148.041188,-9770.718434,612.876398
514.402718,-1850.514855,-11029.068536,153.219100
514.403046,-3108.864956,-11103.089130,-306.438199
514.403373,-3108.864956,-9252.574275,306.438199
514.403701,-2590.720797,-8586.388927,76.609550
514.404028,-962.267725,-8438.347739,612.876398
514.404356,-1406.391290,-8438.347739,612.876398
514.404683,-444.123565,-7920.203579,919.314598
514.405011,1258.350101,-6883.915261,1915.238745
514.405338,1332.370696,-7550.100608,1991.848295
514.405666,592.164754,-8660.409521,1685.410096
514.405993,-1036.288319,-9622.677246,766.095498
514.406321,-1628.453072,-9252.574275,229.828649
514.406649,-1110.308913,-8882.471304,229.828649
514.406976,74.020594,-8364.327145,995.924147
514.407304,148.041188,-8734.430116,459.657299
514.407631,370.102971,-9548.656652,536.266849
514.407959,888.247130,-9326.594869,459.657299
514.408286,962.267725,-9104.533087,612.876398
514.408614,888.247130,-10066.800811,306.438199
514.408941,-740.205942,-11251.130318,-229.828649
514.409269,-2146.597232,-11029.068536,-536.266849
514.409596,-1776.494261,-9770.718434,-689.485948
514.409924,-370.102971,-8734.430116,0.000000
514.410252,666.185348,-7994.224174,383.047749
514.410579,1332.370696,-8142.265362,459.657299
514.410907,1702.473667,-8364.327145,1302.362347
514.411234,1850.514855,-7994.224174,1685.410096
514.411562,2220.617826,-7920.203579,1838.629195
514.411889,1184.329507,-9104.533087,1149.143247
514.412217,-1036.288319,-9770.718434,1072.533697
514.412544,-1702.473667,-10140.821405,842.705048
514.412872,-1702.473667,-9326.594869,689.485948
514.413200,-1036.288319,-8512.368333,536.266849
514.413527,-592.164754,-8290.306550,842.705048
514.413855,-592.164754,-8512.368333,76.609550
514.414182,-518.144159,-8882.471304,0.000000
514.414510,0.000000,-8364.327145,0.000000
514.414837,-370.102971,-8364.327145,0.000000
514.415165,-1628.453072,-9474.636058,-306.438199
514.415492,-2738.761985,-9696.697840,-689.485948
514.415820,-3108.864956,-9400.615463,-612.876398
514.416147,-2072.576638,-8882.471304,0.000000
514.416475,-888.247130,-8882.471304,229.828649
514.416803,-666.185348,-9030.512492,383.047749
514.417130,1036.288319,-8660.409521,1762.019645
514.417458,2220.617826,-8364.327145,1991.848295
514.417785,2072.576638,-8068.244768,2298.286494
514.418113,1924.535449,-8808.450710,1991.848295
514.418440,592.164754,-9622.677246,1685.410096
514.418768,444.123565,-8808.450710,1072.533697
514.419095,0.000000,-8734.430116,1149.143247
514.419423,962.267725,-8438.347739,1608.800546
514.419750,592.164754,-8512.368333,995.924147
514.420078,74.020594,-9548.656652,995.924147
514.420406,444.123565,-9326.594869,1225.752797
514.420733,-296.082377,-8882.471304,766.095498
514.421061,-296.082377,-9992.780217,383.047749
514.421388,-2590.720797,-11029.068536,-995.924147
514.421716,-3775.050304,-11399.171507,-1302.362347
514.422043,-3775.050304,-9992.780217,-1532.190996
514.422371,-1776.494261,-9030.512492,-766.095498
514.422698,-592.164754,-8068.244768,-459.657299
514.423026,444.123565,-8290.306550,0.000000
514.423353,1110.308913,-8808.450710,612.876398
514.423681,1258.350101,-8586.388927,1072.533697
514.424009,1554.432478,-8586.388927,1302.362347
514.424336,888.247130,-9696.697840,1685.410096
514.424664,-296.082377,-10807.006753,1225.752797
514.424991,-888.247130,-10732.986159,1225.752797
514.425319,-370.102971,-9696.697840,1378.971896
514.425646,592.164754,-9548.656652,1915.238745
514.425974,962.267725,-10140.821405,2145.067394
514.426301,296.082377,-9992.780217,1225.752797
514.426629,518.144159,-9992.780217,919.314598
514.426957,518.144159,-9400.615463,0.000000
514.427284,74.020594,-9400.615463,842.705048
514.427612,-1036.288319,-9622.677246,153.219100
514.427939,-2368.659014,-10510.924376,-536.266849
514.428267,-2738.761985,-9770.718434,-612.876398
514.428594,-2072.576638,-8734.430116,-306.438199
514.428922,-1110.308913,-7846.182985,-229.828649
514.429249,0.000000,-7698.141797,383.047749
514.429577,0.000000,-8512.368333,612.876398
514.429904,296.082377,-7772.162391,1378.971896
514.430232,888.247130,-7550.100608,1991.848295
514.430560,1406.391290,-7846.182985,2145.067394
514.430887,222.061783,-8290.306550,2068.457845
514.431215,-444.123565,-8438.347739,1378.971896
514.431542,-518.144159,-7920.203579,1455.581446
514.431870,0.000000,-7254.018232,1378.971896
514.432197,592.164754,-7846.182985,1225.752797
514.432525,148.041188,-8216.285956,689.485948
514.432852,0.000000,-8808.450710,689.485948
514.433180,222.061783,-8586.388927,536.266849
514.433507,74.020594,-8660.409521,153.219100
514.433835,-592.164754,-9326.594869,-459.657299
514.434163,-1924.535449,-9770.718434,-995.924147
514.434490,-2960.823768,-9844.739029,-919.314598
514.434818,-2590.720797,-8956.491898,-1225.752797
514.435145,-1332.370696,-8290.306550,-689.485948
514.435473,-814.226536,-8512.368333,-306.438199
514.435800,0.000000,-9104.533087,229.828649
514.436128,592.164754,-8142.265362,1608.800546
514.436455,2294.638420,-8290.306550,1838.629195
514.436783,1998.556043,-8364.327145,2145.067394
514.437110,444.123565,-9104.533087,1532.190996
514.437438,-444.123565,-9696.697840,919.314598
514.437766,-148.041188,-8512.368333,995.924147
514.438093,296.082377,-8142.265362,1225.752797
514.438421,814.226536,-7920.203579,842.705048
514.438748,740.205942,-9474.636058,612.876398
514.439076,1036.288319,-9918.759623,612.876398
514.439403,888.247130,-9474.636058,1149.143247
514.439731,666.185348,-9474.636058,383.047749
514.440058,-370.102971,-10584.944971,0.000000
514.440386,-2664.741391,-11399.171507,-842.705048
514.440714,-3849.070898,-10658.965565,-1532.190996
514.441041,-3330.926739,-9548.656652,-1302.362347
514.441369,-1850.514855,-8438.347739,-1225.752797
514.441696,-1480.411884,-9178.553681,-536.266849
514.442024,-1036.288319,-9400.615463,-306.438199
514.442351,0.000000,-8808.450710,229.828649
514.442679,1184.329507,-7772.162391,766.095498
514.443006,1702.473667,-8068.244768,1072.533697
514.443334,518.144159,-9548.656652,1072.533697
514.443661,-592.164754,-10140.821405,995.924147
514.443989,-888.247130,-9696.697840,919.314598
514.444317,222.061783,-9178.553681,1378.971896
514.444644,888.247130,-8660.409521,1378.971896
514.444972,740.205942,-9326.594869,995.924147
514.445299,1184.329507,-9992.780217,995.924147
514.445627,1036.288319,-9474.636058,995.924147
514.445954,1406.391290,-9474.636058,766.095498
514.446282,0.000000,-10510.924376,-306.438199
514.446609,-1480.411884,-10955.047942,0.000000
514.446937,-2738.761985,-10881.027347,-1225.752797
514.447264,-2146.597232,-9474.636058,-536.266849
514.447592,-814.226536,-9178.553681,76.609550
514.447920,74.020594,-9326.594869,459.657299
514.448247,222.061783,-9474.636058,1225.752797
514.448575,962.267725,-8882.471304,1685.410096
514.448902,1184.329507,-8660.409521,1838.629195
514.449230,888.247130,-9252.574275,2221.676944
514.449557,-814.226536,-9992.780217,1608.800546
514.449885,-1850.514855,-9548.656652,1685.410096
514.450212,-1258.350101,-9030.512492,1608.800546
514.450540,-888.247130,-7698.141797,1455.581446
514.450867,0.000000,-7994.224174,1762.019645
514.451195,0.000000,-8660.409521,1225.752797
514.451523,-222.061783,-8512.368333,919.314598
514.451850,0.000000,-8142.265362,766.095498
514.452178,0.000000,-8956.491898,612.876398
514.452505,-666.185348,-10214.842000,229.828649
514.452833,-2368.659014,-11473.192101,-689.485948
514.453160,-2812.782580,-11251.130318,-1072.533697
514.453488,-2368.659014,-9474.636058,0.000000
514.453815,-740.205942,-8734.430116,0.000000
514.454143,74.020594,-9104.533087,0.000000
514.454471,666.185348,-8956.491898,76.609550
514.454798,1184.329507,-8734.430116,536.266849
514.455126,2220.617826,-7994.224174,1225.752797
514.455453,2072.576638,-8142.265362,1532.190996
514.455781,1036.288319,-9178.553681,1225.752797
514.456108,74.020594,-9844.739029,919.314598
514.456436,-296.082377,-9030.512492,1149.143247
514.456763,148.041188,-7994.224174,1072.533697
514.457091,666.185348,-7698.141797,689.485948
514.457418,444.123565,-8438.347739,689.485948
514.457746,962.267725,-8364.327145,612.876398
514.458074,1184.329507,-8142.265362,76.609550
514.458401,1480.411884,-8216.285956,229.828649
514.458729,74.020594,-9104.533087,0.000000
514.459056,-1850.514855,-10140.821405,-919.314598
514.459384,-2960.823768,-9844.739029,-1302.362347
514.459711,-2738.761985,-8660.409521,-1225.752797
514.460039,-1776.494261,-8438.347739,-995.924147
514.460366,-1776.494261,-8216.285956,-459.657299
514.460694,-1480.411884,-8808.450710,-229.828649
514.461021,-296.082377,-8290.306550,153.219100
514.461349,962.267725,-7920.203579,842.705048
514.461677,1628.453072,-7920.203579,1072.533697
514.462004,74.020594,-8808.450710,1149.143247
514.462332,-592.164754,-9474.636058,612.876398
514.462659,-1036.288319,-8512.368333,766.095498
514.462987,-148.041188,-7920.203579,1072.533697
514.463314,888.247130,-8364.327145,1455.581446
514.463642,962.267725,-8216.285956,1608.800546
514.463969,1628.453072,-8956.491898,1608.800546
514.464297,1924.535449,-8660.409521,1685.410096
514.464625,1702.473667,-8512.368333,1532.190996
514.464952,888.247130,-9844.739029,1072.533697
514.465280,-1554.432478,-11177.109724,383.047749
514.465607,-2590.720797,-10658.965565,-306.438199
514.465935,-3330.926739,-9844.739029,-536.266849
514.466262,-2738.761985,-9104.533087,-306.438199
514.466590,-2368.659014,-9252.574275,0.000000
514.466917,-1702.473667,-9400.615463,383.047749
514.467245,-962.267725,-8956.491898,842.705048
514.467573,-370.102971,-8512.368333,1149.143247
514.467900,74.020594,-8882.471304,1608.800546
514.468228,-1110.308913,-9178.553681,1072.533697
514.468555,-1998.556043,-9844.739029,689.485948
514.468883,-2146.597232,-9030.512492,919.314598
514.469210,-1258.350101,-8290.306550,1302.362347
514.469538,-518.144159,-7476.080014,1378.971896
514.469865,370.102971,-8068.244768,1532.190996
514.470193,962.267725,-8438.347739,1302.362347
514.470521,1110.308913,-8142.265362,2068.457845
514.470848,2368.659014,-8734.430116,1302.362347
514.471176,1332.370696,-9474.636058,842.705048
514.471503,-888.247130,-10732.986159,76.609550
514.471831,-2146.597232,-11473.192101,0.000000
514.472158,-2146.597232,-10510.924376,0.000000
514.472486,-1628.453072,-9918.759623,-383.047749
514.472813,-1480.411884,-10288.862594,-306.438199
514.473141,-888.247130,-9770.718434,-612.876398
514.473469,666.185348,-9548.656652,229.828649
514.473796,1258.350101,-8734.430116,459.657299
514.474124,1924.535449,-8734.430116,459.657299
514.474451,1184.329507,-9622.677246,842.705048
514.474779,-444.123565,-9622.677246,536.266849
514.475106,-814.226536,-8956.491898,383.047749
514.475434,-740.205942,-8438.347739,536.266849
514.475761,592.164754,-8586.388927,1225.752797
514.476089,666.185348,-8216.285956,1149.143247
514.476416,1184.329507,-8956.491898,1608.800546
514.476744,1776.494261,-8438.347739,1838.629195
514.477072,1258.350101,-8512.368333,1838.629195
514.477399,888.247130,-9474.636058,842.705048
514.477727,-1110.308913,-10510.924376,383.047749
514.478054,-2516.700203,-10807.006753,-689.485948
514.478382,-2590.720797,-9548.656652,-919.314598
514.478709,-1924.535449,-8882.471304,-842.705048
514.479037,-1776.494261,-8734.430116,-766.095498
514.479364,-962.267725,-8660.409521,-306.438199
514.479692,296.082377,-8438.347739,229.828649
514.480020,814.226536,-7772.162391,306.438199
514.480347,740.205942,-8512.368333,536.266849
514.480675,0.000000,-9252.574275,1302.362347
514.481002,-888.247130,-9992.780217,459.657299
514.481330,-1332.370696,-9252.574275,383.047749
514.481657,-666.185348,-8438.347739,766.095498
514.481985,444.123565,-8216.285956,1149.143247
514.482312,888.247130,-7994.224174,1225.752797
514.482640,1776.494261,-8438.347739,1532.190996
514.482968,1998.556043,-7994.224174,1532.190996
514.483295,1776.494261,-7994.224174,1532.190996
514.483623,1628.453072,-9474.636058,1225.752797
514.483950,-666.185348,-9992.780217,76.609550
514.484278,-1628.453072,-10362.883188,-383.047749
514.484605,-2072.576638,-9548.656652,-383.047749
514.484933,-1776.494261,-9844.739029,-459.657299
514.485260,-1332.370696,-9770.718434,-306.438199
514.485588,-1480.411884,-10066.800811,0.000000
514.485916,-888.247130,-9474.636058,153.219100
514.486243,-296.082377,-8734.430116,306.438199
514.486571,518.144159,-9622.677246,536.266849
514.486898,-592.164754,-10214.842000,383.047749
514.487226,-1554.432478,-9770.718434,0.000000
514.487553,-1332.370696,-9030.512492,0.000000
514.487881,-814.226536,-7772.162391,-153.219100
514.488208,0.000000,-7624.121203,536.266849
514.488536,296.082377,-7772.162391,536.266849
514.488864,740.205942,-8290.306550,919.314598
514.489191,1036.288319,-8142.265362,1149.143247
514.489519,1850.514855,-8882.471304,1838.629195
514.489846,1110.308913,-9548.656652,1302.362347
514.490174,-444.123565,-10732.986159,612.876398
514.490501,-1110.308913,-10658.965565,0.000000
514.490829,-1480.411884,-9992.780217,0.000000
514.491156,-740.205942,-9770.718434,689.485948
514.491484,-296.082377,-9326.594869,536.266849
514.491812,-222.061783,-9696.697840,459.657299
514.492139,148.041188,-9400.615463,766.095498
514.492467,962.267725,-8882.471304,1072.533697
514.492794,1036.288319,-8956.491898,1378.971896
514.493122,0.000000,-9252.574275,1455.581446
514.493449,-1258.350101,-10140.821405,842.705048
514.493777,-1850.514855,-9622.677246,995.924147
514.494104,-1776.494261,-8956.491898,766.095498
514.494432,-1332.370696,-9104.533087,1149.143247
514.494760,-962.267725,-8364.327145,1455.581446
514.495087,-740.205942,-7920.203579,766.095498
514.495415,370.102971,-7994.224174,1378.971896
514.495742,962.267725,-7920.203579,1455.581446
514.496070,370.102971,-8512.368333,1149.143247
514.496397,-592.164754,-9400.615463,612.876398
514.496725,-1850.514855,-9622.677246,-306.438199
514.497052,-1924.535449,-8956.491898,-383.047749
514.497380,-1406.391290,-8734.430116,0.000000
514.497708,-888.247130,-8808.450710,0.000000
514.498035,-592.164754,-9252.574275,0.000000
514.498363,-370.102971,-9104.533087,153.219100
514.498690,222.061783,-8512.368333,536.266849
514.499018,666.185348,-9104.533087,919.314598
514.499345,518.144159,-10066.800811,766.095498
514.499673,-1332.370696,-10584.944971,153.219100
514.500000,-1776.494261,-9326.594869,0.000000
514.500328,-1184.329507,-8882.471304,153.219100
514.500655,-222.061783,-8512.368333,459.657299
514.500983,370.102971,-8438.347739,459.657299
514.501311,1036.288319,-8438.347739,919.314598
514.501638,1776.494261,-7254.018232,1302.362347
514.501966,2072.576638,-7476.080014,1532.190996
514.502293,1480.411884,-8068.244768,1149.143247
514.502621,0.000000,-9326.594869,383.047749
514.502948,-1628.453072,-9474.636058,153.219100
514.503276,-1628.453072,-8438.347739,76.609550
514.503603,-1480.411884,-8660.409521,153.219100
514.503931,-1110.308913,-9252.574275,306.438199
514.504259,-1110.308913,-9326.594869,306.438199
514.504586,-814.226536,-9474.636058,229.828649
514.504914,0.000000,-8438.347739,229.828649
514.505241,1036.288319,-8882.471304,766.095498
514.505569,296.082377,-9548.656652,459.657299
514.505896,-888.247130,-10066.800811,153.219100
514.506224,-1184.329507,-9696.697840,306.438199
514.506551,-1110.308913,-8290.306550,0.000000
514.506879,-1184.329507,-8364.327145,919.314598
514.507207,-444.123565,-9030.512492,842.705048
514.507534,-666.185348,-9030.512492,689.485948
514.507862,148.041188,-8586.388927,766.095498
514.508189,666.185348,-8068.244768,995.924147
514.508517,814.226536,-9326.594869,919.314598
514.508844,-148.041188,-10066.800811,766.095498
514.509172,-1406.391290,-9696.697840,-153.219100
514.509499,-888.247130,-8660.409521,-153.219100
514.509827,-222.061783,-8142.265362,0.000000
514.510155,444.123565,-8512.368333,-383.047749
514.510482,370.102971,-8734.430116,459.657299
514.510810,1110.308913,-9030.512492,689.485948
514.511137,1554.432478,-8956.491898,1378.971896
514.511465,1628.453072,-9548.656652,1608.800546
514.511792,444.123565,-11103.089130,2068.457845
514.512120,-888.247130,-11621.233289,1149.143247
514.512447,-1998.556043,-11325.150913,689.485948
514.512775,-2294.638420,-9992.780217,306.438199
514.513103,-1332.370696,-9400.615463,842.705048
514.513430,-518.144159,-8956.491898,1149.143247
514.513758,0.000000,-8364.327145,919.314598
514.514085,296.082377,-7698.141797,229.828649
514.514413,962.267725,-7179.997637,766.095498
514.514740,740.205942,-7846.182985,383.047749
514.515068,-444.123565,-9400.615463,153.219100
514.515395,-2146.597232,-9622.677246,-306.438199
514.515723,-2220.617826,-9178.553681,0.000000
514.516051,-1554.432478,-8956.491898,612.876398
514.516378,-1258.350101,-9474.636058,766.095498
514.516706,-1110.308913,-9548.656652,612.876398
514.517033,0.000000,-9548.656652,1455.581446
514.517361,518.144159,-8808.450710,1378.971896
514.517688,1036.288319,-8808.450710,1225.752797
514.518016,1332.370696,-9844.739029,1072.533697
514.518343,74.020594,-10436.903782,536.266849
514.518671,-814.226536,-9696.697840,383.047749
514.518999,-814.226536,-8512.368333,689.485948
514.519326,-370.102971,-8956.491898,153.219100
514.519654,0.000000,-9400.615463,459.657299
514.519981,0.000000,-9326.594869,0.000000
514.520309,0.000000,-9104.533087,383.047749
514.520636,740.205942,-8808.450710,1225.752797
514.520964,740.205942,-9252.574275,766.095498
514.521291,-296.082377,-9992.780217,612.876398
514.521619,-1258.350101,-10288.862594,229.828649
514.521947,-1924.535449,-9178.553681,0.000000
514.522274,-1406.391290,-8438.347739,76.609550
514.522602,-962.267725,-8216.285956,153.219100
514.522929,-740.205942,-8512.368333,76.609550
514.523257,0.000000,-8438.347739,306.438199
514.523584,1184.329507,-7402.059420,383.047749
514.523912,1998.556043,-7698.141797,919.314598
514.524239,1702.473667,-8734.430116,1225.752797
514.524567,-222.061783,-9622.677246,383.047749
514.524895,-888.247130,-10066.800811,459.657299
514.525222,-1110.308913,-9622.677246,383.047749
514.525550,-962.267725,-9474.636058,612.876398
514.525877,-1258.350101,-9178.553681,229.828649
514.526205,-740.205942,-10214.842000,536.266849
514.526532,74.020594,-9400.615463,536.266849
514.526860,814.226536,-8290.306550,842.705048
514.527187,962.267725,-8512.368333,919.314598
514.527515,296.082377,-8956.491898,383.047749
514.527842,-1406.391290,-9548.656652,-229.828649
514.528170,-1776.494261,-8512.368333,-306.438199
514.528498,-1258.350101,-7920.203579,-536.266849
514.528825,-296.082377,-8438.347739,612.876398
514.529153,592.164754,-8142.265362,536.266849
514.529480,222.061783,-8734.430116,919.314598
514.529808,1406.391290,-8438.347739,1685.410096
514.530135,1258.350101,-8734.430116,1915.238745
514.530463,444.123565,-9696.697840,1685.410096
514.530790,-1110.308913,-10584.944971,766.095498
514.531118,-1628.453072,-10066.800811,612.876398
514.531446,-1332.370696,-9252.574275,76.609550
514.531773,-518.144159,-8882.471304,459.657299
514.532101,74.020594,-8882.471304,612.876398
514.532428,370.102971,-8808.450710,919.314598
514.532756,666.185348,-8660.409521,1072.533697
514.533083,740.205942,-8438.347739,536.266849
514.533411,222.061783,-9622.677246,459.657299
514.533738,-962.267725,-10362.883188,459.657299
514.534066,-2442.679609,-10807.006753,0.000000
514.534394,-2738.761985,-9474.636058,76.609550
514.534721,-1850.514855,-9326.594869,383.047749
514.535049,-1110.308913,-9104.533087,383.047749
514.535376,-666.185348,-8216.285956,536.266849
514.535704,222.061783,-8512.368333,766.095498
514.536031,1110.308913,-7550.100608,842.705048
514.536359,1258.350101,-7698.141797,689.485948
514.536686,1332.370696,-8734.430116,1072.533697
514.537014,0.000000,-9844.739029,383.047749
514.537342,-962.267725,-10214.842000,229.828649
514.537669,-1184.329507,-9326.594869,306.438199
514.537997,-740.205942,-9622.677246,153.219100
514.538324,-1036.288319,-9992.780217,306.438199
514.538652,-1184.329507,-10214.842000,-306.438199
514.538979,-370.102971,-9992.780217,153.219100
514.539307,814.226536,-9030.512492,306.438199
514.539634,1554.432478,-8956.491898,229.828649
514.539962,1110.308913,-9474.636058,536.266849
514.540290,0.000000,-10140.821405,0.000000
514.540617,-666.185348,-9770.718434,0.000000
514.540945,-740.205942,-8882.471304,76.609550
514.541272,-888.247130,-8808.450710,842.705048
514.541600,-592.164754,-9178.553681,536.266849
514.541927,0.000000,-9030.512492,919.314598
514.542255,888.247130,-7698.141797,1225.752797
514.542582,2368.659014,-7698.141797,2145.067394
514.542910,2442.679609,-8586.388927,3217.601092
514.543238,444.123565,-9178.553681,1455.581446
514.543565,-962.267725,-9474.636058,1072.533697
514.543893,-2146.597232,-9548.656652,459.657299
514.544220,-2220.617826,-9252.574275,459.657299
514.544548,-2220.617826,-9104.533087,306.438199
514.544875,-1702.473667,-9474.636058,0.000000
514.545203,-1406.391290,-9474.636058,459.657299
514.545530,-370.102971,-8068.244768,612.876398
514.545858,74.020594,-8290.306550,536.266849
514.546186,0.000000,-8586.388927,459.657299
514.546513,-1332.370696,-9770.718434,0.000000
514.546841,-2590.720797,-9252.574275,-459.657299
514.547168,-2442.679609,-8586.388927,-383.047749
514.547496,-1554.432478,-8734.430116,0.000000
514.547823,-740.205942,-8660.409521,612.876398
514.548151,0.000000,-8364.327145,919.314598
514.548478,1036.288319,-8216.285956,1838.629195
514.548806,1998.556043,-7846.182985,1915.238745
514.549134,2294.638420,-8882.471304,1838.629195
514.549461,814.226536,-9696.697840,995.924147
514.549789,-666.185348,-9696.697840,383.047749
514.550116,-444.123565,-9252.574275,229.828649
514.550444,-444.123565,-8956.491898,229.828649
514.550771,148.041188,-8660.409521,383.047749
514.551099,296.082377,-9326.594869,306.438199
514.551426,740.205942,-8734.430116,306.438199
514.551754,1258.350101,-8364.327145,459.657299
514.552081,1184.329507,-9104.533087,536.266849
514.552409,296.082377,-9918.759623,0.000000
514.552737,-1110.308913,-11029.068536,-229.828649
514.553064,-1924.535449,-10362.883188,-689.485948
514.553392,-1406.391290,-9252.574275,-459.657299
514.553719,-740.205942,-8660.409521,689.485948
514.554047,74.020594,-8216.285956,536.266849
514.554374,592.164754,-8290.306550,766.095498
514.554702,1258.350101,-7550.100608,1455.581446
514.555029,1702.473667,-7476.080014,2145.067394
514.555357,1406.391290,-8438.347739,1532.190996
514.555685,0.000000,-9474.636058,995.924147
514.556012,-1258.350101,-10066.800811,612.876398
514.556340,-1850.514855,-9252.574275,153.219100
514.556667,-1480.411884,-8956.491898,919.314598
514.556995,-1184.329507,-8808.450710,536.266849
514.557322,-1184.329507,-9844.739029,612.876398
514.557650,-1184.329507,-9474.636058,536.266849
514.557977,-740.205942,-8586.388927,229.828649
514.558305,-444.123565,-8734.430116,383.047749
514.558633,74.020594,-9474.636058,0.000000
514.558960,-1776.494261,-10288.862594,-383.047749
514.559288,-2368.659014,-10214.842000,-383.047749
514.559615,-2072.576638,-9474.636058,0.000000
514.559943,-1628.453072,-9104.533087,612.876398
514.560270,-444.123565,-8956.491898,842.705048
514.560598,0.000000,-9104.533087,995.924147
514.560925,1110.308913,-8512.368333,1685.410096
514.561253,1998.556043,-7994.224174,2068.457845
514.561581,2368.659014,-8808.450710,2298.286494
514.561908,1406.391290,-9252.574275,1225.752797
514.562236,370.102971,-10066.800811,1225.752797
514.562563,-444.123565,-9770.718434,1072.533697
514.562891,-888.247130,-9474.636058,919.314598
514.563218,-740.205942,-9844.739029,612.876398
514.563546,-962.267725,-9992.780217,919.314598
514.563873,-296.082377,-9326.594869,0.000000
514.564201,-148.041188,-9326.594869,306.438199
514.564529,592.164754,-9326.594869,383.047749
514.564856,296.082377,-9770.718434,0.000000
514.565184,-1184.329507,-10584.944971,-612.876398
514.565511,-2220.617826,-9770.718434,-536.266849
514.565839,-2516.700203,-9030.512492,-995.924147
514.566166,-1702.473667,-8660.409521,-229.828649
514.566494,-740.205942,-8660.409521,0.000000
514.566822,-444.123565,-8364.327145,0.000000
514.567149,1110.308913,-7328.038826,1072.533697
514.567477,1776.494261,-7105.977043,1685.410096
514.567804,1998.556043,-8068.244768,1532.190996
514.568132,1480.411884,-9918.759623,1838.629195
514.568459,222.061783,-10288.862594,1455.581446
514.568787,-666.185348,-9400.615463,1225.752797
514.569114,-666.185348,-8882.471304,536.266849
514.569442,-296.082377,-9252.574275,536.266849
514.569770,-740.205942,-9548.656652,383.047749
514.570097,74.020594,-9030.512492,229.828649
514.570425,740.205942,-8512.368333,536.266849
514.570752,888.247130,-8068.244768,1072.533697
514.571080,148.041188,-9104.533087,153.219100
514.571407,-814.226536,-9992.780217,-153.219100
514.571735,-2294.638420,-9918.759623,-842.705048
514.572063,-2664.741391,-9400.615463,-919.314598
514.572390,-1850.514855,-8142.265362,-536.266849
514.572718,-1036.288319,-8512.368333,-229.828649
514.573045,-518.144159,-8586.388927,612.876398
514.573373,74.020594,-8216.285956,1149.143247
514.573700,1332.370696,-7254.018232,1455.581446
514.574028,1998.556043,-7698.141797,1991.848295
514.574355,1184.329507,-8660.409521,1915.238745
514.574683,0.000000,-9104.533087,1302.362347
514.575011,-592.164754,-8734.430116,919.314598
514.575338,74.020594,-8364.327145,995.924147
514.575666,370.102971,-8068.244768,1455.581446
514.575993,666.185348,-8882.471304,1608.800546
514.576321,0.000000,-9252.574275,919.314598
514.576648,296.082377,-8882.471304,1072.533697
514.576976,1036.288319,-8660.409521,1225.752797
514.577304,444.123565,-9622.677246,995.924147
514.577631,-1628.453072,-10955.047942,76.609550
514.577959,-2738.761985,-10732.986159,-459.657299
514.578286,-2664.741391,-9474.636058,-689.485948
514.578614,-2146.597232,-8660.409521,-536.266849
514.578941,-666.185348,-7994.224174,153.219100
514.579269,-148.041188,-7920.203579,842.705048
514.579596,888.247130,-7550.100608,1455.581446
514.579924,1036.288319,-6809.894666,1532.190996
514.580252,2220.617826,-7550.100608,2374.896044
514.580579,1332.370696,-9104.533087,2145.067394
514.580907,-518.144159,-10436.903782,2068.457845
514.581234,-592.164754,-10140.821405,1685.410096
514.581562,-1184.329507,-9326.594869,2145.067394
514.581889,0.000000,-9030.512492,2374.896044
514.582217,592.164754,-9548.656652,2528.115143
514.582545,370.102971,-10140.821405,1991.848295
514.582872,148.041188,-8956.491898,1455.581446
514.583200,444.123565,-8956.491898,1302.362347
514.583527,370.102971,-9400.615463,1149.143247
514.583855,-740.205942,-10510.924376,842.705048
514.584182,-2516.700203,-11251.130318,153.219100
514.584510,-3108.864956,-10658.965565,153.219100
514.584837,-2738.761985,-9696.697840,766.095498
514.585165,-1110.308913,-9178.553681,1532.190996
514.585493,-148.041188,-9474.636058,1838.629195
514.585820,74.020594,-9992.780217,1991.848295
514.586148,370.102971,-9622.677246,2528.115143
514.586475,888.247130,-8734.430116,2604.724693
514.586803,1776.494261,-8364.327145,2911.162892
514.587130,1850.514855,-9104.533087,2911.162892
514.587458,592.164754,-9918.759623,2681.334243
514.587786,0.000000,-9474.636058,2681.334243
514.588113,444.123565,-8660.409521,3064.381992
514.588441,1184.329507,-7698.141797,3370.820191
514.588768,2368.659014,-8586.388927,3524.039291
514.589096,1554.432478,-10140.821405,3370.820191
514.589423,148.041188,-10288.862594,2987.772442
514.589751,814.226536,-10066.800811,3447.429741
514.590078,1628.453072,-9548.656652,3524.039291
514.590406,740.205942,-10288.862594,3983.696590
514.590734,-814.226536,-11251.130318,3677.258390
514.591061,-3034.844362,-11769.274478,2757.943793
514.591389,-4737.318029,-10214.842000,2528.115143
514.591716,-3330.926739,-8512.368333,2374.896044
514.592044,-1184.329507,-7846.182985,2987.772442
514.592371,-444.123565,-7920.203579,3140.991542
514.592699,-1110.308913,-8216.285956,2911.162892
514.593027,-2146.597232,-7550.100608,2911.162892
514.593354,-962.267725,-6883.915261,3064.381992
514.593682,222.061783,-6365.771101,4060.306139
514.594009,1554.432478,-7031.956449,4749.792088
514.594337,666.185348,-7920.203579,4519.963438
514.594664,-444.123565,-9104.533087,4366.744339
514.594992,-1776.494261,-9548.656652,3907.087040
514.595319,-1776.494261,-9474.636058,4060.306139
514.595647,0.000000,-8956.491898,4213.525239
514.595975,1480.411884,-9548.656652,4290.134789
514.596302,1850.514855,-10140.821405,4519.963438
514.596630,444.123565,-10140.821405,3907.087040
514.596957,-1332.370696,-9696.697840,3140.991542
514.597285,-962.267725,-8882.471304,2757.943793
514.597612,148.041188,-8364.327145,2757.943793
514.597940,1850.514855,-8660.409521,3370.820191
514.598268,1036.288319,-8808.450710,3753.867940
514.598595,-592.164754,-9992.780217,3830.477490
514.598923,-3404.947333,-9918.759623,2681.334243
514.599250,-3997.112087,-9918.759623,2298.286494
514.599578,-3108.864956,-9400.615463,2068.457845
514.599905,-370.102971,-8290.306550,2757.943793
514.600233,888.247130,-7254.018232,2681.334243
514.600560,1702.473667,-7179.997637,3677.258390
514.600888,370.102971,-7105.977043,3677.258390
514.601216,-1110.308913,-7550.100608,2681.334243
514.601543,-1628.453072,-8290.306550,1762.019645
514.601871,-962.267725,-9252.574275,1608.800546
514.602198,0.000000,-8808.450710,1915.238745
514.602526,2072.576638,-8438.347739,3447.429741
514.602853,3552.988522,-8882.471304,4903.011187
514.603181,3552.988522,-9548.656652,5209.449386
514.603509,2072.576638,-10881.027347,4596.572988
514.603836,148.041188,-11695.253884,3217.601092
514.604164,-1850.514855,-11769.274478,2451.505594
514.604491,-2886.803174,-11621.233289,2528.115143
514.604819,-1110.308913,-10732.986159,3830.477490
514.605146,1776.494261,-9844.739029,4826.401637
514.605474,3552.988522,-9178.553681,5209.449386
514.605801,2516.700203,-8882.471304,5286.058936
514.606129,-370.102971,-8660.409521,4290.134789
514.606457,-3330.926739,-9030.512492,2681.334243
514.606784,-5033.400406,-9178.553681,2221.676944
514.607112,-4515.256246,-8882.471304,1608.800546
514.607439,-2294.638420,-8142.265362,2374.896044
514.607767,444.123565,-7105.977043,3677.258390
514.608094,1702.473667,-6957.935855,4903.011187
514.608422,1036.288319,-7105.977043,5515.887586
514.608750,0.000000,-8290.306550,4366.744339
514.609077,-2442.679609,-9104.533087,2681.334243
514.609405,-3775.050304,-9918.759623,1915.238745
514.609732,-4293.194464,-10288.862594,1225.752797
514.610060,-2812.782580,-10140.821405,1762.019645
514.610387,-518.144159,-9252.574275,2911.162892
514.610715,1924.535449,-8882.471304,4213.525239
514.611043,2812.782580,-8512.368333,4213.525239
514.611370,2812.782580,-8882.471304,3907.087040
514.611698,1776.494261,-9696.697840,3217.601092
514.612025,0.000000,-9770.718434,2451.505594
514.612353,-222.061783,-10362.883188,2451.505594
514.612680,0.000000,-10362.883188,2911.162892
514.613008,74.020594,-10066.800811,3140.991542
514.613335,148.041188,-9326.594869,3753.867940
514.613663,296.082377,-8956.491898,3907.087040
514.613991,0.000000,-8882.471304,3294.210641
514.614318,0.000000,-8290.306550,2298.286494
514.614646,370.102971,-7994.224174,2145.067394
514.614973,814.226536,-7772.162391,2145.067394
514.615301,1258.350101,-7179.997637,2834.553343
514.615628,2368.659014,-7402.059420,3370.820191
514.615956,1776.494261,-7846.182985,3907.087040
514.616284,1406.391290,-8882.471304,4519.963438
514.616611,518.144159,-9622.677246,4290.134789
514.616939,-888.247130,-9992.780217,4213.525239
514.617266,-1184.329507,-10214.842000,4060.306139
514.617594,-1998.556043,-10436.903782,3217.601092
514.617921,-2146.597232,-10510.924376,3370.820191
514.618249,-1628.453072,-9918.759623,3064.381992
514.618576,-1258.350101,-9326.594869,3294.210641
514.618904,-222.061783,-8734.430116,3677.258390
514.619232,-518.144159,-8216.285956,2911.162892
514.619559,-592.164754,-8142.265362,2604.724693
514.619887,-666.185348,-8216.285956,2604.724693
514.620214,-1258.350101,-8216.285956,2834.553343
514.620542,-1332.370696,-8364.327145,3140.991542
514.620869,-1110.308913,-8364.327145,2911.162892
514.621197,-592.164754,-8882.471304,3907.087040
514.621525,-148.041188,-9178.553681,3983.696590
514.621852,0.000000,-9548.656652,4136.915689
514.622180,0.000000,-9696.697840,3907.087040
514.622507,-592.164754,-9474.636058,4290.134789
514.622835,-962.267725,-9474.636058,3600.648841
514.623162,-370.102971,-9326.594869,3140.991542
514.623490,74.020594,-9030.512492,2911.162892
514.623817,1332.370696,-9178.553681,2911.162892
514.624145,1406.391290,-9178.553681,2757.943793
514.624473,666.185348,-9622.677246,2451.505594
514.624800,148.041188,-10362.883188,2528.115143
514.625128,-296.082377,-10510.924376,2374.896044
514.625455,-518.144159,-10362.883188,2221.676944
514.625783,-592.164754,-9844.739029,2298.286494
514.626110,-148.041188,-9918.759623,2451.505594
514.626438,-370.102971,-9770.718434,2145.067394
514.626766,-666.185348,-9474.636058,1762.019645
514.627093,-1184.329507,-9474.636058,1838.629195
514.627421,-1628.453072,-8734.430116,2145.067394
514.627748,-1184.329507,-8734.430116,1225.752797
514.628076,-740.205942,-8068.244768,1225.752797
514.628403,-222.061783,-7624.121203,995.924147
514.628731,444.123565,-7772.162391,995.924147
514.629058,814.226536,-7920.203579,1532.190996
514.629386,740.205942,-8438.347739,919.314598
514.629714,148.041188,-8956.491898,1302.362347
514.630041,0.000000,-9474.636058,1302.362347
514.630369,74.020594,-10362.883188,1532.190996
514.630696,740.205942,-10214.842000,1915.238745
514.631024,1258.350101,-10214.842000,2068.457845
514.631351,1332.370696,-10214.842000,1838.629195
514.631679,1258.350101,-10066.800811,1838.629195
514.632007,814.226536,-9844.739029,1532.190996
514.632334,222.061783,-9474.636058,1302.362347
514.632662,0.000000,-9474.636058,766.095498
514.632989,-740.205942,-9104.533087,689.485948
514.633317,-666.185348,-8808.450710,536.266849
514.633644,-666.185348,-8660.409521,842.705048
514.633972,-370.102971,-8364.327145,689.485948
514.634299,-222.061783,-8364.327145,995.924147
514.634627,-888.247130,-7920.203579,536.266849
514.634955,-1258.350101,-7772.162391,536.266849
514.635282,-1258.350101,-8068.244768,536.266849
514.635610,-1036.288319,-8142.265362,536.266849
514.635937,-888.247130,-7994.224174,229.828649
514.636265,-518.144159,-8734.430116,1149.143247
514.636592,-592.164754,-8808.450710,1149.143247
514.636920,-740.205942,-8956.491898,1149.143247
514.637248,-444.123565,-9178.553681,1225.752797
514.637575,-444.123565,-9178.553681,995.924147
514.637903,-222.061783,-8956.491898,612.876398
514.638230,148.041188,-9326.594869,766.095498
514.638558,222.061783,-9400.615463,842.705048
514.638885,0.000000,-9474.636058,1072.533697
514.639213,296.082377,-9696.697840,1225.752797
514.639540,0.000000,-9844.739029,689.485948
514.639868,-370.102971,-9400.615463,995.924147
514.640196,74.020594,-9474.636058,1072.533697
514.640523,-296.082377,-9104.533087,536.266849
514.640851,-296.082377,-8956.491898,612.876398
514.641178,-296.082377,-8808.450710,995.924147
514.641506,-518.144159,-8438.347739,1455.581446
514.641833,-592.164754,-8882.471304,612.876398
514.642161,-740.205942,-8808.450710,1072.533697
514.642489,-962.267725,-8808.450710,766.095498
514.642816,-666.185348,-8660.409521,842.705048
514.643144,-888.247130,-8882.471304,766.095498
514.643471,-962.267725,-9030.512492,383.047749
514.643799,-666.185348,-9178.553681,229.828649
514.644126,-148.041188,-9400.615463,459.657299
514.644454,-296.082377,-9474.636058,459.657299
514.644781,-296.082377,-9474.636058,612.876398
514.645109,0.000000,-10066.800811,383.047749
514.645437,0.000000,-9992.780217,459.657299
514.645764,-296.082377,-9770.718434,383.047749
514.646092,-222.061783,-9992.780217,612.876398
514.646419,-370.102971,-10214.842000,689.485948
514.646747,518.144159,-9992.780217,536.266849
514.647074,0.000000,-9474.636058,689.485948
514.647402,370.102971,-9252.574275,766.095498
514.647730,370.102971,-9178.553681,612.876398
514.648057,370.102971,-9104.533087,689.485948
514.648385,444.123565,-8660.409521,383.047749
514.648712,0.000000,-8956.491898,459.657299
514.649040,-222.061783,-9030.512492,766.095498
514.649367,0.000000,-9178.553681,459.657299
514.649695,0.000000,-8586.388927,459.657299
514.650022,0.000000,-8808.450710,766.095498
514.650350,74.020594,-8956.491898,229.828649
514.650678,0.000000,-9474.636058,306.438199
514.651005,0.000000,-9104.533087,0.000000
514.651333,-148.041188,-8882.471304,306.438199
514.651660,-370.102971,-8364.327145,383.047749
514.651988,-592.164754,-8808.450710,229.828649
514.652315,-740.205942,-9030.512492,383.047749
514.652643,-814.226536,-9030.512492,306.438199
514.652971,-740.205942,-8808.450710,459.657299
514.653298,-148.041188,-9326.594869,536.266849
514.653626,-888.247130,-8512.368333,612.876398
514.653953,-444.123565,-8808.450710,459.657299
514.654281,-370.102971,-8438.347739,229.828649
514.654608,-444.123565,-8438.347739,459.657299
514.654936,-370.102971,-8808.450710,76.609550
514.655263,-740.205942,-8660.409521,1072.533697
514.655591,-962.267725,-9104.533087,689.485948
514.655919,-814.226536,-9178.553681,1149.143247
514.656246,-888.247130,-9178.553681,612.876398
514.656574,-296.082377,-9252.574275,919.314598
514.656901,0.000000,-9030.512492,536.266849
514.657229,-370.102971,-8734.430116,383.047749
514.657556,-148.041188,-8660.409521,536.266849
514.657884,0.000000,-9104.533087,612.876398
514.658212,-370.102971,-9474.636058,459.657299
514.658539,-888.247130,-9326.594869,919.314598
514.658867,-518.144159,-9696.697840,612.876398
514.659194,0.000000,-9918.759623,766.095498
514.659522,-370.102971,-9474.636058,536.266849
514.659849,0.000000,-9474.636058,459.657299
514.660177,-296.082377,-9030.512492,766.095498
514.660504,0.000000,-9178.553681,459.657299
514.660832,-592.164754,-8956.491898,459.657299
514.661160,-518.144159,-9252.574275,536.266849
514.661487,-518.144159,-9104.533087,459.657299
514.661815,-370.102971,-8882.471304,995.924147
514.662142,-518.144159,-8956.491898,459.657299
514.662470,-370.102971,-9030.512492,459.657299
514.662797,-370.102971,-8882.471304,229.828649
514.663125,-148.041188,-8660.409521,459.657299
514.663453,-74.020594,-9178.553681,766.095498
514.663780,-222.061783,-8808.450710,536.266849
514.664108,-592.164754,-9400.615463,536.266849
514.664435,-444.123565,-9474.636058,689.485948
514.664763,-592.164754,-9622.677246,766.095498
514.665090,-666.185348,-9622.677246,689.485948
514.665418,0.000000,-9474.636058,459.657299
514.665745,-370.102971,-9030.512492,612.876398
514.666073,-296.082377,-8882.471304,536.266849
514.666401,-592.164754,-8512.368333,306.438199
514.666728,-888.247130,-8808.450710,459.657299
514.667056,-1258.350101,-8586.388927,842.705048
514.667383,-962.267725,-8956.491898,383.047749
514.667711,-962.267725,-8586.388927,766.095498
514.668039,-888.247130,-8660.409521,689.485948
514.668366,-296.082377,-8660.409521,842.705048
514.668694,0.000000,-8660.409521,842.705048
514.669021,296.082377,-7994.224174,536.266849
514.669349,222.061783,-8660.409521,459.657299
514.669677,0.000000,-8956.491898,689.485948
514.670004,-370.102971,-9474.636058,766.095498
514.670332,-296.082377,-9770.718434,919.314598
514.670659,-296.082377,-9696.697840,306.438199
514.670987,0.000000,-9622.677246,919.314598
514.671315,222.061783,-9400.615463,689.485948
514.671642,444.123565,-8882.471304,383.047749
514.671970,666.185348,-8512.368333,229.828649
514.672297,962.267725,-8364.327145,919.314598
514.672625,74.020594,-7846.182985,153.219100
514.672953,-148.041188,-8438.347739,383.047749
514.673280,-370.102971,-9030.512492,536.266849
514.673608,-814.226536,-9178.553681,612.876398
514.673935,-296.082377,-9474.636058,919.314598
514.674263,0.000000,-8808.450710,383.047749
514.674590,0.000000,-8956.491898,306.438199
514.674918,148.041188,-8290.306550,383.047749
514.675246,148.041188,-8364.327145,153.219100
514.675573,74.020594,-8216.285956,612.876398
514.675901,148.041188,-8734.430116,459.657299
514.676228,-370.102971,-9178.553681,689.485948
514.676556,-296.082377,-9696.697840,689.485948
514.676884,-370.102971,-9770.718434,536.266849
514.677211,-444.123565,-9770.718434,306.438199
514.677539,-518.144159,-9474.636058,459.657299
514.677866,74.020594,-9400.615463,459.657299
514.678194,370.102971,-9400.615463,459.657299
514.678522,296.082377,-9178.553681,612.876398
514.678849,222.061783,-9400.615463,536.266849
514.679177,296.082377,-9770.718434,306.438199
514.679504,74.020594,-9770.718434,689.485948
514.679832,0.000000,-9918.759623,842.705048
514.680160,0.000000,-10066.800811,689.485948
514.680487,0.000000,-9548.656652,536.266849
514.680815,-296.082377,-8956.491898,459.657299
514.681142,0.000000,-9030.512492,229.828649
514.681470,-296.082377,-9326.594869,612.876398
514.681798,-370.102971,-9178.553681,459.657299
514.682125,-444.123565,-9474.636058,689.485948
514.682453,-592.164754,-9030.512492,306.438199
514.682780,-370.102971,-9326.594869,1455.581446
514.683108,-592.164754,-9474.636058,612.876398
514.683436,-666.185348,-9474.636058,153.219100
514.683763,-666.185348,-9326.594869,383.047749
514.684091,-666.185348,-9474.636058,383.047749
514.684418,-666.185348,-9474.636058,536.266849
514.684746,-740.205942,-9622.677246,689.485948
514.685074,-814.226536,-9770.718434,612.876398
514.685401,-518.144159,-9696.697840,842.705048
514.685729,-370.102971,-9548.656652,689.485948
514.686056,-370.102971,-9030.512492,766.095498
514.686384,-444.123565,-8956.491898,536.266849
514.686712,-370.102971,-8956.491898,766.095498
514.687039,-666.185348,-8660.409521,459.657299
514.687367,-666.185348,-8808.450710,536.266849
514.687694,-814.226536,-8586.388927,1532.190996
514.688022,-518.144159,-8512.368333,383.047749
514.688350,-592.164754,-8660.409521,689.485948
514.688677,-592.164754,-8586.388927,842.705048
514.689005,-370.102971,-8660.409521,459.657299
514.689332,-370.102971,-8142.265362,459.657299
514.689660,-222.061783,-8364.327145,689.485948
514.689988,-148.041188,-8882.471304,612.876398
514.690315,-592.164754,-8734.430116,612.876398
514.690643,-518.144159,-9178.553681,612.876398
514.690970,-222.061783,-9252.574275,383.047749
514.691298,0.000000,-8956.491898,1378.971896
514.691626,-148.041188,-8956.491898,689.485948
514.691953,0.000000,-8956.491898,459.657299
514.692281,148.041188,-8956.491898,536.266849
514.692608,74.020594,-8956.491898,383.047749
514.692936,296.082377,-8882.471304,766.095498
514.693263,0.000000,-9030.512492,919.314598
514.693591,0.000000,-9326.594869,612.876398
514.693919,-222.061783,-9474.636058,919.314598
514.694246,0.000000,-9104.533087,689.485948
514.694574,0.000000,-9178.553681,-153.219100
514.694901,148.041188,-8586.388927,919.314598
514.695229,0.000000,-8512.368333,383.047749
514.695557,0.000000,-8586.388927,306.438199
514.695884,0.000000,-8734.430116,306.438199
514.696212,-222.061783,-8808.450710,766.095498
514.696539,-444.123565,-8660.409521,612.876398
514.696867,-370.102971,-9104.533087,536.266849
514.697195,-518.144159,-9400.615463,689.485948
514.697522,-518.144159,-9326.594869,536.266849
514.697850,0.000000,-9178.553681,689.485948
514.698177,0.000000,-8808.450710,689.485948
514.698505,0.000000,-9178.553681,459.657299
514.698833,0.000000,-9400.615463,536.266849
514.699160,-222.061783,-9474.636058,766.095498
514.699488,-296.082377,-9474.636058,689.485948
514.699815,0.000000,-9400.615463,689.485948
514.700143,-518.144159,-9178.553681,766.095498
514.700471,0.000000,-9474.636058,612.876398
514.700798,0.000000,-9104.533087,689.485948
514.701126,148.041188,-9178.553681,459.657299
514.701453,0.000000,-8734.430116,536.266849
514.701781,0.000000,-8734.430116,995.924147
514.702109,0.000000,-9252.574275,459.657299
514.702436,-222.061783,-9252.574275,689.485948
514.702764,-518.144159,-9178.553681,459.657299
514.703091,-370.102971,-9400.615463,1378.971896
514.703419,-296.082377,-9326.594869,383.047749
514.703747,0.000000,-9474.636058,459.657299
514.704074,0.000000,-9474.636058,459.657299
514.704402,0.000000,-9252.574275,153.219100
514.704729,74.020594,-9252.574275,383.047749
514.705057,0.000000,-9104.533087,612.876398
514.705385,0.000000,-9104.533087,689.485948
514.705712,0.000000,-9400.615463,459.657299
514.706040,-370.102971,-9474.636058,536.266849
514.706367,-444.123565,-9400.615463,459.657299
514.706695,-296.082377,-9030.512492,536.266849
514.707023,148.041188,-9326.594869,689.485948
514.707350,-518.144159,-8956.491898,383.047749
514.707678,0.000000,-9104.533087,536.266849
514.708005,-222.061783,-9104.533087,459.657299
514.708333,0.000000,-8586.388927,766.095498
514.708661,0.000000,-8660.409521,459.657299
514.708988,-592.164754,-8956.491898,842.705048
514.709316,-592.164754,-9104.533087,842.705048
514.709643,-370.102971,-9104.533087,383.047749
514.709971,-518.144159,-9030.512492,689.485948
514.710298,-296.082377,-8808.450710,766.095498
514.710626,-370.102971,-9252.574275,536.266849
514.710954,-370.102971,-9474.636058,612.876398
514.711281,-222.061783,-9178.553681,459.657299
514.711609,0.000000,-9104.533087,689.485948
514.711936,0.000000,-8882.471304,1455.581446
514.712264,-592.164754,-9252.574275,919.314598
514.712592,-222.061783,-9252.574275,612.876398
514.712919,-370.102971,-9104.533087,842.705048
514.713247,-148.041188,-8882.471304,612.876398
514.713574,-148.041188,-9104.533087,766.095498
514.713902,0.000000,-8882.471304,306.438199
514.714230,-296.082377,-8660.409521,766.095498
514.714557,-370.102971,-8660.409521,459.657299
514.714885,-370.102971,-8734.430116,612.876398
514.715212,0.000000,-8808.450710,383.047749
514.715540,-296.082377,-9178.553681,153.219100
514.715868,-370.102971,-8734.430116,459.657299
514.716195,-296.082377,-9252.574275,612.876398
514.716523,-296.082377,-9104.533087,536.266849
514.716850,-296.082377,-9400.615463,536.266849
514.717178,0.000000,-9326.594869,383.047749
514.717506,-370.102971,-9326.594869,536.266849
514.717833,0.000000,-9474.636058,612.876398
514.718161,-296.082377,-9400.615463,612.876398
514.718488,-222.061783,-9252.574275,306.438199
514.718816,-518.144159,-9104.533087,919.314598
514.719144,-518.144159,-8808.450710,536.266849
514.719471,-518.144159,-9178.553681,383.047749
514.719799,-370.102971,-9178.553681,612.876398
514.720126,-444.123565,-9326.594869,459.657299
514.720454,-888.247130,-8660.409521,459.657299
514.720782,-518.144159,-8586.388927,306.438199
514.721109,-592.164754,-8808.450710,306.438199
514.721437,-592.164754,-8882.471304,459.657299
514.721764,-592.164754,-8660.409521,689.485948
514.722092,0.000000,-8512.368333,306.438199
514.722420,-518.144159,-8512.368333,842.705048
514.722747,-370.102971,-8808.450710,383.047749
514.723075,-444.123565,-8882.471304,383.047749
514.723402,-296.082377,-9252.574275,536.266849
514.723730,0.000000,-9400.615463,612.876398
514.724058,74.020594,-9178.553681,995.924147
514.724385,-370.102971,-9252.574275,842.705048
514.724713,0.000000,-9178.553681,536.266849
514.725040,-148.041188,-9178.553681,689.485948
514.725368,-444.123565,-9104.533087,766.095498
514.725696,-148.041188,-8882.471304,766.095498
514.726023,-222.061783,-8882.471304,229.828649
514.726351,-592.164754,-9030.512492,536.266849
514.726678,-592.164754,-9104.533087,459.657299
514.727006,-518.144159,-8808.450710,612.876398
514.727334,-370.102971,-8364.327145,306.438199
514.727661,-296.082377,-8438.347739,306.438199
514.727989,-370.102971,-8586.388927,459.657299
514.728316,-518.144159,-8660.409521,306.438199
514.728644,-222.061783,-8808.450710,306.438199
514.728971,-444.123565,-8660.409521,383.047749
514.729299,-370.102971,-8882.471304,766.095498
514.729627,-148.041188,-9178.553681,459.657299
514.729954,0.000000,-9252.574275,459.657299
514.730282,74.020594,-9178.553681,383.047749
514.730609,74.020594,-9252.574275,766.095498
514.730937,0.000000,-8956.491898,766.095498
514.731265,74.020594,-9474.636058,306.438199
514.731592,0.000000,-9326.594869,459.657299
514.731920,0.000000,-9474.636058,536.266849
514.732247,0.000000,-9622.677246,689.485948
514.732575,0.000000,-9400.615463,536.266849
514.732903,0.000000,-9548.656652,689.485948
514.733230,0.000000,-9474.636058,459.657299
514.733558,0.000000,-9326.594869,383.047749
514.733885,-222.061783,-9178.553681,459.657299
514.734213,148.041188,-9030.512492,459.657299
514.734541,0.000000,-9104.533087,536.266849
514.734868,0.000000,-9400.615463,689.485948
514.735196,-222.061783,-9474.636058,766.095498
514.735523,0.000000,-9622.677246,612.876398
514.735851,-148.041188,-9548.656652,689.485948
514.736179,0.000000,-9474.636058,383.047749
514.736506,0.000000,-9474.636058,689.485948
514.736834,0.000000,-9474.636058,459.657299
514.737161,0.000000,-9474.636058,842.705048
514.737489,0.000000,-9474.636058,766.095498
514.737817,0.000000,-9326.594869,919.314598
514.738144,0.000000,-9548.656652,612.876398
514.738472,-518.144159,-9548.656652,919.314598
514.738799,-740.205942,-9400.615463,612.876398
514.739127,-370.102971,-9326.594869,919.314598
514.739455,0.000000,-9178.553681,995.924147
514.739782,-296.082377,-8882.471304,229.828649
514.740110,-222.061783,-8808.450710,459.657299
514.740437,-370.102971,-8882.471304,689.485948
514.740765,-444.123565,-8734.430116,612.876398
514.741093,-148.041188,-8734.430116,612.876398
514.741420,-444.123565,-8882.471304,459.657299
514.741748,-740.205942,-9104.533087,459.657299
514.742075,-296.082377,-9326.594869,383.047749
514.742403,-222.061783,-8956.491898,459.657299
514.742731,0.000000,-9104.533087,536.266849
514.743058,148.041188,-8808.450710,536.266849
514.743386,0.000000,-9030.512492,153.219100
514.743713,-148.041188,-8882.471304,306.438199
514.744041,0.000000,-9030.512492,306.438199
514.744369,-296.082377,-9104.533087,383.047749
514.744696,-666.185348,-9030.512492,306.438199
514.745024,-444.123565,-9252.574275,689.485948
514.745351,-592.164754,-8882.471304,229.828649
514.745679,-370.102971,-8808.450710,383.047749
514.746007,-370.102971,-8808.450710,459.657299
514.746334,-740.205942,-8438.347739,842.705048
514.746662,0.000000,-8808.450710,383.047749
514.746989,-370.102971,-8364.327145,383.047749
514.747317,-666.185348,-8290.306550,306.438199
514.747644,-740.205942,-8808.450710,612.876398
514.747972,-222.061783,-8734.430116,689.485948
514.748300,-222.061783,-9474.636058,536.266849
514.748627,-370.102971,-8956.491898,459.657299
514.748955,-148.041188,-8734.430116,536.266849
514.749282,-296.082377,-8882.471304,612.876398
514.749610,-222.061783,-8882.471304,689.485948
514.749938,-296.082377,-8512.368333,766.095498
514.750265,-740.205942,-9252.574275,842.705048
514.750593,-370.102971,-9326.594869,459.657299
514.750920,-296.082377,-9400.615463,612.876398
514.751248,-296.082377,-9104.533087,689.485948
514.751576,74.020594,-9178.553681,612.876398
514.751903,-518.144159,-8956.491898,689.485948
514.752231,-592.164754,-8882.471304,383.047749
514.752558,-444.123565,-8956.491898,536.266849
514.752886,-444.123565,-9030.512492,766.095498
514.753214,0.000000,-8882.471304,612.876398
514.753541,-444.123565,-9252.574275,306.438199
514.753869,-370.102971,-9326.594869,766.095498
514.754196,-370.102971,-9252.574275,766.095498
514.754524,0.000000,-9326.594869,536.266849
514.754852,148.041188,-8808.450710,612.876398
514.755179,148.041188,-9178.553681,383.047749
514.755507,222.061783,-9104.533087,383.047749
514.755834,0.000000,-9400.615463,383.047749
514.756162,0.000000,-9178.553681,536.266849
514.756490,-296.082377,-9622.677246,536.266849
514.756817,74.020594,-9770.718434,536.266849
514.757145,-222.061783,-9474.636058,383.047749
514.757472,0.000000,-9474.636058,459.657299
514.757800,74.020594,-9474.636058,612.876398
514.758128,74.020594,-9326.594869,536.266849
514.758455,296.082377,-9326.594869,229.828649
514.758783,74.020594,-8882.471304,766.095498
514.759110,0.000000,-9326.594869,536.266849
514.759438,-296.082377,-9474.636058,536.266849
514.759766,-370.102971,-9548.656652,766.095498
514.760093,0.000000,-9104.533087,612.876398
514.760421,444.123565,-8882.471304,689.485948
514.760748,0.000000,-9104.533087,612.876398
514.761076,0.000000,-9104.533087,383.047749
514.761404,74.020594,-9178.553681,536.266849
514.761731,74.020594,-8734.430116,842.705048
514.762059,-370.102971,-8956.491898,995.924147
514.762386,0.000000,-9474.636058,536.266849
514.762714,-444.123565,-9474.636058,1149.143247
514.763042,-148.041188,-9474.636058,919.314598
514.763369,-148.041188,-9474.636058,536.266849
514.763697,-370.102971,-9104.533087,842.705048
514.764024,-296.082377,-9104.533087,612.876398
514.764352,-148.041188,-9178.553681,459.657299
514.764679,0.000000,-9030.512492,612.876398
514.765007,0.000000,-9104.533087,306.438199
514.765335,0.000000,-9104.533087,536.266849
514.765662,-296.082377,-9622.677246,689.485948
514.765990,-370.102971,-9474.636058,689.485948
514.766317,-518.144159,-9104.533087,536.266849
514.766645,-296.082377,-8882.471304,383.047749
514.766973,-296.082377,-9178.553681,842.705048
514.767300,-222.061783,-8660.409521,459.657299
514.767628,0.000000,-9104.533087,229.828649
514.767956,0.000000,-9030.512492,459.657299
514.768283,0.000000,-8956.491898,153.219100
514.768611,-222.061783,-9400.615463,766.095498
514.768938,0.000000,-9326.594869,153.219100
514.769266,-370.102971,-9252.574275,689.485948
514.769594,0.000000,-9178.553681,306.438199
514.769921,-370.102971,-8882.471304,76.609550
514.770249,-370.102971,-9030.512492,76.609550
514.770576,-666.185348,-9178.553681,689.485948
514.770904,0.000000,-8808.450710,459.657299
514.771232,-370.102971,-8882.471304,459.657299
514.771559,-518.144159,-9030.512492,306.438199
514.771887,-518.144159,-9178.553681,536.266849
514.772215,-444.123565,-8882.471304,766.095498
514.772542,-518.144159,-9104.533087,536.266849
514.772870,-518.144159,-8734.430116,689.485948
514.773197,-444.123565,-9104.533087,612.876398
514.773525,-370.102971,-8956.491898,459.657299
514.773853,-222.061783,-8808.450710,1225.752797
514.774180,0.000000,-8660.409521,536.266849
514.774508,-370.102971,-8882.471304,766.095498
514.774835,-592.164754,-9178.553681,995.924147
514.775163,-666.185348,-9252.574275,995.924147
514.775491,-370.102971,-9104.533087,1072.533697
514.775818,-222.061783,-8956.491898,919.314598
514.776146,-444.123565,-9030.512492,766.095498
514.776474,-444.123565,-9178.553681,689.485948
514.776801,-296.082377,-8956.491898,689.485948
514.777129,-296.082377,-8882.471304,612.876398
514.777456,-74.020594,-8808.450710,1302.362347
514.777784,-666.185348,-8734.430116,536.266849
514.778112,-518.144159,-9104.533087,766.095498
514.778439,-518.144159,-8956.491898,536.266849
514.778767,-592.164754,-8956.491898,612.876398
514.779094,-222.061783,-8734.430116,766.095498
514.779422,0.000000,-9252.574275,536.266849
514.779750,-148.041188,-9252.574275,689.485948
514.780077,-222.061783,-8956.491898,612.876398
514.780405,0.000000,-8956.491898,689.485948
514.780732,296.082377,-9030.512492,1072.533697
514.781060,0.000000,-9400.615463,766.095498
514.781388,0.000000,-9400.615463,536.266849
514.781715,-222.061783,-9326.594869,459.657299
514.782043,0.000000,-9252.574275,536.266849
514.782371,0.000000,-9326.594869,306.438199
514.782698,296.082377,-9326.594869,76.609550
514.783026,-148.041188,-8956.491898,459.657299
514.783353,-444.123565,-9326.594869,383.047749
514.783681,-222.061783,-9252.574275,459.657299
514.784009,-222.061783,-9104.533087,306.438199
514.784336,0.000000,-9252.574275,306.438199
514.784664,-518.144159,-8956.491898,306.438199
514.784991,-592.164754,-9030.512492,383.047749
514.785319,-222.061783,-9252.574275,459.657299
514.785647,0.000000,-9252.574275,229.828649
514.785974,0.000000,-9104.533087,459.657299
514.786302,0.000000,-9474.636058,459.657299
514.786630,-296.082377,-9178.553681,459.657299
514.786957,-296.082377,-9400.615463,536.266849
514.787285,-296.082377,-9326.594869,459.657299
514.787612,-296.082377,-9104.533087,1072.533697
514.787940,-148.041188,-9178.553681,842.705048
514.788268,-148.041188,-9252.574275,612.876398
514.788595,-296.082377,-9178.553681,536.266849
514.788923,-370.102971,-9326.594869,612.876398
514.789250,-518.144159,-9104.533087,459.657299
514.789578,0.000000,-8808.450710,689.485948
514.789906,-592.164754,-9030.512492,459.657299
514.790233,-518.144159,-9030.512492,612.876398
514.790561,-518.144159,-9178.553681,536.266849
514.790889,-592.164754,-9104.533087,536.266849
514.791216,-444.123565,-9030.512492,919.314598
514.791544,-296.082377,-9178.553681,766.095498
514.791871,-370.102971,-9400.615463,536.266849
514.792199,-370.102971,-9252.574275,383.047749
514.792527,-222.061783,-9178.553681,536.266849
514.792854,148.041188,-9104.533087,919.314598
514.793182,148.041188,-9252.574275,536.266849
514.793509,0.000000,-9326.594869,536.266849
514.793837,0.000000,-9326.594869,459.657299
514.794165,0.000000,-9326.594869,689.485948
514.794492,370.102971,-9104.533087,536.266849
514.794820,0.000000,-9030.512492,995.924147
514.795147,0.000000,-9178.553681,306.438199
514.795475,-444.123565,-9326.594869,612.876398
514.795803,0.000000,-9104.533087,306.438199
514.796130,-370.102971,-9104.533087,229.828649
514.796458,-148.041188,-8882.471304,995.924147
514.796786,-296.082377,-9252.574275,383.047749
514.797113,-370.102971,-9252.574275,306.438199
514.797441,-370.102971,-9178.553681,459.657299
514.797768,-222.061783,-9178.553681,536.266849
514.798096,222.061783,-8882.471304,842.705048
514.798424,-296.082377,-9178.553681,536.266849
514.798751,-370.102971,-9252.574275,689.485948
514.799079,0.000000,-9178.553681,689.485948
514.799406,-222.061783,-9252.574275,459.657299
514.799734,148.041188,-8882.471304,689.485948
514.800062,0.000000,-9178.553681,612.876398
514.800389,-370.102971,-9104.533087,842.705048
514.800717,-518.144159,-9030.512492,612.876398
514.801045,-518.144159,-9030.512492,689.485948
514.801372,-370.102971,-9252.574275,1072.533697
514.801700,-518.144159,-8734.430116,842.705048
514.802027,-444.123565,-8808.450710,689.485948
514.802355,-444.123565,-8956.491898,612.876398
514.802683,-444.123565,-8808.450710,536.266849
514.803010,-444.123565,-8660.409521,306.438199
514.803338,-592.164754,-8586.388927,766.095498
514.803665,-444.123565,-8808.450710,459.657299
514.803993,-740.205942,-8956.491898,612.876398
514.804321,-370.102971,-9178.553681,536.266849
514.804648,-296.082377,-9104.533087,383.047749
514.804976,-148.041188,-8660.409521,766.095498
514.805304,-148.041188,-9104.533087,536.266849
514.805631,0.000000,-9178.553681,536.266849
514.805959,-370.102971,-8956.491898,459.657299
514.806286,-444.123565,-9030.512492,383.047749
514.806614,0.000000,-8734.430116,612.876398
514.806942,0.000000,-9104.533087,306.438199
514.807269,-370.102971,-9030.512492,459.657299
514.807597,-444.123565,-8956.491898,383.047749
514.807924,-444.123565,-8956.491898,766.095498
514.808252,-222.061783,-8956.491898,229.828649
514.808580,0.000000,-8882.471304,0.000000
514.808907,-518.144159,-8882.471304,536.266849
514.809235,-296.082377,-8882.471304,153.219100
514.809562,-666.185348,-8734.430116,459.657299
514.809890,-444.123565,-9030.512492,536.266849
514.810218,0.000000,-9622.677246,306.438199
514.810545,-592.164754,-9104.533087,612.876398
514.810873,0.000000,-9178.553681,612.876398
514.811201,-296.082377,-9178.553681,459.657299
514.811528,-222.061783,-8956.491898,612.876398
514.811856,148.041188,-9252.574275,153.219100
514.812183,74.020594,-8956.491898,612.876398
514.812511,-296.082377,-9178.553681,536.266849
514.812839,-296.082377,-9252.574275,536.266849
514.813166,-444.123565,-9178.553681,612.876398
514.813494,-444.123565,-8882.471304,612.876398
514.813821,-296.082377,-9252.574275,1072.533697
514.814149,0.000000,-9178.553681,459.657299
514.814477,-148.041188,-9104.533087,536.266849
514.814804,-296.082377,-8956.491898,383.047749
514.815132,-148.041188,-9104.533087,459.657299
514.815460,-444.123565,-9030.512492,766.095498
514.815787,-296.082377,-9252.574275,459.657299
514.816115,-592.164754,-9326.594869,536.266849
514.816442,-296.082377,-9400.615463,536.266849
514.816770,-370.102971,-9400.615463,383.047749
514.817098,0.000000,-9252.574275,459.657299
514.817425,0.000000,-9252.574275,383.047749
514.817753,0.000000,-9178.553681,536.266849
514.818080,0.000000,-9326.594869,76.609550
514.818408,-148.041188,-9104.533087,459.657299
514.818736,-74.020594,-9104.533087,612.876398
514.819063,-148.041188,-9326.594869,306.438199
514.819391,-222.061783,-9548.656652,612.876398
514.819719,0.000000,-9400.615463,536.266849
514.820046,-222.061783,-9474.636058,919.314598
514.820374,-148.041188,-8808.450710,306.438199
514.820701,370.102971,-9104.533087,689.485948
514.821029,0.000000,-9030.512492,612.876398
514.821357,-148.041188,-8808.450710,612.876398
514.821684,-296.082377,-8808.450710,689.485948
514.822012,-222.061783,-9178.553681,766.095498
514.822339,-296.082377,-9030.512492,612.876398
514.822667,-222.061783,-9474.636058,612.876398
514.822995,-444.123565,-9326.594869,536.266849
514.823322,-148.041188,-9252.574275,612.876398
514.823650,0.000000,-9178.553681,766.095498
514.823977,222.061783,-8882.471304,229.828649
514.824305,0.000000,-8956.491898,536.266849
514.824633,74.020594,-9104.533087,229.828649
514.824960,-296.082377,-9326.594869,536.266849
514.825288,-518.144159,-9252.574275,536.266849
514.825616,-296.082377,-9104.533087,766.095498
514.825943,-444.123565,-9104.533087,842.705048
514.826271,-296.082377,-9178.553681,459.657299
514.826598,-222.061783,-9030.512492,612.876398
514.826926,-222.061783,-8956.491898,536.266849
514.827254,-444.123565,-8808.450710,0.000000
514.827581,-296.082377,-8364.327145,459.657299
514.827909,-444.123565,-8586.388927,689.485948
514.828236,-666.185348,-8882.471304,842.705048
514.828564,-814.226536,-8956.491898,536.266849
514.828892,-814.226536,-9104.533087,612.876398
514.829219,-222.061783,-8808.450710,1225.752797
514.829547,-296.082377,-8882.471304,842.705048
514.829875,-518.144159,-8660.409521,689.485948
514.830202,-296.082377,-8882.471304,306.438199
514.830530,-222.061783,-8956.491898,459.657299
514.830857,-444.123565,-8808.450710,612.876398
514.831185,-518.144159,-9178.553681,612.876398
514.831513,-444.123565,-9326.594869,919.314598
514.831840,-740.205942,-9400.615463,689.485948
514.832168,-592.164754,-9326.594869,536.266849
514.832495,-518.144159,-8956.491898,383.047749
514.832823,0.000000,-8956.491898,842.705048
514.833151,0.000000,-8660.409521,459.657299
514.833478,0.000000,-8586.388927,383.047749
514.833806,-444.123565,-8660.409521,459.657299
514.834134,-296.082377,-8956.491898,766.095498
514.834461,-518.144159,-8660.409521,919.314598
514.834789,-444.123565,-8956.491898,459.657299
514.835116,-444.123565,-9178.553681,383.047749
514.835444,-296.082377,-9178.553681,612.876398
514.835772,0.000000,-9104.533087,383.047749
514.836099,518.144159,-9400.615463,76.609550
514.836427,0.000000,-8956.491898,0.000000
514.836754,148.041188,-9030.512492,459.657299
514.837082,74.020594,-9252.574275,612.876398
514.837410,0.000000,-9326.594869,612.876398
514.837737,-148.041188,-9400.615463,612.876398
514.838065,-148.041188,-9548.656652,536.266849
514.838392,-296.082377,-9474.636058,459.657299
514.838720,0.000000,-9622.677246,536.266849
514.839048,-444.123565,-9326.594869,459.657299
514.839375,-296.082377,-9104.533087,459.657299
514.839703,-666.185348,-8734.430116,612.876398
514.840031,-296.082377,-9178.553681,536.266849
514.840358,-296.082377,-9178.553681,689.485948
514.840686,-370.102971,-9252.574275,612.876398
514.841013,-592.164754,-9696.697840,842.705048
514.841341,-814.226536,-9104.533087,842.705048
514.841669,-444.123565,-9252.574275,689.485948
514.841996,-444.123565,-9030.512492,536.266849
514.842324,0.000000,-9178.553681,612.876398
514.842651,0.000000,-8882.471304,383.047749
514.842979,-148.041188,-8882.471304,689.485948
514.843307,0.000000,-9178.553681,689.485948
514.843634,-296.082377,-9400.615463,689.485948
514.843962,-296.082377,-9622.677246,612.876398
514.844290,-444.123565,-9548.656652,766.095498
514.844617,0.000000,-9474.636058,1302.362347
514.844945,0.000000,-9252.574275,612.876398
514.845272,-296.082377,-9400.615463,612.876398
514.845600,0.000000,-9252.574275,612.876398
514.845928,-222.061783,-9030.512492,306.438199
514.846255,0.000000,-8586.388927,459.657299
514.846583,74.020594,-9030.512492,919.314598
514.846910,-370.102971,-9030.512492,536.266849
514.847238,-444.123565,-9030.512492,383.047749
514.847566,-444.123565,-9252.574275,536.266849
514.847893,-296.082377,-9104.533087,459.657299
514.848221,74.020594,-8882.471304,766.095498
514.848549,0.000000,-9178.553681,612.876398
514.848876,0.000000,-9178.553681,383.047749
514.849204,0.000000,-9178.553681,536.266849
514.849531,-222.061783,-9252.574275,536.266849
514.849859,-296.082377,-9252.574275,1532.190996
514.850187,0.000000,-9400.615463,459.657299
514.850514,-592.164754,-9326.594869,536.266849
514.850842,-296.082377,-9474.636058,842.705048
514.851169,-296.082377,-9104.533087,383.047749
514.851497,-370.102971,-8734.430116,383.047749
514.851825,0.000000,-8882.471304,612.876398
514.852152,-222.061783,-8734.430116,459.657299
514.852480,-296.082377,-8882.471304,459.657299
514.852807,-518.144159,-8956.491898,612.876398
514.853135,-592.164754,-9252.574275,153.219100
514.853463,-666.185348,-8808.450710,536.266849
514.853790,-222.061783,-8956.491898,689.485948
514.854118,-370.102971,-8882.471304,536.266849
514.854446,-296.082377,-8808.450710,612.876398
514.854773,0.000000,-9030.512492,689.485948
514.855101,-222.061783,-8290.306550,766.095498
514.855428,0.000000,-8882.471304,459.657299
514.855756,-296.082377,-8882.471304,612.876398
514.856084,-222.061783,-9400.615463,689.485948
514.856411,-370.102971,-9326.594869,612.876398
514.856739,-222.061783,-9178.553681,1149.143247
514.857066,-296.082377,-9104.533087,536.266849
514.857394,0.000000,-9178.553681,536.266849
514.857722,-148.041188,-9326.594869,306.438199
514.858049,-296.082377,-8882.471304,306.438199
514.858377,-370.102971,-8660.409521,766.095498
514.858705,74.020594,-9104.533087,689.485948
514.859032,-666.185348,-9030.512492,689.485948
514.859360,-444.123565,-9030.512492,919.314598
514.859687,-592.164754,-8956.491898,612.876398
514.860015,-296.082377,-8586.388927,229.828649
514.860343,-592.164754,-9030.512492,459.657299
514.860670,-592.164754,-9030.512492,612.876398
514.860998,-370.102971,-8808.450710,383.047749
514.861325,-370.102971,-8734.430116,459.657299
514.861653,0.000000,-9104.533087,689.485948
514.861981,-222.061783,-8956.491898,689.485948
514.862308,-296.082377,-9178.553681,766.095498
514.862636,-370.102971,-9104.533087,612.876398
514.862964,-370.102971,-9474.636058,689.485948
514.863291,-370.102971,-9400.615463,459.657299
514.863619,-222.061783,-9104.533087,842.705048
514.863946,74.020594,-8882.471304,383.047749
514.864274,-370.102971,-8956.491898,383.047749
514.864602,-444.123565,-9104.533087,383.047749
514.864929,-592.164754,-9326.594869,612.876398
514.865257,-592.164754,-8882.471304,766.095498
514.865584,0.000000,-8808.450710,459.657299
514.865912,-592.164754,-8882.471304,306.438199
514.866239,-444.123565,-9326.594869,306.438199
514.866567,-518.144159,-9178.553681,459.657299
514.866895,296.082377,-9548.656652,536.266849
514.867222,0.000000,-8512.368333,383.047749
514.867550,0.000000,-9252.574275,383.047749
514.867877,-74.020594,-9252.574275,229.828649
514.868205,0.000000,-9400.615463,612.876398
514.868532,0.000000,-9178.553681,612.876398
514.868860,0.000000,-9252.574275,766.095498
514.869188,-296.082377,-9252.574275,766.095498
514.869515,-444.123565,-9178.553681,383.047749
514.869843,-296.082377,-9104.533087,536.266849
514.870170,-370.102971,-8956.491898,459.657299
514.870498,-370.102971,-8882.471304,842.705048
514.870825,-296.082377,-9030.512492,459.657299
514.871153,-444.123565,-8882.471304,383.047749
514.871481,-592.164754,-8882.471304,689.485948
514.871808,-518.144159,-8882.471304,459.657299
514.872136,-888.247130,-8882.471304,766.095498
514.872463,-666.185348,-8882.471304,919.314598
514.872791,-444.123565,-8956.491898,689.485948
514.873118,-666.185348,-8882.471304,536.266849
514.873446,-370.102971,-8956.491898,766.095498
514.873773,-444.123565,-9326.594869,689.485948
514.874101,-222.061783,-8956.491898,919.314598
514.874429,-148.041188,-9178.553681,766.095498
514.874756,-222.061783,-9252.574275,842.705048
514.875084,-296.082377,-9178.553681,689.485948
514.875411,-518.144159,-9326.594869,689.485948
514.875739,0.000000,-8956.491898,612.876398
514.876066,-296.082377,-9030.512492,536.266849
514.876394,-296.082377,-9252.574275,842.705048
514.876722,0.000000,-9326.594869,689.485948
514.877049,0.000000,-9474.636058,536.266849
514.877377,0.000000,-9252.574275,689.485948
514.877704,0.000000,-8956.491898,229.828649
514.878032,0.000000,-9178.553681,459.657299
514.878359,-296.082377,-9178.553681,689.485948
514.878687,0.000000,-9252.574275,383.047749
514.879015,0.000000,-9326.594869,689.485948
514.879342,74.020594,-8956.491898,0.000000
514.879670,0.000000,-9400.615463,229.828649
514.879997,74.020594,-9474.636058,306.438199
514.880325,0.000000,-9326.594869,536.266849
514.880652,148.041188,-9252.574275,842.705048
514.880980,74.020594,-9030.512492,383.047749
514.881308,-370.102971,-9030.512492,766.095498
514.881635,-222.061783,-9252.574275,536.266849
514.881963,-148.041188,-9178.553681,459.657299
514.882290,-370.102971,-9104.533087,766.095498
514.882618,-518.144159,-8882.471304,842.705048
514.882945,-518.144159,-8956.491898,1225.752797
514.883273,-518.144159,-8956.491898,612.876398
514.883601,-444.123565,-8808.450710,536.266849
514.883928,-370.102971,-8882.471304,766.095498
514.884256,-370.102971,-8882.471304,1072.533697
514.884583,-666.185348,-8808.450710,459.657299
514.884911,-370.102971,-8734.430116,689.485948
514.885238,-592.164754,-8808.450710,612.876398
514.885566,-518.144159,-8956.491898,612.876398
514.885893,-1110.308913,-9252.574275,536.266849
514.886221,-222.061783,-8586.388927,689.485948
514.886549,0.000000,-8808.450710,689.485948
514.886876,-296.082377,-8956.491898,536.266849
514.887204,-296.082377,-9104.533087,766.095498
514.887531,-518.144159,-9030.512492,536.266849
514.887859,-370.102971,-8956.491898,1225.752797
514.888186,-296.082377,-9030.512492,459.657299
514.888514,-444.123565,-9178.553681,612.876398
514.888842,-148.041188,-9030.512492,612.876398
514.889169,-296.082377,-8956.491898,153.219100
514.889497,0.000000,-8660.409521,306.438199
514.889824,0.000000,-8660.409521,383.047749
514.890152,-296.082377,-8660.409521,306.438199
514.890479,-518.144159,-8882.471304,306.438199
514.890807,-518.144159,-8882.471304,383.047749
514.891135,0.000000,-9252.574275,689.485948
514.891462,-444.123565,-8956.491898,383.047749
514.891790,-444.123565,-9326.594869,459.657299
514.892117,-148.041188,-9178.553681,536.266849
514.892445,0.000000,-9252.574275,536.266849
514.892772,-74.020594,-9178.553681,919.314598
514.893100,0.000000,-8956.491898,842.705048
514.893428,-148.041188,-8882.471304,459.657299
514.893755,0.000000,-9104.533087,383.047749
514.894083,-444.123565,-9252.574275,689.485948
514.894410,-444.123565,-9474.636058,612.876398
514.894738,0.000000,-9326.594869,1149.143247
514.895065,-592.164754,-9252.574275,536.266849
514.895393,-370.102971,-9252.574275,459.657299
514.895721,-296.082377,-9252.574275,383.047749
514.896048,-296.082377,-8956.491898,536.266849
514.896376,-370.102971,-8586.388927,612.876398
514.896703,-370.102971,-8734.430116,689.485948
514.897031,-666.185348,-9252.574275,766.095498
514.897358,-444.123565,-9178.553681,536.266849
514.897686,-296.082377,-9474.636058,612.876398
514.898013,0.000000,-9548.656652,842.705048
514.898341,-148.041188,-9252.574275,612.876398
514.898669,148.041188,-9400.615463,459.657299
514.898996,74.020594,-9252.574275,459.657299
514.899324,222.061783,-9326.594869,536.266849
514.899651,0.000000,-9474.636058,536.266849
514.899979,0.000000,-9400.615463,76.609550
514.900306,0.000000,-9770.718434,689.485948
514.900634,0.000000,-9770.718434,689.485948
514.900962,-148.041188,-9622.677246,536.266849
514.901289,-148.041188,-9326.594869,689.485948
514.901617,444.123565,-9474.636058,842.705048
514.901944,-296.082377,-8808.450710,383.047749
514.902272,-222.061783,-8882.471304,536.266849
514.902599,-296.082377,-8734.430116,306.438199
514.902927,-370.102971,-8734.430116,306.438199
514.903255,-222.061783,-9252.574275,1225.752797
514.903582,-444.123565,-8882.471304,689.485948
514.903910,-370.102971,-9104.533087,842.705048
514.904237,-592.164754,-9104.533087,919.314598
514.904565,-444.123565,-9030.512492,536.266849
514.904892,-370.102971,-8808.450710,842.705048
514.905220,74.020594,-8808.450710,995.924147
514.905548,0.000000,-9104.533087,919.314598
514.905875,0.000000,-9178.553681,842.705048
514.906203,-666.185348,-9400.615463,919.314598
514.906530,-592.164754,-9400.615463,919.314598
514.906858,-518.144159,-9252.574275,1072.533697
514.907185,-370.102971,-9252.574275,1149.143247
514.907513,-222.061783,-9178.553681,842.705048
514.907841,-296.082377,-8956.491898,536.266849
514.908168,0.000000,-8734.430116,536.266849
514.908496,0.000000,-8734.430116,153.219100
514.908823,-666.185348,-8438.347739,459.657299
514.909151,-518.144159,-8808.450710,612.876398
514.909478,-592.164754,-9030.512492,689.485948
514.909806,-518.144159,-9030.512492,229.828649
514.910134,0.000000,-9104.533087,229.828649
514.910461,0.000000,-8882.471304,612.876398
514.910789,0.000000,-8956.491898,229.828649
514.911116,0.000000,-8734.430116,306.438199
514.911444,0.000000,-8734.430116,76.609550
514.911771,296.082377,-8808.450710,689.485948
514.912099,-222.061783,-8734.430116,612.876398
514.912426,0.000000,-9400.615463,383.047749
514.912754,0.000000,-9474.636058,536.266849
514.913082,0.000000,-9548.656652,459.657299
514.913409,0.000000,-9474.636058,153.219100
514.913737,-370.102971,-8734.430116,689.485948
514.914064,0.000000,-9178.553681,459.657299
514.914392,74.020594,-8808.450710,306.438199
514.914719,0.000000,-8956.491898,459.657299
514.915047,-444.123565,-8586.388927,459.657299
514.915375,-370.102971,-9178.553681,536.266849
514.915702,-1036.288319,-8734.430116,766.095498
514.916030,-1110.308913,-9030.512492,689.485948
514.916357,-666.185348,-9030.512492,842.705048
514.916685,-518.144159,-8956.491898,842.705048
514.917012,-444.123565,-9030.512492,536.266849
514.917340,-222.061783,-8438.347739,306.438199
514.917668,-296.082377,-8734.430116,536.266849
514.917995,-444.123565,-8956.491898,842.705048
514.918323,-518.144159,-9030.512492,766.095498
514.918650,-814.226536,-9178.553681,842.705048
514.918978,-222.061783,-9252.574275,1072.533697
514.919305,-518.144159,-9474.636058,689.485948
514.919633,-222.061783,-9326.594869,766.095498
514.919961,0.000000,-9252.574275,689.485948
514.920288,0.000000,-9104.533087,383.047749
514.920616,0.000000,-8808.450710,612.876398
514.920943,0.000000,-9104.533087,306.438199
514.921271,-148.041188,-8956.491898,612.876398
514.921598,-370.102971,-9400.615463,612.876398
514.921926,-518.144159,-9326.594869,612.876398
514.922254,-592.164754,-9252.574275,536.266849
514.922581,-592.164754,-9252.574275,536.266849
514.922909,0.000000,-9326.594869,306.438199
514.923236,-222.061783,-9030.512492,459.657299
514.923564,0.000000,-8956.491898,383.047749
514.923891,222.061783,-9178.553681,0.000000
514.924219,0.000000,-8956.491898,842.705048
514.924546,0.000000,-9252.574275,536.266849
514.924874,0.000000,-9400.615463,612.876398
514.925202,0.000000,-9696.697840,689.485948
514.925529,-370.102971,-9474.636058,383.047749
514.925857,0.000000,-9474.636058,842.705048
514.926184,-148.041188,-9252.574275,383.047749
514.926512,0.000000,-9252.574275,536.266849
514.926839,-222.061783,-9104.533087,612.876398
514.927167,-148.041188,-9104.533087,383.047749
514.927495,-222.061783,-9104.533087,919.314598
514.927822,-296.082377,-9178.553681,689.485948
514.928150,-370.102971,-9104.533087,689.485948
514.928477,-444.123565,-9104.533087,689.485948
514.928805,-444.123565,-9178.553681,766.095498
514.929132,0.000000,-8956.491898,689.485948
514.929460,-592.164754,-8808.450710,689.485948
514.929788,-296.082377,-9030.512492,536.266849
514.930115,0.000000,-8956.491898,536.266849
514.930443,-222.061783,-9178.553681,612.876398
514.930770,0.000000,-9474.636058,383.047749
514.931098,0.000000,-9030.512492,1455.581446
514.931425,-592.164754,-9400.615463,766.095498
514.931753,-444.123565,-9326.594869,536.266849
514.932081,-592.164754,-9252.574275,383.047749
514.932408,-444.123565,-8808.450710,76.609550
514.932736,0.000000,-8956.491898,306.438199
514.933063,-222.061783,-9104.533087,536.266849
514.933391,-222.061783,-8956.491898,306.438199
514.933718,-296.082377,-9030.512492,306.438199
514.934046,-444.123565,-8956.491898,153.219100
514.934374,-518.144159,-8882.471304,612.876398
514.934701,-666.185348,-8956.491898,306.438199
514.935029,-296.082377,-9030.512492,306.438199
514.935356,0.000000,-9104.533087,383.047749
514.935684,0.000000,-9104.533087,306.438199
514.936011,0.000000,-8808.450710,459.657299
514.936339,148.041188,-8808.450710,842.705048
514.936666,0.000000,-9030.512492,459.657299
514.936994,0.000000,-9178.553681,536.266849
514.937322,-222.061783,-9252.574275,689.485948
514.937649,-222.061783,-9104.533087,1149.143247
514.937977,-444.123565,-9178.553681,842.705048
514.938304,-148.041188,-9252.574275,612.876398
514.938632,-444.123565,-9030.512492,536.266849
514.938959,-370.102971,-8734.430116,766.095498
514.939287,-518.144159,-9030.512492,612.876398
514.939615,-592.164754,-8660.409521,0.000000
514.939942,-666.185348,-8808.450710,689.485948
514.940270,-740.205942,-8808.450710,612.876398
514.940597,-740.205942,-8660.409521,689.485948
