#time,accel_x,accel_y,accel_z
312.364331,-222.061783,-9030.512492,459.657299
312.364659,-370.102971,-9030.512492,536.266849
312.364986,-222.061783,-9104.533087,919.314598
312.365314,-222.061783,-9104.533087,612.876398
312.365642,0.000000,-9252.574275,995.924147
312.365970,-148.041188,-9178.553681,842.705048
312.366298,-444.123565,-9104.533087,536.266849
312.366626,-370.102971,-9104.533087,383.047749
312.366954,-296.082377,-8956.491898,689.485948
312.367282,-518.144159,-9104.533087,766.095498
312.367610,-296.082377,-8956.491898,536.266849
312.367938,-296.082377,-9030.512492,919.314598
312.368266,-222.061783,-9252.574275,536.266849
312.368593,-518.144159,-8956.491898,459.657299
312.368921,-296.082377,-9030.512492,689.485948
312.369249,296.082377,-9474.636058,612.876398
312.369577,-444.123565,-9104.533087,459.657299
312.369905,-296.082377,-9104.533087,919.314598
312.370233,-370.102971,-9178.553681,689.485948
312.370561,-148.041188,-8956.491898,459.657299
312.370889,0.000000,-8808.450710,689.485948
312.371217,0.000000,-8586.388927,76.609550
312.371545,-296.082377,-9104.533087,536.266849
312.371873,-222.061783,-9400.615463,612.876398
312.372200,-370.102971,-9326.594869,459.657299
312.372528,0.000000,-8808.450710,612.876398
312.372856,0.000000,-8734.430116,766.095498
312.373184,-222.061783,-9326.594869,536.266849
312.373512,-740.205942,-9474.636058,0.000000
312.373840,-962.267725,-9474.636058,0.000000
312.374168,-1332.370696,-9622.677246,-153.219100
312.374496,-1036.288319,-9104.533087,-612.876398
312.374824,-740.205942,-9030.512492,-306.438199
312.375152,-592.164754,-9030.512492,-383.047749
312.375480,-740.205942,-9474.636058,-766.095498
312.375807,-1110.308913,-9252.574275,-842.705048
312.376135,-888.247130,-9252.574275,-766.095498
312.376463,-962.267725,-9030.512492,-1072.533697
312.376791,-592.164754,-9252.574275,-1455.581446
312.377119,-592.164754,-9252.574275,-1149.143247
312.377447,-444.123565,-9326.594869,-1225.752797
312.377775,-592.164754,-8882.471304,-306.438199
312.378103,0.000000,-8660.409521,-2145.067394
312.378431,-148.041188,-9252.574275,-1685.410096
312.378759,0.000000,-9474.636058,-1838.629195
312.379087,0.000000,-9400.615463,-1685.410096
312.379414,444.123565,-9178.553681,-1225.752797
312.379742,740.205942,-9326.594869,-1302.362347
312.380070,148.041188,-9252.574275,-1762.019645
312.380398,370.102971,-9178.553681,-1685.410096
312.380726,518.144159,-9252.574275,-1685.410096
312.381054,444.123565,-9178.553681,-1838.629195
312.381382,444.123565,-9030.512492,-1685.410096
312.381710,222.061783,-9400.615463,-1532.190996
312.382038,370.102971,-9326.594869,-1302.362347
312.382366,296.082377,-8956.491898,-1455.581446
312.382694,444.123565,-9178.553681,-1302.362347
312.383021,74.020594,-8808.450710,-1225.752797
312.383349,0.000000,-9178.553681,-1455.581446
312.383677,-296.082377,-9030.512492,-1225.752797
312.384005,-370.102971,-9178.553681,-1378.971896
312.384333,-888.247130,-9104.533087,-1302.362347
312.384661,-888.247130,-8882.471304,-1225.752797
312.384989,-1036.288319,-9030.512492,-1915.238745
312.385317,-1480.411884,-9104.533087,-1838.629195
312.385645,-1998.556043,-9030.512492,-2068.457845
312.385973,-2146.597232,-9030.512492,-2298.286494
312.386301,-1776.494261,-9030.512492,-1762.019645
312.386628,-1258.350101,-9104.533087,-2451.505594
312.386956,-1480.411884,-8586.388927,-2221.676944
312.387284,-1110.308913,-8808.450710,-2221.676944
312.387612,-814.226536,-8660.409521,-2145.067394
312.387940,-666.185348,-8808.450710,-1991.848295
312.388268,-222.061783,-8808.450710,-1915.238745
312.388596,-222.061783,-8808.450710,-1685.410096
312.388924,-222.061783,-9400.615463,-1378.971896
312.389252,148.041188,-9178.553681,-995.924147
312.389580,1110.308913,-9252.574275,-459.657299
312.389908,2072.576638,-8956.491898,-229.828649
312.390235,2294.638420,-9030.512492,76.609550
312.390563,2442.679609,-9252.574275,306.438199
312.390891,2146.597232,-9400.615463,536.266849
312.391219,1702.473667,-9548.656652,612.876398
312.391547,888.247130,-9326.594869,766.095498
312.391875,222.061783,-9770.718434,842.705048
312.392203,-148.041188,-9770.718434,0.000000
312.392531,-814.226536,-9770.718434,0.000000
312.392859,-1110.308913,-9548.656652,-536.266849
312.393187,-1184.329507,-9474.636058,-153.219100
312.393515,-1776.494261,-9474.636058,-306.438199
312.393842,-1924.535449,-8808.450710,-919.314598
312.394170,-2220.617826,-8734.430116,-1302.362347
312.394498,-2220.617826,-8512.368333,-842.705048
312.394826,-1702.473667,-8216.285956,-612.876398
312.395154,-1110.308913,-8068.244768,-306.438199
312.395482,-518.144159,-7994.224174,306.438199
312.395810,148.041188,-8142.265362,689.485948
312.396138,148.041188,-8142.265362,1225.752797
312.396466,370.102971,-8882.471304,1685.410096
312.396794,148.041188,-9030.512492,2681.334243
312.397122,0.000000,-9622.677246,1762.019645
312.397449,-592.164754,-9844.739029,1838.629195
312.397777,-592.164754,-10214.842000,1378.971896
312.398105,-222.061783,-9844.739029,1302.362347
312.398433,370.102971,-9474.636058,1225.752797
312.398761,518.144159,-9474.636058,1302.362347
312.399089,74.020594,-9474.636058,995.924147
312.399417,370.102971,-9326.594869,1072.533697
312.399745,0.000000,-9030.512492,459.657299
312.400073,-518.144159,-9030.512492,383.047749
312.400401,-222.061783,-9104.533087,766.095498
312.400729,-666.185348,-9474.636058,1072.533697
312.401056,-592.164754,-9326.594869,1302.362347
312.401384,-370.102971,-9030.512492,1532.190996
312.401712,-444.123565,-8956.491898,1762.019645
312.402040,-888.247130,-8882.471304,2145.067394
312.402368,-962.267725,-9030.512492,1378.971896
312.402696,-1258.350101,-8956.491898,919.314598
312.403024,-1628.453072,-8808.450710,383.047749
312.403352,-1924.535449,-8956.491898,0.000000
312.403680,-1924.535449,-8956.491898,-919.314598
312.404008,-1258.350101,-8586.388927,-229.828649
312.404336,-740.205942,-8512.368333,-689.485948
312.404663,-444.123565,-8216.285956,-689.485948
312.404991,74.020594,-8808.450710,-459.657299
312.405319,592.164754,-9104.533087,-1378.971896
312.405647,74.020594,-8512.368333,-306.438199
312.405975,148.041188,-9622.677246,0.000000
312.406303,222.061783,-10288.862594,153.219100
312.406631,370.102971,-10362.883188,689.485948
312.406959,1036.288319,-9992.780217,1149.143247
312.407287,1702.473667,-9474.636058,1072.533697
312.407615,1776.494261,-9326.594869,1608.800546
312.407943,1702.473667,-9474.636058,1762.019645
312.408270,1110.308913,-9400.615463,1302.362347
312.408598,444.123565,-9252.574275,612.876398
312.408926,222.061783,-8808.450710,76.609550
312.409254,-222.061783,-8808.450710,0.000000
312.409582,-592.164754,-8808.450710,-459.657299
312.409910,-296.082377,-8660.409521,-229.828649
312.410238,-296.082377,-8142.265362,-383.047749
312.410566,-296.082377,-8068.244768,-689.485948
312.410894,-296.082377,-8364.327145,-995.924147
312.411222,-1184.329507,-8734.430116,-766.095498
312.411550,-1258.350101,-9030.512492,-842.705048
312.411877,-1332.370696,-8882.471304,-536.266849
312.412205,-1110.308913,-8956.491898,76.609550
312.412533,-592.164754,-8438.347739,0.000000
312.412861,0.000000,-9178.553681,689.485948
312.413189,296.082377,-9104.533087,1302.362347
312.413517,444.123565,-8956.491898,1072.533697
312.413845,0.000000,-9474.636058,842.705048
312.414173,-74.020594,-9252.574275,0.000000
312.414501,-370.102971,-9474.636058,459.657299
312.414829,-444.123565,-9400.615463,0.000000
312.415157,0.000000,-9400.615463,0.000000
312.415484,0.000000,-8808.450710,76.609550
312.415812,518.144159,-8660.409521,76.609550
312.416140,962.267725,-8290.306550,383.047749
312.416468,888.247130,-8438.347739,306.438199
312.416796,444.123565,-8586.388927,383.047749
312.417124,370.102971,-8808.450710,536.266849
312.417452,-222.061783,-8882.471304,995.924147
312.417780,222.061783,-9474.636058,842.705048
312.418108,518.144159,-9326.594869,1838.629195
312.418436,444.123565,-9326.594869,2068.457845
312.418764,222.061783,-9400.615463,2451.505594
312.419091,148.041188,-9474.636058,2068.457845
312.419419,-370.102971,-9400.615463,2451.505594
312.419747,-1258.350101,-9474.636058,1455.581446
312.420075,-1702.473667,-9474.636058,995.924147
312.420403,-1776.494261,-9400.615463,536.266849
312.420731,-1406.391290,-9030.512492,459.657299
312.421059,-666.185348,-8956.491898,1149.143247
312.421387,-814.226536,-8364.327145,229.828649
312.421715,-740.205942,-8512.368333,153.219100
312.422043,-1332.370696,-8882.471304,229.828649
312.422371,-1776.494261,-8734.430116,76.609550
312.422698,-2146.597232,-8512.368333,76.609550
312.423026,-1702.473667,-9252.574275,383.047749
312.423354,-1258.350101,-9474.636058,842.705048
312.423682,-740.205942,-9474.636058,1072.533697
312.424010,74.020594,-9400.615463,1762.019645
312.424337,592.164754,-9178.553681,1532.190996
312.424665,222.061783,-9178.553681,1455.581446
312.424993,74.020594,-9548.656652,1378.971896
312.425321,0.000000,-10066.800811,612.876398
312.425649,-296.082377,-9474.636058,306.438199
312.425977,0.000000,-9178.553681,612.876398
312.426304,0.000000,-9474.636058,153.219100
312.426632,370.102971,-9400.615463,0.000000
312.426960,1110.308913,-9252.574275,0.000000
312.427288,1184.329507,-9104.533087,0.000000
312.427616,740.205942,-9178.553681,-229.828649
312.427943,370.102971,-9030.512492,229.828649
312.428271,370.102971,-9548.656652,-153.219100
312.428599,74.020594,-9622.677246,0.000000
312.428927,296.082377,-9622.677246,459.657299
312.429255,296.082377,-9474.636058,766.095498
312.429582,962.267725,-9104.533087,1149.143247
312.429910,888.247130,-9030.512492,1378.971896
312.430238,296.082377,-9178.553681,1149.143247
312.430566,0.000000,-8956.491898,766.095498
312.430894,-814.226536,-8956.491898,459.657299
312.431222,-1110.308913,-8586.388927,306.438199
312.431549,-1184.329507,-8660.409521,-612.876398
312.431877,-1480.411884,-8882.471304,-536.266849
312.432205,-1184.329507,-8808.450710,-306.438199
312.432533,-1258.350101,-8586.388927,-536.266849
312.432861,-1036.288319,-8586.388927,0.000000
312.433188,-888.247130,-8364.327145,-306.438199
312.433516,-1184.329507,-8512.368333,-383.047749
312.433844,-1184.329507,-8808.450710,-383.047749
312.434172,-1036.288319,-8956.491898,0.000000
312.434500,-296.082377,-8956.491898,536.266849
312.434828,296.082377,-8808.450710,995.924147
312.435155,814.226536,-8956.491898,1455.581446
312.435483,740.205942,-8882.471304,1762.019645
312.435811,592.164754,-9030.512492,1685.410096
312.436139,296.082377,-9178.553681,1532.190996
312.436467,74.020594,-9178.553681,1532.190996
312.436794,-148.041188,-9252.574275,306.438199
312.437122,-370.102971,-9252.574275,459.657299
312.437450,0.000000,-9252.574275,76.609550
312.437778,666.185348,-8956.491898,153.219100
312.438106,518.144159,-8216.285956,689.485948
312.438433,962.267725,-8734.430116,0.000000
312.438761,518.144159,-8956.491898,76.609550
312.439089,0.000000,-8882.471304,76.609550
312.439417,0.000000,-9252.574275,229.828649
312.439745,-592.164754,-9178.553681,842.705048
312.440073,0.000000,-9326.594869,1302.362347
312.440400,0.000000,-9548.656652,1532.190996
312.440728,0.000000,-9474.636058,1838.629195
312.441056,0.000000,-9326.594869,2145.067394
312.441384,-518.144159,-9548.656652,2145.067394
312.441712,-888.247130,-9474.636058,1685.410096
312.442039,-1480.411884,-9474.636058,1149.143247
312.442367,-1628.453072,-9326.594869,766.095498
312.442695,-1554.432478,-8956.491898,383.047749
312.443023,-1184.329507,-8808.450710,153.219100
312.443351,-1184.329507,-8586.388927,536.266849
312.443679,-444.123565,-8956.491898,306.438199
312.444006,-740.205942,-8660.409521,229.828649
312.444334,-740.205942,-9178.553681,383.047749
312.444662,-1332.370696,-9474.636058,306.438199
312.444990,-1184.329507,-9548.656652,919.314598
312.445318,-1184.329507,-9104.533087,842.705048
312.445645,-740.205942,-9548.656652,689.485948
312.445973,-370.102971,-9696.697840,1608.800546
312.446301,148.041188,-9770.718434,1762.019645
312.446629,592.164754,-9474.636058,1685.410096
312.446957,370.102971,-9104.533087,1685.410096
312.447284,148.041188,-9178.553681,1225.752797
312.447612,-296.082377,-9400.615463,612.876398
312.447940,-370.102971,-9252.574275,0.000000
312.448268,-370.102971,-9104.533087,0.000000
312.448596,592.164754,-8956.491898,-306.438199
312.448924,222.061783,-8808.450710,-306.438199
312.449251,444.123565,-8734.430116,-229.828649
312.449579,444.123565,-8660.409521,-306.438199
312.449907,444.123565,-8956.491898,0.000000
312.450235,74.020594,-8956.491898,0.000000
312.450563,0.000000,-9474.636058,0.000000
312.450890,-222.061783,-9474.636058,153.219100
312.451218,148.041188,-9400.615463,459.657299
312.451546,370.102971,-9252.574275,766.095498
312.451874,740.205942,-9252.574275,1072.533697
312.452202,1184.329507,-9030.512492,1225.752797
312.452530,444.123565,-9104.533087,1149.143247
312.452857,0.000000,-9104.533087,689.485948
312.453185,-370.102971,-9178.553681,459.657299
312.453513,-740.205942,-9326.594869,153.219100
312.453841,-444.123565,-9400.615463,-306.438199
312.454169,-666.185348,-8734.430116,0.000000
312.454496,-444.123565,-8586.388927,0.000000
312.454824,-740.205942,-8660.409521,-306.438199
312.455152,-592.164754,-8586.388927,-153.219100
312.455480,-962.267725,-8290.306550,-536.266849
312.455808,-1332.370696,-8364.327145,-383.047749
312.456135,-1184.329507,-8734.430116,0.000000
312.456463,-1258.350101,-9030.512492,0.000000
312.456791,-444.123565,-8808.450710,459.657299
312.457119,0.000000,-8956.491898,1225.752797
312.457447,518.144159,-8734.430116,1532.190996
312.457775,666.185348,-9030.512492,1762.019645
312.458102,148.041188,-9252.574275,1455.581446
312.458430,-296.082377,-9400.615463,1149.143247
312.458758,-666.185348,-9104.533087,766.095498
312.459086,-814.226536,-9252.574275,153.219100
312.459414,-962.267725,-9548.656652,153.219100
312.459741,-518.144159,-9400.615463,0.000000
312.460069,-296.082377,-8956.491898,153.219100
312.460397,296.082377,-8734.430116,0.000000
312.460725,962.267725,-8660.409521,0.000000
312.461053,518.144159,-8660.409521,153.219100
312.461381,518.144159,-8956.491898,153.219100
312.461708,148.041188,-9030.512492,306.438199
312.462036,-148.041188,-9252.574275,766.095498
312.462364,74.020594,-9252.574275,1149.143247
312.462692,444.123565,-9548.656652,1685.410096
312.463020,592.164754,-9400.615463,2145.067394
312.463347,296.082377,-9474.636058,2068.457845
312.463675,0.000000,-9474.636058,1838.629195
312.464003,-296.082377,-9474.636058,1685.410096
312.464331,-740.205942,-9400.615463,919.314598
312.464659,-1332.370696,-9400.615463,536.266849
312.464986,-1036.288319,-9252.574275,306.438199
312.465314,-962.267725,-9178.553681,0.000000
312.465642,-740.205942,-8734.430116,76.609550
312.465970,-888.247130,-8512.368333,383.047749
312.466298,-740.205942,-8882.471304,229.828649
312.466626,-1258.350101,-8882.471304,0.000000
312.466953,-1850.514855,-9104.533087,0.000000
312.467281,-1776.494261,-9474.636058,0.000000
312.467609,-1406.391290,-9104.533087,306.438199
312.467937,-888.247130,-9400.615463,1149.143247
312.468265,-296.082377,-9252.574275,1455.581446
312.468592,148.041188,-9252.574275,1762.019645
312.468920,222.061783,-9252.574275,1685.410096
312.469248,222.061783,-9178.553681,1225.752797
312.469576,-518.144159,-9030.512492,842.705048
312.469904,-592.164754,-9326.594869,383.047749
312.470232,-444.123565,-9178.553681,229.828649
312.470559,-296.082377,-9104.533087,76.609550
312.470887,296.082377,-9326.594869,-153.219100
312.471215,666.185348,-8734.430116,383.047749
312.471543,740.205942,-8660.409521,153.219100
312.471871,962.267725,-8882.471304,459.657299
312.472198,814.226536,-9104.533087,153.219100
312.472526,666.185348,-9474.636058,459.657299
312.472854,-148.041188,-9326.594869,229.828649
312.473182,0.000000,-9400.615463,766.095498
312.473510,-148.041188,-9400.615463,919.314598
312.473837,296.082377,-9326.594869,1149.143247
312.474165,518.144159,-9104.533087,1532.190996
312.474493,74.020594,-8586.388927,1608.800546
312.474821,0.000000,-8808.450710,1302.362347
312.475149,-592.164754,-8956.491898,919.314598
312.475477,-1036.288319,-9030.512492,229.828649
312.475804,-1406.391290,-8660.409521,0.000000
312.476132,-1258.350101,-9104.533087,-229.828649
312.476460,-962.267725,-8660.409521,-229.828649
312.476788,-1184.329507,-8364.327145,-229.828649
312.477116,-1036.288319,-8364.327145,-76.609550
312.477443,-888.247130,-8586.388927,-459.657299
312.477771,-962.267725,-8882.471304,0.000000
312.478099,-1184.329507,-8660.409521,-383.047749
312.478427,-1258.350101,-8956.491898,-383.047749
312.478755,-962.267725,-9178.553681,76.609550
312.479083,0.000000,-9252.574275,383.047749
312.479410,148.041188,-8882.471304,1149.143247
312.479738,444.123565,-8956.491898,1762.019645
312.480066,962.267725,-9400.615463,1685.410096
312.480394,666.185348,-9696.697840,1225.752797
312.480722,148.041188,-9622.677246,689.485948
312.481049,0.000000,-9474.636058,306.438199
312.481377,0.000000,-9474.636058,229.828649
312.481705,-296.082377,-9400.615463,-229.828649
312.482033,0.000000,-9326.594869,0.000000
312.482361,444.123565,-8734.430116,0.000000
312.482688,518.144159,-8660.409521,0.000000
312.483016,1036.288319,-8586.388927,153.219100
312.483344,1036.288319,-8660.409521,0.000000
312.483672,0.000000,-9252.574275,76.609550
312.484000,0.000000,-9326.594869,153.219100
312.484328,-296.082377,-9474.636058,689.485948
312.484655,0.000000,-9104.533087,1225.752797
312.484983,148.041188,-9548.656652,2145.067394
312.485311,296.082377,-9548.656652,2145.067394
312.485639,74.020594,-9326.594869,1838.629195
312.485967,0.000000,-9400.615463,1762.019645
312.486294,-370.102971,-9326.594869,1455.581446
312.486622,-1258.350101,-8882.471304,766.095498
312.486950,-1258.350101,-9178.553681,536.266849
312.487278,-1110.308913,-8808.450710,383.047749
312.487606,-962.267725,-9030.512492,536.266849
312.487934,-592.164754,-8956.491898,459.657299
312.488261,-592.164754,-8216.285956,612.876398
312.488589,-814.226536,-9030.512492,383.047749
312.488917,-1110.308913,-9104.533087,536.266849
312.489245,-1406.391290,-9252.574275,612.876398
312.489573,-1554.432478,-9474.636058,459.657299
312.489900,-1480.411884,-9326.594869,766.095498
312.490228,-888.247130,-9400.615463,2145.067394
312.490556,-296.082377,-9326.594869,1685.410096
312.490884,0.000000,-9030.512492,1762.019645
312.491212,0.000000,-9178.553681,1532.190996
312.491539,-74.020594,-9178.553681,2145.067394
312.491867,-518.144159,-9030.512492,919.314598
312.492195,-740.205942,-9104.533087,536.266849
312.492523,-1036.288319,-9104.533087,153.219100
312.492851,-296.082377,-9030.512492,153.219100
312.493179,0.000000,-9178.553681,0.000000
312.493506,74.020594,-8882.471304,0.000000
312.493834,370.102971,-8660.409521,0.000000
312.494162,370.102971,-8956.491898,0.000000
312.494490,370.102971,-9252.574275,0.000000
312.494818,0.000000,-9400.615463,0.000000
312.495145,0.000000,-9326.594869,459.657299
312.495473,74.020594,-9326.594869,459.657299
312.495801,370.102971,-9326.594869,612.876398
312.496129,740.205942,-9252.574275,1149.143247
312.496457,1184.329507,-9252.574275,1455.581446
312.496785,1110.308913,-9252.574275,1608.800546
312.497112,296.082377,-8586.388927,1608.800546
312.497440,0.000000,-9252.574275,536.266849
312.497768,-666.185348,-9104.533087,76.609550
312.498096,-962.267725,-9400.615463,0.000000
312.498424,-592.164754,-9400.615463,-383.047749
312.498751,-740.205942,-8660.409521,-76.609550
312.499079,-518.144159,-8882.471304,-153.219100
312.499407,-444.123565,-8660.409521,-306.438199
312.499735,-814.226536,-8512.368333,-383.047749
312.500063,-962.267725,-8660.409521,-536.266849
312.500390,-1406.391290,-8438.347739,-306.438199
312.500718,-1258.350101,-9030.512492,-306.438199
312.501046,-1110.308913,-9104.533087,-306.438199
312.501374,-444.123565,-9104.533087,306.438199
312.501702,74.020594,-9104.533087,995.924147
312.502030,592.164754,-9104.533087,1378.971896
312.502357,814.226536,-9548.656652,1685.410096
312.502685,148.041188,-9252.574275,1149.143247
312.503013,-370.102971,-9104.533087,766.095498
312.503341,-814.226536,-9400.615463,153.219100
312.503669,-518.144159,-9326.594869,536.266849
312.503996,-444.123565,-9104.533087,0.000000
312.504324,-148.041188,-9030.512492,0.000000
312.504652,148.041188,-8734.430116,153.219100
312.504980,740.205942,-8586.388927,76.609550
312.505308,888.247130,-8660.409521,459.657299
312.505636,962.267725,-8660.409521,383.047749
312.505963,444.123565,-8882.471304,459.657299
312.506291,222.061783,-9400.615463,689.485948
312.506619,74.020594,-9622.677246,1072.533697
312.506947,74.020594,-9622.677246,1455.581446
312.507275,296.082377,-9326.594869,2681.334243
312.507602,74.020594,-9326.594869,2145.067394
312.507930,148.041188,-9548.656652,2298.286494
312.508258,-444.123565,-9326.594869,1685.410096
312.508586,-666.185348,-9474.636058,1302.362347
312.508914,-1184.329507,-8808.450710,1149.143247
312.509241,-1258.350101,-9030.512492,0.000000
312.509569,-1480.411884,-8808.450710,76.609550
312.509897,-1184.329507,-8808.450710,0.000000
312.510225,-962.267725,-8438.347739,76.609550
312.510553,-370.102971,-8290.306550,0.000000
312.510881,-518.144159,-8512.368333,306.438199
312.511208,-962.267725,-8808.450710,0.000000
312.511536,-1406.391290,-9104.533087,153.219100
312.511864,-1184.329507,-9400.615463,153.219100
312.512192,-962.267725,-9252.574275,306.438199
312.512520,148.041188,-9696.697840,1149.143247
312.512847,148.041188,-9326.594869,1455.581446
312.513175,444.123565,-9474.636058,1532.190996
312.513503,296.082377,-9474.636058,1838.629195
312.513831,296.082377,-9474.636058,1455.581446
312.514159,0.000000,-9770.718434,459.657299
312.514487,0.000000,-9326.594869,459.657299
312.514814,-444.123565,-9252.574275,0.000000
312.515142,-222.061783,-9474.636058,-153.219100
312.515470,222.061783,-9326.594869,76.609550
312.515798,296.082377,-8512.368333,383.047749
312.516126,592.164754,-8586.388927,76.609550
312.516453,518.144159,-9030.512492,76.609550
312.516781,0.000000,-9104.533087,76.609550
312.517109,-518.144159,-9474.636058,153.219100
312.517437,-518.144159,-8956.491898,536.266849
312.517765,-666.185348,-9104.533087,612.876398
312.518092,-296.082377,-9252.574275,842.705048
312.518420,0.000000,-9178.553681,1225.752797
312.518748,444.123565,-9104.533087,1608.800546
312.519076,296.082377,-8734.430116,1608.800546
312.519404,370.102971,-8512.368333,1302.362347
312.519732,-592.164754,-9178.553681,459.657299
312.520059,-1110.308913,-9030.512492,383.047749
312.520387,-1258.350101,-9104.533087,0.000000
312.520715,-962.267725,-8660.409521,0.000000
312.521043,-666.185348,-9030.512492,0.000000
312.521371,-888.247130,-8808.450710,-306.438199
312.521698,-592.164754,-8808.450710,0.000000
312.522026,-814.226536,-8660.409521,0.000000
312.522354,-1036.288319,-8882.471304,-229.828649
312.522682,-1258.350101,-9030.512492,0.000000
312.523010,-1184.329507,-9252.574275,0.000000
312.523338,-740.205942,-9400.615463,306.438199
312.523665,0.000000,-9030.512492,766.095498
312.523993,592.164754,-9030.512492,1302.362347
312.524322,888.247130,-8808.450710,1608.800546
312.524650,666.185348,-9400.615463,1378.971896
312.524977,444.123565,-9400.615463,1455.581446
312.525305,0.000000,-9474.636058,919.314598
312.525633,-370.102971,-9326.594869,536.266849
312.525960,-814.226536,-9030.512492,0.000000
312.526288,-148.041188,-9178.553681,153.219100
312.526616,-370.102971,-8882.471304,-153.219100
312.526944,148.041188,-8734.430116,0.000000
312.527271,296.082377,-8660.409521,76.609550
312.527599,148.041188,-8660.409521,-229.828649
312.527927,74.020594,-8512.368333,-229.828649
312.528254,0.000000,-8882.471304,229.828649
312.528582,-296.082377,-9252.574275,612.876398
312.528910,-148.041188,-9622.677246,766.095498
312.529237,0.000000,-9474.636058,1149.143247
312.529565,296.082377,-9030.512492,1685.410096
312.529893,814.226536,-9178.553681,2068.457845
312.530220,444.123565,-9474.636058,1762.019645
312.530548,-222.061783,-9326.594869,1685.410096
312.530876,-370.102971,-9474.636058,1302.362347
312.531203,-592.164754,-9400.615463,842.705048
312.531531,-740.205942,-9104.533087,689.485948
312.531859,-740.205942,-9104.533087,536.266849
312.532186,-666.185348,-8808.450710,383.047749
312.532514,-518.144159,-8808.450710,153.219100
312.532842,0.000000,-9030.512492,306.438199
312.533169,-518.144159,-8364.327145,383.047749
312.533497,-666.185348,-9400.615463,306.438199
312.533825,-740.205942,-9326.594869,76.609550
312.534152,-1258.350101,-9400.615463,153.219100
312.534480,-814.226536,-9474.636058,536.266849
312.534808,-444.123565,-9326.594869,2068.457845
312.535136,148.041188,-9400.615463,1838.629195
312.535463,74.020594,-9400.615463,1532.190996
312.535791,222.061783,-9178.553681,1838.629195
312.536119,-444.123565,-9326.594869,919.314598
312.536446,-592.164754,-9400.615463,612.876398
312.536774,-814.226536,-8956.491898,306.438199
312.537102,-814.226536,-9326.594869,76.609550
312.537429,-518.144159,-9030.512492,0.000000
312.537757,-222.061783,-8956.491898,-229.828649
312.538085,296.082377,-8364.327145,-383.047749
312.538412,296.082377,-8734.430116,-153.219100
312.538740,296.082377,-8956.491898,0.000000
312.539068,222.061783,-9104.533087,0.000000
312.539395,-370.102971,-8586.388927,0.000000
312.539723,-370.102971,-9844.739029,0.000000
312.540051,444.123565,-9918.759623,383.047749
312.540378,0.000000,-9104.533087,689.485948
312.540706,814.226536,-9178.553681,1225.752797
312.541034,740.205942,-9326.594869,1608.800546
312.541361,592.164754,-9252.574275,1608.800546
312.541689,370.102971,-9400.615463,1302.362347
312.542017,-444.123565,-8956.491898,1072.533697
312.542345,-888.247130,-9252.574275,383.047749
312.542672,-592.164754,-9252.574275,459.657299
312.543000,-518.144159,-9030.512492,459.657299
312.543328,-444.123565,-8660.409521,-153.219100
312.543655,-518.144159,-8068.244768,612.876398
312.543983,0.000000,-8586.388927,0.000000
312.544311,0.000000,-8956.491898,76.609550
312.544638,-962.267725,-8438.347739,-306.438199
312.544966,-1036.288319,-8956.491898,383.047749
312.545294,-888.247130,-9400.615463,306.438199
312.545621,-962.267725,-9252.574275,153.219100
312.545949,0.000000,-9252.574275,995.924147
312.546277,-222.061783,-8660.409521,1149.143247
312.546604,444.123565,-9030.512492,1455.581446
312.546932,370.102971,-8660.409521,1608.800546
312.547260,-222.061783,-9326.594869,1378.971896
312.547587,-518.144159,-9474.636058,1072.533697
312.547915,-888.247130,-9326.594869,0.000000
312.548243,-962.267725,-9622.677246,306.438199
312.548570,-444.123565,-9252.574275,0.000000
312.548898,-444.123565,-8882.471304,0.000000
312.549226,222.061783,-8808.450710,153.219100
312.549553,740.205942,-8586.388927,306.438199
312.549881,666.185348,-8586.388927,229.828649
312.550209,370.102971,-8660.409521,76.609550
312.550537,0.000000,-8808.450710,536.266849
312.550864,0.000000,-9252.574275,689.485948
312.551192,0.000000,-9326.594869,919.314598
312.551520,148.041188,-9622.677246,1302.362347
312.551847,740.205942,-9548.656652,1838.629195
312.552175,592.164754,-8586.388927,1915.238745
312.552503,444.123565,-9622.677246,1991.848295
312.552830,0.000000,-9252.574275,1532.190996
312.553158,-518.144159,-9622.677246,842.705048
312.553486,-1036.288319,-9548.656652,459.657299
312.553813,-1110.308913,-9104.533087,612.876398
312.554141,-1480.411884,-9030.512492,-306.438199
312.554469,-740.205942,-9104.533087,0.000000
312.554796,-814.226536,-8956.491898,0.000000
312.555124,-888.247130,-8586.388927,-306.438199
312.555452,-1110.308913,-8956.491898,0.000000
312.555779,-1110.308913,-8808.450710,0.000000
312.556107,-1480.411884,-9030.512492,-459.657299
312.556435,-1332.370696,-8956.491898,-383.047749
312.556762,-888.247130,-9178.553681,229.828649
312.557090,-370.102971,-9030.512492,919.314598
312.557418,74.020594,-8882.471304,1302.362347
312.557745,592.164754,-9178.553681,1378.971896
312.558073,518.144159,-9326.594869,1532.190996
312.558401,296.082377,-9474.636058,1302.362347
312.558729,0.000000,-9400.615463,995.924147
312.559056,-222.061783,-9104.533087,842.705048
312.559384,-222.061783,-9178.553681,153.219100
312.559712,370.102971,-9252.574275,306.438199
312.560039,740.205942,-8882.471304,229.828649
312.560367,1110.308913,-8660.409521,306.438199
312.560695,1258.350101,-8808.450710,383.047749
312.561022,518.144159,-8660.409521,383.047749
312.561350,148.041188,-8956.491898,153.219100
312.561678,-296.082377,-9104.533087,229.828649
312.562005,-518.144159,-9400.615463,689.485948
312.562333,-148.041188,-9326.594869,1302.362347
312.562661,0.000000,-9178.553681,766.095498
312.562988,0.000000,-9178.553681,1608.800546
312.563316,222.061783,-9030.512492,1532.190996
312.563644,-296.082377,-9104.533087,1532.190996
312.563971,-518.144159,-9178.553681,1072.533697
312.564299,-1480.411884,-8956.491898,919.314598
312.564627,-1554.432478,-9030.512492,306.438199
312.564954,-1776.494261,-8734.430116,0.000000
312.565282,-1554.432478,-8660.409521,0.000000
312.565610,-962.267725,-8734.430116,0.000000
312.565938,-962.267725,-8438.347739,-153.219100
312.566265,-888.247130,-8586.388927,-306.438199
312.566593,-740.205942,-8956.491898,0.000000
312.566921,-1036.288319,-9104.533087,-229.828649
312.567248,-1258.350101,-9178.553681,-153.219100
312.567576,-518.144159,-9474.636058,-229.828649
312.567904,0.000000,-9252.574275,612.876398
312.568231,296.082377,-9474.636058,919.314598
312.568559,962.267725,-9474.636058,1455.581446
312.568887,962.267725,-9474.636058,1685.410096
312.569214,666.185348,-9326.594869,1915.238745
312.569542,666.185348,-9474.636058,1149.143247
312.569870,-296.082377,-9548.656652,536.266849
312.570197,-592.164754,-9474.636058,229.828649
312.570525,-222.061783,-9696.697840,0.000000
312.570853,0.000000,-9548.656652,-306.438199
312.571180,-148.041188,-8808.450710,153.219100
312.571508,370.102971,-9104.533087,0.000000
312.571836,518.144159,-8734.430116,0.000000
312.572163,296.082377,-8512.368333,0.000000
312.572491,222.061783,-8956.491898,76.609550
312.572819,-518.144159,-8734.430116,153.219100
312.573146,-296.082377,-9252.574275,76.609550
312.573474,-444.123565,-9474.636058,612.876398
312.573802,74.020594,-9474.636058,1149.143247
312.574130,444.123565,-9474.636058,1532.190996
312.574457,296.082377,-9104.533087,1991.848295
312.574785,222.061783,-9326.594869,1685.410096
312.575113,-296.082377,-9326.594869,1302.362347
312.575440,-814.226536,-9474.636058,842.705048
312.575768,-1036.288319,-9400.615463,383.047749
312.576096,-888.247130,-9252.574275,229.828649
312.576423,-1110.308913,-8734.430116,0.000000
312.576751,-740.205942,-8882.471304,0.000000
312.577079,-666.185348,-8882.471304,0.000000
312.577406,-370.102971,-8808.450710,0.000000
312.577734,-444.123565,-8956.491898,459.657299
312.578062,-1036.288319,-8660.409521,0.000000
312.578389,-1332.370696,-9030.512492,-153.219100
312.578717,-888.247130,-9252.574275,153.219100
312.579045,-518.144159,-9326.594869,842.705048
312.579372,0.000000,-8882.471304,1072.533697
312.579700,518.144159,-9252.574275,1608.800546
312.580028,518.144159,-9030.512492,1685.410096
312.580355,296.082377,-9030.512492,1225.752797
312.580683,0.000000,-8956.491898,1072.533697
312.581011,-222.061783,-9178.553681,689.485948
312.581338,-370.102971,-9178.553681,229.828649
312.581666,-148.041188,-9104.533087,76.609550
312.581994,0.000000,-9178.553681,153.219100
312.582322,370.102971,-8734.430116,306.438199
312.582649,518.144159,-8586.388927,383.047749
312.582977,592.164754,-8512.368333,1072.533697
312.583305,740.205942,-8882.471304,383.047749
312.583632,0.000000,-9104.533087,612.876398
312.583960,-518.144159,-9104.533087,459.657299
312.584288,-518.144159,-9326.594869,842.705048
312.584615,-592.164754,-9030.512492,1302.362347
312.584943,296.082377,-9622.677246,1762.019645
312.585271,0.000000,-9252.574275,2068.457845
312.585598,74.020594,-8956.491898,1915.238745
312.585926,0.000000,-8882.471304,1608.800546
312.586254,-666.185348,-8808.450710,1225.752797
312.586581,-1184.329507,-9326.594869,842.705048
312.586909,-1554.432478,-8808.450710,536.266849
312.587237,-1554.432478,-8956.491898,306.438199
312.587564,-1332.370696,-8586.388927,0.000000
312.587892,-962.267725,-8734.430116,153.219100
312.588220,-888.247130,-9030.512492,459.657299
312.588547,-814.226536,-8586.388927,306.438199
312.588875,-814.226536,-8882.471304,306.438199
312.589203,-1110.308913,-8956.491898,0.000000
312.589531,-1184.329507,-9326.594869,0.000000
312.589858,-1258.350101,-9326.594869,229.828649
312.590186,0.000000,-9252.574275,766.095498
312.590514,0.000000,-9474.636058,1072.533697
312.590841,444.123565,-9326.594869,1685.410096
312.591169,740.205942,-9474.636058,1455.581446
312.591497,592.164754,-9474.636058,1762.019645
312.591824,-370.102971,-9326.594869,1455.581446
312.592152,-296.082377,-9474.636058,536.266849
312.592480,-222.061783,-9474.636058,229.828649
312.592807,-518.144159,-9474.636058,0.000000
312.593135,-444.123565,-9326.594869,-153.219100
312.593463,148.041188,-8808.450710,153.219100
312.593790,592.164754,-8956.491898,0.000000
312.594118,518.144159,-8586.388927,-153.219100
312.594446,444.123565,-8734.430116,-153.219100
312.594773,222.061783,-9104.533087,-153.219100
312.595101,0.000000,-9400.615463,-229.828649
312.595429,74.020594,-9030.512492,383.047749
312.595756,-148.041188,-9474.636058,459.657299
312.596084,296.082377,-9400.615463,1072.533697
312.596412,370.102971,-9252.574275,1302.362347
312.596739,518.144159,-8882.471304,1762.019645
312.597067,592.164754,-9104.533087,1455.581446
312.597395,0.000000,-9474.636058,1149.143247
312.597723,-740.205942,-9252.574275,919.314598
312.598050,-1110.308913,-9178.553681,306.438199
312.598378,-1480.411884,-9326.594869,229.828649
312.598706,-1036.288319,-8882.471304,0.000000
312.599033,-962.267725,-8734.430116,0.000000
312.599361,-888.247130,-8586.388927,0.000000
312.599689,-592.164754,-8660.409521,0.000000
312.600016,-814.226536,-8808.450710,0.000000
312.600344,-1406.391290,-8364.327145,0.000000
312.600672,-1258.350101,-8734.430116,0.000000
312.600999,-1110.308913,-9178.553681,459.657299
312.601327,-962.267725,-8882.471304,689.485948
312.601655,-148.041188,-8882.471304,1149.143247
312.601982,74.020594,-8734.430116,1762.019645
312.602310,814.226536,-9178.553681,1685.410096
312.602638,518.144159,-9400.615463,1608.800546
312.602965,0.000000,-9104.533087,1225.752797
312.603293,-370.102971,-9474.636058,766.095498
312.603621,-518.144159,-9252.574275,536.266849
312.603948,-370.102971,-9252.574275,76.609550
312.604276,-222.061783,-9030.512492,153.219100
312.604604,222.061783,-8882.471304,76.609550
312.604931,518.144159,-8808.450710,306.438199
312.605259,592.164754,-8512.368333,76.609550
312.605587,444.123565,-8438.347739,612.876398
312.605915,0.000000,-9178.553681,536.266849
312.606242,-370.102971,-9252.574275,306.438199
312.606570,-592.164754,-9400.615463,459.657299
312.606898,-518.144159,-9400.615463,995.924147
312.607225,74.020594,-9104.533087,2068.457845
312.607553,0.000000,-9252.574275,1915.238745
312.607881,222.061783,-9178.553681,1915.238745
312.608208,0.000000,-9030.512492,1455.581446
312.608536,-518.144159,-9104.533087,1302.362347
312.608864,-740.205942,-9030.512492,919.314598
312.609191,-1628.453072,-9030.512492,-229.828649
312.609519,-1258.350101,-8882.471304,0.000000
312.609847,-888.247130,-8808.450710,0.000000
312.610174,-518.144159,-8586.388927,0.000000
312.610502,0.000000,-8734.430116,0.000000
312.610830,0.000000,-9252.574275,-229.828649
312.611157,-740.205942,-8808.450710,0.000000
312.611485,-1036.288319,-9030.512492,-383.047749
312.611813,-962.267725,-9178.553681,76.609550
312.612140,-1110.308913,-9474.636058,229.828649
312.612468,-148.041188,-9178.553681,1149.143247
312.612796,444.123565,-9326.594869,1149.143247
312.613124,740.205942,-9252.574275,1532.190996
312.613451,592.164754,-9326.594869,1532.190996
312.613779,296.082377,-9474.636058,1378.971896
312.614107,296.082377,-9474.636058,919.314598
312.614434,-296.082377,-9252.574275,306.438199
312.614762,-740.205942,-9474.636058,229.828649
312.615090,-296.082377,-9474.636058,0.000000
312.615417,0.000000,-9252.574275,0.000000
312.615745,0.000000,-8734.430116,-153.219100
312.616073,888.247130,-8512.368333,306.438199
312.616400,740.205942,-8882.471304,0.000000
312.616728,370.102971,-8734.430116,0.000000
312.617056,148.041188,-8956.491898,76.609550
312.617383,-296.082377,-8882.471304,76.609550
312.617711,-148.041188,-9178.553681,689.485948
312.618039,0.000000,-9622.677246,1072.533697
312.618366,74.020594,-9400.615463,1225.752797
312.618694,296.082377,-9474.636058,1838.629195
312.619022,444.123565,-9474.636058,1762.019645
312.619349,-296.082377,-9030.512492,1608.800546
312.619677,-444.123565,-9474.636058,995.924147
312.620005,-1110.308913,-9326.594869,842.705048
312.620332,-1332.370696,-8956.491898,306.438199
312.620660,-1258.350101,-9474.636058,0.000000
312.620988,-1184.329507,-8660.409521,0.000000
312.621316,-962.267725,-8438.347739,-229.828649
312.621643,-1110.308913,-8734.430116,0.000000
312.621971,-962.267725,-8660.409521,-383.047749
312.622299,-1258.350101,-8956.491898,-459.657299
312.622626,-1184.329507,-8956.491898,0.000000
312.622954,-1184.329507,-8956.491898,-536.266849
312.623281,-1184.329507,-9400.615463,0.000000
312.623609,-740.205942,-9326.594869,536.266849
312.623936,0.000000,-9252.574275,1149.143247
312.624264,740.205942,-8882.471304,1608.800546
312.624591,1110.308913,-8882.471304,1072.533697
312.624919,296.082377,-9104.533087,1378.971896
312.625246,0.000000,-9548.656652,919.314598
312.625574,-148.041188,-9474.636058,536.266849
312.625901,-370.102971,-9474.636058,0.000000
312.626229,0.000000,-9104.533087,0.000000
312.626556,444.123565,-9252.574275,0.000000
312.626884,370.102971,-8956.491898,0.000000
312.627211,518.144159,-8808.450710,0.000000
312.627538,592.164754,-8734.430116,-153.219100
312.627866,444.123565,-8438.347739,76.609550
312.628193,222.061783,-9252.574275,536.266849
312.628521,0.000000,-9326.594869,0.000000
312.628848,-148.041188,-9326.594869,459.657299
312.629176,-222.061783,-9326.594869,766.095498
312.629503,222.061783,-9400.615463,1149.143247
312.629831,296.082377,-8956.491898,2221.676944
312.630158,148.041188,-8956.491898,1455.581446
312.630486,0.000000,-9326.594869,1915.238745
312.630813,-666.185348,-8956.491898,842.705048
312.631141,-1184.329507,-9178.553681,689.485948
312.631468,-1406.391290,-8660.409521,919.314598
312.631796,-1110.308913,-8882.471304,306.438199
312.632123,-1036.288319,-8660.409521,229.828649
312.632451,-518.144159,-9104.533087,383.047749
312.632778,-740.205942,-8586.388927,76.609550
312.633106,-740.205942,-8438.347739,459.657299
312.633433,-666.185348,-8956.491898,229.828649
312.633761,-888.247130,-9178.553681,0.000000
312.634088,-1258.350101,-9178.553681,76.609550
312.634416,-1110.308913,-9178.553681,459.657299
312.634743,-444.123565,-9178.553681,1072.533697
312.635071,444.123565,-9104.533087,1608.800546
312.635398,370.102971,-9030.512492,1762.019645
312.635726,518.144159,-9326.594869,1838.629195
312.636053,0.000000,-9252.574275,1608.800546
312.636381,-370.102971,-9252.574275,1149.143247
312.636708,-740.205942,-8956.491898,842.705048
312.637036,-814.226536,-9400.615463,612.876398
312.637363,-592.164754,-9400.615463,229.828649
312.637691,-296.082377,-8882.471304,306.438199
312.638018,74.020594,-8808.450710,76.609550
312.638346,740.205942,-8438.347739,153.219100
312.638673,444.123565,-8660.409521,153.219100
312.639001,444.123565,-8808.450710,229.828649
312.639328,0.000000,-9030.512492,229.828649
312.639656,-222.061783,-9252.574275,306.438199
312.639983,-666.185348,-9326.594869,536.266849
312.640311,296.082377,-9622.677246,1072.533697
312.640638,296.082377,-9548.656652,1302.362347
312.640966,222.061783,-9474.636058,1838.629195
312.641293,444.123565,-9548.656652,1685.410096
312.641621,148.041188,-9474.636058,1378.971896
312.641948,0.000000,-9178.553681,612.876398
312.642276,-1258.350101,-9252.574275,766.095498
312.642603,-1406.391290,-8956.491898,76.609550
312.642931,-1110.308913,-9178.553681,76.609550
312.643258,-888.247130,-8734.430116,-153.219100
312.643586,-666.185348,-8734.430116,153.219100
312.643913,-740.205942,-8512.368333,229.828649
312.644241,-814.226536,-8586.388927,0.000000
312.644568,-814.226536,-8882.471304,-229.828649
312.644896,-1332.370696,-8956.491898,-153.219100
312.645223,-1258.350101,-8956.491898,0.000000
312.645551,-592.164754,-9400.615463,0.000000
312.645878,-518.144159,-9474.636058,536.266849
312.646206,74.020594,-9178.553681,1149.143247
312.646533,518.144159,-9252.574275,1225.752797
312.646861,814.226536,-8734.430116,1302.362347
312.647188,592.164754,-9178.553681,1455.581446
312.647516,0.000000,-9400.615463,689.485948
312.647843,0.000000,-9474.636058,229.828649
312.648171,0.000000,-9400.615463,0.000000
312.648498,-148.041188,-9474.636058,0.000000
312.648826,74.020594,-9252.574275,-229.828649
312.649153,148.041188,-8882.471304,0.000000
312.649481,740.205942,-8956.491898,76.609550
312.649808,518.144159,-8734.430116,76.609550
312.650136,222.061783,-8734.430116,76.609550
312.650463,222.061783,-8882.471304,0.000000
312.650791,-222.061783,-9178.553681,153.219100
312.651118,-444.123565,-9474.636058,459.657299
312.651446,-222.061783,-9252.574275,612.876398
312.651773,74.020594,-9178.553681,1378.971896
312.652101,370.102971,-8882.471304,1532.190996
312.652428,370.102971,-9030.512492,1991.848295
312.652756,-148.041188,-9104.533087,1608.800546
312.653083,-444.123565,-9030.512492,1302.362347
312.653411,-1258.350101,-9178.553681,919.314598
312.653738,-1480.411884,-8882.471304,536.266849
312.654066,-1480.411884,-8882.471304,153.219100
312.654393,-740.205942,-8882.471304,229.828649
312.654721,-814.226536,-8660.409521,153.219100
312.655048,-666.185348,-8734.430116,0.000000
312.655376,-814.226536,-8660.409521,306.438199
312.655703,-1258.350101,-8586.388927,76.609550
312.656031,-1332.370696,-8882.471304,0.000000
312.656358,-1258.350101,-9030.512492,153.219100
312.656686,-592.164754,-9474.636058,459.657299
312.657013,-370.102971,-9178.553681,1149.143247
312.657341,444.123565,-8586.388927,1455.581446
312.657668,444.123565,-9030.512492,1685.410096
312.657996,444.123565,-9104.533087,1532.190996
312.658323,296.082377,-9178.553681,1455.581446
312.658651,-296.082377,-9326.594869,919.314598
312.658978,-370.102971,-9326.594869,229.828649
312.659306,-666.185348,-9252.574275,229.828649
312.659633,-222.061783,-9474.636058,153.219100
312.659961,0.000000,-9326.594869,0.000000
312.660288,518.144159,-8882.471304,76.609550
312.660616,666.185348,-8438.347739,306.438199
312.660943,814.226536,-8660.409521,0.000000
312.661271,518.144159,-8956.491898,0.000000
312.661598,0.000000,-9326.594869,153.219100
312.661926,0.000000,-9548.656652,76.609550
312.662253,-518.144159,-9622.677246,229.828649
312.662581,0.000000,-9400.615463,1225.752797
312.662908,370.102971,-9474.636058,995.924147
312.663236,592.164754,-9326.594869,1685.410096
312.663563,370.102971,-9400.615463,1378.971896
312.663891,74.020594,-9326.594869,1225.752797
312.664218,-222.061783,-9474.636058,689.485948
312.664546,-888.247130,-9178.553681,459.657299
312.664873,-1480.411884,-9178.553681,0.000000
312.665201,-1258.350101,-9178.553681,0.000000
312.665528,-888.247130,-9030.512492,-459.657299
312.665856,-1110.308913,-8438.347739,-153.219100
312.666183,-370.102971,-8956.491898,76.609550
312.666511,-740.205942,-9030.512492,0.000000
312.666838,-740.205942,-9178.553681,0.000000
312.667166,-1184.329507,-9030.512492,0.000000
312.667493,-1184.329507,-9178.553681,-229.828649
312.667820,-814.226536,-9400.615463,229.828649
312.668148,-296.082377,-9326.594869,383.047749
312.668475,148.041188,-9400.615463,1149.143247
312.668803,888.247130,-9104.533087,1532.190996
312.669130,666.185348,-8956.491898,1302.362347
312.669458,888.247130,-9474.636058,1072.533697
312.669785,-148.041188,-9178.553681,919.314598
312.670113,-444.123565,-9548.656652,383.047749
312.670440,-296.082377,-9400.615463,0.000000
312.670768,-296.082377,-9252.574275,0.000000
312.671095,0.000000,-9400.615463,76.609550
312.671423,148.041188,-8808.450710,229.828649
312.671750,592.164754,-8660.409521,153.219100
312.672078,518.144159,-8734.430116,76.609550
312.672405,222.061783,-8734.430116,76.609550
312.672733,0.000000,-8808.450710,536.266849
312.673060,-444.123565,-8808.450710,459.657299
312.673388,-518.144159,-9104.533087,689.485948
312.673715,0.000000,-9474.636058,919.314598
312.674043,74.020594,-9104.533087,1455.581446
312.674370,518.144159,-9178.553681,2374.896044
312.674698,444.123565,-8882.471304,1685.410096
312.675025,-296.082377,-9030.512492,1455.581446
312.675353,-888.247130,-9178.553681,1072.533697
312.675680,-1184.329507,-9104.533087,766.095498
312.676008,-1480.411884,-8882.471304,229.828649
312.676335,-1036.288319,-9178.553681,689.485948
312.676663,-666.185348,-8956.491898,459.657299
312.676990,-740.205942,-8512.368333,229.828649
312.677318,-444.123565,-8586.388927,306.438199
312.677645,-814.226536,-8660.409521,0.000000
312.677973,-814.226536,-8808.450710,76.609550
312.678300,-1480.411884,-8956.491898,76.609550
312.678628,-1184.329507,-9252.574275,153.219100
312.678955,-666.185348,-9252.574275,995.924147
312.679283,-222.061783,-9326.594869,995.924147
312.679610,222.061783,-9326.594869,1838.629195
312.679938,444.123565,-8956.491898,1762.019645
312.680265,296.082377,-9104.533087,1532.190996
312.680593,-296.082377,-9400.615463,1225.752797
312.680920,-592.164754,-9400.615463,612.876398
312.681248,-814.226536,-9474.636058,383.047749
312.681575,-666.185348,-9104.533087,229.828649
312.681903,-444.123565,-9178.553681,0.000000
312.682230,0.000000,-8808.450710,-153.219100
312.682558,592.164754,-8882.471304,76.609550
312.682885,814.226536,-8882.471304,0.000000
312.683213,740.205942,-9104.533087,689.485948
312.683540,518.144159,-8956.491898,153.219100
312.683868,0.000000,-9474.636058,0.000000
312.684195,-296.082377,-9474.636058,383.047749
312.684523,-148.041188,-9474.636058,689.485948
312.684850,370.102971,-9474.636058,995.924147
312.685178,296.082377,-9178.553681,1455.581446
312.685505,444.123565,-9326.594869,1532.190996
312.685833,444.123565,-9326.594869,1685.410096
312.686160,74.020594,-9104.533087,1455.581446
312.686488,-740.205942,-9400.615463,1149.143247
312.686815,-1036.288319,-9030.512492,536.266849
312.687143,-1258.350101,-9178.553681,76.609550
312.687470,-962.267725,-8956.491898,0.000000
312.687798,-814.226536,-8956.491898,-153.219100
312.688125,-740.205942,-8734.430116,0.000000
312.688453,-814.226536,-8290.306550,-153.219100
312.688780,-1110.308913,-8808.450710,-229.828649
312.689108,-1332.370696,-8808.450710,-459.657299
312.689435,-1628.453072,-8956.491898,-383.047749
312.689763,-1406.391290,-9030.512492,-229.828649
312.690090,-1184.329507,-8882.471304,689.485948
312.690418,0.000000,-9252.574275,612.876398
312.690745,370.102971,-8660.409521,1072.533697
312.691073,740.205942,-8808.450710,1302.362347
312.691400,518.144159,-9030.512492,1225.752797
312.691728,370.102971,-9252.574275,1225.752797
312.692055,74.020594,-9400.615463,1072.533697
312.692383,0.000000,-9474.636058,306.438199
312.692710,-296.082377,-9400.615463,0.000000
312.693038,0.000000,-9696.697840,0.000000
312.693365,74.020594,-9178.553681,0.000000
312.693693,74.020594,-8660.409521,76.609550
312.694020,592.164754,-8660.409521,0.000000
312.694348,592.164754,-8808.450710,-383.047749
312.694675,370.102971,-8808.450710,0.000000
312.695003,0.000000,-8956.491898,0.000000
312.695330,74.020594,-8956.491898,0.000000
312.695658,74.020594,-9474.636058,383.047749
312.695985,148.041188,-9178.553681,1072.533697
312.696313,518.144159,-9030.512492,1302.362347
312.696640,592.164754,-9326.594869,1608.800546
312.696968,370.102971,-9178.553681,1915.238745
312.697295,-370.102971,-9104.533087,1532.190996
312.697623,-666.185348,-9252.574275,919.314598
312.697950,-1036.288319,-9326.594869,689.485948
312.698278,-1332.370696,-9252.574275,383.047749
312.698605,-962.267725,-8882.471304,612.876398
312.698933,-666.185348,-8660.409521,383.047749
312.699260,-888.247130,-8512.368333,306.438199
312.699588,-592.164754,-8808.450710,76.609550
312.699915,-962.267725,-8734.430116,76.609550
312.700243,-1332.370696,-8956.491898,229.828649
312.700570,-1554.432478,-9104.533087,306.438199
312.700898,-1554.432478,-9104.533087,306.438199
312.701225,-962.267725,-9178.553681,919.314598
312.701553,-444.123565,-9326.594869,1149.143247
312.701880,0.000000,-9400.615463,1685.410096
312.702208,222.061783,-9104.533087,1685.410096
312.702535,148.041188,-9622.677246,1838.629195
312.702863,-296.082377,-9474.636058,1302.362347
312.703190,-666.185348,-9474.636058,1072.533697
312.703518,-962.267725,-9474.636058,536.266849
312.703845,-814.226536,-9252.574275,306.438199
312.704173,-814.226536,-8882.471304,76.609550
312.704500,296.082377,-8956.491898,0.000000
312.704828,814.226536,-8808.450710,229.828649
312.705155,666.185348,-8438.347739,229.828649
312.705483,814.226536,-8882.471304,306.438199
312.705810,444.123565,-9030.512492,229.828649
312.706138,222.061783,-8956.491898,306.438199
312.706465,148.041188,-9548.656652,383.047749
312.706793,0.000000,-9474.636058,919.314598
312.707120,0.000000,-9400.615463,1302.362347
312.707447,444.123565,-9400.615463,2145.067394
312.707775,444.123565,-8956.491898,1991.848295
312.708102,296.082377,-9474.636058,1762.019645
312.708430,-296.082377,-9474.636058,1149.143247
312.708757,-1110.308913,-9400.615463,919.314598
312.709085,-1184.329507,-9178.553681,153.219100
312.709412,-1480.411884,-8882.471304,0.000000
312.709740,-1258.350101,-8882.471304,-153.219100
312.710067,-1036.288319,-8660.409521,-153.219100
312.710395,-962.267725,-8216.285956,-153.219100
312.710722,-1110.308913,-7994.224174,229.828649
312.711050,-444.123565,-8364.327145,0.000000
312.711377,-1554.432478,-8512.368333,0.000000
312.711705,-1184.329507,-8956.491898,-383.047749
312.712032,-1184.329507,-9252.574275,-306.438199
312.712360,-1110.308913,-9178.553681,153.219100
312.712687,0.000000,-9474.636058,1149.143247
312.713015,962.267725,-9104.533087,1225.752797
312.713342,740.205942,-9178.553681,1225.752797
312.713670,666.185348,-9104.533087,1302.362347
312.713997,740.205942,-9178.553681,1072.533697
312.714325,0.000000,-8734.430116,842.705048
312.714652,222.061783,-9548.656652,153.219100
312.714980,0.000000,-9252.574275,0.000000
312.715307,0.000000,-9474.636058,-306.438199
312.715635,518.144159,-9474.636058,-153.219100
312.715962,814.226536,-8734.430116,153.219100
312.716290,814.226536,-8808.450710,76.609550
312.716617,962.267725,-9104.533087,76.609550
312.716945,592.164754,-9030.512492,0.000000
312.717272,0.000000,-9104.533087,306.438199
312.717600,-222.061783,-9030.512492,689.485948
312.717927,0.000000,-9474.636058,689.485948
312.718255,222.061783,-9104.533087,1225.752797
312.718582,74.020594,-9104.533087,1378.971896
312.718910,148.041188,-9178.553681,1838.629195
312.719237,370.102971,-9104.533087,1378.971896
312.719565,-296.082377,-9104.533087,1149.143247
312.719892,-1036.288319,-9400.615463,689.485948
312.720220,-1480.411884,-9178.553681,536.266849
312.720547,-1480.411884,-9400.615463,306.438199
312.720875,-1258.350101,-8956.491898,459.657299
312.721202,-962.267725,-8882.471304,459.657299
312.721530,-740.205942,-8660.409521,383.047749
312.721857,-888.247130,-8808.450710,229.828649
312.722185,-1036.288319,-8808.450710,459.657299
312.722512,-1184.329507,-9178.553681,229.828649
312.722840,-1628.453072,-8808.450710,919.314598
312.723167,-888.247130,-9326.594869,459.657299
312.723495,-592.164754,-9326.594869,1072.533697
312.723822,-222.061783,-9252.574275,1532.190996
312.724150,444.123565,-9400.615463,1915.238745
312.724477,740.205942,-9474.636058,2528.115143
312.724805,518.144159,-9252.574275,1762.019645
312.725132,-222.061783,-9548.656652,1532.190996
312.725460,-814.226536,-9474.636058,995.924147
312.725787,-888.247130,-9474.636058,612.876398
312.726115,-888.247130,-9178.553681,306.438199
312.726443,-370.102971,-8956.491898,229.828649
312.726770,148.041188,-8956.491898,383.047749
312.727098,592.164754,-8660.409521,229.828649
312.727425,814.226536,-8660.409521,459.657299
312.727753,518.144159,-8734.430116,383.047749
312.728080,0.000000,-9474.636058,306.438199
312.728408,0.000000,-9252.574275,306.438199
312.728735,-444.123565,-9252.574275,766.095498
312.729063,-370.102971,-9326.594869,919.314598
312.729390,-148.041188,-9326.594869,1455.581446
312.729718,222.061783,-8734.430116,1991.848295
312.730045,444.123565,-9252.574275,1991.848295
312.730373,296.082377,-9252.574275,1762.019645
312.730700,-296.082377,-9252.574275,1225.752797
312.731028,-814.226536,-9178.553681,536.266849
312.731355,-888.247130,-8586.388927,153.219100
312.731683,-1258.350101,-8808.450710,0.000000
312.732011,-1406.391290,-8956.491898,-153.219100
312.732338,-962.267725,-8808.450710,0.000000
312.732666,-740.205942,-8734.430116,-153.219100
312.732993,-740.205942,-8882.471304,229.828649
312.733321,-888.247130,-8660.409521,-306.438199
312.733648,-888.247130,-9252.574275,-766.095498
312.733976,-1332.370696,-9178.553681,-689.485948
312.734303,-1184.329507,-9326.594869,-306.438199
312.734631,-370.102971,-9104.533087,153.219100
312.734958,0.000000,-8882.471304,919.314598
312.735286,666.185348,-9030.512492,1072.533697
312.735613,888.247130,-9030.512492,1149.143247
312.735941,814.226536,-9178.553681,1225.752797
312.736268,518.144159,-9474.636058,842.705048
312.736596,0.000000,-9474.636058,1608.800546
312.736923,-296.082377,-9622.677246,0.000000
312.737251,0.000000,-9696.697840,0.000000
312.737579,0.000000,-9252.574275,-306.438199
312.737906,148.041188,-9104.533087,-229.828649
312.738234,444.123565,-8882.471304,-383.047749
312.738561,814.226536,-8734.430116,-459.657299
312.738889,444.123565,-8660.409521,-306.438199
312.739216,222.061783,-8660.409521,0.000000
312.739544,0.000000,-8882.471304,0.000000
312.739871,0.000000,-8956.491898,0.000000
312.740199,74.020594,-9178.553681,459.657299
312.740526,222.061783,-9326.594869,842.705048
312.740854,444.123565,-9178.553681,1532.190996
312.741181,444.123565,-9474.636058,1838.629195
312.741509,0.000000,-9474.636058,1608.800546
312.741836,-740.205942,-9252.574275,1762.019645
312.742164,-666.185348,-9104.533087,612.876398
312.742492,-1258.350101,-9104.533087,536.266849
312.742819,-1036.288319,-9030.512492,459.657299
312.743147,-1258.350101,-8956.491898,459.657299
312.743474,-888.247130,-8364.327145,612.876398
312.743802,-444.123565,-8586.388927,229.828649
312.744129,-888.247130,-8586.388927,153.219100
312.744457,-888.247130,-8956.491898,0.000000
312.744784,-1184.329507,-9178.553681,153.219100
312.745112,-1628.453072,-8808.450710,536.266849
312.745439,-962.267725,-9400.615463,689.485948
312.745767,-666.185348,-9400.615463,1149.143247
312.746094,-148.041188,-9104.533087,1225.752797
312.746422,222.061783,-9252.574275,1838.629195
312.746749,222.061783,-8956.491898,2221.676944
312.747077,0.000000,-9178.553681,1915.238745
312.747404,-518.144159,-9474.636058,1225.752797
312.747732,-666.185348,-9474.636058,842.705048
312.748060,-666.185348,-9252.574275,612.876398
312.748387,-444.123565,-9252.574275,459.657299
312.748715,296.082377,-8586.388927,459.657299
312.749042,370.102971,-8660.409521,536.266849
312.749370,666.185348,-8364.327145,612.876398
312.749697,1036.288319,-8512.368333,766.095498
312.750025,740.205942,-8808.450710,536.266849
312.750352,370.102971,-9030.512492,689.485948
312.750680,74.020594,-9548.656652,766.095498
312.751007,-222.061783,-9622.677246,766.095498
312.751335,-370.102971,-9622.677246,1072.533697
312.751662,0.000000,-9548.656652,1915.238745
312.751990,0.000000,-8956.491898,1838.629195
312.752317,0.000000,-9104.533087,1991.848295
312.752645,0.000000,-9252.574275,1532.190996
312.752972,-592.164754,-9326.594869,1149.143247
312.753300,-1258.350101,-8956.491898,766.095498
312.753628,-1702.473667,-8956.491898,229.828649
312.753955,-1628.453072,-8512.368333,612.876398
312.754283,-1258.350101,-8808.450710,0.000000
312.754610,-1036.288319,-8660.409521,0.000000
312.754938,-962.267725,-8512.368333,0.000000
312.755265,-962.267725,-8512.368333,0.000000
312.755593,-962.267725,-8808.450710,0.000000
312.755920,-1184.329507,-8956.491898,-306.438199
312.756248,-1258.350101,-9178.553681,-536.266849
312.756575,-1184.329507,-9178.553681,0.000000
312.756903,-370.102971,-9178.553681,459.657299
312.757230,222.061783,-8882.471304,1072.533697
312.757558,666.185348,-8956.491898,842.705048
312.757885,962.267725,-8956.491898,1455.581446
312.758213,666.185348,-9178.553681,1225.752797
312.758540,296.082377,-9252.574275,919.314598
312.758868,148.041188,-9474.636058,842.705048
312.759196,74.020594,-9326.594869,76.609550
312.759523,0.000000,-9474.636058,-229.828649
312.759851,74.020594,-9474.636058,-459.657299
312.760178,296.082377,-8956.491898,-459.657299
312.760506,592.164754,-8882.471304,76.609550
312.760833,444.123565,-8512.368333,0.000000
312.761161,148.041188,-8512.368333,-153.219100
312.761488,148.041188,-8882.471304,-153.219100
312.761816,-296.082377,-8734.430116,-536.266849
312.762143,-222.061783,-9030.512492,229.828649
312.762471,0.000000,-8808.450710,1302.362347
312.762798,296.082377,-9030.512492,919.314598
312.763126,518.144159,-9030.512492,1302.362347
312.763453,444.123565,-9104.533087,1378.971896
312.763781,148.041188,-8882.471304,1455.581446
312.764109,-592.164754,-9030.512492,1532.190996
312.764436,-592.164754,-8882.471304,766.095498
312.764764,-1036.288319,-9252.574275,536.266849
312.765091,-1258.350101,-9400.615463,0.000000
312.765419,-814.226536,-9104.533087,0.000000
312.765746,-666.185348,-8586.388927,0.000000
312.766074,-592.164754,-8882.471304,0.000000
312.766401,-962.267725,-8956.491898,0.000000
312.766729,-888.247130,-8808.450710,0.000000
312.767056,-1332.370696,-9252.574275,0.000000
312.767384,-1258.350101,-9104.533087,-306.438199
312.767711,-518.144159,-8956.491898,689.485948
312.768039,-518.144159,-9178.553681,689.485948
312.768366,0.000000,-9326.594869,1378.971896
312.768694,296.082377,-9474.636058,1762.019645
312.769021,370.102971,-9104.533087,1762.019645
312.769349,370.102971,-9474.636058,1225.752797
312.769677,-296.082377,-9474.636058,1225.752797
312.770004,-444.123565,-9622.677246,842.705048
312.770332,-740.205942,-9474.636058,536.266849
312.770659,-222.061783,-9400.615463,306.438199
312.770987,-222.061783,-8808.450710,153.219100
312.771314,148.041188,-8734.430116,459.657299
312.771642,666.185348,-8956.491898,383.047749
312.771969,592.164754,-8956.491898,383.047749
312.772297,296.082377,-8808.450710,612.876398
312.772624,0.000000,-9252.574275,536.266849
312.772952,-296.082377,-9474.636058,842.705048
312.773279,-444.123565,-9622.677246,689.485948
312.773607,-148.041188,-9622.677246,1149.143247
312.773934,148.041188,-9474.636058,1532.190996
312.774262,296.082377,-9548.656652,1991.848295
312.774589,222.061783,-9474.636058,2298.286494
312.774917,-370.102971,-9178.553681,1532.190996
312.775245,-814.226536,-9474.636058,1378.971896
312.775572,-1258.350101,-9104.533087,842.705048
312.775900,-1554.432478,-9104.533087,306.438199
312.776227,-1554.432478,-8882.471304,0.000000
312.776555,-1184.329507,-8882.471304,229.828649
312.776882,-962.267725,-8512.368333,0.000000
312.777210,-666.185348,-8660.409521,153.219100
312.777537,-666.185348,-8586.388927,76.609550
312.777865,-962.267725,-8586.388927,76.609550
312.778192,-962.267725,-8956.491898,0.000000
312.778520,-1258.350101,-9030.512492,-153.219100
312.778847,-1258.350101,-9178.553681,229.828649
312.779175,-740.205942,-9252.574275,689.485948
312.779502,0.000000,-8956.491898,995.924147
312.779830,370.102971,-9326.594869,1072.533697
312.780157,592.164754,-9400.615463,1302.362347
312.780485,370.102971,-9474.636058,995.924147
312.780813,0.000000,-9474.636058,842.705048
312.781140,0.000000,-9474.636058,229.828649
312.781468,0.000000,-9252.574275,0.000000
312.781795,0.000000,-9622.677246,-536.266849
312.782123,0.000000,-9178.553681,-229.828649
312.782450,222.061783,-9252.574275,-459.657299
312.782778,518.144159,-8808.450710,-612.876398
312.783105,814.226536,-8660.409521,-995.924147
312.783433,74.020594,-8808.450710,-536.266849
312.783760,0.000000,-8956.491898,-306.438199
312.784088,0.000000,-9178.553681,-306.438199
312.784415,0.000000,-9178.553681,0.000000
312.784743,370.102971,-9178.553681,612.876398
312.785070,666.185348,-9178.553681,842.705048
312.785398,888.247130,-9400.615463,1302.362347
312.785726,814.226536,-9400.615463,1532.190996
312.786053,222.061783,-9326.594869,1455.581446
312.786381,0.000000,-9178.553681,842.705048
312.786708,-518.144159,-9252.574275,1149.143247
312.787036,-1036.288319,-9252.574275,459.657299
312.787363,-888.247130,-9178.553681,76.609550
312.787691,-666.185348,-9252.574275,76.609550
312.788018,-444.123565,-8734.430116,153.219100
312.788346,-296.082377,-8734.430116,153.219100
312.788673,-444.123565,-8586.388927,536.266849
312.789001,-666.185348,-8808.450710,306.438199
312.789328,-1184.329507,-9030.512492,229.828649
312.789656,-1332.370696,-8956.491898,459.657299
312.789983,-888.247130,-9104.533087,536.266849
312.790311,-666.185348,-9104.533087,1302.362347
312.790638,-444.123565,-8956.491898,1685.410096
312.790966,74.020594,-9030.512492,2145.067394
312.791294,148.041188,-9252.574275,1838.629195
312.791621,-370.102971,-9474.636058,2145.067394
312.791949,-518.144159,-9474.636058,1838.629195
312.792276,-1184.329507,-9400.615463,766.095498
312.792604,-1110.308913,-9474.636058,612.876398
312.792931,-888.247130,-8956.491898,383.047749
312.793259,-518.144159,-9030.512492,229.828649
312.793586,0.000000,-8290.306550,689.485948
312.793914,592.164754,-8660.409521,612.876398
312.794241,518.144159,-8882.471304,536.266849
312.794569,222.061783,-8956.491898,383.047749
312.794896,-296.082377,-9326.594869,306.438199
312.795224,0.000000,-9326.594869,459.657299
312.795551,0.000000,-9474.636058,689.485948
312.795879,0.000000,-9326.594869,1225.752797
312.796206,444.123565,-9622.677246,1685.410096
312.796534,740.205942,-9474.636058,2068.457845
312.796862,740.205942,-9326.594869,2068.457845
312.797189,296.082377,-9252.574275,1302.362347
312.797517,-444.123565,-9252.574275,1072.533697
312.797844,-666.185348,-9252.574275,306.438199
312.798172,-1332.370696,-9252.574275,306.438199
312.798499,-814.226536,-8808.450710,153.219100
312.798827,-296.082377,-8660.409521,0.000000
312.799154,-518.144159,-8512.368333,0.000000
312.799482,-370.102971,-8438.347739,76.609550
312.799809,-370.102971,-8882.471304,229.828649
312.800137,-666.185348,-8808.450710,76.609550
312.800464,-962.267725,-8882.471304,-153.219100
312.800792,-962.267725,-9326.594869,76.609550
312.801119,-1184.329507,-9400.615463,536.266849
312.801447,-666.185348,-9326.594869,919.314598
312.801774,-148.041188,-9178.553681,1149.143247
312.802102,592.164754,-9104.533087,995.924147
312.802430,148.041188,-8808.450710,1455.581446
312.802757,0.000000,-9030.512492,995.924147
312.803085,-444.123565,-9252.574275,689.485948
312.803412,-592.164754,-9178.553681,76.609550
312.803740,-814.226536,-9400.615463,0.000000
312.804067,-1036.288319,-9178.553681,536.266849
312.804395,-518.144159,-9104.533087,-383.047749
312.804722,-148.041188,-8956.491898,-306.438199
312.805050,0.000000,-8586.388927,-459.657299
312.805377,222.061783,-9030.512492,0.000000
312.805705,222.061783,-8512.368333,-383.047749
312.806032,0.000000,-8882.471304,-459.657299
312.806360,0.000000,-9178.553681,-153.219100
312.806687,0.000000,-9326.594869,-153.219100
312.807015,444.123565,-9400.615463,689.485948
312.807342,1110.308913,-9252.574275,1072.533697
312.807670,1110.308913,-9178.553681,1225.752797
312.807998,1036.288319,-9178.553681,1302.362347
312.808325,592.164754,-9326.594869,1302.362347
312.808653,0.000000,-9400.615463,842.705048
312.808980,-592.164754,-9400.615463,995.924147
312.809308,-518.144159,-9104.533087,76.609550
312.809635,-592.164754,-9252.574275,0.000000
312.809963,-296.082377,-8808.450710,153.219100
312.810290,0.000000,-8956.491898,76.609550
312.810618,74.020594,-8586.388927,306.438199
312.810945,0.000000,-8808.450710,229.828649
312.811273,-666.185348,-8660.409521,76.609550
312.811600,-962.267725,-9030.512492,0.000000
312.811928,-1110.308913,-9326.594869,229.828649
312.812255,-962.267725,-9400.615463,383.047749
312.812583,-370.102971,-9104.533087,459.657299
312.812911,0.000000,-8956.491898,1532.190996
312.813238,74.020594,-9104.533087,1838.629195
312.813566,-148.041188,-9030.512492,1762.019645
312.813893,-370.102971,-9474.636058,1455.581446
312.814221,-592.164754,-9030.512492,689.485948
312.814548,-1406.391290,-9252.574275,612.876398
312.814876,-1258.350101,-9400.615463,459.657299
312.815203,-814.226536,-9178.553681,229.828649
312.815531,-370.102971,-9030.512492,0.000000
312.815858,592.164754,-8438.347739,383.047749
312.816186,740.205942,-8364.327145,689.485948
312.816513,592.164754,-8808.450710,459.657299
312.816841,74.020594,-9104.533087,459.657299
312.817168,0.000000,-9474.636058,612.876398
312.817496,-518.144159,-9474.636058,919.314598
312.817823,-592.164754,-9104.533087,1302.362347
312.818151,0.000000,-9474.636058,1608.800546
312.818479,370.102971,-9474.636058,2145.067394
312.818806,518.144159,-9622.677246,2145.067394
312.819134,296.082377,-9474.636058,2068.457845
312.819461,0.000000,-8956.491898,1991.848295
312.819789,-666.185348,-9326.594869,919.314598
312.820116,-962.267725,-9400.615463,766.095498
312.820444,-1332.370696,-9178.553681,76.609550
312.820771,-1036.288319,-8882.471304,0.000000
312.821099,-444.123565,-8586.388927,383.047749
312.821426,-370.102971,-8142.265362,0.000000
312.821754,-814.226536,-8586.388927,229.828649
312.822081,-666.185348,-8882.471304,306.438199
312.822409,-1184.329507,-9252.574275,0.000000
312.822736,-1480.411884,-8808.450710,0.000000
312.823064,-1406.391290,-9400.615463,-306.438199
312.823391,-1184.329507,-9474.636058,612.876398
312.823719,-666.185348,-9252.574275,766.095498
312.824047,148.041188,-9178.553681,1072.533697
312.824374,666.185348,-9030.512492,1378.971896
312.824702,1036.288319,-8956.491898,1915.238745
312.825029,148.041188,-9178.553681,919.314598
312.825357,-370.102971,-9326.594869,459.657299
312.825684,-518.144159,-9400.615463,76.609550
312.826012,-444.123565,-9326.594869,-229.828649
312.826339,0.000000,-9030.512492,-459.657299
312.826666,0.000000,-8956.491898,-306.438199
312.826994,222.061783,-8882.471304,-536.266849
312.827321,518.144159,-8882.471304,-153.219100
312.827649,222.061783,-8734.430116,-229.828649
312.827976,74.020594,-8586.388927,-766.095498
312.828304,0.000000,-8882.471304,0.000000
312.828631,-222.061783,-9030.512492,-306.438199
312.828959,0.000000,-9104.533087,0.000000
312.829286,370.102971,-8882.471304,612.876398
312.829613,1036.288319,-9400.615463,1455.581446
312.829941,1036.288319,-8660.409521,1838.629195
312.830268,740.205942,-9178.553681,1455.581446
312.830596,444.123565,-9104.533087,1225.752797
312.830923,0.000000,-9252.574275,766.095498
312.831251,-666.185348,-9400.615463,536.266849
312.831578,-888.247130,-8956.491898,459.657299
312.831905,-814.226536,-9030.512492,229.828649
312.832233,-444.123565,-9030.512492,153.219100
312.832560,-444.123565,-8956.491898,229.828649
312.832888,-444.123565,-8438.347739,-229.828649
312.833215,-444.123565,-8734.430116,612.876398
312.833543,-740.205942,-8956.491898,0.000000
312.833870,-1332.370696,-9178.553681,0.000000
312.834198,-1332.370696,-9178.553681,0.000000
312.834525,-740.205942,-9178.553681,536.266849
312.834852,-222.061783,-9326.594869,995.924147
312.835180,-148.041188,-8956.491898,1685.410096
312.835507,74.020594,-9252.574275,1838.629195
312.835835,0.000000,-9178.553681,1915.238745
312.836162,-296.082377,-9400.615463,1455.581446
312.836490,-814.226536,-9622.677246,1149.143247
312.836817,-1184.329507,-9474.636058,995.924147
312.837145,-962.267725,-9252.574275,689.485948
312.837472,-518.144159,-9030.512492,383.047749
312.837799,0.000000,-8956.491898,383.047749
312.838127,370.102971,-8882.471304,612.876398
312.838454,740.205942,-8512.368333,842.705048
312.838782,518.144159,-8956.491898,306.438199
312.839109,148.041188,-8882.471304,459.657299
312.839437,-444.123565,-9474.636058,459.657299
312.839764,-518.144159,-9474.636058,689.485948
312.840092,-518.144159,-9474.636058,1225.752797
312.840419,296.082377,-9622.677246,1455.581446
312.840746,444.123565,-9622.677246,1838.629195
312.841074,296.082377,-9400.615463,1991.848295
312.841401,0.000000,-9326.594869,2145.067394
312.841729,-296.082377,-9030.512492,1455.581446
312.842056,-1332.370696,-9252.574275,995.924147
312.842384,-1184.329507,-9030.512492,612.876398
312.842711,-1036.288319,-9104.533087,229.828649
312.843039,-814.226536,-8882.471304,153.219100
312.843366,-444.123565,-8808.450710,0.000000
312.843693,-444.123565,-8734.430116,76.609550
312.844021,-296.082377,-8586.388927,229.828649
312.844348,-592.164754,-8882.471304,306.438199
312.844676,-888.247130,-9326.594869,0.000000
312.845003,-1184.329507,-9400.615463,0.000000
312.845331,-1036.288319,-9622.677246,383.047749
312.845658,-666.185348,-9474.636058,536.266849
312.845985,-296.082377,-9474.636058,766.095498
312.846313,222.061783,-9178.553681,1378.971896
312.846640,370.102971,-9252.574275,1532.190996
312.846968,444.123565,-9104.533087,1149.143247
312.847295,0.000000,-9326.594869,1302.362347
312.847623,-222.061783,-9104.533087,306.438199
312.847950,-518.144159,-9030.512492,76.609550
312.848278,-518.144159,-9252.574275,-153.219100
312.848605,-444.123565,-8956.491898,306.438199
312.848932,0.000000,-9178.553681,-383.047749
312.849260,148.041188,-8734.430116,-229.828649
312.849587,222.061783,-8660.409521,0.000000
312.849915,0.000000,-8808.450710,-229.828649
312.850242,148.041188,-8512.368333,-459.657299
312.850570,0.000000,-9326.594869,-153.219100
312.850897,0.000000,-9178.553681,0.000000
312.851225,-222.061783,-9104.533087,229.828649
312.851552,222.061783,-9252.574275,689.485948
312.851879,592.164754,-9252.574275,1225.752797
312.852207,444.123565,-8734.430116,1532.190996
312.852534,296.082377,-9030.512492,1302.362347
312.852862,222.061783,-9400.615463,1072.533697
312.853189,-296.082377,-9326.594869,766.095498
312.853517,-888.247130,-9474.636058,229.828649
312.853844,-518.144159,-9400.615463,0.000000
312.854172,-814.226536,-8956.491898,306.438199
312.854499,-592.164754,-9104.533087,0.000000
312.854826,-518.144159,-8808.450710,0.000000
312.855154,-518.144159,-8512.368333,0.000000
312.855481,-814.226536,-8734.430116,153.219100
312.855809,-370.102971,-9252.574275,76.609550
312.856136,-1110.308913,-8882.471304,-229.828649
312.856464,-1258.350101,-9104.533087,0.000000
312.856791,-518.144159,-9178.553681,612.876398
312.857119,-296.082377,-8956.491898,1225.752797
312.857446,0.000000,-8734.430116,1072.533697
312.857773,222.061783,-9178.553681,1762.019645
312.858101,148.041188,-9252.574275,1685.410096
312.858428,-296.082377,-9474.636058,1685.410096
312.858756,-740.205942,-9474.636058,842.705048
312.859083,-1258.350101,-9252.574275,919.314598
312.859411,-666.185348,-9474.636058,153.219100
312.859738,-444.123565,-9474.636058,229.828649
312.860065,0.000000,-9104.533087,306.438199
312.860393,222.061783,-9030.512492,306.438199
312.860720,592.164754,-8364.327145,842.705048
312.861048,148.041188,-8882.471304,383.047749
312.861375,0.000000,-9030.512492,153.219100
312.861703,0.000000,-9474.636058,383.047749
312.862030,0.000000,-9474.636058,612.876398
312.862358,-222.061783,-9400.615463,1378.971896
312.862685,296.082377,-9474.636058,1532.190996
312.863012,518.144159,-9622.677246,1915.238745
312.863340,296.082377,-9474.636058,1915.238745
312.863667,0.000000,-9474.636058,2068.457845
312.863995,-518.144159,-9400.615463,1532.190996
312.864322,-888.247130,-9030.512492,1149.143247
312.864650,-1036.288319,-9252.574275,919.314598
312.864977,-1110.308913,-9030.512492,306.438199
312.865305,-592.164754,-8734.430116,306.438199
312.865632,-444.123565,-8808.450710,459.657299
312.865959,0.000000,-8438.347739,919.314598
312.866287,-222.061783,-8364.327145,459.657299
312.866614,-444.123565,-8734.430116,306.438199
312.866942,-1036.288319,-9178.553681,306.438199
312.867269,-1332.370696,-9474.636058,153.219100
312.867597,-1406.391290,-9104.533087,536.266849
312.867924,-1110.308913,-9400.615463,536.266849
312.868252,-592.164754,-9178.553681,1149.143247
312.868579,-222.061783,-9104.533087,1378.971896
312.868906,0.000000,-9030.512492,1455.581446
312.869234,296.082377,-9030.512492,1608.800546
312.869561,0.000000,-8586.388927,919.314598
312.869889,-370.102971,-9030.512492,459.657299
312.870216,-666.185348,-9178.553681,229.828649
312.870544,-962.267725,-9178.553681,-383.047749
312.870871,-370.102971,-8882.471304,-306.438199
312.871198,296.082377,-9030.512492,-766.095498
312.871526,74.020594,-8660.409521,-306.438199
312.871853,296.082377,-8660.409521,-383.047749
312.872181,222.061783,-8956.491898,-383.047749
312.872508,444.123565,-8882.471304,-383.047749
312.872836,296.082377,-9104.533087,-383.047749
312.873163,148.041188,-9104.533087,76.609550
312.873491,74.020594,-9400.615463,153.219100
312.873818,814.226536,-9178.553681,383.047749
312.874145,962.267725,-8956.491898,766.095498
312.874473,1702.473667,-9030.512492,919.314598
312.874800,1036.288319,-9030.512492,1455.581446
312.875128,592.164754,-9474.636058,995.924147
312.875455,0.000000,-9474.636058,536.266849
312.875783,-592.164754,-9326.594869,153.219100
312.876110,-814.226536,-9104.533087,229.828649
312.876438,-666.185348,-9178.553681,306.438199
312.876765,-666.185348,-9104.533087,0.000000
312.877092,-296.082377,-8734.430116,0.000000
312.877420,-296.082377,-8660.409521,0.000000
312.877747,-444.123565,-8512.368333,0.000000
312.878075,-740.205942,-8734.430116,153.219100
312.878402,-1184.329507,-8882.471304,-229.828649
312.878730,-1258.350101,-8882.471304,153.219100
312.879057,-1110.308913,-8734.430116,306.438199
312.879385,-296.082377,-8808.450710,842.705048
312.879712,296.082377,-8956.491898,1762.019645
312.880039,0.000000,-9178.553681,1608.800546
312.880367,-222.061783,-9252.574275,1608.800546
312.880694,-444.123565,-9400.615463,1455.581446
312.881022,-1110.308913,-9326.594869,1072.533697
312.881349,-1332.370696,-9252.574275,612.876398
312.881677,-962.267725,-9400.615463,76.609550
312.882004,-592.164754,-9474.636058,76.609550
312.882332,0.000000,-9104.533087,306.438199
312.882659,296.082377,-8808.450710,229.828649
312.882986,888.247130,-8290.306550,383.047749
312.883314,888.247130,-8660.409521,383.047749
312.883641,0.000000,-9030.512492,383.047749
312.883969,-296.082377,-9474.636058,459.657299
312.884296,-148.041188,-9474.636058,1149.143247
312.884624,0.000000,-9400.615463,1072.533697
312.884951,370.102971,-9326.594869,1838.629195
312.885278,370.102971,-9178.553681,2221.676944
312.885606,518.144159,-9400.615463,2374.896044
312.885933,0.000000,-9178.553681,1915.238745
312.886261,-666.185348,-9252.574275,1685.410096
312.886588,-888.247130,-8956.491898,1608.800546
312.886916,-962.267725,-9030.512492,919.314598
312.887243,-1036.288319,-9104.533087,459.657299
312.887571,-592.164754,-8734.430116,229.828649
312.887898,-296.082377,-8512.368333,459.657299
312.888225,-296.082377,-7994.224174,612.876398
312.888553,0.000000,-8586.388927,229.828649
312.888880,-592.164754,-8882.471304,153.219100
312.889208,-1332.370696,-9178.553681,0.000000
312.889535,-1628.453072,-9474.636058,0.000000
312.889863,-1628.453072,-9326.594869,0.000000
312.890190,-1258.350101,-9474.636058,612.876398
312.890518,-296.082377,-9474.636058,842.705048
312.890845,0.000000,-9030.512492,1149.143247
312.891172,296.082377,-9178.553681,1302.362347
312.891500,296.082377,-8882.471304,1225.752797
312.891827,0.000000,-9030.512492,1149.143247
312.892155,-592.164754,-8882.471304,306.438199
312.892482,-666.185348,-9252.574275,-306.438199
312.892810,-888.247130,-9252.574275,-229.828649
312.893137,-296.082377,-9178.553681,-536.266849
312.893465,-444.123565,-8660.409521,0.000000
312.893792,370.102971,-9030.512492,-229.828649
312.894119,296.082377,-8734.430116,-229.828649
312.894447,222.061783,-9030.512492,-383.047749
312.894774,222.061783,-9252.574275,-153.219100
312.895102,0.000000,-9252.574275,0.000000
312.895429,0.000000,-9178.553681,0.000000
312.895757,444.123565,-9326.594869,459.657299
312.896084,666.185348,-9252.574275,1072.533697
312.896412,1406.391290,-9030.512492,1302.362347
312.896739,1258.350101,-9104.533087,1685.410096
312.897066,1036.288319,-9178.553681,1455.581446
312.897394,222.061783,-9326.594869,1072.533697
312.897721,-296.082377,-9474.636058,536.266849
312.898049,-962.267725,-9104.533087,383.047749
312.898376,-888.247130,-9252.574275,-153.219100
312.898704,-962.267725,-9030.512492,306.438199
312.899031,-1110.308913,-8586.388927,153.219100
312.899358,-666.185348,-8586.388927,0.000000
312.899686,-740.205942,-8512.368333,-76.609550
312.900013,-1036.288319,-8438.347739,0.000000
312.900341,-1110.308913,-8438.347739,0.000000
312.900668,-1258.350101,-9178.553681,-383.047749
312.900996,-962.267725,-8734.430116,76.609550
312.901323,-740.205942,-8956.491898,459.657299
312.901651,0.000000,-8956.491898,995.924147
312.901978,222.061783,-8660.409521,1762.019645
312.902305,370.102971,-8956.491898,1378.971896
312.902633,222.061783,-9400.615463,1685.410096
312.902960,-370.102971,-8956.491898,1302.362347
312.903288,-962.267725,-9400.615463,766.095498
312.903615,-740.205942,-9770.718434,383.047749
312.903943,-740.205942,-9104.533087,0.000000
312.904270,0.000000,-9400.615463,0.000000
312.904598,74.020594,-9030.512492,153.219100
312.904925,518.144159,-8660.409521,306.438199
312.905252,222.061783,-9252.574275,0.000000
312.905580,1110.308913,-8660.409521,842.705048
312.905907,0.000000,-8734.430116,459.657299
312.906235,-296.082377,-9474.636058,229.828649
312.906562,-148.041188,-9622.677246,536.266849
312.906890,0.000000,-9770.718434,1149.143247
312.907217,592.164754,-9474.636058,1915.238745
312.907545,444.123565,-9252.574275,1991.848295
312.907872,444.123565,-9622.677246,1991.848295
312.908199,0.000000,-9770.718434,2068.457845
312.908527,-592.164754,-9178.553681,1532.190996
312.908854,-1036.288319,-9326.594869,536.266849
312.909182,-1184.329507,-8956.491898,995.924147
312.909509,-814.226536,-9178.553681,76.609550
312.909837,-888.247130,-9104.533087,306.438199
312.910164,-148.041188,-8512.368333,383.047749
312.910491,-370.102971,-8364.327145,689.485948
312.910819,0.000000,-8438.347739,383.047749
312.911146,-1110.308913,-9178.553681,229.828649
312.911474,-1258.350101,-9474.636058,306.438199
312.911801,-1480.411884,-9474.636058,229.828649
312.912129,-1406.391290,-9474.636058,612.876398
312.912456,-1184.329507,-9400.615463,1149.143247
312.912784,-666.185348,-9252.574275,1149.143247
312.913111,-222.061783,-9400.615463,1532.190996
312.913438,222.061783,-8882.471304,1532.190996
312.913766,0.000000,-8882.471304,1302.362347
312.914093,-370.102971,-9030.512492,919.314598
312.914421,-740.205942,-9104.533087,536.266849
312.914748,-1036.288319,-8882.471304,0.000000
312.915076,-666.185348,-9030.512492,0.000000
312.915403,-296.082377,-9030.512492,153.219100
312.915731,0.000000,-8734.430116,0.000000
312.916058,222.061783,-8586.388927,306.438199
312.916385,518.144159,-9030.512492,76.609550
312.916713,222.061783,-8956.491898,76.609550
312.917040,0.000000,-9252.574275,0.000000
312.917368,0.000000,-9252.574275,0.000000
312.917695,0.000000,-9178.553681,229.828649
312.918023,370.102971,-9252.574275,612.876398
312.918350,444.123565,-9252.574275,995.924147
312.918678,666.185348,-9326.594869,1225.752797
312.919005,666.185348,-9326.594869,1608.800546
312.919332,740.205942,-8734.430116,995.924147
312.919660,-222.061783,-9178.553681,766.095498
312.919987,-518.144159,-9252.574275,459.657299
312.920315,-740.205942,-9474.636058,0.000000
312.920642,-666.185348,-9104.533087,-229.828649
312.920970,-370.102971,-8882.471304,-153.219100
312.921297,0.000000,-8882.471304,0.000000
312.921625,-296.082377,-8882.471304,0.000000
312.921952,-518.144159,-8438.347739,-229.828649
312.922279,-592.164754,-8734.430116,-383.047749
312.922607,-1406.391290,-8882.471304,0.000000
312.922934,-740.205942,-8956.491898,0.000000
312.923262,-962.267725,-8882.471304,229.828649
312.923589,-370.102971,-8882.471304,383.047749
312.923917,0.000000,-8956.491898,995.924147
312.924244,444.123565,-8882.471304,1302.362347
312.924572,740.205942,-8882.471304,1455.581446
312.924899,296.082377,-9252.574275,1225.752797
312.925227,0.000000,-9178.553681,995.924147
312.925554,-518.144159,-9400.615463,459.657299
312.925882,-740.205942,-9474.636058,153.219100
312.926209,-592.164754,-9252.574275,76.609550
312.926537,-222.061783,-9400.615463,0.000000
312.926864,0.000000,-9252.574275,76.609550
312.927192,222.061783,-9030.512492,76.609550
312.927519,370.102971,-8808.450710,0.000000
312.927847,518.144159,-8438.347739,306.438199
312.928174,296.082377,-9104.533087,459.657299
312.928502,-296.082377,-9400.615463,153.219100
312.928829,-444.123565,-9474.636058,689.485948
312.929157,0.000000,-9474.636058,1225.752797
312.929484,296.082377,-9474.636058,1532.190996
312.929812,518.144159,-8734.430116,1915.238745
312.930139,370.102971,-9252.574275,1991.848295
312.930467,-148.041188,-9474.636058,1991.848295
312.930794,-666.185348,-9252.574275,1608.800546
312.931122,-888.247130,-9400.615463,1072.533697
312.931449,-740.205942,-8882.471304,229.828649
312.931777,-888.247130,-8956.491898,459.657299
312.932105,-518.144159,-9104.533087,612.876398
312.932432,-592.164754,-8734.430116,306.438199
312.932760,0.000000,-8512.368333,536.266849
312.933087,-296.082377,-8438.347739,612.876398
312.933415,-592.164754,-8734.430116,766.095498
312.933742,-1258.350101,-9326.594869,689.485948
312.934070,-1480.411884,-9474.636058,459.657299
312.934397,-1628.453072,-9252.574275,689.485948
312.934725,-1258.350101,-9104.533087,919.314598
312.935052,-740.205942,-8956.491898,1149.143247
312.935380,0.000000,-9104.533087,1455.581446
312.935707,74.020594,-9326.594869,1378.971896
312.936035,-148.041188,-8808.450710,1225.752797
312.936362,-666.185348,-8956.491898,842.705048
312.936690,-962.267725,-8586.388927,229.828649
312.937017,-1258.350101,-9178.553681,0.000000
312.937345,-814.226536,-9030.512492,0.000000
312.937672,-370.102971,-8882.471304,-383.047749
312.938000,0.000000,-8734.430116,-612.876398
312.938327,148.041188,-8290.306550,153.219100
312.938655,518.144159,-8660.409521,153.219100
312.938982,370.102971,-8882.471304,-153.219100
312.939310,0.000000,-9104.533087,-306.438199
312.939637,0.000000,-9252.574275,-153.219100
312.939965,148.041188,-9400.615463,306.438199
312.940292,444.123565,-9104.533087,76.609550
312.940620,814.226536,-9326.594869,689.485948
312.940947,888.247130,-9104.533087,1378.971896
312.941275,1258.350101,-9252.574275,1455.581446
312.941602,148.041188,-8956.491898,1532.190996
312.941930,0.000000,-9104.533087,0.000000
312.942257,-222.061783,-9326.594869,229.828649
312.942585,-666.185348,-9252.574275,-229.828649
312.942912,-740.205942,-9326.594869,-229.828649
312.943240,-666.185348,-9030.512492,-536.266849
312.943567,-222.061783,-8882.471304,-229.828649
312.943895,-444.123565,-8512.368333,-153.219100
312.944222,-666.185348,-8512.368333,-306.438199
312.944550,-888.247130,-8512.368333,-76.609550
312.944878,-1332.370696,-8808.450710,-459.657299
312.945205,-1258.350101,-8956.491898,-153.219100
312.945533,-1036.288319,-8956.491898,76.609550
312.945860,-740.205942,-9030.512492,612.876398
312.946188,-222.061783,-9252.574275,919.314598
312.946515,370.102971,-9104.533087,1455.581446
312.946843,0.000000,-9030.512492,1838.629195
312.947170,148.041188,-9252.574275,1225.752797
312.947498,-370.102971,-9474.636058,1149.143247
312.947825,-962.267725,-9622.677246,459.657299
312.948153,-1110.308913,-9474.636058,76.609550
312.948480,-740.205942,-9178.553681,0.000000
312.948808,-296.082377,-8956.491898,229.828649
312.949135,296.082377,-9030.512492,76.609550
312.949463,518.144159,-8808.450710,229.828649
312.949790,222.061783,-8660.409521,153.219100
312.950118,444.123565,-9104.533087,306.438199
312.950445,0.000000,-8882.471304,766.095498
312.950773,-444.123565,-9474.636058,306.438199
312.951100,0.000000,-9696.697840,995.924147
312.951428,148.041188,-9400.615463,1225.752797
312.951755,370.102971,-9548.656652,1991.848295
312.952083,962.267725,-9548.656652,2834.553343
312.952410,666.185348,-9474.636058,2374.896044
312.952738,0.000000,-9622.677246,1685.410096
312.953065,-592.164754,-9400.615463,1608.800546
312.953393,-1036.288319,-9400.615463,1072.533697
312.953720,-1036.288319,-8882.471304,612.876398
312.954048,-666.185348,-8660.409521,612.876398
312.954375,-444.123565,-8660.409521,459.657299
312.954703,-296.082377,-8882.471304,766.095498
312.955030,-148.041188,-8734.430116,536.266849
312.955358,-814.226536,-8882.471304,459.657299
312.955685,-1480.411884,-8808.450710,0.000000
312.956013,-1480.411884,-9474.636058,229.828649
312.956340,-1776.494261,-9400.615463,153.219100
312.956668,-1406.391290,-9474.636058,306.438199
312.956995,-1184.329507,-9252.574275,766.095498
312.957323,-444.123565,-9252.574275,919.314598
312.957651,0.000000,-9030.512492,1072.533697
312.957978,296.082377,-9030.512492,1532.190996
312.958306,-222.061783,-8882.471304,842.705048
312.958633,-740.205942,-9400.615463,689.485948
312.958961,-666.185348,-9474.636058,383.047749
312.959288,-518.144159,-8882.471304,-383.047749
312.959616,0.000000,-9252.574275,0.000000
312.959943,0.000000,-8882.471304,0.000000
312.960271,296.082377,-9030.512492,-306.438199
312.960598,592.164754,-8512.368333,0.000000
312.960926,814.226536,-8956.491898,-153.219100
312.961253,740.205942,-9252.574275,0.000000
312.961581,370.102971,-9252.574275,0.000000
312.961908,74.020594,-9474.636058,0.000000
312.962236,0.000000,-9548.656652,306.438199
312.962563,592.164754,-9104.533087,306.438199
312.962891,1036.288319,-9104.533087,995.924147
312.963218,1258.350101,-9400.615463,1685.410096
312.963546,888.247130,-9326.594869,1378.971896
312.963873,296.082377,-9326.594869,1072.533697
312.964201,0.000000,-9252.574275,612.876398
312.964528,-666.185348,-9178.553681,76.609550
312.964856,-740.205942,-9400.615463,0.000000
312.965183,-1110.308913,-9104.533087,-383.047749
312.965511,-740.205942,-9030.512492,-229.828649
312.965838,-296.082377,-8956.491898,-459.657299
312.966166,-666.185348,-8068.244768,-229.828649
312.966493,-888.247130,-8808.450710,0.000000
312.966821,-1332.370696,-8956.491898,-383.047749
312.967148,-1406.391290,-8882.471304,0.000000
312.967476,-888.247130,-9178.553681,612.876398
312.967803,-1258.350101,-9178.553681,383.047749
312.968131,-518.144159,-9178.553681,766.095498
312.968458,296.082377,-9548.656652,1225.752797
312.968786,370.102971,-9252.574275,1455.581446
312.969113,370.102971,-9474.636058,1685.410096
312.969441,0.000000,-9178.553681,1608.800546
312.969769,-370.102971,-9548.656652,995.924147
312.970096,-592.164754,-9474.636058,766.095498
312.970424,-740.205942,-9474.636058,76.609550
312.970751,-148.041188,-9326.594869,0.000000
312.971079,0.000000,-9030.512492,153.219100
312.971406,222.061783,-8512.368333,229.828649
312.971734,592.164754,-8808.450710,383.047749
312.972061,370.102971,-8734.430116,0.000000
312.972389,222.061783,-8956.491898,383.047749
312.972716,370.102971,-9400.615463,536.266849
312.973044,444.123565,-8882.471304,459.657299
312.973371,0.000000,-9326.594869,1072.533697
312.973699,296.082377,-9326.594869,1685.410096
312.974026,518.144159,-9326.594869,1685.410096
312.974354,370.102971,-8734.430116,1838.629195
312.974681,814.226536,-9178.553681,2298.286494
312.975009,-148.041188,-9326.594869,1378.971896
312.975336,-814.226536,-9104.533087,1149.143247
312.975664,-1184.329507,-9178.553681,766.095498
312.975991,-962.267725,-8882.471304,689.485948
312.976319,-592.164754,-8512.368333,536.266849
312.976646,-666.185348,-8364.327145,459.657299
312.976974,-444.123565,-8364.327145,612.876398
312.977301,-444.123565,-8586.388927,459.657299
312.977629,-888.247130,-8660.409521,536.266849
312.977956,-1258.350101,-8734.430116,306.438199
312.978284,-1480.411884,-8956.491898,229.828649
312.978611,-1850.514855,-9178.553681,76.609550
312.978939,-1628.453072,-9252.574275,612.876398
312.979266,-814.226536,-9178.553681,919.314598
312.979594,0.000000,-9030.512492,1608.800546
312.979921,0.000000,-9104.533087,1915.238745
312.980249,74.020594,-8808.450710,1532.190996
312.980576,0.000000,-8882.471304,1072.533697
312.980904,-518.144159,-9104.533087,766.095498
312.981231,0.000000,-9474.636058,459.657299
312.981559,-444.123565,-9178.553681,-229.828649
312.981886,-518.144159,-8956.491898,-229.828649
312.982214,74.020594,-9252.574275,0.000000
312.982542,444.123565,-9104.533087,0.000000
312.982869,444.123565,-8808.450710,0.000000
312.983197,296.082377,-9104.533087,229.828649
312.983524,148.041188,-9178.553681,0.000000
312.983852,0.000000,-9326.594869,0.000000
312.984179,0.000000,-9252.574275,306.438199
312.984507,222.061783,-9400.615463,536.266849
312.984834,592.164754,-9474.636058,1378.971896
312.985162,740.205942,-9178.553681,1149.143247
312.985489,888.247130,-9252.574275,1378.971896
312.985817,370.102971,-9178.553681,1532.190996
312.986144,0.000000,-9326.594869,1072.533697
312.986472,-296.082377,-9178.553681,1455.581446
312.986799,-1110.308913,-9252.574275,383.047749
312.987127,-1258.350101,-9178.553681,153.219100
312.987454,-962.267725,-9030.512492,0.000000
312.987782,-1036.288319,-8808.450710,0.000000
312.988109,-814.226536,-8734.430116,0.000000
312.988437,-518.144159,-8364.327145,0.000000
312.988764,-1184.329507,-8734.430116,-383.047749
312.989092,-1332.370696,-8808.450710,-306.438199
312.989419,-1332.370696,-8882.471304,-229.828649
312.989747,-1332.370696,-8956.491898,0.000000
312.990074,-814.226536,-8882.471304,0.000000
312.990402,-222.061783,-9104.533087,842.705048
312.990729,74.020594,-8882.471304,1149.143247
312.991057,370.102971,-9030.512492,1378.971896
312.991384,370.102971,-9252.574275,1608.800546
312.991712,444.123565,-9178.553681,1455.581446
312.992039,-518.144159,-9548.656652,995.924147
312.992367,-592.164754,-9474.636058,689.485948
312.992694,-666.185348,-9474.636058,0.000000
312.993022,-296.082377,-9400.615463,0.000000
312.993349,0.000000,-9400.615463,-612.876398
312.993677,444.123565,-8882.471304,153.219100
312.994004,222.061783,-8808.450710,-306.438199
312.994332,370.102971,-8660.409521,-153.219100
312.994659,222.061783,-8808.450710,-306.438199
312.994987,74.020594,-9104.533087,0.000000
312.995315,0.000000,-9326.594869,383.047749
312.995642,0.000000,-9326.594869,612.876398
312.995970,370.102971,-9326.594869,995.924147
312.996297,666.185348,-9178.553681,1455.581446
312.996625,592.164754,-9474.636058,1762.019645
312.996952,222.061783,-8586.388927,1685.410096
312.997280,0.000000,-9474.636058,1225.752797
312.997607,-888.247130,-9252.574275,1225.752797
312.997935,-814.226536,-9326.594869,766.095498
312.998262,-888.247130,-9326.594869,536.266849
312.998590,-814.226536,-8734.430116,536.266849
312.998917,-296.082377,-8882.471304,612.876398
312.999245,0.000000,-8586.388927,459.657299
312.999572,-444.123565,-8956.491898,459.657299
312.999900,-592.164754,-8882.471304,153.219100
313.000227,-740.205942,-9178.553681,459.657299
313.000555,-1554.432478,-9400.615463,76.609550
313.000882,-1554.432478,-9326.594869,306.438199
313.001210,-1332.370696,-9474.636058,459.657299
313.001537,-814.226536,-9400.615463,1072.533697
313.001865,-222.061783,-8956.491898,1455.581446
313.002192,74.020594,-8512.368333,1685.410096
313.002520,0.000000,-9030.512492,1455.581446
313.002847,-370.102971,-9104.533087,1072.533697
313.003175,-814.226536,-9104.533087,842.705048
313.003502,-814.226536,-9178.553681,536.266849
313.003830,-888.247130,-9178.553681,229.828649
313.004157,-740.205942,-9104.533087,0.000000
313.004485,0.000000,-9178.553681,76.609550
313.004812,444.123565,-8734.430116,229.828649
313.005140,666.185348,-8586.388927,76.609550
313.005467,1110.308913,-8808.450710,306.438199
313.005795,592.164754,-9252.574275,-153.219100
313.006122,74.020594,-9400.615463,229.828649
313.006450,0.000000,-9326.594869,306.438199
313.006777,74.020594,-9622.677246,766.095498
313.007105,444.123565,-9326.594869,1072.533697
313.007433,814.226536,-9474.636058,1378.971896
313.007760,740.205942,-9474.636058,1378.971896
313.008088,296.082377,-9252.574275,1532.190996
313.008415,-222.061783,-9474.636058,1225.752797
313.008743,-666.185348,-9178.553681,612.876398
313.009070,-888.247130,-9252.574275,0.000000
313.009398,-1332.370696,-8956.491898,0.000000
313.009725,-1258.350101,-8956.491898,-153.219100
313.010053,-1110.308913,-8660.409521,0.000000
313.010380,-888.247130,-8290.306550,-383.047749
313.010708,-592.164754,-8512.368333,0.000000
313.011035,-1110.308913,-8364.327145,-459.657299
313.011363,-1332.370696,-8882.471304,-76.609550
313.011690,-1406.391290,-8734.430116,-306.438199
313.012018,-1332.370696,-9030.512492,0.000000
313.012345,-740.205942,-9030.512492,919.314598
313.012673,0.000000,-8438.347739,919.314598
313.013000,370.102971,-9030.512492,1225.752797
313.013328,814.226536,-9400.615463,1225.752797
313.013655,444.123565,-9326.594869,1378.971896
313.013983,0.000000,-9474.636058,1072.533697
313.014310,0.000000,-9474.636058,536.266849
313.014638,-518.144159,-9770.718434,306.438199
313.014965,-518.144159,-9696.697840,0.000000
313.015293,-296.082377,-9178.553681,0.000000
313.015620,0.000000,-9030.512492,-76.609550
313.015948,740.205942,-8512.368333,306.438199
313.016275,962.267725,-8586.388927,0.000000
313.016603,666.185348,-9104.533087,0.000000
313.016930,296.082377,-8808.450710,-76.609550
313.017258,74.020594,-9178.553681,306.438199
313.017585,0.000000,-9030.512492,995.924147
313.017913,0.000000,-9326.594869,766.095498
313.018240,444.123565,-9326.594869,1608.800546
313.018568,444.123565,-9400.615463,1991.848295
313.018895,592.164754,-9400.615463,2451.505594
313.019223,0.000000,-9474.636058,2374.896044
313.019550,-148.041188,-9326.594869,2145.067394
313.019878,-814.226536,-9252.574275,1072.533697
313.020206,-1258.350101,-9400.615463,842.705048
313.020533,-1258.350101,-9104.533087,459.657299
313.020861,-740.205942,-9030.512492,459.657299
313.021188,-444.123565,-8512.368333,1072.533697
313.021516,-444.123565,-8512.368333,536.266849
313.021843,-592.164754,-8882.471304,842.705048
313.022171,-1258.350101,-9030.512492,536.266849
313.022498,-1702.473667,-9326.594869,459.657299
313.022826,-1628.453072,-9178.553681,536.266849
313.023153,-1850.514855,-9474.636058,153.219100
313.023481,-1480.411884,-9400.615463,689.485948
313.023808,-962.267725,-9400.615463,1225.752797
313.024136,-370.102971,-9178.553681,1608.800546
313.024463,-370.102971,-8660.409521,2145.067394
313.024791,148.041188,-9030.512492,1149.143247
313.025118,-296.082377,-8808.450710,1072.533697
313.025446,-592.164754,-8956.491898,689.485948
313.025773,-814.226536,-9252.574275,306.438199
313.026101,-444.123565,-9252.574275,0.000000
313.026428,0.000000,-8956.491898,536.266849
313.026756,444.123565,-8956.491898,-229.828649
313.027083,740.205942,-9178.553681,229.828649
313.027410,740.205942,-9104.533087,76.609550
313.027738,740.205942,-9252.574275,0.000000
313.028065,740.205942,-9178.553681,689.485948
313.028393,148.041188,-9474.636058,0.000000
313.028720,0.000000,-9622.677246,0.000000
313.029048,222.061783,-9548.656652,612.876398
313.029375,814.226536,-9252.574275,919.314598
313.029703,814.226536,-9030.512492,1302.362347
313.030030,740.205942,-8660.409521,1455.581446
313.030358,370.102971,-9326.594869,1455.581446
313.030685,-148.041188,-9030.512492,919.314598
313.031013,-666.185348,-9030.512492,459.657299
313.031340,-1406.391290,-8586.388927,383.047749
313.031667,-962.267725,-9104.533087,0.000000
313.031995,-1184.329507,-8956.491898,0.000000
313.032322,-888.247130,-8882.471304,-229.828649
313.032650,-740.205942,-8660.409521,0.000000
313.032977,-666.185348,-8438.347739,-229.828649
313.033305,-740.205942,-8438.347739,0.000000
313.033632,-1480.411884,-8734.430116,-306.438199
313.033960,-1480.411884,-9104.533087,-383.047749
313.034287,-888.247130,-9030.512492,0.000000
313.034615,-740.205942,-9030.512492,153.219100
313.034942,222.061783,-8956.491898,612.876398
313.035270,444.123565,-9104.533087,1378.971896
313.035597,592.164754,-9400.615463,1685.410096
313.035924,296.082377,-9622.677246,1685.410096
313.036252,74.020594,-9548.656652,995.924147
313.036579,-592.164754,-9622.677246,919.314598
313.036907,-666.185348,-9474.636058,383.047749
313.037234,-888.247130,-9400.615463,76.609550
313.037562,-148.041188,-9474.636058,0.000000
313.037889,74.020594,-8882.471304,0.000000
313.038217,296.082377,-8882.471304,229.828649
313.038544,222.061783,-8364.327145,-76.609550
313.038872,444.123565,-8512.368333,0.000000
313.039199,74.020594,-9030.512492,0.000000
313.039527,-148.041188,-8956.491898,153.219100
313.039854,-222.061783,-9030.512492,689.485948
313.040181,74.020594,-9178.553681,1149.143247
313.040509,296.082377,-9252.574275,1608.800546
313.040836,592.164754,-9326.594869,2145.067394
313.041164,518.144159,-9252.574275,2145.067394
313.041491,222.061783,-9474.636058,2068.457845
313.041819,-222.061783,-9474.636058,1915.238745
313.042146,-962.267725,-9252.574275,995.924147
313.042474,-1258.350101,-9474.636058,766.095498
313.042801,-888.247130,-9178.553681,536.266849
313.043129,-888.247130,-8808.450710,383.047749
313.043456,-666.185348,-8586.388927,306.438199
313.043784,-518.144159,-8438.347739,459.657299
313.044111,-370.102971,-8734.430116,612.876398
313.044438,-666.185348,-8956.491898,383.047749
313.044766,-1332.370696,-8660.409521,229.828649
313.045093,-1258.350101,-9326.594869,536.266849
313.045421,-888.247130,-8956.491898,153.219100
313.045748,-1258.350101,-9104.533087,536.266849
313.046076,-518.144159,-9104.533087,995.924147
313.046403,0.000000,-9030.512492,1302.362347
313.046731,0.000000,-8586.388927,1685.410096
313.047058,0.000000,-8882.471304,1532.190996
313.047386,-296.082377,-8882.471304,1302.362347
313.047713,-666.185348,-9252.574275,536.266849
313.048041,-518.144159,-8956.491898,306.438199
313.048368,-518.144159,-9104.533087,0.000000
313.048696,0.000000,-9178.553681,0.000000
313.049023,74.020594,-8882.471304,0.000000
313.049350,296.082377,-9104.533087,0.000000
313.049678,444.123565,-8882.471304,153.219100
313.050005,592.164754,-9326.594869,153.219100
313.050333,518.144159,-9252.574275,306.438199
313.050660,0.000000,-9474.636058,0.000000
313.050988,0.000000,-9474.636058,153.219100
313.051315,0.000000,-9400.615463,536.266849
313.051643,370.102971,-8956.491898,1149.143247
313.051970,888.247130,-8808.450710,1838.629195
313.052298,740.205942,-8808.450710,1608.800546
313.052625,74.020594,-9252.574275,1072.533697
313.052953,-148.041188,-9104.533087,995.924147
313.053280,-518.144159,-8956.491898,229.828649
313.053607,-1036.288319,-8956.491898,459.657299
313.053935,-814.226536,-8956.491898,0.000000
313.054262,-962.267725,-9030.512492,0.000000
313.054590,-592.164754,-8808.450710,0.000000
313.054917,-518.144159,-8512.368333,0.000000
313.055245,-740.205942,-8808.450710,0.000000
313.055572,-888.247130,-8808.450710,-153.219100
313.055900,-962.267725,-9030.512492,-306.438199
313.056227,-1184.329507,-9030.512492,76.609550
313.056555,-740.205942,-9030.512492,0.000000
313.056882,-592.164754,-9104.533087,612.876398
313.057210,370.102971,-9030.512492,1378.971896
313.057537,444.123565,-9252.574275,1378.971896
313.057864,666.185348,-8882.471304,1608.800546
313.058192,370.102971,-9252.574275,1532.190996
313.058519,-148.041188,-9474.636058,1149.143247
313.058847,-592.164754,-9844.739029,0.000000
313.059174,-592.164754,-9622.677246,229.828649
313.059502,-518.144159,-9400.615463,0.000000
313.059829,-222.061783,-9104.533087,0.000000
313.060157,-148.041188,-9178.553681,-153.219100
313.060484,296.082377,-9252.574275,76.609550
313.060812,740.205942,-8364.327145,0.000000
313.061139,444.123565,-8660.409521,0.000000
313.061467,296.082377,-8808.450710,76.609550
313.061794,-148.041188,-9178.553681,229.828649
313.062121,-296.082377,-9252.574275,612.876398
313.062449,222.061783,-9030.512492,1072.533697
313.062776,370.102971,-9104.533087,1532.190996
313.063104,740.205942,-9326.594869,1685.410096
313.063431,592.164754,-9474.636058,1838.629195
313.063759,296.082377,-9474.636058,1915.238745
313.064086,-444.123565,-9030.512492,1532.190996
313.064414,-296.082377,-9770.718434,995.924147
313.064741,-1258.350101,-9104.533087,536.266849
313.065069,-962.267725,-9326.594869,459.657299
313.065396,-814.226536,-9178.553681,0.000000
313.065724,-296.082377,-8586.388927,383.047749
313.066051,-296.082377,-9400.615463,0.000000
313.066378,-518.144159,-8660.409521,76.609550
313.066706,-888.247130,-8956.491898,306.438199
313.067033,-1554.432478,-9030.512492,0.000000
313.067361,-1480.411884,-9030.512492,229.828649
313.067688,-1110.308913,-9178.553681,383.047749
313.068016,-1258.350101,-9104.533087,919.314598
313.068343,-518.144159,-9252.574275,1072.533697
313.068671,222.061783,-9400.615463,1532.190996
313.068998,0.000000,-8808.450710,1532.190996
313.069326,518.144159,-9474.636058,1608.800546
313.069653,0.000000,-9104.533087,1149.143247
313.069981,-814.226536,-9326.594869,689.485948
313.070308,-370.102971,-9326.594869,0.000000
313.070635,-444.123565,-9326.594869,-306.438199
313.070963,0.000000,-8734.430116,0.000000
313.071290,370.102971,-8956.491898,153.219100
313.071618,666.185348,-8882.471304,153.219100
313.071945,592.164754,-8660.409521,153.219100
313.072273,222.061783,-9104.533087,306.438199
313.072600,222.061783,-9326.594869,0.000000
313.072928,-592.164754,-9326.594869,459.657299
313.073255,0.000000,-9696.697840,536.266849
313.073583,0.000000,-9326.594869,383.047749
313.073910,444.123565,-9326.594869,919.314598
313.074238,666.185348,-9178.553681,1532.190996
313.074565,1036.288319,-9252.574275,995.924147
313.074893,222.061783,-9178.553681,1072.533697
313.075220,-148.041188,-8956.491898,1072.533697
313.075547,-888.247130,-8882.471304,536.266849
313.075875,-962.267725,-8882.471304,306.438199
313.076202,-1036.288319,-8586.388927,-229.828649
313.076530,-888.247130,-8364.327145,153.219100
313.076857,-740.205942,-8438.347739,-76.609550
313.077185,-222.061783,-8512.368333,76.609550
313.077512,-592.164754,-8808.450710,0.000000
313.077840,-888.247130,-8586.388927,0.000000
313.078167,-1036.288319,-8882.471304,153.219100
313.078495,-1258.350101,-9474.636058,0.000000
313.078822,-1036.288319,-9252.574275,229.828649
313.079150,-370.102971,-9474.636058,766.095498
313.079477,74.020594,-9104.533087,1455.581446
313.079804,518.144159,-9104.533087,1685.410096
313.080132,740.205942,-9400.615463,1532.190996
313.080459,518.144159,-9400.615463,1532.190996
313.080787,0.000000,-9474.636058,995.924147
313.081114,-518.144159,-9622.677246,459.657299
313.081442,-962.267725,-9326.594869,76.609550
313.081769,-740.205942,-9178.553681,-229.828649
313.082097,-296.082377,-9326.594869,0.000000
313.082424,0.000000,-8956.491898,0.000000
313.082752,222.061783,-8586.388927,76.609550
313.083079,740.205942,-8808.450710,153.219100
313.083407,370.102971,-8586.388927,459.657299
313.083734,0.000000,-8956.491898,459.657299
313.084061,-148.041188,-9326.594869,229.828649
313.084389,-592.164754,-9474.636058,536.266849
313.084716,0.000000,-9326.594869,1149.143247
313.085044,148.041188,-9178.553681,2298.286494
313.085371,444.123565,-9474.636058,1685.410096
313.085699,370.102971,-9474.636058,1915.238745
313.086026,0.000000,-9400.615463,1455.581446
313.086354,-518.144159,-9326.594869,1225.752797
313.086681,-962.267725,-9030.512492,612.876398
313.087009,-1110.308913,-9326.594869,383.047749
313.087336,-1406.391290,-9178.553681,229.828649
313.087664,-1184.329507,-9030.512492,0.000000
313.087991,-740.205942,-8734.430116,306.438199
313.088318,-370.102971,-8438.347739,229.828649
313.088646,-1036.288319,-8512.368333,229.828649
313.088973,-1406.391290,-8808.450710,153.219100
313.089301,-1628.453072,-9030.512492,0.000000
313.089628,-1628.453072,-9104.533087,0.000000
313.089956,-1554.432478,-8882.471304,383.047749
313.090283,-518.144159,-8808.450710,459.657299
313.090611,0.000000,-8956.491898,1455.581446
313.090938,296.082377,-8734.430116,1455.581446
313.091266,666.185348,-8956.491898,1302.362347
313.091593,296.082377,-9030.512492,1762.019645
313.091921,0.000000,-9030.512492,995.924147
313.092248,-370.102971,-9252.574275,306.438199
313.092575,0.000000,-9474.636058,229.828649
313.092903,74.020594,-9252.574275,306.438199
313.093230,370.102971,-9326.594869,153.219100
313.093558,1110.308913,-9030.512492,766.095498
313.093885,1036.288319,-9104.533087,459.657299
313.094213,962.267725,-8882.471304,229.828649
313.094540,888.247130,-9252.574275,306.438199
313.094868,296.082377,-9474.636058,306.438199
313.095195,-222.061783,-9474.636058,-306.438199
313.095523,-222.061783,-9400.615463,153.219100
313.095850,0.000000,-9326.594869,306.438199
313.096178,296.082377,-9178.553681,1302.362347
313.096505,518.144159,-9104.533087,1455.581446
313.096833,518.144159,-8882.471304,2145.067394
313.097160,0.000000,-8882.471304,1302.362347
313.097487,-740.205942,-8956.491898,766.095498
313.097815,-1258.350101,-9104.533087,689.485948
313.098142,-1480.411884,-8956.491898,153.219100
313.098470,-1406.391290,-8808.450710,0.000000
313.098797,-1110.308913,-8364.327145,459.657299
313.099125,-962.267725,-8660.409521,76.609550
313.099452,-962.267725,-8586.388927,0.000000
313.099780,-888.247130,-8808.450710,229.828649
313.100107,-1184.329507,-9030.512492,0.000000
313.100435,-1480.411884,-9030.512492,0.000000
313.100762,-962.267725,-9178.553681,0.000000
313.101090,-814.226536,-9326.594869,459.657299
313.101417,-148.041188,-9030.512492,919.314598
313.101744,518.144159,-9326.594869,1532.190996
313.102072,666.185348,-8734.430116,1838.629195
313.102399,1110.308913,-9844.739029,2068.457845
313.102727,222.061783,-9474.636058,1455.581446
313.103054,-296.082377,-9622.677246,1149.143247
313.103382,-666.185348,-9474.636058,612.876398
313.103709,-740.205942,-9104.533087,842.705048
313.104037,0.000000,-9400.615463,153.219100
313.104364,-296.082377,-8956.491898,0.000000
313.104692,0.000000,-8660.409521,76.609550
313.105019,148.041188,-8512.368333,229.828649
313.105347,296.082377,-8586.388927,-229.828649
313.105674,0.000000,-8660.409521,0.000000
313.106001,-444.123565,-9178.553681,-306.438199
313.106329,-518.144159,-9030.512492,0.000000
313.106656,-296.082377,-9252.574275,229.828649
313.106984,-148.041188,-9400.615463,919.314598
313.107311,444.123565,-9178.553681,1685.410096
313.107639,666.185348,-9030.512492,1838.629195
313.107966,592.164754,-9326.594869,1608.800546
313.108294,74.020594,-9252.574275,1532.190996
313.108621,-444.123565,-9400.615463,1225.752797
313.108949,-1036.288319,-9252.574275,919.314598
313.109276,-814.226536,-8956.491898,536.266849
313.109604,-888.247130,-9030.512492,229.828649
313.109931,-370.102971,-8882.471304,76.609550
313.110258,-592.164754,-8808.450710,153.219100
313.110586,-592.164754,-8216.285956,0.000000
313.110913,-592.164754,-8290.306550,0.000000
313.111241,-1036.288319,-8734.430116,0.000000
313.111568,-1184.329507,-9326.594869,0.000000
313.111896,-1332.370696,-9178.553681,0.000000
313.112223,-962.267725,-9178.553681,0.000000
313.112551,-296.082377,-9326.594869,842.705048
313.112878,0.000000,-9178.553681,919.314598
313.113206,148.041188,-9030.512492,1225.752797
313.113533,444.123565,-9104.533087,1378.971896
313.113861,0.000000,-9178.553681,1149.143247
313.114188,-148.041188,-8956.491898,766.095498
313.114515,-518.144159,-9178.553681,612.876398
313.114843,-370.102971,-9104.533087,0.000000
313.115170,0.000000,-9030.512492,153.219100
313.115498,148.041188,-9104.533087,0.000000
313.115825,444.123565,-9400.615463,153.219100
313.116153,444.123565,-8956.491898,536.266849
313.116480,370.102971,-9030.512492,0.000000
313.116808,0.000000,-9252.574275,-153.219100
313.117135,-296.082377,-9326.594869,0.000000
313.117463,-666.185348,-9252.574275,229.828649
313.117790,0.000000,-9252.574275,229.828649
313.118118,296.082377,-9474.636058,842.705048
313.118445,444.123565,-8956.491898,1149.143247
313.118772,370.102971,-9030.512492,1378.971896
313.119100,0.000000,-8808.450710,1608.800546
313.119427,74.020594,-9030.512492,1455.581446
313.119755,-370.102971,-8956.491898,766.095498
313.120082,-740.205942,-9474.636058,306.438199
313.120410,-962.267725,-9178.553681,-153.219100
313.120737,-666.185348,-9252.574275,76.609550
313.121065,-1258.350101,-8512.368333,76.609550
313.121392,0.000000,-8660.409521,229.828649
313.121720,-370.102971,-8956.491898,0.000000
313.122047,-444.123565,-8882.471304,-153.219100
313.122375,-370.102971,-8956.491898,76.609550
313.122702,-1554.432478,-8660.409521,229.828649
313.123030,-740.205942,-9474.636058,0.000000
313.123357,-370.102971,-9104.533087,306.438199
313.123684,0.000000,-9252.574275,689.485948
313.124012,592.164754,-9252.574275,1302.362347
313.124339,1184.329507,-9474.636058,1149.143247
313.124667,518.144159,-9474.636058,1532.190996
313.124994,296.082377,-9474.636058,1072.533697
313.125322,-1258.350101,-9622.677246,612.876398
313.125649,-740.205942,-9992.780217,766.095498
313.125977,-962.267725,-9474.636058,229.828649
313.126304,-1258.350101,-8956.491898,0.000000
313.126632,-222.061783,-9474.636058,76.609550
313.126959,518.144159,-8808.450710,0.000000
313.127287,-592.164754,-8734.430116,0.000000
313.127614,148.041188,-8808.450710,0.000000
313.127942,0.000000,-8216.285956,612.876398
313.128270,-370.102971,-9030.512492,0.000000
313.128597,-592.164754,-9326.594869,0.000000
313.128925,296.082377,-9400.615463,766.095498
313.129252,-222.061783,-9104.533087,536.266849
313.129580,1332.370696,-9992.780217,1991.848295
313.129907,296.082377,-8808.450710,1378.971896
313.130235,740.205942,-9474.636058,2374.896044
313.130563,74.020594,-9696.697840,1455.581446
313.130890,74.020594,-9770.718434,1378.971896
313.131218,-666.185348,-8882.471304,459.657299
313.131545,-370.102971,-9918.759623,153.219100
313.131873,-148.041188,-9844.739029,536.266849
313.132201,-666.185348,-9030.512492,76.609550
313.132528,0.000000,-9474.636058,306.438199
313.132856,-370.102971,-8512.368333,-306.438199
313.133183,0.000000,-9178.553681,-612.876398
313.133511,-888.247130,-9178.553681,76.609550
313.133839,-1184.329507,-9178.553681,0.000000
313.134166,-666.185348,-9326.594869,306.438199
313.134494,-1036.288319,-9178.553681,459.657299
313.134821,-148.041188,-8956.491898,842.705048
313.135149,-370.102971,-9030.512492,1378.971896
313.135477,370.102971,-8660.409521,2145.067394
313.135804,-222.061783,-9104.533087,1762.019645
313.136132,-740.205942,-9104.533087,1225.752797
313.136459,-296.082377,-9326.594869,919.314598
313.136787,-666.185348,-9178.553681,229.828649
313.137114,-592.164754,-9474.636058,76.609550
313.137442,0.000000,-9326.594869,0.000000
313.137770,-222.061783,-8956.491898,-153.219100
313.138097,370.102971,-8808.450710,536.266849
313.138425,740.205942,-8512.368333,383.047749
313.138752,1036.288319,-9400.615463,383.047749
313.139080,296.082377,-9104.533087,76.609550
313.139408,444.123565,-9178.553681,612.876398
313.139735,-592.164754,-9030.512492,76.609550
313.140063,296.082377,-9030.512492,1149.143247
313.140390,222.061783,-8956.491898,1225.752797
313.140718,370.102971,-9104.533087,1608.800546
313.141046,518.144159,-9326.594869,1685.410096
313.141373,518.144159,-8956.491898,1685.410096
313.141701,222.061783,-9252.574275,1532.190996
313.142028,-888.247130,-8512.368333,842.705048
313.142356,-1110.308913,-9252.574275,459.657299
313.142684,-888.247130,-8734.430116,229.828649
313.143011,-1258.350101,-8438.347739,0.000000
313.143339,-296.082377,-8734.430116,153.219100
313.143666,0.000000,-8586.388927,229.828649
313.143994,0.000000,-8808.450710,76.609550
313.144321,-222.061783,-8586.388927,153.219100
313.144649,-740.205942,-8734.430116,76.609550
313.144977,-888.247130,-9178.553681,306.438199
313.145304,-962.267725,-9178.553681,612.876398
313.145632,-592.164754,-9474.636058,612.876398
313.145959,-148.041188,-9548.656652,1149.143247
313.146287,148.041188,-9252.574275,1378.971896
313.146615,296.082377,-9104.533087,1838.629195
313.146942,0.000000,-8586.388927,1762.019645
313.147270,0.000000,-9474.636058,1378.971896
313.147597,-740.205942,-9252.574275,919.314598
313.147925,-1184.329507,-9326.594869,459.657299
313.148253,-1110.308913,-9104.533087,153.219100
313.148580,-814.226536,-8808.450710,153.219100
313.148908,-296.082377,-8956.491898,0.000000
313.149235,0.000000,-8512.368333,0.000000
313.149563,148.041188,-8438.347739,-153.219100
313.149891,222.061783,-8660.409521,76.609550
313.150218,0.000000,-8882.471304,0.000000
313.150546,-222.061783,-9030.512492,0.000000
313.150873,-592.164754,-9400.615463,383.047749
313.151201,-148.041188,-9474.636058,766.095498
313.151528,296.082377,-9474.636058,1149.143247
313.151856,666.185348,-9252.574275,1455.581446
313.152184,1332.370696,-9400.615463,1762.019645
313.152511,740.205942,-9326.594869,1915.238745
313.152839,370.102971,-9252.574275,1302.362347
313.153166,0.000000,-9326.594869,766.095498
313.153494,-592.164754,-9474.636058,536.266849
313.153822,-740.205942,-9696.697840,76.609550
313.154149,-814.226536,-8956.491898,0.000000
313.154477,-740.205942,-8956.491898,0.000000
313.154804,-592.164754,-8808.450710,0.000000
313.155132,-666.185348,-8882.471304,0.000000
313.155460,-444.123565,-8586.388927,0.000000
313.155787,-1258.350101,-9030.512492,-306.438199
313.156115,-1406.391290,-8956.491898,-459.657299
313.156442,-1258.350101,-9104.533087,-229.828649
313.156770,-962.267725,-9030.512492,-306.438199
313.157098,-370.102971,-8364.327145,842.705048
313.157425,296.082377,-8734.430116,1072.533697
313.157753,592.164754,-8956.491898,1378.971896
313.158080,444.123565,-9178.553681,1378.971896
313.158408,148.041188,-9104.533087,1072.533697
313.158735,-296.082377,-9252.574275,383.047749
313.159063,-296.082377,-9326.594869,689.485948
313.159391,-222.061783,-9400.615463,76.609550
313.159718,148.041188,-9326.594869,0.000000
313.160046,296.082377,-9030.512492,76.609550
313.160373,518.144159,-8734.430116,229.828649
313.160701,592.164754,-8882.471304,0.000000
313.161029,666.185348,-8956.491898,153.219100
313.161356,0.000000,-8956.491898,153.219100
313.161684,-222.061783,-9252.574275,229.828649
313.162011,-592.164754,-9400.615463,383.047749
313.162339,-666.185348,-8808.450710,919.314598
313.162667,-370.102971,-8438.347739,1455.581446
313.162994,222.061783,-8808.450710,1838.629195
313.163322,148.041188,-9104.533087,1838.629195
313.163649,-148.041188,-9104.533087,1915.238745
313.163977,-888.247130,-8660.409521,1149.143247
313.164304,-1036.288319,-8660.409521,1455.581446
313.164632,-1406.391290,-8956.491898,689.485948
313.164960,-1554.432478,-8808.450710,383.047749
313.165287,-1258.350101,-8956.491898,306.438199
313.165615,-814.226536,-8808.450710,459.657299
313.165942,-518.144159,-8512.368333,383.047749
313.166270,-592.164754,-8734.430116,76.609550
313.166598,-814.226536,-8956.491898,0.000000
313.166925,-962.267725,-9326.594869,0.000000
313.167253,-1184.329507,-9474.636058,0.000000
313.167580,-888.247130,-9030.512492,0.000000
313.167908,-518.144159,-9474.636058,459.657299
313.168236,0.000000,-9474.636058,1302.362347
313.168563,814.226536,-9474.636058,1378.971896
313.168891,814.226536,-9400.615463,1838.629195
313.169218,740.205942,-8956.491898,1915.238745
313.169546,74.020594,-9548.656652,1608.800546
313.169874,-444.123565,-9474.636058,383.047749
313.170201,-814.226536,-9548.656652,459.657299
313.170529,-740.205942,-9326.594869,153.219100
313.170856,-444.123565,-9252.574275,-229.828649
313.171184,148.041188,-8882.471304,-306.438199
313.171511,444.123565,-8808.450710,76.609550
313.171839,592.164754,-8882.471304,229.828649
313.172167,592.164754,-8734.430116,0.000000
313.172494,0.000000,-9178.553681,0.000000
313.172822,0.000000,-9252.574275,229.828649
313.173149,-296.082377,-9548.656652,383.047749
313.173477,-296.082377,-9622.677246,766.095498
313.173805,0.000000,-9326.594869,842.705048
313.174132,444.123565,-9326.594869,1608.800546
313.174460,370.102971,-9252.574275,1991.848295
313.174787,0.000000,-8882.471304,1225.752797
313.175115,-370.102971,-9474.636058,1532.190996
313.175443,-1110.308913,-9252.574275,689.485948
313.175770,-1480.411884,-9326.594869,76.609550
313.176098,-1480.411884,-9030.512492,0.000000
313.176425,-1036.288319,-9104.533087,-919.314598
313.176753,-962.267725,-8882.471304,-229.828649
313.177081,-666.185348,-8882.471304,0.000000
313.177408,-666.185348,-8586.388927,-229.828649
313.177736,-962.267725,-8882.471304,-459.657299
313.178063,-888.247130,-8660.409521,-1149.143247
313.178391,-740.205942,-9030.512492,-153.219100
313.178718,-888.247130,-9030.512492,229.828649
313.179046,-370.102971,-9030.512492,612.876398
313.179374,0.000000,-8882.471304,1149.143247
313.179701,296.082377,-8290.306550,1072.533697
313.180029,888.247130,-9030.512492,1532.190996
313.180356,888.247130,-9178.553681,1608.800546
313.180684,148.041188,-9252.574275,919.314598
313.181012,-370.102971,-9400.615463,459.657299
313.181339,-148.041188,-9474.636058,612.876398
313.181667,0.000000,-9178.553681,0.000000
313.181994,0.000000,-9178.553681,76.609550
313.182322,444.123565,-8956.491898,76.609550
313.182650,444.123565,-8808.450710,229.828649
313.182977,444.123565,-8734.430116,536.266849
313.183305,370.102971,-8808.450710,-306.438199
313.183632,-296.082377,-8956.491898,0.000000
313.183960,-518.144159,-9178.553681,76.609550
313.184288,-740.205942,-9326.594869,153.219100
313.184615,-518.144159,-9326.594869,766.095498
313.184943,296.082377,-9030.512492,2068.457845
313.185270,74.020594,-8882.471304,1762.019645
313.185598,74.020594,-9030.512492,1838.629195
313.185925,0.000000,-8956.491898,1685.410096
313.186253,-592.164754,-9030.512492,1378.971896
313.186581,-1110.308913,-8660.409521,1378.971896
313.186908,-1036.288319,-8882.471304,536.266849
313.187236,-1184.329507,-8956.491898,306.438199
313.187563,-740.205942,-9030.512492,459.657299
313.187891,-296.082377,-8956.491898,229.828649
313.188219,-370.102971,-8734.430116,306.438199
313.188546,-296.082377,-9104.533087,153.219100
313.188874,-592.164754,-9178.553681,229.828649
313.189201,-1036.288319,-9400.615463,229.828649
313.189529,-1110.308913,-9252.574275,306.438199
313.189857,-1036.288319,-9178.553681,919.314598
313.190184,-296.082377,-9622.677246,919.314598
313.190512,296.082377,-9104.533087,1149.143247
313.190839,592.164754,-9252.574275,1685.410096
313.191167,666.185348,-9326.594869,1608.800546
313.191494,296.082377,-9326.594869,1455.581446
313.191822,-222.061783,-9474.636058,1149.143247
313.192150,-888.247130,-9400.615463,536.266849
313.192477,-888.247130,-9474.636058,153.219100
313.192805,-740.205942,-9326.594869,153.219100
313.193132,-518.144159,-9104.533087,-153.219100
313.193460,0.000000,-8882.471304,0.000000
313.193788,148.041188,-8808.450710,229.828649
313.194115,296.082377,-8512.368333,0.000000
313.194443,370.102971,-8734.430116,76.609550
313.194770,-370.102971,-8808.450710,0.000000
313.195098,-222.061783,-9696.697840,306.438199
313.195426,-148.041188,-9030.512492,0.000000
313.195753,0.000000,-9474.636058,919.314598
313.196081,0.000000,-9030.512492,995.924147
313.196408,518.144159,-9474.636058,1532.190996
313.196736,666.185348,-9400.615463,1991.848295
313.197064,370.102971,-8734.430116,1608.800546
313.197391,74.020594,-9178.553681,1378.971896
313.197719,-370.102971,-9400.615463,612.876398
313.198046,-666.185348,-9104.533087,229.828649
313.198374,-1110.308913,-9326.594869,0.000000
313.198701,-370.102971,-9252.574275,0.000000
313.199029,-518.144159,-8660.409521,153.219100
313.199357,-592.164754,-8734.430116,0.000000
313.199684,-592.164754,-8660.409521,-459.657299
313.200012,-518.144159,-9104.533087,-306.438199
313.200339,-1184.329507,-8808.450710,-383.047749
313.200667,-1406.391290,-9104.533087,-383.047749
313.200995,-666.185348,-9474.636058,0.000000
313.201322,-666.185348,-8438.347739,229.828649
313.201650,74.020594,-9326.594869,842.705048
313.201977,666.185348,-9030.512492,842.705048
313.202305,814.226536,-8586.388927,1685.410096
313.202633,444.123565,-9474.636058,1302.362347
313.202960,148.041188,-8882.471304,1072.533697
313.203288,-666.185348,-9400.615463,612.876398
313.203615,0.000000,-9622.677246,153.219100
313.203943,-296.082377,-9104.533087,0.000000
313.204271,0.000000,-9030.512492,0.000000
313.204598,222.061783,-9104.533087,0.000000
313.204926,592.164754,-9030.512492,153.219100
313.205253,666.185348,-8882.471304,153.219100
313.205581,74.020594,-8290.306550,153.219100
313.205908,0.000000,-8956.491898,76.609550
313.206236,-444.123565,-9400.615463,306.438199
313.206564,-370.102971,-9474.636058,612.876398
313.206891,-518.144159,-9326.594869,995.924147
313.207219,-518.144159,-9030.512492,1608.800546
313.207546,1258.350101,-9474.636058,1838.629195
313.207874,148.041188,-8808.450710,1991.848295
313.208202,0.000000,-8956.491898,1455.581446
313.208529,-666.185348,-9326.594869,1302.362347
313.208857,-666.185348,-8956.491898,1149.143247
313.209184,-1554.432478,-8660.409521,229.828649
