#time,accel_x,accel_y,accel_z
458.718212,-296.082377,-9104.533087,766.095498
458.718540,-222.061783,-8882.471304,612.876398
458.718867,-444.123565,-9178.553681,306.438199
458.719195,-148.041188,-9030.512492,612.876398
458.719523,-370.102971,-8882.471304,536.266849
458.719851,-296.082377,-8956.491898,689.485948
458.720178,-148.041188,-9104.533087,383.047749
458.720506,-222.061783,-9326.594869,612.876398
458.720834,-222.061783,-9030.512492,689.485948
458.721161,-222.061783,-9178.553681,383.047749
458.721489,-444.123565,-9178.553681,459.657299
458.721817,0.000000,-8956.491898,229.828649
458.722145,-222.061783,-8956.491898,612.876398
458.722472,-370.102971,-9030.512492,536.266849
458.722800,-222.061783,-9252.574275,383.047749
458.723128,-148.041188,-9252.574275,459.657299
458.723455,-296.082377,-8882.471304,842.705048
458.723783,0.000000,-9178.553681,612.876398
458.724111,0.000000,-9252.574275,536.266849
458.724438,-296.082377,-9104.533087,459.657299
458.724766,-296.082377,-8956.491898,306.438199
458.725094,-296.082377,-9104.533087,766.095498
458.725422,0.000000,-8956.491898,612.876398
458.725749,-222.061783,-9178.553681,536.266849
458.726077,-148.041188,-8882.471304,306.438199
458.726405,0.000000,-9030.512492,383.047749
458.726732,0.000000,-9400.615463,1072.533697
458.727060,0.000000,-9400.615463,689.485948
458.727388,-222.061783,-9178.553681,459.657299
458.727716,-148.041188,-9104.533087,536.266849
458.728043,-148.041188,-9252.574275,612.876398
458.728371,-370.102971,-9252.574275,536.266849
458.728699,-444.123565,-8882.471304,76.609550
458.729026,-962.267725,-9326.594869,0.000000
458.729354,-1628.453072,-9474.636058,-229.828649
458.729682,-1406.391290,-9252.574275,-536.266849
458.730010,-962.267725,-9104.533087,-229.828649
458.730337,-222.061783,-8660.409521,-459.657299
458.730665,-740.205942,-8956.491898,-536.266849
458.730993,-814.226536,-9252.574275,-842.705048
458.731320,-1258.350101,-9030.512492,-1225.752797
458.731648,-1110.308913,-9178.553681,-1149.143247
458.731976,-962.267725,-8734.430116,-995.924147
458.732304,-518.144159,-9178.553681,-1532.190996
458.732631,0.000000,-9326.594869,-1072.533697
458.732959,-148.041188,-9326.594869,-1532.190996
458.733287,-296.082377,-9104.533087,-1225.752797
458.733614,0.000000,-9252.574275,-1378.971896
458.733942,0.000000,-9178.553681,-1455.581446
458.734270,74.020594,-9252.574275,-1685.410096
458.734598,74.020594,-9178.553681,-1608.800546
458.734925,222.061783,-9400.615463,-1685.410096
458.735253,74.020594,-9474.636058,-1608.800546
458.735581,444.123565,-9326.594869,-1608.800546
458.735908,222.061783,-9030.512492,-1532.190996
458.736236,296.082377,-9400.615463,-1915.238745
458.736564,222.061783,-9474.636058,-1915.238745
458.736892,222.061783,-9474.636058,-2221.676944
458.737219,296.082377,-9178.553681,-2068.457845
458.737547,222.061783,-9252.574275,-1762.019645
458.737875,0.000000,-9252.574275,-1762.019645
458.738202,-148.041188,-9400.615463,-2221.676944
458.738530,-444.123565,-9474.636058,-2068.457845
458.738858,-444.123565,-9178.553681,-1608.800546
458.739186,-962.267725,-8808.450710,-1685.410096
458.739513,-962.267725,-9104.533087,-2221.676944
458.739841,-1258.350101,-9104.533087,-2451.505594
458.740169,-1406.391290,-9104.533087,-2757.943793
458.740496,-1702.473667,-9104.533087,-2911.162892
458.740824,-1480.411884,-9030.512492,-3064.381992
458.741152,-2146.597232,-9030.512492,-3064.381992
458.741480,-1924.535449,-9178.553681,-3370.820191
458.741807,-1850.514855,-9178.553681,-3600.648841
458.742135,-1702.473667,-9030.512492,-4060.306139
458.742463,-1332.370696,-8660.409521,-3830.477490
458.742790,-1184.329507,-8882.471304,-4060.306139
458.743118,-888.247130,-8882.471304,-3677.258390
458.743446,0.000000,-8956.491898,-3524.039291
458.743774,592.164754,-8956.491898,-3140.991542
458.744101,1406.391290,-8882.471304,-2681.334243
458.744429,1776.494261,-8808.450710,-2528.115143
458.744757,2294.638420,-9178.553681,-2451.505594
458.745084,2294.638420,-9400.615463,-1991.848295
458.745412,1998.556043,-9844.739029,-2221.676944
458.745740,962.267725,-9844.739029,-1838.629195
458.746068,222.061783,-10140.821405,-2834.553343
458.746395,-962.267725,-10214.842000,-3600.648841
458.746723,-2072.576638,-10436.903782,-4136.915689
458.747051,-2220.617826,-10140.821405,-4903.011187
458.747378,-1554.432478,-9326.594869,-4826.401637
458.747706,-296.082377,-7920.203579,-4749.792088
458.748034,1258.350101,-7105.977043,-4060.306139
458.748362,2590.720797,-6957.935855,-3140.991542
458.748689,3182.885551,-7328.038826,-2451.505594
458.749017,2664.741391,-8142.265362,-1991.848295
458.749345,1184.329507,-9178.553681,-1762.019645
458.749672,-1184.329507,-9844.739029,-1915.238745
458.750000,-3034.844362,-11251.130318,-2374.896044
458.750328,-4293.194464,-11251.130318,-2681.334243
458.750656,-3552.988522,-10881.027347,-2604.724693
458.750983,-370.102971,-8882.471304,-1608.800546
458.751311,4441.235652,-6365.771101,459.657299
458.751639,8956.491898,-5329.482782,2834.553343
458.751966,10066.800811,-5625.565159,4213.525239
458.752294,7698.141797,-7624.121203,4136.915689
458.752622,2590.720797,-9844.739029,2451.505594
458.752950,-3034.844362,-11991.336260,1225.752797
458.753277,-8734.430116,-13397.727550,-1302.362347
458.753605,-11621.233289,-14211.954086,-2528.115143
458.753933,-11843.295072,-13471.748144,-3907.087040
458.754260,-11547.212695,-11621.233289,-4290.134789
458.754588,-4959.379811,-8068.244768,-4443.353888
458.754916,-3775.050304,-5477.523971,-2987.772442
458.755244,296.082377,-3923.091493,-4366.744339
458.755571,814.226536,-5107.421000,-3907.087040
458.755899,-3627.009116,-5921.647536,-5439.278036
458.756227,-6957.935855,-7402.059420,-6741.640382
458.756554,-11177.109724,-9770.718434,-7814.174080
458.756882,-11251.130318,-9844.739029,-8733.488677
458.757210,-7476.080014,-9622.677246,-6818.249932
458.757538,-1850.514855,-7994.224174,-5132.839837
458.757865,5551.544565,-6883.915261,-2987.772442
458.758193,8882.471304,-6513.812290,-1762.019645
458.758521,9918.759623,-7698.141797,-1991.848295
458.758848,7994.224174,-10807.006753,-2911.162892
458.759176,4589.276840,-11177.109724,-4519.963438
458.759504,5033.400406,-11843.295072,-4443.353888
458.759832,6883.915261,-11251.130318,-3600.648841
458.760159,11473.192101,-8660.409521,-1072.533697
458.760487,14211.954086,-9400.615463,1915.238745
458.760815,13101.645173,-9992.780217,2528.115143
458.761142,9696.697840,-10807.006753,1991.848295
458.761470,6291.750507,-11473.192101,0.000000
458.761798,1406.391290,-11325.150913,-766.095498
458.762126,2368.659014,-10362.883188,-1455.581446
458.762453,1850.514855,-11621.233289,612.876398
458.762781,148.041188,-9918.759623,689.485948
458.763109,-1702.473667,-9622.677246,842.705048
458.763436,-7254.018232,-9178.553681,-383.047749
458.763764,-12213.398043,-7846.182985,-3294.210641
458.764092,-14359.995275,-7031.956449,-5132.839837
458.764420,-12583.501014,-4367.215058,-6358.592633
458.764747,-6883.915261,-3034.844362,-4136.915689
458.765075,-2368.659014,-2220.617826,-1762.019645
458.765403,-592.164754,-3256.906145,-919.314598
458.765730,-740.205942,-4737.318029,612.876398
458.766058,-2368.659014,-6143.709319,1378.971896
458.766386,-2664.741391,-7105.977043,1915.238745
458.766714,-2664.741391,-9622.677246,1991.848295
458.767041,-2886.803174,-11251.130318,3753.867940
458.767369,-2072.576638,-12805.562797,4903.011187
458.767697,-370.102971,-13027.624579,5592.497135
458.768024,2220.617826,-12065.356855,6435.202183
458.768352,5477.523971,-10955.047942,6511.811733
458.768680,7254.018232,-10510.924376,6818.249932
458.769008,6661.853478,-10881.027347,5669.106685
458.769335,4219.173869,-10362.883188,4136.915689
458.769663,1554.432478,-10214.842000,3217.601092
458.769991,222.061783,-9252.574275,2987.772442
458.770318,814.226536,-9992.780217,4366.744339
458.770646,-518.144159,-9400.615463,2451.505594
458.770974,-1850.514855,-9844.739029,4366.744339
458.771302,-1702.473667,-9400.615463,2757.943793
458.771629,-6291.750507,-11621.233289,2298.286494
458.771957,-8512.368333,-10584.944971,76.609550
458.772285,-7328.038826,-10066.800811,-1378.971896
458.772612,-7550.100608,-8290.306550,-1378.971896
458.772940,-3478.967927,-5995.668130,-766.095498
458.773268,-1480.411884,-6217.729913,76.609550
458.773596,-1406.391290,-6143.709319,0.000000
458.773923,-1850.514855,-7846.182985,-766.095498
458.774251,-4589.276840,-9770.718434,-2987.772442
458.774578,-4219.173869,-9992.780217,-4136.915689
458.774906,-2072.576638,-10066.800811,-3524.039291
458.775233,0.000000,-9844.739029,-2451.505594
458.775561,4071.132681,-9844.739029,-995.924147
458.775888,4737.318029,-10955.047942,0.000000
458.776216,4071.132681,-11473.192101,-383.047749
458.776543,3701.029710,-11843.295072,-306.438199
458.776871,3330.926739,-11177.109724,-919.314598
458.777198,4219.173869,-10140.821405,-766.095498
458.777526,6513.812290,-10214.842000,919.314598
458.777853,6291.750507,-10288.862594,1608.800546
458.778181,5403.503377,-10140.821405,1915.238745
458.778508,4515.256246,-9474.636058,2145.067394
458.778836,3849.070898,-8882.471304,1302.362347
458.779164,3108.864956,-7476.080014,0.000000
458.779491,962.267725,-8068.244768,0.000000
458.779819,2886.803174,-8068.244768,459.657299
458.780146,370.102971,-8216.285956,689.485948
458.780474,-2368.659014,-8068.244768,76.609550
458.780801,-2886.803174,-7698.141797,-536.266849
458.781129,-2146.597232,-6809.894666,-766.095498
458.781456,-1924.535449,-7328.038826,-459.657299
458.781784,-1110.308913,-7031.956449,0.000000
458.782111,-3997.112087,-7550.100608,0.000000
458.782439,-6217.729913,-8808.450710,-306.438199
458.782766,-7772.162391,-8956.491898,-1608.800546
458.783094,-8364.327145,-8808.450710,-1991.848295
458.783421,-4737.318029,-7772.162391,-1608.800546
458.783749,-2146.597232,-6883.915261,-842.705048
458.784076,-296.082377,-6661.853478,689.485948
458.784404,-444.123565,-7550.100608,612.876398
458.784732,-2072.576638,-7994.224174,0.000000
458.785059,-1480.411884,-7624.121203,0.000000
458.785387,370.102971,-7328.038826,383.047749
458.785714,2146.597232,-7254.018232,1762.019645
458.786042,4663.297435,-7920.203579,3140.991542
458.786369,4959.379811,-8882.471304,4060.306139
458.786697,3775.050304,-10140.821405,4290.134789
458.787024,1924.535449,-10807.006753,3524.039291
458.787352,1998.556043,-10510.924376,2987.772442
458.787679,2220.617826,-9992.780217,2604.724693
458.788007,3182.885551,-9844.739029,2681.334243
458.788334,3108.864956,-9992.780217,3370.820191
458.788662,2368.659014,-11325.150913,4366.744339
458.788989,148.041188,-10066.800811,2298.286494
458.789317,-2664.741391,-10510.924376,2221.676944
458.789644,-1036.288319,-9252.574275,1149.143247
458.789972,-1998.556043,-9844.739029,1532.190996
458.790300,-2072.576638,-9400.615463,1149.143247
458.790627,-2294.638420,-9844.739029,1149.143247
458.790955,-4219.173869,-10510.924376,536.266849
458.791282,-5847.626942,-10140.821405,-689.485948
458.791610,-6217.729913,-9918.759623,-1149.143247
458.791937,-5033.400406,-9400.615463,-766.095498
458.792265,-3478.967927,-8142.265362,-842.705048
458.792592,-2516.700203,-7920.203579,-842.705048
458.792920,-2960.823768,-7772.162391,-766.095498
458.793247,-2812.782580,-8438.347739,-1378.971896
458.793575,-2812.782580,-8586.388927,-1915.238745
458.793902,-740.205942,-8438.347739,-1762.019645
458.794230,2812.782580,-8290.306550,0.000000
458.794557,4071.132681,-8660.409521,1225.752797
458.794885,4367.215058,-10140.821405,2145.067394
458.795212,2960.823768,-11843.295072,1378.971896
458.795540,1258.350101,-12509.480420,536.266849
458.795868,1036.288319,-12435.459826,229.828649
458.796195,1776.494261,-11325.150913,229.828649
458.796523,3997.112087,-11177.109724,1072.533697
458.796850,4811.338623,-10955.047942,2068.457845
458.797178,3701.029710,-10584.944971,1762.019645
458.797505,962.267725,-10436.903782,-536.266849
458.797833,-370.102971,-9474.636058,306.438199
458.798160,1554.432478,-7920.203579,-536.266849
458.798488,592.164754,-8068.244768,-229.828649
458.798815,2072.576638,-7402.059420,459.657299
458.799143,888.247130,-7920.203579,1072.533697
458.799470,-1924.535449,-9030.512492,919.314598
458.799798,-4219.173869,-8734.430116,-229.828649
458.800125,-4515.256246,-8586.388927,0.000000
458.800453,-4737.318029,-7328.038826,-536.266849
458.800780,-1998.556043,-6957.935855,-459.657299
458.801108,-2072.576638,-6957.935855,153.219100
458.801436,-2072.576638,-7105.977043,-383.047749
458.801763,-2960.823768,-7624.121203,-229.828649
458.802091,-3627.009116,-7254.018232,-842.705048
458.802418,-1554.432478,-7031.956449,-689.485948
458.802746,592.164754,-6439.791695,0.000000
458.803073,1776.494261,-7254.018232,1149.143247
458.803401,1628.453072,-8808.450710,1915.238745
458.803728,0.000000,-10510.924376,1762.019645
458.804056,-1776.494261,-11029.068536,1532.190996
458.804383,-1480.411884,-11103.089130,1302.362347
458.804711,-370.102971,-9992.780217,1838.629195
458.805038,1850.514855,-9474.636058,1915.238745
458.805366,2812.782580,-9252.574275,2604.724693
458.805693,2368.659014,-9104.533087,2374.896044
458.806021,1110.308913,-8956.491898,1685.410096
458.806348,148.041188,-7920.203579,153.219100
458.806676,296.082377,-7698.141797,383.047749
458.807004,1998.556043,-7846.182985,2068.457845
458.807331,2738.761985,-7402.059420,1302.362347
458.807659,0.000000,-8438.347739,2681.334243
458.807986,222.061783,-9178.553681,1378.971896
458.808314,-2738.761985,-10140.821405,1455.581446
458.808641,-3923.091493,-10066.800811,0.000000
458.808969,-2590.720797,-9918.759623,-153.219100
458.809296,-1850.514855,-9696.697840,536.266849
458.809624,-962.267725,-9918.759623,1072.533697
458.809951,-1332.370696,-10288.862594,383.047749
458.810279,-2886.803174,-10214.842000,-995.924147
458.810606,-2738.761985,-9474.636058,-1685.410096
458.810934,-1628.453072,-8734.430116,-1455.581446
458.811261,0.000000,-7550.100608,-1149.143247
458.811589,1998.556043,-7920.203579,229.828649
458.811916,1332.370696,-9104.533087,612.876398
458.812244,-148.041188,-10510.924376,536.266849
458.812572,-2368.659014,-11251.130318,-229.828649
458.812899,-2590.720797,-11103.089130,-383.047749
458.813227,-1110.308913,-10362.883188,0.000000
458.813554,962.267725,-9770.718434,689.485948
458.813882,2664.741391,-9696.697840,1685.410096
458.814209,2294.638420,-9992.780217,1532.190996
458.814537,1184.329507,-9918.759623,842.705048
458.814864,296.082377,-9400.615463,0.000000
458.815192,1110.308913,-8734.430116,-383.047749
458.815519,2368.659014,-8068.244768,383.047749
458.815847,3478.967927,-8290.306550,1378.971896
458.816174,3182.885551,-8956.491898,1838.629195
458.816502,0.000000,-9992.780217,1532.190996
458.816829,-1036.288319,-10584.944971,1378.971896
458.817157,-2146.597232,-9770.718434,306.438199
458.817484,-1850.514855,-9326.594869,76.609550
458.817812,-592.164754,-8808.450710,229.828649
458.818140,370.102971,-8808.450710,995.924147
458.818467,-1554.432478,-9326.594869,306.438199
458.818795,-2738.761985,-9030.512492,0.000000
458.819122,-3775.050304,-8512.368333,-995.924147
458.819450,-2146.597232,-7105.977043,-1225.752797
458.819777,0.000000,-6291.750507,-536.266849
458.820105,1998.556043,-6217.729913,536.266849
458.820432,814.226536,-7328.038826,1072.533697
458.820760,-1332.370696,-8660.409521,536.266849
458.821087,-2960.823768,-9400.615463,-306.438199
458.821415,-3182.885551,-9400.615463,-612.876398
458.821742,-1184.329507,-8808.450710,-459.657299
458.822070,1332.370696,-8808.450710,919.314598
458.822397,2368.659014,-8734.430116,1838.629195
458.822725,2072.576638,-9548.656652,2145.067394
458.823052,814.226536,-9918.759623,1608.800546
458.823380,148.041188,-9622.677246,1838.629195
458.823708,1036.288319,-9104.533087,842.705048
458.824035,2220.617826,-8438.347739,1378.971896
458.824363,3182.885551,-8512.368333,2298.286494
458.824690,2368.659014,-9326.594869,2528.115143
458.825018,962.267725,-9696.697840,2604.724693
458.825345,-1036.288319,-9918.759623,2145.067394
458.825673,-2368.659014,-9474.636058,306.438199
458.826000,-1998.556043,-9178.553681,1072.533697
458.826328,-962.267725,-7550.100608,995.924147
458.826655,-740.205942,-8660.409521,1532.190996
458.826983,-1776.494261,-8660.409521,1225.752797
458.827310,-2812.782580,-9178.553681,76.609550
458.827638,-4219.173869,-8660.409521,-612.876398
458.827965,-2516.700203,-7624.121203,-766.095498
458.828293,-740.205942,-7105.977043,153.219100
458.828620,518.144159,-7698.141797,689.485948
458.828948,0.000000,-8364.327145,1072.533697
458.829276,-2072.576638,-10066.800811,689.485948
458.829603,-3775.050304,-10510.924376,-306.438199
458.829931,-3627.009116,-10288.862594,-689.485948
458.830258,-2072.576638,-10066.800811,76.609550
458.830586,518.144159,-9622.677246,689.485948
458.830913,1702.473667,-9474.636058,1225.752797
458.831241,1332.370696,-10140.821405,1455.581446
458.831568,0.000000,-10362.883188,536.266849
458.831896,-1036.288319,-10140.821405,-306.438199
458.832223,296.082377,-9474.636058,-306.438199
458.832551,2146.597232,-8808.450710,76.609550
458.832878,3552.988522,-8586.388927,1149.143247
458.833206,3552.988522,-9104.533087,1915.238745
458.833533,1776.494261,-9622.677246,1302.362347
458.833861,-148.041188,-10140.821405,153.219100
458.834188,-1332.370696,-9474.636058,-612.876398
458.834516,-888.247130,-8660.409521,-229.828649
458.834843,1702.473667,-8216.285956,536.266849
458.835171,1628.453072,-9178.553681,842.705048
458.835499,222.061783,-8956.491898,1378.971896
458.835826,-1110.308913,-9474.636058,76.609550
458.836154,-1776.494261,-9104.533087,-229.828649
458.836481,-1110.308913,-8660.409521,-306.438199
458.836809,1332.370696,-7920.203579,383.047749
458.837136,1776.494261,-8438.347739,1225.752797
458.837464,814.226536,-8512.368333,1378.971896
458.837791,-962.267725,-10140.821405,919.314598
458.838119,-3108.864956,-10288.862594,0.000000
458.838446,-2886.803174,-9918.759623,-612.876398
458.838774,-1924.535449,-8882.471304,-229.828649
458.839101,0.000000,-8364.327145,76.609550
458.839429,592.164754,-8512.368333,842.705048
458.839756,-222.061783,-8808.450710,842.705048
458.840084,-1776.494261,-9030.512492,153.219100
458.840411,-2368.659014,-9030.512492,-536.266849
458.840739,-1480.411884,-8956.491898,-383.047749
458.841067,740.205942,-7846.182985,76.609550
458.841394,2368.659014,-7994.224174,1149.143247
458.841722,2442.679609,-9104.533087,2068.457845
458.842049,888.247130,-9844.739029,1915.238745
458.842377,-592.164754,-10584.944971,842.705048
458.842704,-1628.453072,-9918.759623,306.438199
458.843032,-592.164754,-9548.656652,383.047749
458.843359,814.226536,-8734.430116,689.485948
458.843687,2072.576638,-9104.533087,1532.190996
458.844014,814.226536,-9474.636058,995.924147
458.844342,-740.205942,-9474.636058,306.438199
458.844669,-1332.370696,-9474.636058,0.000000
458.844997,-740.205942,-8956.491898,0.000000
458.845324,1036.288319,-8142.265362,306.438199
458.845652,2220.617826,-8586.388927,1149.143247
458.845979,1258.350101,-9622.677246,995.924147
458.846307,-740.205942,-10214.842000,1149.143247
458.846635,-2812.782580,-10584.944971,153.219100
458.846962,-3330.926739,-10140.821405,-306.438199
458.847290,-2294.638420,-9474.636058,0.000000
458.847617,-444.123565,-8734.430116,536.266849
458.847945,296.082377,-8438.347739,1225.752797
458.848272,-370.102971,-8808.450710,842.705048
458.848600,-2072.576638,-8956.491898,229.828649
458.848927,-2886.803174,-8956.491898,-612.876398
458.849255,-1480.411884,-8216.285956,-919.314598
458.849582,148.041188,-7550.100608,306.438199
458.849910,1554.432478,-7698.141797,919.314598
458.850237,1332.370696,-8808.450710,1302.362347
458.850565,-592.164754,-9844.739029,1149.143247
458.850892,-1850.514855,-10732.986159,536.266849
458.851220,-2368.659014,-10140.821405,-306.438199
458.851547,-962.267725,-9326.594869,-153.219100
458.851875,1332.370696,-8882.471304,229.828649
458.852203,2516.700203,-8734.430116,1302.362347
458.852530,1480.411884,-9104.533087,1455.581446
458.852858,518.144159,-9696.697840,1225.752797
458.853185,-666.185348,-9474.636058,0.000000
458.853513,148.041188,-8586.388927,153.219100
458.853840,1702.473667,-7772.162391,689.485948
458.854168,2368.659014,-8512.368333,1455.581446
458.854495,2146.597232,-9400.615463,1455.581446
458.854823,-444.123565,-10436.903782,1455.581446
458.855150,-2146.597232,-10436.903782,306.438199
458.855478,-2368.659014,-9992.780217,-459.657299
458.855805,-1480.411884,-9474.636058,0.000000
458.856133,296.082377,-8956.491898,1149.143247
458.856460,888.247130,-8512.368333,536.266849
458.856788,0.000000,-9178.553681,612.876398
458.857115,-1850.514855,-9474.636058,0.000000
458.857443,-2294.638420,-9030.512492,-766.095498
458.857771,-1480.411884,-8142.265362,-612.876398
458.858098,370.102971,-7328.038826,76.609550
458.858426,1924.535449,-7772.162391,1072.533697
458.858753,1332.370696,-8882.471304,1455.581446
458.859081,-148.041188,-9992.780217,1455.581446
458.859408,-2220.617826,-10436.903782,689.485948
458.859736,-2220.617826,-9696.697840,612.876398
458.860063,-592.164754,-9474.636058,612.876398
458.860391,962.267725,-9030.512492,1302.362347
458.860718,1628.453072,-9252.574275,1915.238745
458.861046,962.267725,-9844.739029,1762.019645
458.861373,0.000000,-9696.697840,995.924147
458.861701,-666.185348,-8956.491898,536.266849
458.862028,592.164754,-8512.368333,306.438199
458.862356,1776.494261,-8068.244768,1072.533697
458.862683,2516.700203,-8364.327145,2145.067394
458.863011,1628.453072,-9104.533087,2374.896044
458.863339,-1110.308913,-10140.821405,1762.019645
458.863666,-2886.803174,-10288.862594,689.485948
458.863994,-3701.029710,-10214.842000,153.219100
458.864321,-3182.885551,-9326.594869,0.000000
458.864649,-1776.494261,-8660.409521,459.657299
458.864976,-962.267725,-8438.347739,995.924147
458.865304,-1924.535449,-8734.430116,459.657299
458.865631,-2960.823768,-8438.347739,-689.485948
458.865959,-3478.967927,-7772.162391,-1225.752797
458.866286,-2368.659014,-7105.977043,-1532.190996
458.866614,-222.061783,-6661.853478,-1378.971896
458.866941,1332.370696,-6587.832884,0.000000
458.867269,1258.350101,-7698.141797,689.485948
458.867596,-148.041188,-8882.471304,459.657299
458.867924,-1998.556043,-9622.677246,-229.828649
458.868251,-2442.679609,-9474.636058,-306.438199
458.868579,-1406.391290,-9326.594869,-459.657299
458.868907,1332.370696,-8808.450710,459.657299
458.869234,2516.700203,-9326.594869,919.314598
458.869562,2368.659014,-9622.677246,1149.143247
458.869889,1332.370696,-9844.739029,459.657299
458.870217,888.247130,-9474.636058,536.266849
458.870544,1776.494261,-8808.450710,76.609550
458.870872,3108.864956,-8438.347739,842.705048
458.871199,3997.112087,-8438.347739,1608.800546
458.871527,3256.906145,-9474.636058,1532.190996
458.871854,0.000000,-10214.842000,1225.752797
458.872182,-2072.576638,-11103.089130,229.828649
458.872509,-2738.761985,-10362.883188,-229.828649
458.872837,-1554.432478,-9400.615463,153.219100
458.873164,0.000000,-8586.388927,383.047749
458.873492,814.226536,-8512.368333,1685.410096
458.873819,0.000000,-9326.594869,1225.752797
458.874147,-2368.659014,-9400.615463,383.047749
458.874475,-3256.906145,-8660.409521,-536.266849
458.874802,-1924.535449,-8216.285956,-766.095498
458.875130,0.000000,-7846.182985,76.609550
458.875457,1110.308913,-7698.141797,1149.143247
458.875784,148.041188,-8956.491898,1532.190996
458.876112,-1702.473667,-10362.883188,1225.752797
458.876439,-3182.885551,-11103.089130,536.266849
458.876767,-3182.885551,-10658.965565,76.609550
458.877094,-1628.453072,-9992.780217,229.828649
458.877421,296.082377,-9696.697840,1302.362347
458.877749,1480.411884,-9696.697840,1685.410096
458.878076,1258.350101,-9992.780217,2068.457845
458.878404,74.020594,-10288.862594,1455.581446
458.878731,222.061783,-9918.759623,1378.971896
458.879058,1036.288319,-8956.491898,919.314598
458.879386,1998.556043,-8438.347739,1838.629195
458.879713,2738.761985,-8808.450710,2374.896044
458.880041,1702.473667,-9770.718434,2834.553343
458.880368,-296.082377,-10214.842000,2451.505594
458.880695,-2516.700203,-10658.965565,1378.971896
458.881023,-2664.741391,-10066.800811,459.657299
458.881350,-1998.556043,-9030.512492,306.438199
458.881678,-962.267725,-8438.347739,689.485948
458.882005,-518.144159,-8142.265362,689.485948
458.882332,-1480.411884,-8216.285956,153.219100
458.882660,-3182.885551,-8586.388927,-766.095498
458.882987,-3627.009116,-8216.285956,-1991.848295
458.883315,-2590.720797,-7254.018232,-1838.629195
458.883642,-296.082377,-6735.874072,-1378.971896
458.883969,1554.432478,-6957.935855,76.609550
458.884297,888.247130,-7846.182985,229.828649
458.884624,-814.226536,-9400.615463,0.000000
458.884952,-2738.761985,-9696.697840,-766.095498
458.885279,-3108.864956,-9326.594869,-1302.362347
458.885606,-740.205942,-8438.347739,-766.095498
458.885934,1850.514855,-8142.265362,76.609550
458.886261,3330.926739,-8364.327145,1225.752797
458.886589,3108.864956,-8734.430116,1378.971896
458.886916,2368.659014,-8956.491898,919.314598
458.887243,2220.617826,-8734.430116,1072.533697
458.887571,2960.823768,-7920.203579,383.047749
458.887898,4219.173869,-7994.224174,1149.143247
458.888226,4663.297435,-8364.327145,2145.067394
458.888553,3182.885551,-9252.574275,2451.505594
458.888880,444.123565,-10140.821405,995.924147
458.889208,-1702.473667,-10436.903782,1378.971896
458.889535,-1776.494261,-9992.780217,229.828649
458.889863,-1332.370696,-9326.594869,229.828649
458.890190,-740.205942,-8290.306550,536.266849
458.890517,-370.102971,-8882.471304,842.705048
458.890845,-2146.597232,-8808.450710,919.314598
458.891172,-3923.091493,-8956.491898,0.000000
458.891499,-4441.235652,-8438.347739,-1072.533697
458.891827,-3849.070898,-7846.182985,-919.314598
458.892154,-1702.473667,-7031.956449,-459.657299
458.892482,-740.205942,-6957.935855,842.705048
458.892809,-962.267725,-8364.327145,229.828649
458.893136,-3182.885551,-9400.615463,383.047749
458.893464,-4885.359217,-9844.739029,-842.705048
458.893791,-4589.276840,-9622.677246,-1225.752797
458.894119,-2146.597232,-8512.368333,-306.438199
458.894446,888.247130,-7994.224174,153.219100
458.894773,2590.720797,-9030.512492,1378.971896
458.895101,2590.720797,-9400.615463,1608.800546
458.895428,1480.411884,-10288.862594,1378.971896
458.895756,1628.453072,-9844.739029,1302.362347
458.896083,1924.535449,-9918.759623,612.876398
458.896410,3108.864956,-9622.677246,1378.971896
458.896738,4293.194464,-10066.800811,2451.505594
458.897065,3552.988522,-10066.800811,2451.505594
458.897393,1628.453072,-11769.274478,2374.896044
458.897720,-814.226536,-11473.192101,612.876398
458.898047,-1406.391290,-11621.233289,383.047749
458.898375,0.000000,-10436.903782,0.000000
458.898702,-592.164754,-9400.615463,0.000000
458.899030,0.000000,-10214.842000,459.657299
458.899357,-1258.350101,-9474.636058,153.219100
458.899684,-3997.112087,-9474.636058,-689.485948
458.900012,-4219.173869,-8882.471304,-1455.581446
458.900339,-2146.597232,-8142.265362,-919.314598
458.900667,-1258.350101,-7846.182985,-689.485948
458.900994,222.061783,-7994.224174,306.438199
458.901321,-1184.329507,-8438.347739,459.657299
458.901649,-3182.885551,-10066.800811,-306.438199
458.901976,-4589.276840,-10510.924376,-612.876398
458.902304,-4219.173869,-9992.780217,-1225.752797
458.902631,-1628.453072,-9326.594869,-842.705048
458.902958,1184.329507,-9178.553681,306.438199
458.903286,1924.535449,-8956.491898,995.924147
458.903613,1776.494261,-9622.677246,1532.190996
458.903941,740.205942,-9992.780217,766.095498
458.904268,740.205942,-9548.656652,383.047749
458.904595,2368.659014,-9326.594869,153.219100
458.904923,3849.070898,-8882.471304,1455.581446
458.905250,4515.256246,-9474.636058,2528.115143
458.905578,3849.070898,-9992.780217,3064.381992
458.905905,1776.494261,-10732.986159,2451.505594
458.906232,-444.123565,-10066.800811,1838.629195
458.906560,-1110.308913,-9474.636058,76.609550
458.906887,-518.144159,-9104.533087,1378.971896
458.907215,740.205942,-8068.244768,919.314598
458.907542,296.082377,-8808.450710,1532.190996
458.907869,-1406.391290,-8586.388927,1072.533697
458.908197,-2516.700203,-8586.388927,76.609550
458.908524,-3849.070898,-7772.162391,-612.876398
458.908852,-3256.906145,-7254.018232,-1072.533697
458.909179,-1406.391290,-6809.894666,0.000000
458.909506,-1258.350101,-6883.915261,229.828649
458.909834,-814.226536,-7550.100608,536.266849
458.910161,-3330.926739,-8734.430116,-229.828649
458.910489,-4441.235652,-9400.615463,-1378.971896
458.910816,-3923.091493,-9104.533087,-1532.190996
458.911143,-1924.535449,-8290.306550,-995.924147
458.911471,888.247130,-7402.059420,0.000000
458.911798,2516.700203,-7920.203579,383.047749
458.912126,1850.514855,-8586.388927,842.705048
458.912453,1036.288319,-9252.574275,766.095498
458.912780,666.185348,-9104.533087,383.047749
458.913108,1924.535449,-8882.471304,536.266849
458.913435,3701.029710,-8364.327145,1532.190996
458.913763,4811.338623,-8882.471304,2374.896044
458.914090,3997.112087,-9918.759623,2757.943793
458.914417,2146.597232,-10807.006753,2145.067394
458.914745,0.000000,-10658.965565,1685.410096
458.915072,0.000000,-10140.821405,612.876398
458.915400,1036.288319,-8808.450710,919.314598
458.915727,888.247130,-8734.430116,842.705048
458.916054,1776.494261,-8882.471304,1608.800546
458.916382,0.000000,-8956.491898,1225.752797
458.916709,-2738.761985,-9400.615463,766.095498
458.917037,-3330.926739,-9030.512492,-612.876398
458.917364,-2738.761985,-8364.327145,-459.657299
458.917691,-2072.576638,-8068.244768,0.000000
458.918019,-740.205942,-8290.306550,383.047749
458.918346,-2294.638420,-9400.615463,689.485948
458.918674,-4293.194464,-10288.862594,76.609550
458.919001,-5477.523971,-10140.821405,-1455.581446
458.919328,-5477.523971,-9770.718434,-1915.238745
458.919656,-2738.761985,-8734.430116,-1225.752797
458.919983,0.000000,-8216.285956,0.000000
458.920311,1480.411884,-8068.244768,383.047749
458.920638,740.205942,-8808.450710,612.876398
458.920965,0.000000,-9400.615463,0.000000
458.921293,-370.102971,-9474.636058,-153.219100
458.921620,1184.329507,-8956.491898,612.876398
458.921948,3034.844362,-8808.450710,1455.581446
458.922275,4219.173869,-9326.594869,2068.457845
458.922602,4071.132681,-10584.944971,2911.162892
458.922930,2368.659014,-11547.212695,2834.553343
458.923257,814.226536,-11695.253884,2298.286494
458.923584,296.082377,-11251.130318,2221.676944
458.923912,1406.391290,-10214.842000,1532.190996
458.924239,2368.659014,-9252.574275,1762.019645
458.924567,814.226536,-9252.574275,1608.800546
458.924894,444.123565,-9696.697840,1302.362347
458.925221,-1036.288319,-9104.533087,0.000000
458.925549,-3256.906145,-8438.347739,0.000000
458.925876,-1998.556043,-8068.244768,-383.047749
458.926204,-962.267725,-7179.997637,0.000000
458.926531,-1406.391290,-7624.121203,459.657299
458.926858,-1776.494261,-8512.368333,76.609550
458.927186,-4959.379811,-9104.533087,-153.219100
458.927513,-6143.709319,-9918.759623,-1302.362347
458.927841,-5921.647536,-9104.533087,-1762.019645
458.928168,-4071.132681,-8290.306550,-1378.971896
458.928495,-740.205942,-7402.059420,-306.438199
458.928823,1258.350101,-8068.244768,459.657299
458.929150,666.185348,-8512.368333,383.047749
458.929478,74.020594,-8808.450710,0.000000
458.929805,-296.082377,-8586.388927,-536.266849
458.930132,1554.432478,-8216.285956,153.219100
458.930460,3404.947333,-7846.182985,1838.629195
458.930787,4959.379811,-8808.450710,2221.676944
458.931115,4145.153275,-10362.883188,2834.553343
458.931442,2368.659014,-11325.150913,2757.943793
458.931769,518.144159,-11621.233289,1915.238745
458.932097,1110.308913,-10732.986159,1685.410096
458.932424,1406.391290,-9770.718434,1532.190996
458.932752,2516.700203,-9474.636058,1991.848295
458.933079,2664.741391,-9252.574275,2451.505594
458.933406,148.041188,-9252.574275,1072.533697
458.933734,-1554.432478,-9326.594869,1225.752797
458.934061,-2072.576638,-7328.038826,0.000000
458.934389,-1998.556043,-7698.141797,76.609550
458.934716,-1036.288319,-7105.977043,306.438199
458.935043,-814.226536,-7476.080014,689.485948
458.935371,-2960.823768,-8586.388927,612.876398
458.935698,-4515.256246,-9474.636058,-153.219100
458.936026,-6587.832884,-9696.697840,-1685.410096
458.936353,-5773.606348,-8734.430116,-2145.067394
458.936680,-3108.864956,-7920.203579,-1455.581446
458.937008,-592.164754,-7105.977043,-306.438199
458.937335,814.226536,-7179.997637,-229.828649
458.937663,370.102971,-8142.265362,766.095498
458.937990,-666.185348,-8882.471304,0.000000
458.938317,-888.247130,-8882.471304,-229.828649
458.938645,518.144159,-8882.471304,-306.438199
458.938972,2960.823768,-9104.533087,842.705048
458.939300,4663.297435,-9474.636058,2451.505594
458.939627,4145.153275,-10288.862594,2911.162892
458.939954,2738.761985,-11251.130318,2604.724693
458.940282,962.267725,-11325.150913,1838.629195
458.940609,666.185348,-10584.944971,919.314598
458.940937,1184.329507,-9326.594869,1149.143247
458.941264,2220.617826,-9104.533087,1302.362347
458.941591,1554.432478,-9252.574275,919.314598
458.941919,370.102971,-9474.636058,1378.971896
458.942246,-740.205942,-9030.512492,842.705048
458.942574,-3108.864956,-8512.368333,306.438199
458.942901,-814.226536,-7772.162391,-306.438199
458.943228,-444.123565,-7624.121203,459.657299
458.943556,-666.185348,-8068.244768,536.266849
458.943883,-2072.576638,-9178.553681,153.219100
458.944211,-4589.276840,-9844.739029,-306.438199
458.944538,-5921.647536,-10140.821405,-1302.362347
458.944865,-5403.503377,-9474.636058,-1991.848295
458.945193,-3034.844362,-8364.327145,-1149.143247
458.945520,-444.123565,-7846.182985,-459.657299
458.945848,1406.391290,-7994.224174,76.609550
458.946175,-370.102971,-8290.306550,-229.828649
458.946502,-1036.288319,-9178.553681,-612.876398
458.946830,-1406.391290,-9178.553681,-1149.143247
458.947157,296.082377,-9252.574275,-766.095498
458.947485,3034.844362,-9252.574275,842.705048
458.947812,4737.318029,-9252.574275,2221.676944
458.948139,4293.194464,-10510.924376,2834.553343
458.948467,2664.741391,-11473.192101,2604.724693
458.948794,814.226536,-11769.274478,1685.410096
458.949122,296.082377,-11325.150913,1225.752797
458.949449,888.247130,-9844.739029,1532.190996
458.949776,2072.576638,-9474.636058,1838.629195
458.950104,2220.617826,-9178.553681,2451.505594
458.950431,1184.329507,-9326.594869,1762.019645
458.950759,-1554.432478,-9474.636058,1149.143247
458.951086,-666.185348,-9030.512492,459.657299
458.951413,-1184.329507,-7624.121203,383.047749
458.951741,-1110.308913,-7550.100608,766.095498
458.952068,-962.267725,-8290.306550,995.924147
458.952396,-2442.679609,-8808.450710,689.485948
458.952723,-5033.400406,-9474.636058,0.000000
458.953050,-5625.565159,-9770.718434,-919.314598
458.953378,-5699.585753,-9474.636058,-1072.533697
458.953705,-3034.844362,-8290.306550,-689.485948
458.954033,-962.267725,-7550.100608,0.000000
458.954360,-296.082377,-7550.100608,0.000000
458.954687,-814.226536,-8068.244768,306.438199
458.955015,-1702.473667,-8734.430116,-153.219100
458.955342,-1258.350101,-8586.388927,-459.657299
458.955670,518.144159,-8068.244768,0.000000
458.955997,3034.844362,-8216.285956,1225.752797
458.956324,4737.318029,-8364.327145,2221.676944
458.956652,4071.132681,-9622.677246,2681.334243
458.956979,1998.556043,-10584.944971,2451.505594
458.957306,74.020594,-10881.027347,1532.190996
458.957634,74.020594,-10436.903782,1225.752797
458.957961,1406.391290,-10362.883188,689.485948
458.958289,2664.741391,-8660.409521,919.314598
458.958616,2664.741391,-8586.388927,1838.629195
458.958943,1554.432478,-9252.574275,1149.143247
458.959271,-1110.308913,-9326.594869,842.705048
458.959598,-888.247130,-8142.265362,-383.047749
458.959926,-1480.411884,-7846.182985,0.000000
458.960253,-592.164754,-7550.100608,76.609550
458.960580,-1110.308913,-8290.306550,383.047749
458.960908,-2516.700203,-9030.512492,153.219100
458.961235,-4959.379811,-9474.636058,-842.705048
458.961563,-5477.523971,-9474.636058,-842.705048
458.961890,-5625.565159,-9104.533087,-1685.410096
458.962217,-2738.761985,-8290.306550,-1532.190996
458.962545,-1036.288319,-7402.059420,-612.876398
458.962872,74.020594,-7402.059420,-229.828649
458.963200,-296.082377,-8216.285956,0.000000
458.963527,-1184.329507,-8808.450710,-842.705048
458.963854,-1036.288319,-8808.450710,-1072.533697
458.964182,740.205942,-8438.347739,-536.266849
458.964509,3108.864956,-8290.306550,612.876398
458.964837,5033.400406,-8808.450710,2374.896044
458.965164,4737.318029,-10362.883188,2834.553343
458.965491,2664.741391,-11251.130318,2451.505594
458.965819,1110.308913,-11769.274478,1685.410096
458.966146,962.267725,-11621.233289,1149.143247
458.966474,1628.453072,-10584.944971,1149.143247
458.966801,2590.720797,-10732.986159,1762.019645
458.967128,2220.617826,-10288.862594,1991.848295
458.967456,888.247130,-10140.821405,1225.752797
458.967783,-1258.350101,-9992.780217,1149.143247
458.968111,-370.102971,-8882.471304,153.219100
458.968438,-814.226536,-8512.368333,766.095498
458.968765,-370.102971,-7772.162391,536.266849
458.969093,-592.164754,-8586.388927,766.095498
458.969420,-2072.576638,-9252.574275,919.314598
458.969748,-4737.318029,-10140.821405,-153.219100
458.970075,-5403.503377,-9622.677246,-153.219100
458.970402,-5773.606348,-9622.677246,-1225.752797
458.970730,-3627.009116,-8882.471304,-919.314598
458.971057,-1702.473667,-8216.285956,-153.219100
458.971385,-962.267725,-8068.244768,-153.219100
458.971712,-666.185348,-8956.491898,-689.485948
458.972039,-2294.638420,-9178.553681,-1455.581446
458.972367,-1480.411884,-9030.512492,-1225.752797
458.972694,740.205942,-8364.327145,-919.314598
458.973022,3256.906145,-7772.162391,536.266849
458.973349,4589.276840,-8660.409521,2068.457845
458.973676,4293.194464,-9326.594869,3064.381992
458.974004,2146.597232,-11029.068536,2374.896044
458.974331,592.164754,-11251.130318,1762.019645
458.974659,0.000000,-10807.006753,1149.143247
458.974986,1110.308913,-10214.842000,1455.581446
458.975313,2664.741391,-9696.697840,1915.238745
458.975641,2516.700203,-9326.594869,2757.943793
458.975968,1776.494261,-9178.553681,2451.505594
458.976296,444.123565,-9030.512492,2298.286494
458.976623,-296.082377,-7920.203579,766.095498
458.976951,-1480.411884,-6883.915261,1532.190996
458.977278,370.102971,-6513.812290,689.485948
458.977606,-888.247130,-7402.059420,1608.800546
458.977933,-2590.720797,-8290.306550,1149.143247
458.978261,-4219.173869,-9326.594869,153.219100
458.978588,-6069.688724,-8808.450710,-383.047749
458.978916,-5403.503377,-8142.265362,-766.095498
458.979243,-3627.009116,-7846.182985,-153.219100
458.979571,-2590.720797,-7105.977043,0.000000
458.979898,-1406.391290,-7254.018232,-229.828649
458.980226,-1850.514855,-7772.162391,-306.438199
458.980553,-3256.906145,-7920.203579,-1532.190996
458.980881,-2738.761985,-7994.224174,-1608.800546
458.981209,-666.185348,-7328.038826,-1302.362347
458.981536,2220.617826,-7031.956449,-306.438199
458.981864,4145.153275,-7698.141797,1532.190996
458.982191,3701.029710,-8882.471304,1455.581446
458.982519,2368.659014,-10510.924376,1455.581446
458.982846,740.205942,-11325.150913,842.705048
458.983174,148.041188,-11103.089130,153.219100
458.983501,1258.350101,-10510.924376,229.828649
458.983829,2738.761985,-9696.697840,1225.752797
458.984156,3404.947333,-10436.903782,1608.800546
458.984484,2738.761985,-10436.903782,1685.410096
458.984811,1406.391290,-10362.883188,1149.143247
458.985139,1110.308913,-9918.759623,1072.533697
458.985467,1628.453072,-9030.512492,-459.657299
458.985794,740.205942,-8512.368333,919.314598
458.986122,1554.432478,-8438.347739,689.485948
458.986449,-740.205942,-10288.862594,919.314598
458.986777,-2590.720797,-10658.965565,-153.219100
458.987104,-3701.029710,-10214.842000,-612.876398
458.987432,-4441.235652,-10510.924376,-766.095498
458.987759,-3034.844362,-9400.615463,-1149.143247
458.988087,-1258.350101,-8660.409521,-229.828649
458.988414,-1850.514855,-8808.450710,0.000000
458.988742,-1924.535449,-9178.553681,-612.876398
458.989069,-3478.967927,-9474.636058,-1685.410096
458.989397,-3256.906145,-8512.368333,-1532.190996
458.989725,-592.164754,-7328.038826,-842.705048
458.990052,1998.556043,-7402.059420,536.266849
458.990380,3775.050304,-7994.224174,1685.410096
458.990707,2738.761985,-8734.430116,2451.505594
458.991035,740.205942,-10214.842000,2374.896044
458.991362,-962.267725,-10881.027347,1608.800546
458.991690,-1036.288319,-10732.986159,842.705048
458.992017,222.061783,-10066.800811,1225.752797
458.992345,1998.556043,-9918.759623,2451.505594
458.992672,2516.700203,-10510.924376,2834.553343
458.993000,2146.597232,-10362.883188,3140.991542
458.993327,666.185348,-9844.739029,2374.896044
458.993655,-222.061783,-9030.512492,1608.800546
458.993983,0.000000,-8512.368333,1685.410096
458.994310,1110.308913,-7772.162391,995.924147
458.994638,-740.205942,-7994.224174,2451.505594
458.994965,-518.144159,-8438.347739,1455.581446
458.995293,-3552.988522,-9252.574275,1149.143247
458.995620,-4589.276840,-9178.553681,229.828649
458.995948,-3923.091493,-8438.347739,-306.438199
458.996275,-3552.988522,-8290.306550,153.219100
458.996603,-1998.556043,-7624.121203,229.828649
458.996930,-1628.453072,-8068.244768,459.657299
458.997258,-2886.803174,-8142.265362,-612.876398
458.997585,-3256.906145,-7994.224174,-919.314598
458.997913,-2886.803174,-7994.224174,-1532.190996
458.998241,-814.226536,-7476.080014,-995.924147
458.998568,1776.494261,-7105.977043,459.657299
458.998896,2886.803174,-7698.141797,1378.971896
458.999223,2590.720797,-9104.533087,1685.410096
458.999551,1036.288319,-10436.903782,1455.581446
458.999878,-1036.288319,-11177.109724,153.219100
459.000206,-740.205942,-10807.006753,0.000000
459.000533,888.247130,-10362.883188,459.657299
459.000861,2442.679609,-9770.718434,1838.629195
459.001188,3849.070898,-9474.636058,1838.629195
459.001516,2516.700203,-9992.780217,1762.019645
459.001843,1184.329507,-10140.821405,1302.362347
459.002171,592.164754,-9326.594869,536.266849
459.002499,1110.308913,-8660.409521,76.609550
459.002826,666.185348,-7772.162391,153.219100
459.003154,2146.597232,-8512.368333,1149.143247
459.003481,740.205942,-9252.574275,1225.752797
459.003809,-2146.597232,-10140.821405,1072.533697
459.004136,-3330.926739,-9770.718434,0.000000
459.004464,-3256.906145,-9030.512492,-306.438199
459.004791,-2738.761985,-8808.450710,-459.657299
459.005119,-1332.370696,-8216.285956,-306.438199
459.005446,-1406.391290,-8660.409521,-459.657299
459.005774,-2442.679609,-9030.512492,-766.095498
459.006101,-2516.700203,-8882.471304,-995.924147
459.006429,-3034.844362,-8882.471304,-2068.457845
459.006757,-370.102971,-7698.141797,-1225.752797
459.007084,2072.576638,-7476.080014,-153.219100
459.007412,3182.885551,-7698.141797,842.705048
459.007739,1702.473667,-9474.636058,1225.752797
459.008067,222.061783,-9992.780217,459.657299
459.008394,-1258.350101,-11029.068536,-153.219100
459.008722,-888.247130,-10584.944971,-306.438199
459.009049,666.185348,-9918.759623,153.219100
459.009377,2516.700203,-9548.656652,1608.800546
459.009704,3701.029710,-9770.718434,2757.943793
459.010032,2294.638420,-9844.739029,2374.896044
459.010359,592.164754,-9992.780217,1455.581446
459.010687,296.082377,-9548.656652,612.876398
459.011015,518.144159,-8586.388927,229.828649
459.011342,2146.597232,-7994.224174,1378.971896
459.011670,2442.679609,-7920.203579,919.314598
459.011997,0.000000,-9252.574275,1915.238745
459.012325,-1258.350101,-9474.636058,1149.143247
459.012652,-3182.885551,-10214.842000,766.095498
459.012980,-3330.926739,-9178.553681,153.219100
459.013307,-1924.535449,-8660.409521,459.657299
459.013635,-1258.350101,-8882.471304,919.314598
459.013962,-1110.308913,-9178.553681,1149.143247
459.014290,-2442.679609,-9474.636058,612.876398
459.014617,-3330.926739,-9252.574275,229.828649
459.014945,-2738.761985,-8290.306550,-612.876398
459.015273,-1110.308913,-7624.121203,153.219100
459.015600,888.247130,-7105.977043,842.705048
459.015928,1998.556043,-7698.141797,1608.800546
459.016255,592.164754,-8660.409521,1991.848295
459.016583,-1184.329507,-9474.636058,1455.581446
459.016910,-2590.720797,-9696.697840,383.047749
459.017238,-2294.638420,-9548.656652,0.000000
459.017565,-740.205942,-9252.574275,459.657299
459.017893,888.247130,-8956.491898,1455.581446
459.018220,1628.453072,-8882.471304,2451.505594
459.018548,1036.288319,-9474.636058,2145.067394
459.018875,-222.061783,-9474.636058,1072.533697
459.019203,-666.185348,-9104.533087,536.266849
459.019531,148.041188,-8512.368333,153.219100
459.019858,1480.411884,-7772.162391,612.876398
459.020186,1702.473667,-8290.306550,1378.971896
459.020513,1184.329507,-9252.574275,2298.286494
459.020841,-666.185348,-9918.759623,1072.533697
459.021168,-2146.597232,-10066.800811,842.705048
459.021496,-2220.617826,-9252.574275,-153.219100
459.021823,-888.247130,-8882.471304,612.876398
459.022151,-370.102971,-8512.368333,612.876398
459.022478,-148.041188,-9030.512492,995.924147
459.022806,-1628.453072,-9844.739029,229.828649
459.023133,-2590.720797,-9696.697840,-536.266849
459.023461,-2516.700203,-8512.368333,-1225.752797
459.023789,-444.123565,-7698.141797,-766.095498
459.024116,1406.391290,-7105.977043,76.609550
459.024444,2516.700203,-7772.162391,919.314598
459.024771,1332.370696,-8512.368333,995.924147
459.025099,-518.144159,-9622.677246,0.000000
459.025426,-2812.782580,-9622.677246,-1149.143247
459.025754,-2664.741391,-9474.636058,-1072.533697
459.026081,-1110.308913,-9030.512492,-689.485948
459.026409,1480.411884,-8808.450710,689.485948
459.026736,2294.638420,-8512.368333,1455.581446
459.027064,1776.494261,-9548.656652,1608.800546
459.027391,0.000000,-9844.739029,536.266849
459.027719,-666.185348,-9474.636058,0.000000
459.028047,74.020594,-8882.471304,0.000000
459.028374,1554.432478,-8586.388927,306.438199
459.028702,2072.576638,-8660.409521,1302.362347
459.029029,1628.453072,-9326.594869,1532.190996
459.029357,0.000000,-9992.780217,995.924147
459.029684,-2072.576638,-9992.780217,0.000000
459.030012,-1332.370696,-9400.615463,0.000000
459.030339,-148.041188,-8808.450710,-383.047749
459.030667,222.061783,-8808.450710,459.657299
459.030994,222.061783,-9326.594869,229.828649
459.031322,-1110.308913,-9992.780217,0.000000
459.031649,-2442.679609,-9992.780217,-612.876398
459.031977,-1702.473667,-9400.615463,-689.485948
459.032305,-148.041188,-8586.388927,-153.219100
459.032632,1628.453072,-8068.244768,383.047749
459.032960,2294.638420,-8216.285956,1149.143247
459.033287,1258.350101,-9252.574275,1225.752797
459.033615,-740.205942,-10140.821405,689.485948
459.033942,-2220.617826,-10510.924376,-536.266849
459.034270,-2368.659014,-10140.821405,-766.095498
459.034597,-962.267725,-9326.594869,0.000000
459.034925,444.123565,-9252.574275,919.314598
459.035252,1258.350101,-9548.656652,1838.629195
459.035580,518.144159,-9770.718434,995.924147
459.035907,-592.164754,-10140.821405,842.705048
459.036235,-1036.288319,-9696.697840,76.609550
459.036563,-296.082377,-9474.636058,153.219100
459.036890,1110.308913,-9326.594869,995.924147
459.037218,2072.576638,-9104.533087,1608.800546
459.037545,962.267725,-9770.718434,2681.334243
459.037873,-518.144159,-10807.006753,2068.457845
459.038200,-1480.411884,-10807.006753,1685.410096
459.038528,-1332.370696,-9992.780217,1378.971896
459.038855,-444.123565,-9474.636058,1608.800546
459.039183,444.123565,-9104.533087,1149.143247
459.039510,-222.061783,-9252.574275,1838.629195
459.039838,-1480.411884,-9474.636058,1302.362347
459.040165,-2442.679609,-9104.533087,306.438199
459.040493,-1776.494261,-8216.285956,459.657299
459.040821,-222.061783,-7254.018232,919.314598
459.041148,1258.350101,-6883.915261,1378.971896
459.041476,1332.370696,-8142.265362,1685.410096
459.041803,-962.267725,-8956.491898,1455.581446
459.042131,-3108.864956,-9770.718434,306.438199
459.042458,-4811.338623,-9622.677246,-536.266849
459.042786,-3627.009116,-9474.636058,-995.924147
459.043113,-1554.432478,-8660.409521,-383.047749
459.043441,740.205942,-7846.182985,612.876398
459.043768,1554.432478,-7920.203579,1455.581446
459.044096,666.185348,-8290.306550,919.314598
459.044423,-814.226536,-8586.388927,0.000000
459.044751,-1332.370696,-8438.347739,-689.485948
459.045079,-666.185348,-8068.244768,-612.876398
459.045406,1332.370696,-7994.224174,76.609550
459.045734,2146.597232,-8364.327145,1378.971896
459.046061,1776.494261,-9474.636058,1532.190996
459.046389,222.061783,-9992.780217,842.705048
459.046716,-740.205942,-9622.677246,0.000000
459.047044,-222.061783,-9104.533087,0.000000
459.047371,740.205942,-8512.368333,-306.438199
459.047699,2220.617826,-7994.224174,766.095498
459.048026,2072.576638,-7920.203579,536.266849
459.048354,740.205942,-8882.471304,306.438199
459.048681,0.000000,-8808.450710,-459.657299
459.049009,74.020594,-8142.265362,-536.266849
459.049337,1036.288319,-7994.224174,-153.219100
459.049664,1776.494261,-7846.182985,842.705048
459.049992,1332.370696,-8660.409521,1302.362347
459.050319,-296.082377,-9992.780217,689.485948
459.050647,-2368.659014,-10436.903782,0.000000
459.050974,-3552.988522,-10362.883188,-459.657299
459.051302,-2738.761985,-9548.656652,-1149.143247
459.051629,-888.247130,-8956.491898,-153.219100
459.051957,740.205942,-8734.430116,612.876398
459.052284,1036.288319,-8734.430116,919.314598
459.052612,0.000000,-9178.553681,459.657299
459.052939,-2146.597232,-9104.533087,-153.219100
459.053267,-2220.617826,-9474.636058,-919.314598
459.053595,-1184.329507,-8808.450710,-383.047749
459.053922,592.164754,-8660.409521,766.095498
459.054250,1554.432478,-9400.615463,1685.410096
459.054577,962.267725,-10140.821405,1915.238745
459.054905,-1036.288319,-10881.027347,1302.362347
459.055232,-2146.597232,-10807.006753,689.485948
459.055560,-1776.494261,-10288.862594,459.657299
459.055887,-148.041188,-9178.553681,766.095498
459.056215,1258.350101,-8734.430116,919.314598
459.056542,1110.308913,-9030.512492,1608.800546
459.056870,444.123565,-9400.615463,1378.971896
459.057197,0.000000,-9104.533087,995.924147
459.057525,-296.082377,-8734.430116,919.314598
459.057853,888.247130,-8290.306550,1378.971896
459.058180,1184.329507,-8068.244768,1991.848295
459.058508,1258.350101,-8586.388927,2298.286494
459.058835,-296.082377,-9548.656652,2221.676944
459.059163,-2368.659014,-10066.800811,1149.143247
459.059490,-3034.844362,-10214.842000,689.485948
459.059818,-2960.823768,-9622.677246,229.828649
459.060145,-1702.473667,-9030.512492,842.705048
459.060473,-222.061783,-8068.244768,1378.971896
459.060800,74.020594,-8290.306550,1302.362347
459.061128,-962.267725,-8586.388927,612.876398
459.061455,-2368.659014,-8586.388927,-459.657299
459.061783,-2072.576638,-8290.306550,-919.314598
459.062111,-740.205942,-7772.162391,-536.266849
459.062438,814.226536,-7698.141797,229.828649
459.062766,1332.370696,-8142.265362,1302.362347
459.063093,814.226536,-9696.697840,1378.971896
459.063421,-1110.308913,-10362.883188,536.266849
459.063748,-2146.597232,-10214.842000,0.000000
459.064076,-1702.473667,-9474.636058,-612.876398
459.064403,370.102971,-8660.409521,-229.828649
459.064731,2294.638420,-8216.285956,766.095498
459.065058,3034.844362,-8364.327145,842.705048
459.065386,1628.453072,-9104.533087,536.266849
459.065713,740.205942,-8956.491898,76.609550
459.066041,518.144159,-8660.409521,-383.047749
459.066369,1554.432478,-8142.265362,306.438199
459.066696,2590.720797,-8216.285956,995.924147
459.067024,2590.720797,-9326.594869,1608.800546
459.067351,888.247130,-10288.862594,1762.019645
459.067679,-1702.473667,-11103.089130,919.314598
459.068006,-3256.906145,-11177.109724,0.000000
459.068334,-3182.885551,-10066.800811,76.609550
459.068661,-1554.432478,-9400.615463,0.000000
459.068989,-148.041188,-8586.388927,459.657299
459.069316,0.000000,-8512.368333,689.485948
459.069644,-1258.350101,-8586.388927,0.000000
459.069971,-2738.761985,-8956.491898,-995.924147
459.070299,-2664.741391,-8364.327145,-1532.190996
459.070627,-1998.556043,-7550.100608,-1378.971896
459.070954,0.000000,-7846.182985,-536.266849
459.071282,518.144159,-8512.368333,383.047749
459.071609,0.000000,-9326.594869,689.485948
459.071937,-1480.411884,-10288.862594,459.657299
459.072264,-2664.741391,-10214.842000,-306.438199
459.072592,-2368.659014,-9992.780217,-766.095498
459.072919,-148.041188,-9178.553681,-229.828649
459.073247,1850.514855,-9474.636058,383.047749
459.073574,2516.700203,-9548.656652,919.314598
459.073902,1554.432478,-9622.677246,919.314598
459.074229,814.226536,-9474.636058,383.047749
459.074557,1406.391290,-9178.553681,76.609550
459.074885,2664.741391,-8438.347739,766.095498
459.075212,3478.967927,-8216.285956,1608.800546
459.075540,3627.009116,-9326.594869,2298.286494
459.075867,1554.432478,-10584.944971,2068.457845
459.076195,-1406.391290,-11103.089130,1302.362347
459.076522,-2442.679609,-10955.047942,229.828649
459.076850,-2220.617826,-10140.821405,612.876398
459.077177,0.000000,-9548.656652,1302.362347
459.077505,962.267725,-9030.512492,1915.238745
459.077832,370.102971,-8882.471304,2221.676944
459.078160,-1258.350101,-9104.533087,1225.752797
459.078487,-2812.782580,-8660.409521,1072.533697
459.078815,-2812.782580,-8142.265362,-306.438199
459.079142,-1998.556043,-7846.182985,0.000000
459.079470,-444.123565,-7624.121203,766.095498
459.079797,296.082377,-8068.244768,1685.410096
459.080125,-518.144159,-9252.574275,2068.457845
459.080452,-2220.617826,-9474.636058,919.314598
459.080780,-2886.803174,-9696.697840,383.047749
459.081107,-2368.659014,-9252.574275,76.609550
459.081435,-888.247130,-9030.512492,383.047749
459.081762,222.061783,-8882.471304,1149.143247
459.082090,666.185348,-8808.450710,1915.238745
459.082417,296.082377,-9474.636058,1608.800546
459.082745,-222.061783,-9400.615463,766.095498
459.083072,296.082377,-9326.594869,689.485948
459.083400,1628.453072,-8660.409521,842.705048
459.083727,3034.844362,-8586.388927,1532.190996
459.084055,2960.823768,-8734.430116,2451.505594
459.084382,1036.288319,-9696.697840,1838.629195
459.084710,-1184.329507,-10510.924376,306.438199
459.085037,-2590.720797,-10214.842000,0.000000
459.085365,-1110.308913,-9622.677246,-153.219100
459.085692,-444.123565,-9252.574275,306.438199
459.086020,740.205942,-8438.347739,612.876398
459.086347,222.061783,-8882.471304,612.876398
459.086675,-1406.391290,-9178.553681,0.000000
459.087002,-2738.761985,-9104.533087,-1302.362347
459.087330,-2664.741391,-8586.388927,-1991.848295
459.087657,-1332.370696,-7846.182985,-1532.190996
459.087985,592.164754,-7402.059420,-459.657299
459.088312,1480.411884,-7846.182985,459.657299
459.088640,814.226536,-8734.430116,383.047749
459.088967,-962.267725,-9252.574275,306.438199
459.089295,-2146.597232,-9474.636058,-995.924147
459.089622,-2294.638420,-9474.636058,-919.314598
459.089950,-814.226536,-8734.430116,-536.266849
459.090277,888.247130,-8660.409521,0.000000
459.090605,1702.473667,-8438.347739,383.047749
459.090932,1110.308913,-8660.409521,306.438199
459.091260,666.185348,-8734.430116,0.000000
459.091587,1036.288319,-8364.327145,76.609550
459.091915,2442.679609,-7550.100608,766.095498
459.092242,3404.947333,-7550.100608,1455.581446
459.092570,3108.864956,-8586.388927,1991.848295
459.092897,740.205942,-10436.903782,1762.019645
459.093225,-1702.473667,-11177.109724,1532.190996
459.093552,-2442.679609,-10955.047942,1072.533697
459.093880,-2072.576638,-10066.800811,536.266849
459.094207,-518.144159,-9474.636058,1685.410096
459.094535,518.144159,-8512.368333,1608.800546
459.094862,-296.082377,-8808.450710,1685.410096
459.095190,-1776.494261,-8808.450710,459.657299
459.095517,-2960.823768,-8290.306550,-612.876398
459.095845,-2886.803174,-7772.162391,-1302.362347
459.096172,-1628.453072,-6957.935855,-919.314598
459.096500,0.000000,-7105.977043,306.438199
459.096827,592.164754,-7772.162391,1225.752797
459.097155,-592.164754,-8956.491898,1072.533697
459.097482,-2664.741391,-9548.656652,995.924147
459.097810,-3701.029710,-10140.821405,-536.266849
459.098137,-3108.864956,-9770.718434,-459.657299
459.098465,-962.267725,-9548.656652,0.000000
459.098792,740.205942,-9548.656652,1149.143247
459.099120,1702.473667,-9548.656652,1991.848295
459.099447,1702.473667,-9844.739029,1915.238745
459.099775,1406.391290,-9548.656652,1455.581446
459.100102,1702.473667,-9252.574275,1225.752797
459.100430,2738.761985,-9030.512492,1685.410096
459.100757,3404.947333,-9178.553681,2451.505594
459.101085,3330.926739,-9992.780217,2604.724693
459.101412,1332.370696,-10807.006753,2757.943793
459.101740,-962.267725,-11325.150913,1378.971896
459.102067,-1850.514855,-11325.150913,1532.190996
459.102395,-1110.308913,-9992.780217,919.314598
459.102722,-814.226536,-9548.656652,1532.190996
459.103050,-518.144159,-9252.574275,1532.190996
459.103377,-1406.391290,-9548.656652,1378.971896
459.103705,-3330.926739,-9252.574275,76.609550
459.104032,-4663.297435,-9030.512492,-842.705048
459.104360,-4071.132681,-7920.203579,-1225.752797
459.104687,-2738.761985,-7328.038826,-1608.800546
459.105015,-592.164754,-6809.894666,-153.219100
459.105342,-296.082377,-7105.977043,612.876398
459.105670,-962.267725,-7920.203579,306.438199
459.105997,-2960.823768,-9030.512492,-383.047749
459.106325,-3923.091493,-9030.512492,-2145.067394
459.106652,-2590.720797,-8956.491898,-1378.971896
459.106980,-296.082377,-8142.265362,-766.095498
459.107307,1850.514855,-8216.285956,536.266849
459.107635,2886.803174,-8956.491898,1149.143247
459.107962,2812.782580,-9326.594869,1455.581446
459.108290,1850.514855,-9474.636058,536.266849
459.108617,1998.556043,-9548.656652,306.438199
459.108945,3182.885551,-9104.533087,383.047749
459.109272,4293.194464,-9030.512492,1608.800546
459.109600,4811.338623,-9548.656652,2298.286494
459.109927,2886.803174,-9918.759623,1915.238745
459.110255,666.185348,-10807.006753,1915.238745
459.110582,-444.123565,-10584.944971,1302.362347
459.110910,-1258.350101,-9770.718434,0.000000
459.111237,-1258.350101,-9030.512492,612.876398
459.111565,-148.041188,-7698.141797,306.438199
459.111892,-1480.411884,-8660.409521,459.657299
459.112220,-2812.782580,-8586.388927,-612.876398
459.112547,-3775.050304,-8364.327145,-1532.190996
459.112875,-3923.091493,-7624.121203,-2068.457845
459.113202,-2146.597232,-6661.853478,-919.314598
459.113530,-444.123565,-6661.853478,-612.876398
459.113857,-296.082377,-7254.018232,383.047749
459.114185,-666.185348,-8586.388927,76.609550
459.114512,-2664.741391,-9548.656652,0.000000
459.114840,-3478.967927,-9548.656652,-995.924147
459.115167,-2294.638420,-8956.491898,-612.876398
459.115495,0.000000,-8882.471304,0.000000
459.115822,1850.514855,-8808.450710,612.876398
459.116150,2590.720797,-9326.594869,1685.410096
459.116477,1850.514855,-9474.636058,1532.190996
459.116805,1184.329507,-9770.718434,919.314598
459.117132,1554.432478,-9548.656652,919.314598
459.117460,3034.844362,-9178.553681,1532.190996
459.117787,4145.153275,-9326.594869,2528.115143
459.118115,3775.050304,-9844.739029,3140.991542
459.118442,1702.473667,-11177.109724,2987.772442
459.118770,-592.164754,-11473.192101,2298.286494
459.119097,-1480.411884,-11029.068536,1608.800546
459.119425,-2442.679609,-10436.903782,919.314598
459.119752,-814.226536,-9844.739029,1685.410096
459.120080,-370.102971,-8364.327145,2068.457845
459.120407,-1702.473667,-8882.471304,1685.410096
459.120735,-2812.782580,-8512.368333,766.095498
459.121062,-3775.050304,-8068.244768,-383.047749
459.121390,-4219.173869,-7624.121203,-1072.533697
459.121717,-1998.556043,-7105.977043,-842.705048
459.122045,-1258.350101,-6513.812290,76.609550
459.122372,-666.185348,-7402.059420,1149.143247
459.122700,-1628.453072,-8290.306550,536.266849
459.123027,-3627.009116,-9474.636058,76.609550
459.123355,-3923.091493,-9622.677246,-459.657299
459.123682,-3108.864956,-9622.677246,-383.047749
459.124010,-1110.308913,-9252.574275,-153.219100
459.124337,814.226536,-9030.512492,383.047749
459.124665,1628.453072,-9252.574275,1302.362347
459.124992,1998.556043,-10066.800811,1455.581446
459.125320,1110.308913,-9252.574275,842.705048
459.125647,1702.473667,-9252.574275,306.438199
459.125975,3256.906145,-8734.430116,919.314598
459.126302,4441.235652,-8586.388927,1762.019645
459.126630,4293.194464,-9474.636058,2068.457845
459.126957,2368.659014,-10288.862594,2604.724693
459.127285,814.226536,-11103.089130,1991.848295
459.127612,-1406.391290,-11251.130318,689.485948
459.127940,-740.205942,-10436.903782,1455.581446
459.128267,666.185348,-9400.615463,1149.143247
459.128595,-370.102971,-9622.677246,1532.190996
459.128922,296.082377,-9844.739029,1072.533697
459.129250,-2368.659014,-9400.615463,0.000000
459.129577,-3923.091493,-9030.512492,-1302.362347
459.129905,-3997.112087,-7920.203579,-1915.238745
459.130232,-2072.576638,-7624.121203,-995.924147
459.130560,-814.226536,-6661.853478,-919.314598
459.130887,296.082377,-7105.977043,76.609550
459.131215,-1406.391290,-8216.285956,-153.219100
459.131542,-3108.864956,-9178.553681,-1149.143247
459.131870,-4145.153275,-9548.656652,-1532.190996
459.132197,-3627.009116,-8956.491898,-1991.848295
459.132525,-1036.288319,-8660.409521,-919.314598
459.132852,1110.308913,-8808.450710,153.219100
459.133180,1924.535449,-8956.491898,459.657299
459.133507,1628.453072,-9622.677246,612.876398
459.133835,1406.391290,-9326.594869,689.485948
459.134162,1924.535449,-9252.574275,0.000000
459.134490,3701.029710,-9104.533087,689.485948
459.134817,4737.318029,-9104.533087,1685.410096
459.135145,4515.256246,-10066.800811,2221.676944
459.135472,2738.761985,-10955.047942,2451.505594
459.135800,888.247130,-11029.068536,1302.362347
459.136127,0.000000,-11029.068536,1532.190996
459.136455,444.123565,-10066.800811,1302.362347
459.136782,0.000000,-9474.636058,1455.581446
459.137110,1480.411884,-9400.615463,2451.505594
459.137437,222.061783,-8956.491898,1532.190996
459.137765,-2738.761985,-9252.574275,1302.362347
459.138092,-3256.906145,-9030.512492,-153.219100
459.138420,-3478.967927,-7846.182985,-536.266849
459.138747,-2368.659014,-7772.162391,0.000000
459.139075,-666.185348,-6661.853478,459.657299
459.139402,-1332.370696,-7328.038826,1225.752797
459.139730,-2738.761985,-7994.224174,1072.533697
459.140057,-4145.153275,-8660.409521,0.000000
459.140385,-5403.503377,-9178.553681,-612.876398
459.140712,-4589.276840,-8216.285956,-536.266849
459.141040,-1924.535449,-7994.224174,-153.219100
459.141367,0.000000,-8068.244768,919.314598
459.141695,962.267725,-8142.265362,1149.143247
459.142022,222.061783,-8586.388927,1072.533697
459.142350,0.000000,-8660.409521,689.485948
459.142678,1110.308913,-8512.368333,153.219100
459.143005,2294.638420,-8438.347739,766.095498
459.143333,3478.967927,-8734.430116,1915.238745
459.143660,3997.112087,-9770.718434,2681.334243
459.143988,3256.906145,-11177.109724,3064.381992
459.144315,1702.473667,-11325.150913,2451.505594
459.144643,296.082377,-11399.171507,1762.019645
459.144970,740.205942,-10807.006753,1838.629195
459.145298,1554.432478,-9696.697840,1455.581446
459.145625,740.205942,-9696.697840,1915.238745
459.145953,962.267725,-9400.615463,1302.362347
459.146280,-1332.370696,-9548.656652,383.047749
459.146608,-3108.864956,-9178.553681,-306.438199
459.146935,-2368.659014,-8438.347739,-1149.143247
459.147263,-1406.391290,-7254.018232,-766.095498
459.147590,-814.226536,-7105.977043,383.047749
459.147918,0.000000,-7402.059420,306.438199
459.148245,-2442.679609,-8512.368333,-229.828649
459.148573,-4293.194464,-9400.615463,-995.924147
459.148900,-4959.379811,-9548.656652,-2145.067394
459.149228,-4441.235652,-9326.594869,-1685.410096
459.149555,-1480.411884,-8586.388927,-1225.752797
459.149883,370.102971,-8660.409521,0.000000
459.150210,1110.308913,-8882.471304,306.438199
459.150538,814.226536,-9474.636058,0.000000
459.150865,222.061783,-9474.636058,-919.314598
459.151193,962.267725,-9326.594869,-612.876398
459.151520,2516.700203,-9104.533087,153.219100
459.151848,4367.215058,-9326.594869,1378.971896
459.152175,4811.338623,-10140.821405,2221.676944
459.152503,3552.988522,-11029.068536,2451.505594
459.152830,1480.411884,-11547.212695,2451.505594
459.153158,518.144159,-11103.089130,1378.971896
459.153485,444.123565,-10362.883188,1072.533697
459.153813,518.144159,-9696.697840,689.485948
459.154140,1258.350101,-9178.553681,1991.848295
459.154468,1480.411884,-9030.512492,1608.800546
459.154795,-1628.453072,-9474.636058,1455.581446
459.155123,-2294.638420,-8808.450710,0.000000
459.155450,-2664.741391,-7698.141797,-383.047749
459.155778,-2072.576638,-7254.018232,-306.438199
459.156105,-1258.350101,-6809.894666,0.000000
459.156433,-1628.453072,-7105.977043,842.705048
459.156760,-3404.947333,-8142.265362,536.266849
459.157088,-5033.400406,-8586.388927,-842.705048
459.157415,-5847.626942,-8290.306550,-1455.581446
459.157743,-4663.297435,-7476.080014,-1608.800546
459.158070,-1480.411884,-6957.935855,-919.314598
459.158398,-74.020594,-7328.038826,153.219100
459.158725,666.185348,-7920.203579,766.095498
459.159053,0.000000,-8734.430116,766.095498
459.159380,-592.164754,-9104.533087,-229.828649
459.159708,148.041188,-8956.491898,76.609550
459.160035,2146.597232,-8808.450710,383.047749
459.160363,3923.091493,-8808.450710,1762.019645
459.160690,4737.318029,-9844.739029,2604.724693
459.161018,3627.009116,-10807.006753,2911.162892
459.161345,2072.576638,-11473.192101,1838.629195
459.161673,888.247130,-11473.192101,1762.019645
459.162000,888.247130,-10807.006753,1149.143247
459.162328,1554.432478,-9992.780217,1378.971896
459.162655,1924.535449,-9474.636058,1149.143247
459.162983,518.144159,-9696.697840,1378.971896
459.163310,0.000000,-9030.512492,919.314598
459.163638,-1924.535449,-9474.636058,-306.438199
459.163965,-2442.679609,-8216.285956,-306.438199
459.164293,-1480.411884,-8290.306550,-383.047749
459.164620,-518.144159,-7476.080014,536.266849
459.164948,-888.247130,-8290.306550,76.609550
459.165275,-2220.617826,-8956.491898,0.000000
459.165603,-4515.256246,-9770.718434,-229.828649
459.165930,-4737.318029,-9992.780217,-1455.581446
459.166258,-3997.112087,-9326.594869,-1072.533697
459.166585,-2146.597232,-9104.533087,-689.485948
459.166913,-370.102971,-8512.368333,153.219100
459.167240,0.000000,-9474.636058,153.219100
459.167568,-592.164754,-10140.821405,0.000000
459.167895,-814.226536,-9992.780217,-459.657299
459.168223,0.000000,-9252.574275,-689.485948
459.168550,2590.720797,-8882.471304,689.485948
459.168878,4515.256246,-9104.533087,1685.410096
459.169205,4367.215058,-9918.759623,2451.505594
459.169533,2960.823768,-11399.171507,2604.724693
459.169860,1184.329507,-11991.336260,1608.800546
459.170188,-148.041188,-11547.212695,1915.238745
459.170515,444.123565,-11103.089130,1685.410096
459.170843,1628.453072,-10288.862594,1838.629195
459.171170,1702.473667,-10214.842000,2298.286494
459.171498,740.205942,-10510.924376,2834.553343
459.171825,-518.144159,-9474.636058,919.314598
459.172153,-3256.906145,-9178.553681,689.485948
459.172480,-1998.556043,-8142.265362,-229.828649
459.172808,-1702.473667,-7772.162391,383.047749
459.173135,-962.267725,-7402.059420,689.485948
459.173463,-962.267725,-7254.018232,995.924147
459.173790,-3034.844362,-8438.347739,766.095498
459.174118,-4515.256246,-9178.553681,-229.828649
459.174445,-5255.462188,-9104.533087,-1225.752797
459.174773,-4219.173869,-8512.368333,-1378.971896
459.175100,-1702.473667,-7846.182985,-612.876398
459.175428,74.020594,-7328.038826,0.000000
459.175755,0.000000,-8068.244768,0.000000
459.176083,-296.082377,-8364.327145,0.000000
459.176410,-740.205942,-8142.265362,-995.924147
459.176738,296.082377,-7550.100608,-1302.362347
459.177066,2368.659014,-7254.018232,306.438199
459.177393,4071.132681,-7698.141797,995.924147
459.177721,4737.318029,-8734.430116,1991.848295
459.178049,3404.947333,-9844.739029,2221.676944
459.178376,1998.556043,-10436.903782,1838.629195
459.178704,1184.329507,-9918.759623,1302.362347
459.179031,1036.288319,-10140.821405,995.924147
459.179359,1628.453072,-9548.656652,1149.143247
459.179687,2294.638420,-8882.471304,1455.581446
459.180014,1628.453072,-8734.430116,1225.752797
459.180342,-518.144159,-8956.491898,536.266849
459.180670,-444.123565,-8660.409521,-153.219100
459.180997,-1258.350101,-7476.080014,-766.095498
459.181325,-592.164754,-6735.874072,0.000000
459.181653,222.061783,-6661.853478,153.219100
459.181980,-592.164754,-7254.018232,536.266849
459.182308,-2664.741391,-8734.430116,306.438199
459.182636,-3849.070898,-9474.636058,-229.828649
459.182963,-5995.668130,-9696.697840,-1149.143247
459.183291,-4663.297435,-8882.471304,-1072.533697
459.183619,-2442.679609,-8216.285956,-689.485948
459.183946,-296.082377,-8142.265362,536.266849
459.184274,-444.123565,-8290.306550,0.000000
459.184602,-1110.308913,-8882.471304,-306.438199
459.184929,-1554.432478,-8734.430116,-1225.752797
459.185257,-370.102971,-8734.430116,-919.314598
459.185585,1850.514855,-8364.327145,-766.095498
459.185912,3330.926739,-8142.265362,1225.752797
459.186240,4071.132681,-9474.636058,2145.067394
459.186568,2664.741391,-11251.130318,2298.286494
459.186895,666.185348,-11769.274478,1608.800546
459.187223,222.061783,-11917.315666,1532.190996
459.187551,518.144159,-11251.130318,1455.581446
459.187878,1554.432478,-10881.027347,2068.457845
459.188206,2368.659014,-10510.924376,2451.505594
459.188534,1628.453072,-10510.924376,2451.505594
459.188861,296.082377,-10214.842000,2528.115143
459.189189,-148.041188,-9252.574275,766.095498
459.189516,-1776.494261,-8586.388927,842.705048
459.189844,444.123565,-7624.121203,842.705048
459.190172,0.000000,-7920.203579,1455.581446
459.190499,-814.226536,-8586.388927,1608.800546
459.190827,-2294.638420,-9178.553681,919.314598
459.191155,-4885.359217,-9844.739029,229.828649
459.191482,-5403.503377,-9548.656652,-459.657299
459.191810,-4367.215058,-9178.553681,-766.095498
459.192138,-2886.803174,-8586.388927,0.000000
459.192465,-1036.288319,-7846.182985,229.828649
459.192793,-1332.370696,-8512.368333,383.047749
459.193121,-2368.659014,-8956.491898,-229.828649
459.193448,-2590.720797,-8882.471304,-842.705048
459.193776,-1924.535449,-8512.368333,-995.924147
459.194104,296.082377,-7846.182985,0.000000
459.194431,2368.659014,-7846.182985,1762.019645
459.194759,3182.885551,-8956.491898,2221.676944
459.195087,2146.597232,-9992.780217,2374.896044
459.195414,666.185348,-10658.965565,1608.800546
459.195742,-370.102971,-10658.965565,1302.362347
459.196070,222.061783,-10288.862594,612.876398
459.196397,1332.370696,-9474.636058,1225.752797
459.196725,2516.700203,-9252.574275,2068.457845
459.197053,2220.617826,-9252.574275,1991.848295
459.197380,1406.391290,-8882.471304,1685.410096
459.197708,962.267725,-8660.409521,1762.019645
459.198036,0.000000,-7476.080014,0.000000
459.198363,296.082377,-7402.059420,1072.533697
459.198691,888.247130,-6661.853478,919.314598
459.199018,-444.123565,-8290.306550,1302.362347
459.199346,-2146.597232,-9030.512492,383.047749
459.199674,-3552.988522,-9252.574275,-612.876398
459.200001,-5181.441594,-9474.636058,-1225.752797
459.200329,-3775.050304,-8660.409521,-1302.362347
459.200657,-1850.514855,-8068.244768,-919.314598
459.200984,-666.185348,-7476.080014,-229.828649
459.201312,-370.102971,-7920.203579,-306.438199
459.201640,-1924.535449,-8808.450710,-919.314598
459.201967,-1998.556043,-8438.347739,-1838.629195
459.202295,-1036.288319,-8068.244768,-1608.800546
459.202623,1332.370696,-7772.162391,-536.266849
459.202950,2886.803174,-8142.265362,153.219100
459.203278,3478.967927,-9474.636058,1685.410096
459.203606,1702.473667,-10584.944971,1455.581446
459.203933,148.041188,-11325.150913,842.705048
459.204261,-518.144159,-11325.150913,459.657299
459.204589,592.164754,-10510.924376,153.219100
459.204916,2368.659014,-10214.842000,1225.752797
459.205244,3404.947333,-9770.718434,2298.286494
459.205572,2960.823768,-9918.759623,2451.505594
459.205899,1850.514855,-9770.718434,2068.457845
459.206227,74.020594,-9474.636058,459.657299
459.206555,-296.082377,-8956.491898,766.095498
459.206882,962.267725,-8512.368333,1225.752797
459.207210,518.144159,-9252.574275,1608.800546
459.207538,-444.123565,-9326.594869,1915.238745
459.207865,-2220.617826,-10140.821405,1149.143247
459.208193,-4515.256246,-10140.821405,1072.533697
459.208521,-4885.359217,-9918.759623,-383.047749
459.208848,-3775.050304,-9030.512492,0.000000
459.209176,-2368.659014,-8216.285956,76.609550
459.209503,-1184.329507,-8142.265362,536.266849
459.209831,-1332.370696,-7772.162391,536.266849
459.210159,-2368.659014,-8290.306550,0.000000
459.210486,-2664.741391,-8068.244768,-842.705048
459.210814,-1702.473667,-8364.327145,-689.485948
459.211142,592.164754,-7772.162391,0.000000
459.211469,2072.576638,-7772.162391,2374.896044
459.211797,2368.659014,-9474.636058,1762.019645
459.212125,1406.391290,-10510.924376,2068.457845
459.212452,-148.041188,-11251.130318,995.924147
459.212780,-814.226536,-10955.047942,536.266849
459.213108,666.185348,-10881.027347,842.705048
459.213435,2516.700203,-9844.739029,1225.752797
459.213763,3182.885551,-9548.656652,1762.019645
459.214091,3034.844362,-9548.656652,1838.629195
459.214418,1480.411884,-9770.718434,1072.533697
459.214746,444.123565,-8956.491898,536.266849
459.215074,444.123565,-8734.430116,536.266849
459.215401,666.185348,-8216.285956,306.438199
459.215729,740.205942,-8290.306550,1532.190996
459.216057,518.144159,-8068.244768,1532.190996
459.216384,-1850.514855,-9770.718434,1302.362347
459.216712,-3923.091493,-9474.636058,0.000000
459.217040,-4145.153275,-9622.677246,-842.705048
459.217367,-4737.318029,-8956.491898,-689.485948
459.217695,-2590.720797,-7550.100608,-612.876398
459.218023,-1332.370696,-7772.162391,-229.828649
459.218350,-1850.514855,-7846.182985,-995.924147
459.218678,-1850.514855,-7994.224174,-1072.533697
459.219006,-2368.659014,-7994.224174,-1685.410096
459.219333,-1258.350101,-7550.100608,-1608.800546
459.219661,962.267725,-7402.059420,-689.485948
459.219988,2294.638420,-7624.121203,842.705048
459.220316,2442.679609,-9030.512492,995.924147
459.220644,1036.288319,-10436.903782,1149.143247
459.220971,-444.123565,-11103.089130,306.438199
459.221299,-518.144159,-11029.068536,0.000000
459.221627,962.267725,-10066.800811,766.095498
459.221954,2886.803174,-9104.533087,1378.971896
459.222282,3849.070898,-9030.512492,1532.190996
459.222610,3256.906145,-9252.574275,1838.629195
459.222937,1998.556043,-9474.636058,1149.143247
459.223265,592.164754,-9326.594869,612.876398
459.223593,296.082377,-8438.347739,-536.266849
459.223920,444.123565,-8512.368333,612.876398
459.224248,1998.556043,-8438.347739,1455.581446
459.224576,148.041188,-9844.739029,1455.581446
459.224903,-1554.432478,-9918.759623,1225.752797
459.225231,-3627.009116,-10140.821405,153.219100
459.225559,-4219.173869,-9474.636058,0.000000
459.225886,-3478.967927,-8956.491898,-306.438199
459.226214,-1776.494261,-8142.265362,229.828649
459.226542,-1110.308913,-7772.162391,536.266849
459.226869,-1406.391290,-8216.285956,766.095498
459.227197,-2294.638420,-8438.347739,76.609550
459.227525,-2664.741391,-8216.285956,-459.657299
459.227852,-1628.453072,-7920.203579,-383.047749
459.228180,74.020594,-7994.224174,383.047749
459.228508,1332.370696,-8586.388927,1608.800546
459.228835,1406.391290,-9326.594869,2221.676944
459.229163,222.061783,-10288.862594,2374.896044
459.229490,-1036.288319,-10807.006753,1762.019645
459.229818,-1480.411884,-10955.047942,919.314598
459.230146,-592.164754,-10288.862594,1072.533697
459.230473,1036.288319,-9918.759623,1915.238745
459.230801,1776.494261,-9474.636058,1915.238745
459.231129,1184.329507,-9770.718434,1915.238745
459.231456,370.102971,-9548.656652,1532.190996
459.231784,-296.082377,-9252.574275,766.095498
459.232112,148.041188,-8734.430116,1149.143247
459.232439,740.205942,-8364.327145,1455.581446
459.232767,962.267725,-8808.450710,1072.533697
459.233095,0.000000,-9696.697840,2145.067394
459.233422,-1332.370696,-9696.697840,1225.752797
459.233750,-3182.885551,-10584.944971,689.485948
459.234078,-3552.988522,-9474.636058,76.609550
459.234405,-2220.617826,-9030.512492,0.000000
459.234733,-1110.308913,-8290.306550,229.828649
459.235061,148.041188,-7772.162391,689.485948
459.235388,-444.123565,-8216.285956,459.657299
459.235716,-1258.350101,-8438.347739,-536.266849
459.236044,-1850.514855,-8216.285956,-1302.362347
459.236371,-1110.308913,-7994.224174,-1302.362347
459.236699,666.185348,-7476.080014,-766.095498
459.237027,2072.576638,-7846.182985,612.876398
459.237354,1776.494261,-8808.450710,995.924147
459.237682,222.061783,-9992.780217,459.657299
459.238010,-1554.432478,-10732.986159,-306.438199
459.238337,-2146.597232,-10436.903782,-689.485948
459.238665,-1036.288319,-9918.759623,-842.705048
459.238993,1406.391290,-9104.533087,0.000000
459.239320,2442.679609,-8956.491898,1455.581446
459.239648,2072.576638,-9252.574275,1302.362347
459.239975,888.247130,-9474.636058,766.095498
459.240303,74.020594,-9252.574275,0.000000
459.240631,592.164754,-8512.368333,0.000000
459.240958,962.267725,-7920.203579,76.609550
459.241286,1998.556043,-8364.327145,1149.143247
459.241614,1702.473667,-8660.409521,1378.971896
459.241941,-370.102971,-9474.636058,1455.581446
459.242269,-1998.556043,-9474.636058,306.438199
459.242597,-2812.782580,-9178.553681,76.609550
459.242924,-1998.556043,-8956.491898,76.609550
459.243252,-740.205942,-8290.306550,689.485948
459.243580,0.000000,-8438.347739,1302.362347
459.243907,-1036.288319,-8586.388927,1149.143247
459.244235,-1924.535449,-8660.409521,0.000000
459.244563,-2590.720797,-8364.327145,0.000000
459.244890,-1776.494261,-8068.244768,-306.438199
459.245218,0.000000,-7476.080014,153.219100
459.245546,1110.308913,-7624.121203,995.924147
459.245873,444.123565,-8216.285956,2221.676944
459.246201,-666.185348,-10214.842000,1455.581446
459.246529,-2664.741391,-10658.965565,459.657299
459.246856,-3034.844362,-10510.924376,0.000000
459.247184,-1776.494261,-9770.718434,0.000000
459.247512,74.020594,-9326.594869,1149.143247
459.247839,1406.391290,-8586.388927,1685.410096
459.248167,1110.308913,-9104.533087,1838.629195
459.248495,592.164754,-9622.677246,1072.533697
459.248822,-296.082377,-9474.636058,229.828649
459.249150,0.000000,-9252.574275,306.438199
459.249477,1036.288319,-8660.409521,612.876398
459.249805,1776.494261,-8808.450710,1608.800546
459.250133,1480.411884,-9474.636058,1532.190996
459.250460,74.020594,-10362.883188,1608.800546
459.250788,-1258.350101,-10362.883188,536.266849
459.251116,-2294.638420,-10066.800811,766.095498
459.251443,-814.226536,-9548.656652,0.000000
459.251771,0.000000,-8660.409521,459.657299
459.252099,518.144159,-8808.450710,536.266849
459.252426,0.000000,-9326.594869,459.657299
459.252754,-1258.350101,-9622.677246,76.609550
459.253082,-1850.514855,-8882.471304,-153.219100
459.253409,-888.247130,-8882.471304,-383.047749
459.253737,296.082377,-7994.224174,153.219100
459.254065,1332.370696,-8438.347739,919.314598
459.254392,1036.288319,-9400.615463,1072.533697
459.254720,-1480.411884,-9548.656652,689.485948
459.255048,-2738.761985,-10510.924376,0.000000
459.255375,-3256.906145,-10288.862594,-612.876398
459.255703,-1406.391290,-9696.697840,0.000000
459.256031,740.205942,-8956.491898,459.657299
459.256358,1850.514855,-8216.285956,1149.143247
459.256686,1406.391290,-8586.388927,1072.533697
459.257014,222.061783,-9104.533087,536.266849
459.257341,-814.226536,-8956.491898,0.000000
459.257669,-222.061783,-8586.388927,-306.438199
459.257997,962.267725,-7994.224174,536.266849
459.258324,1628.453072,-8438.347739,995.924147
459.258652,1406.391290,-9104.533087,1762.019645
459.258980,0.000000,-9844.739029,1455.581446
459.259307,-1480.411884,-9844.739029,766.095498
459.259635,-2146.597232,-9696.697840,153.219100
459.259962,-740.205942,-9252.574275,0.000000
459.260290,222.061783,-8364.327145,306.438199
459.260618,518.144159,-8586.388927,919.314598
459.260945,148.041188,-8956.491898,919.314598
459.261273,-888.247130,-8882.471304,153.219100
459.261601,-1628.453072,-8438.347739,-536.266849
459.261928,-518.144159,-7698.141797,-229.828649
459.262256,666.185348,-7550.100608,383.047749
459.262584,1702.473667,-7698.141797,1302.362347
459.262911,814.226536,-8734.430116,1455.581446
459.263239,-592.164754,-9400.615463,1072.533697
459.263567,-2368.659014,-9918.759623,306.438199
459.263894,-2812.782580,-9770.718434,0.000000
459.264222,-1554.432478,-9252.574275,76.609550
459.264550,0.000000,-8882.471304,536.266849
459.264877,444.123565,-8734.430116,1455.581446
459.265205,666.185348,-9400.615463,1225.752797
459.265533,-1110.308913,-9104.533087,229.828649
459.265860,-1776.494261,-9030.512492,-459.657299
459.266188,-1184.329507,-8660.409521,-459.657299
459.266516,370.102971,-8216.285956,306.438199
459.266843,1628.453072,-8734.430116,1302.362347
459.267171,1184.329507,-9178.553681,1532.190996
459.267499,0.000000,-10214.842000,1532.190996
459.267826,-1776.494261,-10362.883188,536.266849
459.268154,-2368.659014,-10436.903782,153.219100
459.268482,-1480.411884,-9622.677246,0.000000
459.268809,148.041188,-9030.512492,612.876398
459.269137,1110.308913,-8956.491898,1302.362347
459.269465,666.185348,-9474.636058,1225.752797
459.269792,-148.041188,-9548.656652,536.266849
459.270120,-518.144159,-8882.471304,0.000000
459.270447,-444.123565,-8660.409521,0.000000
459.270775,1406.391290,-7994.224174,383.047749
459.271103,1850.514855,-8438.347739,1378.971896
459.271430,1258.350101,-9548.656652,1532.190996
459.271758,-666.185348,-10066.800811,842.705048
459.272086,-2516.700203,-10066.800811,-383.047749
459.272413,-2368.659014,-10140.821405,-612.876398
459.272741,-1480.411884,-9474.636058,-153.219100
459.273069,0.000000,-8882.471304,459.657299
459.273396,962.267725,-8512.368333,1149.143247
459.273724,222.061783,-8808.450710,1225.752797
459.274052,-814.226536,-9474.636058,306.438199
459.274379,-1554.432478,-9252.574275,0.000000
459.274707,-1258.350101,-8660.409521,-306.438199
459.275035,444.123565,-8438.347739,383.047749
459.275362,1406.391290,-8290.306550,1378.971896
459.275690,518.144159,-8956.491898,1378.971896
459.276018,-444.123565,-9844.739029,1225.752797
459.276345,-2220.617826,-9918.759623,306.438199
459.276673,-2368.659014,-9770.718434,0.000000
459.277001,-888.247130,-8808.450710,0.000000
459.277328,148.041188,-8586.388927,689.485948
459.277656,1332.370696,-8660.409521,1302.362347
459.277984,666.185348,-8956.491898,1455.581446
459.278311,-148.041188,-9400.615463,1149.143247
459.278639,-518.144159,-9104.533087,459.657299
459.278967,0.000000,-8512.368333,229.828649
459.279294,1258.350101,-8068.244768,919.314598
459.279622,1776.494261,-8364.327145,1608.800546
459.279950,1184.329507,-9178.553681,1838.629195
459.280277,-666.185348,-10066.800811,1302.362347
459.280605,-2368.659014,-9252.574275,689.485948
459.280933,-2590.720797,-9474.636058,0.000000
459.281260,-1406.391290,-9030.512492,0.000000
459.281588,0.000000,-8290.306550,459.657299
459.281916,444.123565,-8364.327145,919.314598
459.282243,0.000000,-8142.265362,229.828649
459.282571,-1258.350101,-8808.450710,0.000000
459.282899,-1998.556043,-8586.388927,-612.876398
459.283226,-1480.411884,-8290.306550,-612.876398
459.283554,0.000000,-7846.182985,-229.828649
459.283882,1554.432478,-7994.224174,1072.533697
459.284209,962.267725,-9030.512492,1149.143247
459.284537,-370.102971,-9992.780217,995.924147
459.284865,-1998.556043,-10732.986159,153.219100
459.285192,-2516.700203,-10362.883188,-766.095498
459.285520,-1332.370696,-9696.697840,-612.876398
459.285848,666.185348,-8586.388927,153.219100
459.286175,1628.453072,-8956.491898,689.485948
459.286503,1110.308913,-9178.553681,689.485948
459.286831,0.000000,-9030.512492,153.219100
459.287159,-148.041188,-9030.512492,0.000000
459.287486,296.082377,-8216.285956,-229.828649
459.287814,1924.535449,-8068.244768,306.438199
459.288142,2368.659014,-8586.388927,995.924147
459.288469,1406.391290,-9844.739029,1532.190996
459.288797,-962.267725,-10807.006753,612.876398
459.289125,-2516.700203,-10584.944971,383.047749
459.289452,-2738.761985,-10881.027347,0.000000
459.289780,-1702.473667,-9622.677246,0.000000
459.290108,74.020594,-9104.533087,306.438199
459.290435,888.247130,-8734.430116,995.924147
459.290763,148.041188,-8660.409521,1915.238745
459.291091,-518.144159,-8956.491898,306.438199
459.291418,-1702.473667,-8734.430116,-689.485948
459.291746,-1184.329507,-8586.388927,-306.438199
459.292074,222.061783,-8142.265362,0.000000
459.292401,1258.350101,-8290.306550,1302.362347
459.292729,1036.288319,-9104.533087,1455.581446
459.293057,-444.123565,-9992.780217,1072.533697
459.293384,-1998.556043,-10510.924376,459.657299
459.293712,-2146.597232,-10436.903782,153.219100
459.294040,-1258.350101,-9548.656652,229.828649
459.294367,740.205942,-8512.368333,842.705048
459.294695,1184.329507,-8956.491898,1685.410096
459.295023,962.267725,-9030.512492,1455.581446
459.295350,0.000000,-9030.512492,1378.971896
459.295678,-296.082377,-8290.306550,612.876398
459.296006,814.226536,-7772.162391,1072.533697
459.296333,1776.494261,-7550.100608,1608.800546
459.296661,2072.576638,-7994.224174,2298.286494
459.296989,1184.329507,-8734.430116,2451.505594
459.297317,-666.185348,-10140.821405,2374.896044
459.297644,-2294.638420,-10140.821405,1608.800546
459.297972,-3330.926739,-9918.759623,612.876398
459.298300,-2368.659014,-9622.677246,766.095498
459.298627,-1036.288319,-9030.512492,1225.752797
459.298955,-592.164754,-8586.388927,1455.581446
459.299283,-1332.370696,-9030.512492,383.047749
459.299610,-2368.659014,-8734.430116,-229.828649
459.299938,-3182.885551,-8438.347739,-1072.533697
459.300266,-1998.556043,-7698.141797,-1225.752797
459.300593,-296.082377,-6809.894666,-383.047749
459.300921,1332.370696,-7328.038826,306.438199
459.301249,1406.391290,-8290.306550,995.924147
459.301576,-518.144159,-9326.594869,689.485948
459.301904,-2294.638420,-10140.821405,-229.828649
459.302232,-2590.720797,-10436.903782,-612.876398
459.302559,-1332.370696,-9918.759623,-306.438199
459.302887,592.164754,-9326.594869,76.609550
459.303215,1998.556043,-9326.594869,1072.533697
459.303542,1924.535449,-9474.636058,995.924147
459.303870,1406.391290,-9696.697840,612.876398
459.304198,1184.329507,-9326.594869,76.609550
459.304525,1554.432478,-8438.347739,383.047749
459.304853,3182.885551,-8660.409521,842.705048
459.305181,3330.926739,-9104.533087,1378.971896
459.305508,1998.556043,-9696.697840,1302.362347
459.305836,0.000000,-10955.047942,919.314598
459.306164,-1850.514855,-10955.047942,536.266849
459.306492,-2368.659014,-10436.903782,76.609550
459.306819,-1628.453072,-9548.656652,0.000000
459.307147,-592.164754,-8808.450710,536.266849
459.307475,0.000000,-8882.471304,919.314598
459.307802,-814.226536,-9178.553681,536.266849
459.308130,-2442.679609,-8882.471304,-229.828649
459.308458,-3627.009116,-8660.409521,-1149.143247
459.308785,-2516.700203,-7698.141797,-1225.752797
459.309113,-518.144159,-7179.997637,-306.438199
459.309441,888.247130,-7254.018232,229.828649
459.309768,518.144159,-7772.162391,1149.143247
459.310096,-1036.288319,-9252.574275,459.657299
459.310424,-2664.741391,-9992.780217,-229.828649
459.310751,-2738.761985,-9844.739029,-766.095498
459.311079,-1036.288319,-9400.615463,-383.047749
459.311407,1332.370696,-8364.327145,306.438199
459.311734,2368.659014,-8364.327145,1378.971896
459.312062,2590.720797,-9252.574275,2068.457845
459.312390,1776.494261,-9400.615463,1685.410096
459.312717,888.247130,-9252.574275,1225.752797
459.313045,1554.432478,-8660.409521,1149.143247
459.313373,2442.679609,-8290.306550,1915.238745
459.313700,2960.823768,-8956.491898,2374.896044
459.314028,2072.576638,-9622.677246,2528.115143
459.314356,0.000000,-10436.903782,2451.505594
459.314683,-1480.411884,-10732.986159,1532.190996
459.315011,-2220.617826,-9770.718434,766.095498
459.315339,-1480.411884,-9104.533087,842.705048
459.315666,-888.247130,-8586.388927,1072.533697
459.315994,-1110.308913,-8364.327145,919.314598
459.316322,-2590.720797,-8882.471304,306.438199
459.316650,-3404.947333,-8438.347739,76.609550
459.316977,-4293.194464,-7698.141797,-1072.533697
459.317305,-2960.823768,-7402.059420,-1225.752797
459.317633,-1110.308913,-7031.956449,0.000000
459.317960,0.000000,-7254.018232,689.485948
459.318288,0.000000,-8142.265362,1455.581446
459.318616,-1406.391290,-9326.594869,919.314598
459.318943,-3404.947333,-9918.759623,0.000000
459.319271,-3108.864956,-10510.924376,-689.485948
459.319599,-1480.411884,-9918.759623,-153.219100
459.319926,814.226536,-8956.491898,459.657299
459.320254,2294.638420,-8956.491898,1378.971896
459.320582,2442.679609,-9844.739029,1608.800546
459.320909,1480.411884,-10140.821405,842.705048
459.321237,1110.308913,-9844.739029,459.657299
459.321565,1554.432478,-9474.636058,612.876398
459.321892,3330.926739,-8956.491898,1072.533697
459.322220,4145.153275,-9474.636058,2145.067394
459.322548,3330.926739,-9918.759623,2298.286494
459.322875,1480.411884,-10881.027347,1991.848295
459.323203,-1110.308913,-11103.089130,1072.533697
459.323531,-1258.350101,-10362.883188,612.876398
459.323858,-1554.432478,-9696.697840,306.438199
459.324186,-1406.391290,-9696.697840,536.266849
459.324514,-962.267725,-9474.636058,612.876398
459.324841,-2072.576638,-9474.636058,0.000000
459.325169,-3182.885551,-9178.553681,-306.438199
459.325497,-3478.967927,-8586.388927,-1532.190996
459.325824,-2812.782580,-7994.224174,-1225.752797
459.326152,-666.185348,-6809.894666,-842.705048
459.326480,148.041188,-7105.977043,-306.438199
459.326808,-296.082377,-7698.141797,-306.438199
459.327135,-2368.659014,-9252.574275,0.000000
459.327463,-3256.906145,-9992.780217,-919.314598
459.327791,-3330.926739,-9622.677246,-1532.190996
459.328118,-1554.432478,-8808.450710,-1072.533697
459.328446,1036.288319,-8660.409521,229.828649
459.328774,2294.638420,-8216.285956,1608.800546
459.329101,2368.659014,-9400.615463,1302.362347
459.329429,1554.432478,-9474.636058,1072.533697
459.329757,1258.350101,-9326.594869,766.095498
459.330084,1850.514855,-8808.450710,689.485948
459.330412,3256.906145,-8142.265362,2298.286494
459.330740,3701.029710,-8586.388927,2451.505594
459.331067,3182.885551,-9696.697840,2604.724693
459.331395,1184.329507,-10584.944971,2451.505594
459.331723,-370.102971,-10436.903782,1149.143247
459.332050,-1850.514855,-10362.883188,1455.581446
459.332378,296.082377,-9474.636058,689.485948
459.332706,370.102971,-8734.430116,1072.533697
459.333033,-296.082377,-8364.327145,1532.190996
459.333361,-814.226536,-8882.471304,995.924147
459.333689,-2442.679609,-8216.285956,0.000000
459.334016,-3478.967927,-8068.244768,-383.047749
459.334344,-2442.679609,-7402.059420,-459.657299
459.334672,-2072.576638,-7031.956449,0.000000
459.334999,-814.226536,-7179.997637,383.047749
459.335327,-1924.535449,-8142.265362,612.876398
459.335655,-3478.967927,-8734.430116,229.828649
459.335982,-4219.173869,-9474.636058,-459.657299
459.336310,-4441.235652,-8660.409521,-1149.143247
459.336638,-1924.535449,-8364.327145,-689.485948
459.336966,444.123565,-8068.244768,0.000000
459.337293,1850.514855,-8290.306550,995.924147
459.337621,1628.453072,-8956.491898,1378.971896
459.337949,888.247130,-9474.636058,995.924147
459.338276,666.185348,-9548.656652,229.828649
459.338604,1480.411884,-9326.594869,766.095498
459.338932,2738.761985,-9326.594869,1685.410096
459.339259,3849.070898,-9622.677246,2604.724693
459.339587,3330.926739,-10584.944971,3064.381992
459.339915,1924.535449,-11177.109724,2604.724693
459.340242,370.102971,-10881.027347,2221.676944
459.340570,148.041188,-10362.883188,1225.752797
459.340898,-814.226536,-9770.718434,1532.190996
459.341225,666.185348,-9326.594869,1225.752797
459.341553,518.144159,-8660.409521,1532.190996
459.341881,-1702.473667,-8734.430116,842.705048
459.342208,-2368.659014,-9252.574275,76.609550
459.342536,-3256.906145,-8216.285956,-919.314598
459.342864,-3256.906145,-8216.285956,-612.876398
459.343191,-1332.370696,-7328.038826,0.000000
459.343519,-1184.329507,-7698.141797,536.266849
459.343847,-1702.473667,-8882.471304,459.657299
459.344174,-2960.823768,-9622.677246,153.219100
459.344502,-4663.297435,-10066.800811,-1225.752797
459.344830,-4367.215058,-9474.636058,-1838.629195
459.345157,-2664.741391,-8586.388927,-1149.143247
459.345485,0.000000,-8142.265362,-383.047749
459.345813,1554.432478,-7994.224174,689.485948
459.346140,1998.556043,-8512.368333,612.876398
459.346468,1036.288319,-9178.553681,153.219100
459.346796,814.226536,-9030.512492,-153.219100
459.347124,1554.432478,-9030.512492,-229.828649
459.347451,2960.823768,-8808.450710,766.095498
459.347779,4071.132681,-9252.574275,2145.067394
459.348107,3627.009116,-10214.842000,2374.896044
459.348434,1628.453072,-11325.150913,2298.286494
459.348762,0.000000,-11547.212695,1685.410096
459.349090,0.000000,-10584.944971,1149.143247
459.349417,666.185348,-9104.533087,1225.752797
459.349745,444.123565,-8882.471304,919.314598
459.350073,1406.391290,-9104.533087,1455.581446
459.350400,222.061783,-8364.327145,1072.533697
459.350728,-2590.720797,-8290.306550,229.828649
459.351056,-2960.823768,-7698.141797,-689.485948
459.351383,-2516.700203,-7179.997637,-1072.533697
459.351711,-2146.597232,-7328.038826,-306.438199
459.352039,-1036.288319,-7254.018232,0.000000
459.352366,-2220.617826,-8364.327145,153.219100
459.352694,-4515.256246,-9474.636058,-459.657299
459.353022,-4959.379811,-9474.636058,-919.314598
459.353349,-5033.400406,-9474.636058,-1532.190996
459.353677,-2368.659014,-8808.450710,-1302.362347
459.354005,296.082377,-7994.224174,-383.047749
459.354332,1924.535449,-7846.182985,766.095498
459.354660,2294.638420,-8512.368333,1149.143247
459.354988,1776.494261,-9400.615463,689.485948
459.355315,888.247130,-9252.574275,459.657299
459.355643,1998.556043,-9474.636058,612.876398
459.355971,3552.988522,-9400.615463,1532.190996
459.356298,4515.256246,-9252.574275,2451.505594
459.356626,4145.153275,-10584.944971,2911.162892
459.356954,2368.659014,-11843.295072,3140.991542
459.357282,814.226536,-11769.274478,2451.505594
459.357609,0.000000,-11177.109724,1608.800546
459.357937,370.102971,-10066.800811,995.924147
459.358265,0.000000,-9548.656652,1838.629195
459.358592,1332.370696,-9178.553681,1455.581446
459.358920,-592.164754,-9770.718434,689.485948
459.359248,-3034.844362,-9030.512492,0.000000
459.359575,-3108.864956,-9030.512492,-383.047749
459.359903,-2664.741391,-7920.203579,-536.266849
459.360231,-2146.597232,-7476.080014,-229.828649
459.360558,-666.185348,-7772.162391,612.876398
459.360886,-2442.679609,-8586.388927,536.266849
459.361214,-4219.173869,-9844.739029,153.219100
459.361541,-5107.421000,-9992.780217,-1455.581446
459.361869,-5551.544565,-9548.656652,-1608.800546
459.362197,-3034.844362,-8808.450710,-1455.581446
459.362524,-592.164754,-7920.203579,0.000000
459.362852,1258.350101,-7920.203579,536.266849
459.363180,2220.617826,-8142.265362,536.266849
459.363507,1406.391290,-8956.491898,536.266849
459.363835,1258.350101,-8808.450710,229.828649
459.364163,2368.659014,-9178.553681,459.657299
459.364490,3923.091493,-9474.636058,1532.190996
459.364818,4885.359217,-9844.739029,3370.820191
459.365146,4367.215058,-10436.903782,4060.306139
459.365473,2960.823768,-11695.253884,4213.525239
459.365801,1406.391290,-11843.295072,3600.648841
459.366129,666.185348,-11399.171507,3064.381992
459.366456,74.020594,-10066.800811,2374.896044
459.366784,1628.453072,-9474.636058,3907.087040
459.367112,2516.700203,-8068.244768,3600.648841
459.367440,0.000000,-8512.368333,2987.772442
459.367767,-740.205942,-8882.471304,2451.505594
459.368095,-2960.823768,-8142.265362,1532.190996
459.368423,-3775.050304,-7994.224174,1532.190996
459.368750,-2960.823768,-6957.935855,1149.143247
459.369078,-1998.556043,-6883.915261,2451.505594
459.369406,-2072.576638,-7328.038826,2757.943793
459.369733,-2368.659014,-8438.347739,2604.724693
459.370061,-5107.421000,-9030.512492,1838.629195
459.370389,-6883.915261,-9474.636058,306.438199
459.370716,-6809.894666,-9252.574275,-153.219100
459.371044,-4515.256246,-7920.203579,0.000000
459.371372,-814.226536,-6883.915261,1225.752797
459.371699,2294.638420,-6661.853478,2604.724693
459.372027,2738.761985,-7402.059420,2681.334243
459.372355,2146.597232,-8808.450710,2757.943793
459.372682,-222.061783,-9400.615463,1838.629195
459.373010,-962.267725,-9918.759623,1149.143247
459.373338,888.247130,-10214.842000,1838.629195
459.373665,3849.070898,-9770.718434,3370.820191
459.373993,6513.812290,-10066.800811,5362.668486
459.374321,7105.977043,-10362.883188,6588.421283
459.374648,5107.421000,-11103.089130,6665.030833
459.374976,2368.659014,-11769.274478,5745.716235
459.375304,-1258.350101,-11843.295072,3140.991542
459.375631,-1998.556043,-11621.233289,3447.429741
459.375959,-518.144159,-10140.821405,2451.505594
459.376287,-740.205942,-8734.430116,3983.696590
459.376615,3404.947333,-8142.265362,4749.792088
459.376942,2442.679609,-7402.059420,5975.544884
459.377270,0.000000,-8068.244768,4903.011187
459.377598,-3108.864956,-8364.327145,2834.553343
459.377925,-6069.688724,-9474.636058,1608.800546
459.378253,-7772.162391,-9696.697840,383.047749
459.378581,-5995.668130,-9178.553681,459.657299
459.378908,-3923.091493,-8068.244768,2451.505594
459.379236,-222.061783,-7402.059420,4060.306139
459.379564,1554.432478,-7402.059420,5822.325785
459.379891,666.185348,-7402.059420,5209.449386
459.380219,-1184.329507,-8364.327145,4749.792088
459.380546,-3182.885551,-9770.718434,2451.505594
459.380874,-5181.441594,-10732.986159,1072.533697
459.381201,-4293.194464,-11029.068536,1532.190996
459.381529,-1702.473667,-9992.780217,2451.505594
459.381857,1332.370696,-9030.512492,3524.039291
459.382184,3701.029710,-8512.368333,4673.182538
459.382512,4293.194464,-8808.450710,5056.230287
459.382839,3404.947333,-9474.636058,4290.134789
459.383167,1776.494261,-10288.862594,3064.381992
459.383494,1036.288319,-10881.027347,2451.505594
459.383822,740.205942,-10362.883188,2451.505594
459.384150,1110.308913,-10140.821405,2987.772442
459.384477,444.123565,-10214.842000,3370.820191
459.384805,814.226536,-10288.862594,4673.182538
459.385132,1554.432478,-9326.594869,4213.525239
459.385460,-740.205942,-8660.409521,3447.429741
459.385787,592.164754,-8290.306550,2451.505594
459.386115,-370.102971,-8068.244768,2221.676944
459.386443,-444.123565,-7846.182985,2068.457845
459.386770,222.061783,-7550.100608,2221.676944
459.387098,518.144159,-7624.121203,3524.039291
459.387425,592.164754,-7698.141797,3983.696590
459.387753,962.267725,-8290.306550,4366.744339
459.388080,0.000000,-8438.347739,3600.648841
459.388408,-1258.350101,-9326.594869,3140.991542
459.388736,-1776.494261,-9400.615463,3217.601092
459.389063,-2368.659014,-9474.636058,2757.943793
459.389391,-2072.576638,-9548.656652,3217.601092
459.389718,-1406.391290,-9474.636058,3370.820191
459.390046,-962.267725,-8808.450710,2987.772442
459.390373,-148.041188,-8882.471304,3140.991542
459.390701,-592.164754,-8512.368333,3370.820191
459.391029,-962.267725,-8660.409521,2681.334243
459.391356,-1184.329507,-8438.347739,3294.210641
459.391684,-1406.391290,-8512.368333,2911.162892
459.392011,-888.247130,-8956.491898,3064.381992
459.392339,-222.061783,-8882.471304,3524.039291
459.392666,1184.329507,-8808.450710,4213.525239
459.392994,1332.370696,-9178.553681,4136.915689
459.393322,740.205942,-9474.636058,4290.134789
459.393649,0.000000,-9992.780217,4060.306139
459.393977,-888.247130,-9992.780217,3294.210641
459.394304,-814.226536,-9178.553681,3907.087040
459.394632,0.000000,-8512.368333,2911.162892
459.394959,0.000000,-9030.512492,2757.943793
459.395287,962.267725,-8586.388927,2681.334243
459.395615,888.247130,-8956.491898,2451.505594
459.395942,74.020594,-9178.553681,2451.505594
459.396270,-444.123565,-9696.697840,2298.286494
459.396597,-1036.288319,-9918.759623,2298.286494
459.396925,-1184.329507,-9918.759623,1991.848295
459.397252,-666.185348,-9696.697840,1838.629195
459.397580,-148.041188,-9326.594869,1915.238745
459.397908,-518.144159,-9178.553681,1838.629195
459.398235,-666.185348,-9548.656652,1838.629195
459.398563,-1184.329507,-9770.718434,1608.800546
459.398890,-1258.350101,-9474.636058,1608.800546
459.399218,-962.267725,-9178.553681,1608.800546
459.399545,-370.102971,-8734.430116,1455.581446
459.399873,0.000000,-8512.368333,1455.581446
459.400201,592.164754,-8586.388927,1608.800546
459.400528,444.123565,-8438.347739,1302.362347
459.400856,370.102971,-9252.574275,1532.190996
459.401183,0.000000,-9548.656652,995.924147
459.401511,0.000000,-9770.718434,1608.800546
459.401838,518.144159,-9992.780217,1762.019645
459.402166,1110.308913,-10140.821405,1838.629195
459.402494,1554.432478,-10066.800811,1915.238745
459.402821,1776.494261,-9400.615463,1608.800546
459.403149,1258.350101,-9548.656652,1838.629195
459.403476,0.000000,-9400.615463,1455.581446
459.403804,0.000000,-9252.574275,1302.362347
459.404131,-592.164754,-9104.533087,842.705048
459.404459,-1110.308913,-8808.450710,1378.971896
459.404787,-962.267725,-8660.409521,842.705048
459.405114,-666.185348,-8956.491898,612.876398
459.405442,-1036.288319,-8956.491898,842.705048
459.405769,-740.205942,-8438.347739,766.095498
459.406097,-962.267725,-8364.327145,766.095498
459.406424,-444.123565,-8290.306550,536.266849
459.406752,-666.185348,-8364.327145,383.047749
459.407080,-740.205942,-8290.306550,229.828649
459.407407,-296.082377,-8438.347739,612.876398
459.407735,-296.082377,-8660.409521,919.314598
459.408062,-592.164754,-8142.265362,766.095498
459.408390,-444.123565,-9030.512492,1302.362347
459.408717,-148.041188,-9252.574275,1072.533697
459.409045,-296.082377,-8956.491898,536.266849
459.409373,0.000000,-8882.471304,766.095498
459.409700,74.020594,-8956.491898,1378.971896
459.410028,370.102971,-9252.574275,842.705048
459.410355,370.102971,-9104.533087,1149.143247
459.410683,370.102971,-9474.636058,1072.533697
459.411010,74.020594,-9548.656652,1225.752797
459.411338,296.082377,-9326.594869,1072.533697
459.411666,222.061783,-9030.512492,766.095498
459.411993,74.020594,-8660.409521,612.876398
459.412321,-296.082377,-8586.388927,383.047749
459.412648,0.000000,-8660.409521,689.485948
459.412976,-370.102971,-8660.409521,766.095498
459.413303,-888.247130,-8512.368333,995.924147
459.413631,-1036.288319,-8808.450710,689.485948
459.413959,-1184.329507,-8808.450710,689.485948
459.414286,-1480.411884,-9030.512492,306.438199
459.414614,-1258.350101,-9030.512492,383.047749
459.414941,-962.267725,-9622.677246,766.095498
459.415269,-666.185348,-9104.533087,459.657299
459.415596,-592.164754,-9178.553681,536.266849
459.415924,-370.102971,-9474.636058,459.657299
459.416252,0.000000,-9474.636058,459.657299
459.416579,0.000000,-9474.636058,153.219100
459.416907,-148.041188,-9622.677246,1072.533697
459.417234,-296.082377,-9918.759623,842.705048
459.417562,-592.164754,-10140.821405,612.876398
459.417889,-296.082377,-10140.821405,689.485948
459.418217,0.000000,-9992.780217,689.485948
459.418544,222.061783,-10066.800811,1455.581446
459.418872,370.102971,-9548.656652,689.485948
459.419200,444.123565,-9326.594869,689.485948
459.419527,592.164754,-9326.594869,306.438199
459.419855,148.041188,-8734.430116,842.705048
459.420182,0.000000,-8956.491898,612.876398
459.420510,0.000000,-9400.615463,842.705048
459.420837,0.000000,-9104.533087,536.266849
459.421165,0.000000,-9400.615463,612.876398
459.421493,222.061783,-9030.512492,306.438199
459.421820,222.061783,-9104.533087,153.219100
459.422148,0.000000,-9178.553681,229.828649
459.422475,-296.082377,-8956.491898,383.047749
459.422803,-814.226536,-8956.491898,459.657299
459.423130,-518.144159,-9104.533087,536.266849
459.423458,-888.247130,-8956.491898,459.657299
459.423786,-666.185348,-9030.512492,689.485948
459.424113,-740.205942,-9326.594869,229.828649
459.424441,-814.226536,-9252.574275,383.047749
459.424768,-740.205942,-9030.512492,459.657299
459.425096,-444.123565,-8512.368333,0.000000
459.425423,-296.082377,-8068.244768,459.657299
459.425751,-444.123565,-8364.327145,612.876398
459.426079,-296.082377,-8808.450710,459.657299
459.426406,-740.205942,-8808.450710,689.485948
459.426734,-888.247130,-8808.450710,842.705048
459.427061,-888.247130,-9178.553681,766.095498
459.427389,-740.205942,-9252.574275,995.924147
459.427716,-888.247130,-8882.471304,766.095498
459.428044,-592.164754,-8586.388927,612.876398
459.428372,-444.123565,-8438.347739,919.314598
459.428699,-370.102971,-8512.368333,689.485948
459.429027,-592.164754,-8512.368333,612.876398
459.429354,-518.144159,-8808.450710,612.876398
459.429682,-666.185348,-8956.491898,536.266849
459.430009,-666.185348,-9252.574275,766.095498
459.430337,-370.102971,-9400.615463,1072.533697
459.430665,-370.102971,-8882.471304,995.924147
459.430992,-370.102971,-9178.553681,536.266849
459.431320,0.000000,-9178.553681,459.657299
459.431647,-444.123565,-9104.533087,383.047749
459.431975,-222.061783,-8882.471304,383.047749
459.432302,-666.185348,-8808.450710,766.095498
459.432630,-518.144159,-9252.574275,459.657299
459.432958,-666.185348,-9326.594869,383.047749
459.433285,-518.144159,-9030.512492,383.047749
459.433613,-296.082377,-9030.512492,459.657299
459.433940,-1036.288319,-8512.368333,383.047749
459.434268,-148.041188,-8956.491898,306.438199
459.434595,0.000000,-8808.450710,306.438199
459.434923,-148.041188,-8882.471304,536.266849
459.435251,-296.082377,-8808.450710,229.828649
459.435578,-148.041188,-8808.450710,229.828649
459.435906,-814.226536,-9400.615463,689.485948
459.436233,-1110.308913,-9252.574275,612.876398
459.436561,-1332.370696,-9400.615463,766.095498
459.436888,-888.247130,-9252.574275,689.485948
459.437216,-666.185348,-9252.574275,536.266849
459.437544,222.061783,-8882.471304,536.266849
459.437871,222.061783,-8882.471304,612.876398
459.438199,296.082377,-8660.409521,536.266849
459.438526,296.082377,-9030.512492,689.485948
459.438854,148.041188,-8956.491898,842.705048
459.439181,-370.102971,-9326.594869,842.705048
459.439509,0.000000,-9770.718434,1072.533697
459.439837,0.000000,-9696.697840,842.705048
459.440164,222.061783,-9622.677246,995.924147
459.440492,518.144159,-9030.512492,919.314598
459.440819,1184.329507,-8364.327145,689.485948
459.441147,888.247130,-8512.368333,383.047749
459.441474,370.102971,-8438.347739,306.438199
459.441802,148.041188,-8734.430116,459.657299
459.442130,74.020594,-9030.512492,459.657299
459.442457,0.000000,-9400.615463,842.705048
459.442785,0.000000,-9400.615463,306.438199
459.443112,74.020594,-9252.574275,689.485948
459.443440,222.061783,-9252.574275,229.828649
459.443767,222.061783,-8882.471304,229.828649
459.444095,148.041188,-8660.409521,612.876398
459.444423,0.000000,-8290.306550,76.609550
459.444750,0.000000,-9252.574275,306.438199
459.445078,0.000000,-9252.574275,229.828649
459.445405,-296.082377,-9326.594869,229.828649
459.445733,0.000000,-9474.636058,459.657299
459.446060,-148.041188,-9474.636058,689.485948
459.446388,-222.061783,-9178.553681,536.266849
459.446716,0.000000,-9178.553681,459.657299
459.447043,74.020594,-8734.430116,0.000000
459.447371,74.020594,-8882.471304,229.828649
459.447698,222.061783,-8956.491898,689.485948
459.448026,74.020594,-9326.594869,383.047749
459.448353,-222.061783,-9326.594869,536.266849
459.448681,-370.102971,-9622.677246,766.095498
459.449009,-148.041188,-9844.739029,919.314598
459.449336,-222.061783,-9474.636058,383.047749
459.449664,148.041188,-9474.636058,229.828649
459.449991,0.000000,-9326.594869,229.828649
459.450319,0.000000,-8882.471304,306.438199
459.450646,-148.041188,-9474.636058,612.876398
459.450974,0.000000,-9474.636058,919.314598
459.451302,-592.164754,-9326.594869,919.314598
459.451629,-888.247130,-9844.739029,842.705048
459.451957,-740.205942,-9770.718434,919.314598
459.452284,-814.226536,-9400.615463,383.047749
459.452612,-370.102971,-9474.636058,689.485948
459.452939,-740.205942,-8956.491898,766.095498
459.453267,-814.226536,-9030.512492,612.876398
459.453595,-666.185348,-9178.553681,536.266849
459.453922,-814.226536,-9326.594869,536.266849
459.454250,-888.247130,-9474.636058,919.314598
459.454577,-814.226536,-9252.574275,1149.143247
459.454905,-814.226536,-9400.615463,919.314598
459.455232,-814.226536,-9104.533087,383.047749
459.455560,-962.267725,-9104.533087,536.266849
459.455888,-814.226536,-8734.430116,383.047749
459.456215,-962.267725,-8512.368333,919.314598
459.456543,-666.185348,-9252.574275,536.266849
459.456870,-518.144159,-9178.553681,919.314598
459.457198,-888.247130,-9252.574275,306.438199
459.457525,-740.205942,-9252.574275,995.924147
459.457853,-296.082377,-8882.471304,1072.533697
459.458181,0.000000,-8364.327145,766.095498
459.458508,-444.123565,-8660.409521,459.657299
459.458836,-370.102971,-8660.409521,612.876398
459.459163,-370.102971,-8586.388927,383.047749
459.459491,-222.061783,-8882.471304,536.266849
459.459818,-592.164754,-8660.409521,995.924147
459.460146,-814.226536,-8882.471304,766.095498
459.460474,-370.102971,-8956.491898,766.095498
459.460801,-444.123565,-8808.450710,536.266849
459.461129,-296.082377,-8586.388927,612.876398
459.461456,370.102971,-8882.471304,536.266849
459.461784,0.000000,-8586.388927,536.266849
459.462111,0.000000,-8512.368333,612.876398
459.462439,-148.041188,-8808.450710,689.485948
459.462767,0.000000,-9104.533087,612.876398
459.463094,0.000000,-9104.533087,1149.143247
459.463422,296.082377,-9474.636058,766.095498
459.463749,74.020594,-9252.574275,383.047749
459.464077,222.061783,-9030.512492,459.657299
459.464404,444.123565,-9104.533087,383.047749
459.464732,370.102971,-9030.512492,612.876398
459.465060,444.123565,-8956.491898,612.876398
459.465387,0.000000,-9030.512492,536.266849
459.465715,0.000000,-9252.574275,536.266849
459.466042,0.000000,-9178.553681,612.876398
459.466370,74.020594,-9104.533087,459.657299
459.466697,592.164754,-9400.615463,0.000000
459.467025,0.000000,-8882.471304,383.047749
459.467353,0.000000,-9178.553681,383.047749
459.467680,0.000000,-9030.512492,459.657299
459.468008,-370.102971,-9104.533087,306.438199
459.468335,0.000000,-9252.574275,0.000000
459.468663,0.000000,-9104.533087,536.266849
459.468990,-370.102971,-9474.636058,383.047749
459.469318,-148.041188,-9622.677246,612.876398
459.469645,0.000000,-9326.594869,306.438199
459.469973,-296.082377,-9104.533087,536.266849
459.470301,0.000000,-9104.533087,536.266849
459.470628,-370.102971,-9326.594869,383.047749
459.470956,-222.061783,-9696.697840,383.047749
459.471283,-296.082377,-9474.636058,689.485948
459.471611,0.000000,-9474.636058,919.314598
459.471938,-74.020594,-9474.636058,536.266849
459.472266,-370.102971,-9400.615463,536.266849
459.472594,-148.041188,-9474.636058,689.485948
459.472921,0.000000,-9252.574275,536.266849
459.473249,0.000000,-9178.553681,536.266849
459.473576,-740.205942,-9104.533087,1149.143247
459.473904,-148.041188,-9400.615463,766.095498
459.474231,-148.041188,-9474.636058,766.095498
459.474559,0.000000,-9326.594869,689.485948
459.474887,-296.082377,-9030.512492,612.876398
459.475214,-148.041188,-8808.450710,842.705048
459.475542,-296.082377,-8882.471304,306.438199
459.475869,-296.082377,-8956.491898,459.657299
459.476197,-370.102971,-8956.491898,459.657299
459.476524,-370.102971,-9104.533087,536.266849
459.476852,-148.041188,-9326.594869,766.095498
459.477180,-222.061783,-9326.594869,306.438199
459.477507,-296.082377,-9326.594869,689.485948
459.477835,-444.123565,-9252.574275,612.876398
459.478162,-444.123565,-9178.553681,689.485948
459.478490,-296.082377,-9030.512492,919.314598
459.478817,-296.082377,-9104.533087,689.485948
459.479145,-370.102971,-9178.553681,459.657299
459.479473,-370.102971,-9326.594869,612.876398
459.479800,-222.061783,-9326.594869,612.876398
459.480128,-222.061783,-9400.615463,919.314598
459.480455,-148.041188,-9030.512492,766.095498
459.480783,0.000000,-9030.512492,766.095498
459.481110,0.000000,-8956.491898,536.266849
459.481438,0.000000,-9030.512492,459.657299
459.481766,0.000000,-9104.533087,612.876398
459.482093,148.041188,-8956.491898,1225.752797
459.482421,0.000000,-8956.491898,689.485948
459.482748,0.000000,-9252.574275,612.876398
459.483076,-296.082377,-9178.553681,536.266849
459.483403,-222.061783,-9326.594869,612.876398
459.483731,0.000000,-8882.471304,612.876398
459.484058,0.000000,-8956.491898,689.485948
459.484386,-518.144159,-8956.491898,383.047749
459.484714,-444.123565,-8882.471304,383.047749
459.485041,-370.102971,-9030.512492,229.828649
459.485369,-518.144159,-8660.409521,536.266849
459.485696,-444.123565,-8956.491898,536.266849
459.486024,-592.164754,-9030.512492,612.876398
459.486351,-740.205942,-9178.553681,612.876398
459.486679,-592.164754,-9252.574275,383.047749
459.487006,-592.164754,-8734.430116,766.095498
459.487334,-296.082377,-8808.450710,766.095498
459.487662,-518.144159,-8956.491898,306.438199
459.487989,-666.185348,-9104.533087,459.657299
459.488317,-592.164754,-8956.491898,536.266849
459.488644,-592.164754,-8808.450710,766.095498
459.488972,-444.123565,-8882.471304,995.924147
459.489299,-370.102971,-9178.553681,383.047749
459.489627,-592.164754,-8882.471304,612.876398
459.489954,-518.144159,-8808.450710,459.657299
459.490282,-444.123565,-8512.368333,306.438199
459.490610,-296.082377,-8512.368333,995.924147
459.490937,-592.164754,-8512.368333,536.266849
459.491265,-740.205942,-9030.512492,536.266849
459.491592,-666.185348,-8882.471304,612.876398
459.491920,-666.185348,-8956.491898,612.876398
459.492247,-592.164754,-8808.450710,306.438199
459.492575,148.041188,-9252.574275,459.657299
459.492902,-592.164754,-8734.430116,459.657299
459.493230,-518.144159,-8586.388927,153.219100
459.493557,-518.144159,-8882.471304,612.876398
459.493885,-592.164754,-8956.491898,612.876398
459.494213,-444.123565,-8956.491898,612.876398
459.494540,-592.164754,-8808.450710,612.876398
459.494868,-296.082377,-8956.491898,459.657299
459.495195,-444.123565,-8956.491898,689.485948
459.495523,-296.082377,-9178.553681,536.266849
459.495850,-592.164754,-8438.347739,842.705048
459.496178,-370.102971,-8734.430116,919.314598
459.496505,0.000000,-8882.471304,536.266849
459.496833,0.000000,-9178.553681,459.657299
459.497161,0.000000,-9326.594869,459.657299
459.497488,-444.123565,-9104.533087,995.924147
459.497816,296.082377,-8956.491898,536.266849
459.498143,-148.041188,-9178.553681,383.047749
459.498471,0.000000,-9030.512492,229.828649
459.498798,0.000000,-9252.574275,383.047749
459.499126,222.061783,-9252.574275,536.266849
459.499453,0.000000,-8660.409521,766.095498
459.499781,0.000000,-9030.512492,459.657299
459.500109,0.000000,-9326.594869,536.266849
459.500436,0.000000,-9474.636058,459.657299
459.500764,0.000000,-9252.574275,536.266849
459.501091,296.082377,-9474.636058,306.438199
459.501419,74.020594,-9178.553681,612.876398
459.501746,74.020594,-9474.636058,536.266849
459.502074,-148.041188,-9400.615463,459.657299
459.502401,0.000000,-9474.636058,459.657299
459.502729,-222.061783,-9474.636058,689.485948
459.503057,0.000000,-9622.677246,459.657299
459.503384,0.000000,-9622.677246,612.876398
459.503712,0.000000,-9548.656652,536.266849
459.504039,0.000000,-9696.697840,306.438199
459.504367,148.041188,-9474.636058,612.876398
459.504694,74.020594,-9474.636058,76.609550
459.505022,0.000000,-9696.697840,536.266849
459.505349,-296.082377,-9474.636058,536.266849
459.505677,0.000000,-9622.677246,459.657299
459.506005,-222.061783,-9770.718434,689.485948
459.506332,222.061783,-9474.636058,766.095498
459.506660,0.000000,-9474.636058,536.266849
459.506987,0.000000,-9400.615463,536.266849
459.507315,0.000000,-9178.553681,689.485948
459.507642,-74.020594,-9252.574275,612.876398
459.507970,-222.061783,-9030.512492,612.876398
459.508297,-370.102971,-9104.533087,383.047749
459.508625,-370.102971,-9178.553681,766.095498
459.508952,-296.082377,-9326.594869,919.314598
459.509280,-518.144159,-9104.533087,612.876398
459.509608,0.000000,-9400.615463,919.314598
459.509935,-296.082377,-8586.388927,612.876398
459.510263,-518.144159,-9030.512492,459.657299
459.510590,-592.164754,-8734.430116,459.657299
459.510918,-444.123565,-8956.491898,612.876398
459.511245,-666.185348,-8808.450710,612.876398
459.511573,-444.123565,-8956.491898,459.657299
459.511900,-814.226536,-9030.512492,536.266849
459.512228,-740.205942,-9030.512492,689.485948
459.512556,-666.185348,-8956.491898,536.266849
459.512883,-592.164754,-8734.430116,459.657299
459.513211,0.000000,-8882.471304,1072.533697
459.513538,-296.082377,-8734.430116,536.266849
459.513866,-666.185348,-8956.491898,536.266849
459.514193,-666.185348,-8660.409521,459.657299
459.514521,-518.144159,-8808.450710,612.876398
459.514848,-518.144159,-8512.368333,766.095498
459.515176,-296.082377,-8586.388927,383.047749
459.515504,-444.123565,-8660.409521,459.657299
459.515831,-296.082377,-8660.409521,612.876398
459.516159,-296.082377,-8660.409521,306.438199
459.516486,-962.267725,-7920.203579,842.705048
459.516814,-296.082377,-8808.450710,689.485948
459.517141,-444.123565,-8882.471304,612.876398
459.517469,-444.123565,-9104.533087,536.266849
459.517796,-592.164754,-8956.491898,612.876398
459.518124,-592.164754,-8438.347739,459.657299
459.518452,-518.144159,-9030.512492,766.095498
459.518779,-444.123565,-9030.512492,459.657299
459.519107,-518.144159,-8882.471304,459.657299
459.519434,-444.123565,-8956.491898,536.266849
459.519762,-740.205942,-8808.450710,383.047749
459.520089,-444.123565,-8660.409521,536.266849
459.520417,-518.144159,-9030.512492,612.876398
459.520744,-592.164754,-9104.533087,612.876398
459.521072,-666.185348,-9104.533087,689.485948
459.521400,-740.205942,-9104.533087,306.438199
459.521727,-592.164754,-8660.409521,536.266849
459.522055,-296.082377,-9252.574275,689.485948
459.522382,-296.082377,-9252.574275,842.705048
459.522710,-222.061783,-9178.553681,612.876398
459.523037,-222.061783,-9326.594869,459.657299
459.523365,-148.041188,-9252.574275,766.095498
459.523692,-222.061783,-9252.574275,459.657299
459.524020,0.000000,-9326.594869,383.047749
459.524348,148.041188,-9252.574275,612.876398
459.524675,74.020594,-9326.594869,459.657299
459.525003,0.000000,-9326.594869,612.876398
459.525330,370.102971,-9474.636058,76.609550
459.525658,148.041188,-9326.594869,689.485948
459.525985,148.041188,-9548.656652,766.095498
459.526313,74.020594,-9474.636058,383.047749
459.526640,148.041188,-9400.615463,459.657299
459.526968,740.205942,-9474.636058,689.485948
459.527295,0.000000,-9178.553681,689.485948
459.527623,0.000000,-9400.615463,536.266849
459.527951,0.000000,-9178.553681,459.657299
459.528278,0.000000,-9400.615463,459.657299
459.528606,74.020594,-8956.491898,612.876398
459.528933,-518.144159,-9030.512492,306.438199
459.529261,-222.061783,-9326.594869,536.266849
459.529588,0.000000,-9326.594869,612.876398
459.529916,0.000000,-9326.594869,383.047749
459.530243,0.000000,-8734.430116,689.485948
459.530571,0.000000,-9326.594869,536.266849
459.530899,-296.082377,-9400.615463,536.266849
459.531226,-148.041188,-9400.615463,612.876398
459.531554,0.000000,-9326.594869,612.876398
459.531881,0.000000,-9104.533087,459.657299
459.532209,0.000000,-9104.533087,459.657299
459.532536,0.000000,-9252.574275,612.876398
459.532864,0.000000,-9252.574275,536.266849
459.533191,0.000000,-9178.553681,612.876398
459.533519,-296.082377,-9030.512492,842.705048
459.533847,-222.061783,-8956.491898,459.657299
459.534174,-222.061783,-9252.574275,612.876398
459.534502,-296.082377,-9104.533087,766.095498
459.534829,-222.061783,-9400.615463,842.705048
459.535157,-222.061783,-9326.594869,766.095498
459.535484,-370.102971,-8734.430116,689.485948
459.535812,-222.061783,-8734.430116,153.219100
459.536139,-222.061783,-9030.512492,459.657299
459.536467,-370.102971,-9178.553681,536.266849
459.536795,-296.082377,-9400.615463,689.485948
459.537122,-444.123565,-9326.594869,1149.143247
459.537450,-444.123565,-8882.471304,306.438199
459.537777,-518.144159,-9030.512492,536.266849
459.538105,-444.123565,-9400.615463,612.876398
459.538432,-444.123565,-9252.574275,459.657299
459.538760,-444.123565,-9030.512492,383.047749
459.539087,-444.123565,-9252.574275,229.828649
459.539415,-444.123565,-8956.491898,766.095498
459.539743,-296.082377,-9104.533087,459.657299
459.540070,-370.102971,-9104.533087,383.047749
459.540398,-296.082377,-9104.533087,383.047749
459.540725,0.000000,-9030.512492,536.266849
459.541053,-296.082377,-9030.512492,383.047749
459.541380,-148.041188,-9178.553681,383.047749
459.541708,-296.082377,-8808.450710,459.657299
459.542035,-370.102971,-8956.491898,459.657299
459.542363,-370.102971,-8660.409521,1072.533697
459.542690,-444.123565,-8956.491898,536.266849
459.543018,-518.144159,-9104.533087,306.438199
459.543346,-370.102971,-8882.471304,766.095498
459.543673,-444.123565,-8660.409521,536.266849
459.544001,-814.226536,-8882.471304,995.924147
459.544328,-444.123565,-8956.491898,995.924147
