#time,accel_x,accel_y,accel_z
365.384747,0.000000,-9104.533087,689.485948
365.385075,-444.123565,-8882.471304,766.095498
365.385402,-222.061783,-9252.574275,689.485948
365.385730,-444.123565,-9178.553681,689.485948
365.386057,0.000000,-8586.388927,383.047749
365.386385,0.000000,-9326.594869,612.876398
365.386712,-296.082377,-8956.491898,842.705048
365.387040,0.000000,-9178.553681,383.047749
365.387367,-444.123565,-9178.553681,689.485948
365.387695,-444.123565,-9252.574275,536.266849
365.388022,-370.102971,-8882.471304,536.266849
365.388350,-148.041188,-9104.533087,536.266849
365.388677,-370.102971,-8956.491898,612.876398
365.389005,-222.061783,-9252.574275,536.266849
365.389332,-370.102971,-8956.491898,459.657299
365.389660,0.000000,-8956.491898,383.047749
365.389987,0.000000,-9178.553681,229.828649
365.390315,0.000000,-9326.594869,459.657299
365.390642,-296.082377,-9178.553681,689.485948
365.390970,0.000000,-9030.512492,536.266849
365.391297,-222.061783,-8586.388927,919.314598
365.391625,-148.041188,-9104.533087,229.828649
365.391952,-370.102971,-9252.574275,383.047749
365.392280,-148.041188,-9400.615463,306.438199
365.392607,0.000000,-9030.512492,459.657299
365.392935,-148.041188,-9104.533087,459.657299
365.393263,0.000000,-9104.533087,536.266849
365.393590,0.000000,-9252.574275,459.657299
365.393918,-296.082377,-8956.491898,306.438199
365.394245,-296.082377,-8956.491898,536.266849
365.394573,-814.226536,-9104.533087,0.000000
365.394900,-740.205942,-9548.656652,0.000000
365.395228,-1332.370696,-9326.594869,-383.047749
365.395555,-1332.370696,-9252.574275,-536.266849
365.395883,-888.247130,-9178.553681,-306.438199
365.396210,-592.164754,-9030.512492,-383.047749
365.396538,-592.164754,-8882.471304,-689.485948
365.396865,-888.247130,-8956.491898,-689.485948
365.397193,-962.267725,-8882.471304,-1072.533697
365.397520,-1036.288319,-9104.533087,-1302.362347
365.397848,-962.267725,-9326.594869,-1378.971896
365.398175,-1036.288319,-9326.594869,-1378.971896
365.398503,-592.164754,-9326.594869,-536.266849
365.398830,-74.020594,-9178.553681,-1072.533697
365.399158,-148.041188,-9252.574275,-1455.581446
365.399485,0.000000,-9548.656652,-1455.581446
365.399813,0.000000,-9474.636058,-1378.971896
365.400140,370.102971,-9178.553681,-1608.800546
365.400468,74.020594,-9252.574275,-1762.019645
365.400795,148.041188,-9400.615463,-1685.410096
365.401123,148.041188,-9252.574275,-1838.629195
365.401450,370.102971,-9400.615463,-1838.629195
365.401778,888.247130,-8956.491898,-2068.457845
365.402105,592.164754,-9326.594869,-1685.410096
365.402433,370.102971,-9474.636058,-1838.629195
365.402761,0.000000,-9178.553681,-1838.629195
365.403088,0.000000,-9252.574275,-1762.019645
365.403416,370.102971,-8808.450710,-1685.410096
365.403743,0.000000,-9030.512492,-1915.238745
365.404071,-222.061783,-9252.574275,-1685.410096
365.404398,-518.144159,-9252.574275,-1915.238745
365.404726,-592.164754,-8956.491898,-1915.238745
365.405053,-814.226536,-9030.512492,-2068.457845
365.405381,-1184.329507,-8882.471304,-1991.848295
365.405708,-1332.370696,-9030.512492,-2451.505594
365.406036,-1628.453072,-9178.553681,-2451.505594
365.406363,-2072.576638,-8956.491898,-2911.162892
365.406691,-2072.576638,-9030.512492,-3064.381992
365.407018,-2072.576638,-9252.574275,-3447.429741
365.407346,-2072.576638,-9178.553681,-3524.039291
365.407673,-1924.535449,-9104.533087,-3983.696590
365.408001,-1776.494261,-8956.491898,-3983.696590
365.408328,-1110.308913,-8956.491898,-3753.867940
365.408656,-518.144159,-8734.430116,-4213.525239
365.408983,0.000000,-8512.368333,-2987.772442
365.409311,518.144159,-8956.491898,-2681.334243
365.409638,1110.308913,-8956.491898,-2451.505594
365.409966,1406.391290,-8882.471304,-2068.457845
365.410293,2516.700203,-9252.574275,-1915.238745
365.410621,2812.782580,-8956.491898,-1149.143247
365.410948,2664.741391,-9252.574275,-842.705048
365.411276,2442.679609,-9622.677246,-612.876398
365.411603,1998.556043,-10066.800811,-842.705048
365.411931,1110.308913,-9844.739029,-689.485948
365.412259,-296.082377,-9548.656652,-1838.629195
365.412586,-1258.350101,-10362.883188,-2145.067394
365.412914,-1850.514855,-9918.759623,-2757.943793
365.413241,-2368.659014,-9622.677246,-3064.381992
365.413569,-1776.494261,-8808.450710,-3217.601092
365.413896,-740.205942,-8216.285956,-3064.381992
365.414224,296.082377,-7402.059420,-2604.724693
365.414551,1480.411884,-7105.977043,-1532.190996
365.414879,1924.535449,-7328.038826,-766.095498
365.415206,1554.432478,-7772.162391,0.000000
365.415534,888.247130,-7920.203579,536.266849
365.415861,-444.123565,-9548.656652,612.876398
365.416189,-1554.432478,-10140.821405,766.095498
365.416516,-2294.638420,-10510.924376,766.095498
365.416844,-2368.659014,-10510.924376,229.828649
365.417171,-2294.638420,-9548.656652,459.657299
365.417499,-888.247130,-9252.574275,0.000000
365.417826,148.041188,-8808.450710,76.609550
365.418154,1258.350101,-7772.162391,0.000000
365.418481,2368.659014,-7476.080014,306.438199
365.418809,2664.741391,-7254.018232,459.657299
365.419136,2220.617826,-8142.265362,1072.533697
365.419464,1406.391290,-8808.450710,1378.971896
365.419791,0.000000,-9992.780217,1685.410096
365.420119,-1702.473667,-10732.986159,1762.019645
365.420446,-3478.967927,-11621.233289,1608.800546
365.420774,-4737.318029,-10807.006753,1302.362347
365.421102,-4145.153275,-10955.047942,1072.533697
365.421429,-3775.050304,-9622.677246,459.657299
365.421757,-2146.597232,-8586.388927,766.095498
365.422084,-740.205942,-7624.121203,919.314598
365.422412,148.041188,-6735.874072,689.485948
365.422739,962.267725,-6291.750507,306.438199
365.423067,1258.350101,-6439.791695,766.095498
365.423394,962.267725,-6957.935855,612.876398
365.423722,296.082377,-8364.327145,689.485948
365.424049,-666.185348,-9252.574275,1149.143247
365.424377,-1480.411884,-10288.862594,459.657299
365.424704,-2072.576638,-10881.027347,842.705048
365.425032,-2146.597232,-11325.150913,536.266849
365.425359,-1406.391290,-10955.047942,229.828649
365.425687,-444.123565,-10214.842000,612.876398
365.426014,370.102971,-9104.533087,766.095498
365.426342,1110.308913,-8734.430116,153.219100
365.426669,1924.535449,-8068.244768,229.828649
365.426997,2072.576638,-7994.224174,383.047749
365.427324,2220.617826,-8216.285956,536.266849
365.427652,1480.411884,-9178.553681,536.266849
365.427979,0.000000,-9548.656652,0.000000
365.428307,-1332.370696,-10140.821405,-153.219100
365.428634,-1702.473667,-10140.821405,0.000000
365.428962,-1406.391290,-9770.718434,-612.876398
365.429289,-296.082377,-9178.553681,-842.705048
365.429617,444.123565,-8216.285956,76.609550
365.429944,1776.494261,-7846.182985,306.438199
365.430272,2294.638420,-7254.018232,1149.143247
365.430600,2516.700203,-7105.977043,1072.533697
365.430927,2072.576638,-7476.080014,1455.581446
365.431255,666.185348,-7772.162391,995.924147
365.431582,-148.041188,-9030.512492,612.876398
365.431910,-1332.370696,-9548.656652,383.047749
365.432237,-1924.535449,-9992.780217,229.828649
365.432565,-1258.350101,-10288.862594,766.095498
365.432892,-592.164754,-10066.800811,842.705048
365.433220,-370.102971,-9548.656652,536.266849
365.433547,0.000000,-9400.615463,612.876398
365.433875,-518.144159,-8882.471304,383.047749
365.434202,-296.082377,-8438.347739,459.657299
365.434530,74.020594,-7920.203579,766.095498
365.434857,-296.082377,-8142.265362,612.876398
365.435185,-740.205942,-8364.327145,1072.533697
365.435512,-2072.576638,-8660.409521,689.485948
365.435840,-2664.741391,-9030.512492,229.828649
365.436167,-3108.864956,-8660.409521,229.828649
365.436495,-3034.844362,-9030.512492,-229.828649
365.436822,-2442.679609,-8882.471304,-306.438199
365.437150,-1184.329507,-8586.388927,0.000000
365.437477,0.000000,-8068.244768,306.438199
365.437805,1554.432478,-7846.182985,1302.362347
365.438132,1998.556043,-7846.182985,1225.752797
365.438460,2072.576638,-8512.368333,1378.971896
365.438787,1776.494261,-9474.636058,1532.190996
365.439115,370.102971,-10140.821405,1302.362347
365.439443,-666.185348,-10807.006753,1149.143247
365.439770,-1332.370696,-11177.109724,459.657299
365.440098,-1554.432478,-10955.047942,306.438199
365.440425,-1036.288319,-10732.986159,153.219100
365.440753,-148.041188,-9844.739029,229.828649
365.441080,222.061783,-9326.594869,76.609550
365.441408,740.205942,-8956.491898,-306.438199
365.441735,444.123565,-8216.285956,153.219100
365.442063,888.247130,-8364.327145,383.047749
365.442390,666.185348,-7920.203579,306.438199
365.442718,296.082377,-8734.430116,459.657299
365.443045,-222.061783,-9252.574275,995.924147
365.443373,-1628.453072,-9548.656652,689.485948
365.443700,-2442.679609,-9844.739029,0.000000
365.444028,-2368.659014,-10140.821405,0.000000
365.444355,-1924.535449,-9474.636058,-383.047749
365.444683,-1110.308913,-9252.574275,0.000000
365.445010,370.102971,-8808.450710,76.609550
365.445338,1258.350101,-8142.265362,306.438199
365.445665,2146.597232,-8290.306550,919.314598
365.445993,2442.679609,-8216.285956,1455.581446
365.446321,2220.617826,-8808.450710,1455.581446
365.446648,888.247130,-9178.553681,919.314598
365.446976,-148.041188,-10362.883188,1149.143247
365.447303,-1184.329507,-10732.986159,842.705048
365.447631,-1998.556043,-10807.006753,919.314598
365.447958,-1554.432478,-10436.903782,842.705048
365.448286,-740.205942,-9696.697840,1072.533697
365.448613,-444.123565,-9326.594869,689.485948
365.448941,222.061783,-8586.388927,689.485948
365.449268,74.020594,-8216.285956,766.095498
365.449596,0.000000,-7624.121203,995.924147
365.449923,-296.082377,-7402.059420,995.924147
365.450251,-222.061783,-7920.203579,1455.581446
365.450578,-814.226536,-8290.306550,995.924147
365.450906,-1776.494261,-8512.368333,689.485948
365.451234,-2516.700203,-9030.512492,229.828649
365.451561,-2664.741391,-9252.574275,383.047749
365.451889,-1776.494261,-9326.594869,536.266849
365.452216,-1554.432478,-8956.491898,0.000000
365.452544,-148.041188,-8956.491898,153.219100
365.452871,740.205942,-8808.450710,536.266849
365.453199,962.267725,-8512.368333,766.095498
365.453526,1184.329507,-8438.347739,1685.410096
365.453854,1702.473667,-8882.471304,1455.581446
365.454181,1110.308913,-9104.533087,1302.362347
365.454509,370.102971,-9622.677246,1149.143247
365.454836,-666.185348,-10214.842000,919.314598
365.455164,-1480.411884,-10436.903782,306.438199
365.455492,-1184.329507,-10214.842000,76.609550
365.455819,-1628.453072,-9992.780217,0.000000
365.456147,-888.247130,-9326.594869,-536.266849
365.456474,-370.102971,-9178.553681,-306.438199
365.456802,296.082377,-7698.141797,-306.438199
365.457129,814.226536,-7772.162391,0.000000
365.457457,1258.350101,-7698.141797,0.000000
365.457784,1258.350101,-7698.141797,153.219100
365.458112,592.164754,-8216.285956,306.438199
365.458439,-148.041188,-9252.574275,383.047749
365.458767,-1332.370696,-9696.697840,-153.219100
365.459094,-2294.638420,-10066.800811,-536.266849
365.459422,-2294.638420,-10066.800811,-536.266849
365.459749,-1406.391290,-9992.780217,-689.485948
365.460077,-148.041188,-9400.615463,-306.438199
365.460405,1480.411884,-8734.430116,383.047749
365.460732,1776.494261,-8364.327145,689.485948
365.461060,2368.659014,-8364.327145,842.705048
365.461387,2368.659014,-8438.347739,995.924147
365.461715,1776.494261,-9030.512492,919.314598
365.462042,1184.329507,-9770.718434,1455.581446
365.462370,-296.082377,-10140.821405,536.266849
365.462697,-1036.288319,-10362.883188,536.266849
365.463025,-1406.391290,-10436.903782,1072.533697
365.463352,-1110.308913,-10066.800811,919.314598
365.463680,-1258.350101,-9548.656652,842.705048
365.464007,0.000000,-8882.471304,1072.533697
365.464335,0.000000,-8660.409521,766.095498
365.464662,-296.082377,-8290.306550,919.314598
365.464990,-222.061783,-8068.244768,995.924147
365.465318,-444.123565,-7994.224174,1149.143247
365.465645,0.000000,-8216.285956,1762.019645
365.465973,-888.247130,-8660.409521,1072.533697
365.466300,-1998.556043,-9030.512492,1072.533697
365.466628,-2812.782580,-9474.636058,689.485948
365.466955,-3034.844362,-9400.615463,383.047749
365.467283,-2442.679609,-9104.533087,153.219100
365.467610,-1406.391290,-9178.553681,306.438199
365.467938,-666.185348,-9104.533087,766.095498
365.468265,-148.041188,-8586.388927,995.924147
365.468593,296.082377,-8438.347739,1225.752797
365.468920,814.226536,-7994.224174,1762.019645
365.469248,592.164754,-8142.265362,1762.019645
365.469575,370.102971,-8808.450710,1762.019645
365.469903,0.000000,-9400.615463,1225.752797
365.470231,-1036.288319,-9696.697840,1072.533697
365.470558,-1332.370696,-9844.739029,995.924147
365.470886,-1184.329507,-10140.821405,383.047749
365.471213,-1110.308913,-9696.697840,76.609550
365.471541,-1036.288319,-9474.636058,76.609550
365.471868,0.000000,-9030.512492,0.000000
365.472196,148.041188,-8660.409521,153.219100
365.472523,740.205942,-8142.265362,0.000000
365.472851,1184.329507,-8290.306550,536.266849
365.473178,962.267725,-8438.347739,383.047749
365.473506,444.123565,-9104.533087,459.657299
365.473833,-296.082377,-9474.636058,0.000000
365.474161,-1776.494261,-9918.759623,0.000000
365.474489,-2146.597232,-9992.780217,-689.485948
365.474816,-2072.576638,-9992.780217,-766.095498
365.475144,-1406.391290,-9326.594869,-842.705048
365.475471,0.000000,-9104.533087,-459.657299
365.475799,1258.350101,-8290.306550,459.657299
365.476126,2220.617826,-8216.285956,919.314598
365.476454,2442.679609,-8068.244768,919.314598
365.476781,2516.700203,-8438.347739,842.705048
365.477109,2072.576638,-8956.491898,1072.533697
365.477436,1110.308913,-9622.677246,995.924147
365.477764,0.000000,-9474.636058,919.314598
365.478091,-666.185348,-10214.842000,1072.533697
365.478419,-888.247130,-10510.924376,766.095498
365.478746,-1258.350101,-10214.842000,689.485948
365.479074,-518.144159,-9918.759623,919.314598
365.479402,0.000000,-9474.636058,1072.533697
365.479729,-296.082377,-9104.533087,612.876398
365.480057,-222.061783,-8660.409521,689.485948
365.480384,74.020594,-7994.224174,766.095498
365.480712,0.000000,-8216.285956,919.314598
365.481039,0.000000,-8142.265362,1225.752797
365.481367,-666.185348,-8216.285956,919.314598
365.481694,-2146.597232,-9030.512492,995.924147
365.482022,-2812.782580,-9474.636058,536.266849
365.482349,-3034.844362,-9474.636058,383.047749
365.482677,-2664.741391,-9104.533087,383.047749
365.483004,-1480.411884,-8808.450710,536.266849
365.483332,-962.267725,-8734.430116,842.705048
365.483659,-222.061783,-8364.327145,766.095498
365.483987,296.082377,-8438.347739,1225.752797
365.484315,888.247130,-8364.327145,1532.190996
365.484642,1406.391290,-7920.203579,1915.238745
365.484970,888.247130,-8586.388927,1455.581446
365.485297,444.123565,-9400.615463,1225.752797
365.485625,-592.164754,-9770.718434,1072.533697
365.485952,-1036.288319,-10214.842000,842.705048
365.486280,-962.267725,-9622.677246,842.705048
365.486607,-1110.308913,-9622.677246,76.609550
365.486935,-814.226536,-9696.697840,0.000000
365.487262,0.000000,-9326.594869,153.219100
365.487590,222.061783,-8808.450710,229.828649
365.487917,370.102971,-8586.388927,0.000000
365.488245,592.164754,-7772.162391,459.657299
365.488572,814.226536,-8364.327145,306.438199
365.488900,148.041188,-8660.409521,0.000000
365.489228,-222.061783,-9252.574275,153.219100
365.489555,-1554.432478,-9400.615463,-153.219100
365.489883,-1480.411884,-9400.615463,-383.047749
365.490210,-1776.494261,-9548.656652,-612.876398
365.490538,-1184.329507,-9178.553681,-919.314598
365.490865,0.000000,-8734.430116,-306.438199
365.491193,888.247130,-8586.388927,459.657299
365.491520,1924.535449,-8660.409521,306.438199
365.491848,2146.597232,-8290.306550,612.876398
365.492175,2220.617826,-8512.368333,766.095498
365.492503,1998.556043,-9030.512492,1072.533697
365.492830,1110.308913,-9548.656652,919.314598
365.493158,222.061783,-9918.759623,1225.752797
365.493485,-444.123565,-9918.759623,1072.533697
365.493813,-962.267725,-10584.944971,459.657299
365.494141,-1258.350101,-10066.800811,536.266849
365.494468,-518.144159,-9918.759623,459.657299
365.494796,0.000000,-9104.533087,229.828649
365.495123,370.102971,-8586.388927,536.266849
365.495451,222.061783,-8364.327145,306.438199
365.495778,444.123565,-7920.203579,689.485948
365.496106,222.061783,-8068.244768,842.705048
365.496433,-148.041188,-7920.203579,1149.143247
365.496761,-962.267725,-8734.430116,1378.971896
365.497088,-2146.597232,-9178.553681,612.876398
365.497416,-2664.741391,-9474.636058,612.876398
365.497743,-3034.844362,-9474.636058,229.828649
365.498071,-2368.659014,-9326.594869,153.219100
365.498399,-1776.494261,-8660.409521,536.266849
365.498726,-666.185348,-8734.430116,1072.533697
365.499054,0.000000,-8586.388927,919.314598
365.499381,222.061783,-8364.327145,842.705048
365.499709,592.164754,-8216.285956,1149.143247
365.500036,962.267725,-8068.244768,1838.629195
365.500364,666.185348,-9030.512492,1149.143247
365.500691,296.082377,-9474.636058,1302.362347
365.501019,-444.123565,-10140.821405,1149.143247
365.501346,-1184.329507,-10362.883188,919.314598
365.501674,-1184.329507,-10140.821405,1302.362347
365.502001,-1036.288319,-9770.718434,306.438199
365.502329,-888.247130,-9474.636058,536.266849
365.502656,-518.144159,-9178.553681,612.876398
365.502984,0.000000,-8734.430116,459.657299
365.503312,666.185348,-7920.203579,612.876398
365.503639,814.226536,-8068.244768,459.657299
365.503967,740.205942,-7920.203579,995.924147
365.504294,296.082377,-8438.347739,766.095498
365.504622,-518.144159,-9104.533087,383.047749
365.504949,-1480.411884,-9548.656652,0.000000
365.505277,-2220.617826,-9548.656652,-536.266849
365.505604,-2294.638420,-9696.697840,-383.047749
365.505932,-1628.453072,-9474.636058,-536.266849
365.506259,-592.164754,-9178.553681,-306.438199
365.506587,444.123565,-8882.471304,0.000000
365.506914,1036.288319,-8068.244768,536.266849
365.507242,1924.535449,-8660.409521,919.314598
365.507569,1702.473667,-8808.450710,995.924147
365.507897,1406.391290,-8956.491898,919.314598
365.508225,1036.288319,-9622.677246,919.314598
365.508552,0.000000,-9844.739029,1455.581446
365.508880,-814.226536,-9992.780217,536.266849
365.509207,-1332.370696,-10214.842000,536.266849
365.509535,-1036.288319,-10214.842000,383.047749
365.509862,-444.123565,-9622.677246,383.047749
365.510190,-296.082377,-9400.615463,766.095498
365.510517,666.185348,-8216.285956,0.000000
365.510845,444.123565,-8364.327145,229.828649
365.511172,888.247130,-8068.244768,536.266849
365.511500,1036.288319,-8142.265362,612.876398
365.511827,370.102971,-8586.388927,689.485948
365.512155,-74.020594,-8660.409521,689.485948
365.512482,-1258.350101,-9474.636058,153.219100
365.512810,-2146.597232,-9548.656652,153.219100
365.513138,-2442.679609,-9474.636058,0.000000
365.513465,-1628.453072,-9844.739029,0.000000
365.513793,-962.267725,-9326.594869,229.828649
365.514120,-296.082377,-8882.471304,536.266849
365.514448,444.123565,-8438.347739,689.485948
365.514775,592.164754,-8142.265362,842.705048
365.515103,740.205942,-8216.285956,842.705048
365.515430,1110.308913,-8586.388927,766.095498
365.515758,962.267725,-8512.368333,1149.143247
365.516085,296.082377,-9252.574275,689.485948
365.516413,-1184.329507,-9696.697840,612.876398
365.516740,-1110.308913,-10436.903782,842.705048
365.517068,-1702.473667,-9548.656652,459.657299
365.517396,-1628.453072,-9474.636058,459.657299
365.517723,-1184.329507,-9844.739029,0.000000
365.518051,-666.185348,-9326.594869,306.438199
365.518378,-444.123565,-8068.244768,383.047749
365.518706,148.041188,-8142.265362,383.047749
365.519033,962.267725,-7920.203579,1149.143247
365.519361,740.205942,-7772.162391,689.485948
365.519688,518.144159,-8734.430116,459.657299
365.520016,-444.123565,-8882.471304,459.657299
365.520343,-1776.494261,-9918.759623,383.047749
365.520671,-1850.514855,-9992.780217,0.000000
365.520998,-2294.638420,-10140.821405,-383.047749
365.521326,-1406.391290,-9844.739029,76.609550
365.521653,-444.123565,-9030.512492,153.219100
365.521981,1036.288319,-9104.533087,612.876398
365.522309,1554.432478,-7994.224174,1685.410096
365.522636,2368.659014,-8290.306550,1072.533697
365.522964,2072.576638,-8438.347739,1378.971896
365.523291,1554.432478,-8956.491898,1302.362347
365.523619,592.164754,-9474.636058,1072.533697
365.523946,0.000000,-9696.697840,1225.752797
365.524274,-888.247130,-10140.821405,919.314598
365.524601,-1480.411884,-10510.924376,995.924147
365.524929,-1554.432478,-10140.821405,612.876398
365.525256,-1258.350101,-9992.780217,536.266849
365.525584,-740.205942,-9400.615463,306.438199
365.525911,-148.041188,-8512.368333,689.485948
365.526239,0.000000,-8734.430116,459.657299
365.526566,148.041188,-8290.306550,383.047749
365.526894,222.061783,-8290.306550,612.876398
365.527222,148.041188,-8290.306550,536.266849
365.527549,-296.082377,-8660.409521,766.095498
365.527877,-1480.411884,-9252.574275,383.047749
365.528204,-2220.617826,-9400.615463,0.000000
365.528532,-2368.659014,-9548.656652,229.828649
365.528859,-1850.514855,-9474.636058,0.000000
365.529187,-814.226536,-9474.636058,0.000000
365.529514,0.000000,-8882.471304,689.485948
365.529842,592.164754,-8734.430116,612.876398
365.530169,1036.288319,-8438.347739,919.314598
365.530497,1258.350101,-8438.347739,995.924147
365.530824,1258.350101,-8660.409521,1302.362347
365.531152,1258.350101,-9030.512492,1455.581446
365.531479,518.144159,-9474.636058,1072.533697
365.531807,-592.164754,-10066.800811,842.705048
365.532135,-1184.329507,-10066.800811,536.266849
365.532462,-1406.391290,-10140.821405,76.609550
365.532790,-1554.432478,-9474.636058,153.219100
365.533117,-814.226536,-9622.677246,0.000000
365.533445,-444.123565,-8956.491898,0.000000
365.533772,0.000000,-8364.327145,76.609550
365.534100,444.123565,-7994.224174,229.828649
365.534427,518.144159,-7254.018232,612.876398
365.534755,666.185348,-7698.141797,459.657299
365.535082,370.102971,-8364.327145,383.047749
365.535410,-666.185348,-9104.533087,229.828649
365.535737,-1628.453072,-9844.739029,76.609550
365.536065,-2368.659014,-9770.718434,0.000000
365.536392,-2146.597232,-9918.759623,0.000000
365.536720,-1184.329507,-9474.636058,0.000000
365.537048,-666.185348,-9178.553681,-229.828649
365.537375,740.205942,-8882.471304,229.828649
365.537703,1628.453072,-8586.388927,459.657299
365.538030,1702.473667,-8438.347739,919.314598
365.538358,1850.514855,-8734.430116,766.095498
365.538685,1628.453072,-9178.553681,919.314598
365.539013,1110.308913,-9548.656652,919.314598
365.539340,148.041188,-9918.759623,1072.533697
365.539668,-1036.288319,-10288.862594,689.485948
365.539995,-1702.473667,-10584.944971,766.095498
365.540323,-1406.391290,-10584.944971,459.657299
365.540650,-1480.411884,-9844.739029,536.266849
365.540978,-962.267725,-9252.574275,229.828649
365.541306,0.000000,-8438.347739,919.314598
365.541632,370.102971,-8068.244768,383.047749
365.541960,740.205942,-7994.224174,766.095498
365.542288,888.247130,-7698.141797,919.314598
365.542615,370.102971,-8290.306550,995.924147
365.542943,-444.123565,-8882.471304,612.876398
365.543270,-1406.391290,-9252.574275,153.219100
365.543598,-2664.741391,-9622.677246,229.828649
365.543925,-2590.720797,-9696.697840,306.438199
365.544253,-2072.576638,-9844.739029,459.657299
365.544581,-1110.308913,-9178.553681,536.266849
365.544908,-296.082377,-8882.471304,1149.143247
365.545236,888.247130,-8512.368333,1225.752797
365.545563,814.226536,-8364.327145,1225.752797
365.545891,1110.308913,-8438.347739,1532.190996
365.546218,1184.329507,-8734.430116,1532.190996
365.546546,592.164754,-9030.512492,1685.410096
365.546873,0.000000,-9252.574275,1608.800546
365.547201,-888.247130,-9696.697840,1225.752797
365.547529,-1702.473667,-9844.739029,842.705048
365.547856,-1998.556043,-9696.697840,612.876398
365.548184,-1184.329507,-9252.574275,536.266849
365.548511,-518.144159,-9104.533087,689.485948
365.548839,-296.082377,-8882.471304,689.485948
365.549166,-296.082377,-8364.327145,612.876398
365.549494,0.000000,-7994.224174,689.485948
365.549822,222.061783,-7846.182985,1072.533697
365.550149,148.041188,-7920.203579,1378.971896
365.550477,-444.123565,-8438.347739,842.705048
365.550804,-888.247130,-9178.553681,306.438199
365.551132,-1628.453072,-9474.636058,229.828649
365.551459,-2368.659014,-9844.739029,-229.828649
365.551787,-2368.659014,-8956.491898,-536.266849
365.552115,-1554.432478,-9400.615463,-153.219100
365.552442,-518.144159,-8808.450710,-306.438199
365.552770,518.144159,-8438.347739,0.000000
365.553097,1628.453072,-8364.327145,153.219100
365.553425,1776.494261,-8290.306550,689.485948
365.553752,2442.679609,-8586.388927,1072.533697
365.554080,1850.514855,-9030.512492,995.924147
365.554407,1184.329507,-9474.636058,766.095498
365.554735,0.000000,-10066.800811,689.485948
365.555063,-444.123565,-10214.842000,383.047749
365.555390,-1554.432478,-10362.883188,229.828649
365.555718,-1184.329507,-10362.883188,0.000000
365.556045,-740.205942,-9844.739029,0.000000
365.556373,-148.041188,-9104.533087,-76.609550
365.556700,444.123565,-9104.533087,0.000000
365.557028,962.267725,-8068.244768,153.219100
365.557356,1110.308913,-7920.203579,153.219100
365.557683,1036.288319,-8068.244768,536.266849
365.558011,666.185348,-8512.368333,689.485948
365.558338,-222.061783,-9178.553681,612.876398
365.558666,-1480.411884,-9474.636058,383.047749
365.558993,-2146.597232,-10066.800811,383.047749
365.559321,-2294.638420,-10066.800811,76.609550
365.559649,-2072.576638,-9696.697840,229.828649
365.559976,-1036.288319,-9622.677246,306.438199
365.560304,-74.020594,-8956.491898,459.657299
365.560631,222.061783,-8956.491898,919.314598
365.560959,740.205942,-8290.306550,995.924147
365.561286,740.205942,-8068.244768,919.314598
365.561614,888.247130,-8290.306550,1608.800546
365.561941,814.226536,-8882.471304,2221.676944
365.562269,0.000000,-9252.574275,1532.190996
365.562597,-666.185348,-9622.677246,1225.752797
365.562924,-1554.432478,-9992.780217,842.705048
365.563252,-1776.494261,-10066.800811,842.705048
365.563579,-1924.535449,-9770.718434,536.266849
365.563907,-518.144159,-9326.594869,536.266849
365.564234,-518.144159,-8586.388927,536.266849
365.564562,0.000000,-8364.327145,689.485948
365.564890,148.041188,-8142.265362,919.314598
365.565217,518.144159,-8068.244768,919.314598
365.565545,370.102971,-7846.182985,689.485948
365.565872,-74.020594,-7920.203579,842.705048
365.566200,-814.226536,-9252.574275,1072.533697
365.566527,-1924.535449,-9622.677246,306.438199
365.566855,-2146.597232,-9992.780217,0.000000
365.567183,-1924.535449,-9622.677246,0.000000
365.567510,-962.267725,-9696.697840,459.657299
365.567838,0.000000,-9104.533087,536.266849
365.568165,888.247130,-8586.388927,1072.533697
365.568493,1332.370696,-8364.327145,1072.533697
365.568820,1702.473667,-8216.285956,1915.238745
365.569148,1776.494261,-8364.327145,2068.457845
365.569475,1258.350101,-9178.553681,1302.362347
365.569803,222.061783,-9400.615463,1072.533697
365.570131,-666.185348,-9844.739029,1072.533697
365.570458,-1406.391290,-10214.842000,689.485948
365.570786,-1406.391290,-9992.780217,536.266849
365.571113,-1702.473667,-9844.739029,229.828649
365.571441,-1258.350101,-9400.615463,0.000000
365.571768,-444.123565,-9326.594869,0.000000
365.572096,-222.061783,-8808.450710,0.000000
365.572424,74.020594,-8216.285956,0.000000
365.572751,0.000000,-8068.244768,153.219100
365.573079,148.041188,-8068.244768,229.828649
365.573406,222.061783,-8512.368333,229.828649
365.573734,-592.164754,-9252.574275,76.609550
365.574061,-1554.432478,-9400.615463,0.000000
365.574389,-1998.556043,-9770.718434,0.000000
365.574717,-2146.597232,-9918.759623,-229.828649
365.575044,-1998.556043,-9696.697840,-919.314598
365.575372,-962.267725,-10066.800811,-383.047749
365.575699,592.164754,-8808.450710,-612.876398
365.576027,1110.308913,-8586.388927,306.438199
365.576354,2072.576638,-8956.491898,229.828649
365.576682,2294.638420,-8512.368333,612.876398
365.577009,2368.659014,-8882.471304,919.314598
365.577337,1924.535449,-9622.677246,766.095498
365.577665,1628.453072,-10214.842000,612.876398
365.577992,-222.061783,-10436.903782,459.657299
365.578320,-740.205942,-10584.944971,536.266849
365.578647,-1036.288319,-10881.027347,536.266849
365.578975,-1258.350101,-9992.780217,459.657299
365.579302,-740.205942,-9696.697840,153.219100
365.579630,-222.061783,-8586.388927,689.485948
365.579958,-222.061783,-7920.203579,842.705048
365.580285,222.061783,-7920.203579,766.095498
365.580613,444.123565,-7550.100608,766.095498
365.580940,444.123565,-7772.162391,1302.362347
365.581268,-222.061783,-7476.080014,229.828649
365.581595,-1332.370696,-8734.430116,689.485948
365.581923,-2368.659014,-9400.615463,383.047749
365.582250,-2960.823768,-9622.677246,383.047749
365.582578,-3108.864956,-9992.780217,229.828649
365.582906,-2442.679609,-9030.512492,153.219100
365.583233,-1480.411884,-8808.450710,383.047749
365.583561,0.000000,-8586.388927,995.924147
365.583888,888.247130,-8216.285956,919.314598
365.584216,1332.370696,-8216.285956,1685.410096
365.584543,1702.473667,-7994.224174,1762.019645
365.584871,1406.391290,-8660.409521,1762.019645
365.585199,592.164754,-9030.512492,1685.410096
365.585526,-370.102971,-9474.636058,1302.362347
365.585854,-666.185348,-9844.739029,1378.971896
365.586181,-518.144159,-9918.759623,612.876398
365.586509,-666.185348,-9696.697840,459.657299
365.586836,-444.123565,-9844.739029,612.876398
365.587164,444.123565,-9252.574275,612.876398
365.587492,370.102971,-9030.512492,689.485948
365.587819,666.185348,-8364.327145,842.705048
365.588147,1110.308913,-8660.409521,995.924147
365.588474,666.185348,-8142.265362,766.095498
365.588802,444.123565,-8586.388927,612.876398
365.589129,-222.061783,-8956.491898,536.266849
365.589457,-1258.350101,-9400.615463,229.828649
365.589784,-2072.576638,-9178.553681,76.609550
365.590112,-2146.597232,-9770.718434,0.000000
365.590440,-1924.535449,-9474.636058,-689.485948
365.590767,-592.164754,-9400.615463,0.000000
365.591095,-296.082377,-8956.491898,-383.047749
365.591422,444.123565,-8142.265362,383.047749
365.591750,1258.350101,-8512.368333,76.609550
365.592077,1480.411884,-8290.306550,766.095498
365.592405,1332.370696,-8808.450710,842.705048
365.592733,1110.308913,-9326.594869,766.095498
365.593060,74.020594,-9622.677246,995.924147
365.593388,-296.082377,-10362.883188,536.266849
365.593715,-1258.350101,-10288.862594,229.828649
365.594043,-1184.329507,-10140.821405,229.828649
365.594370,-814.226536,-9918.759623,459.657299
365.594698,-370.102971,-9104.533087,-459.657299
365.595026,0.000000,-8808.450710,612.876398
365.595353,370.102971,-8586.388927,383.047749
365.595681,666.185348,-8290.306550,766.095498
365.596008,888.247130,-8142.265362,612.876398
365.596336,888.247130,-8216.285956,459.657299
365.596663,666.185348,-9030.512492,612.876398
365.596991,-518.144159,-9474.636058,766.095498
365.597318,-2072.576638,-9844.739029,76.609550
365.597646,-2516.700203,-9770.718434,0.000000
365.597974,-2368.659014,-9918.759623,-383.047749
365.598301,-1850.514855,-9030.512492,153.219100
365.598629,-592.164754,-8808.450710,153.219100
365.598956,0.000000,-8586.388927,459.657299
365.599284,1036.288319,-8438.347739,689.485948
365.599611,1258.350101,-7994.224174,1225.752797
365.599939,1110.308913,-7846.182985,1149.143247
365.600267,888.247130,-8290.306550,1302.362347
365.600594,222.061783,-9178.553681,1072.533697
365.600922,-1036.288319,-9622.677246,1149.143247
365.601249,-1480.411884,-10140.821405,995.924147
365.601577,-2072.576638,-10066.800811,612.876398
365.601904,-1406.391290,-10066.800811,0.000000
365.602232,-1332.370696,-9622.677246,766.095498
365.602560,-370.102971,-9474.636058,383.047749
365.602887,0.000000,-8956.491898,536.266849
365.603215,666.185348,-8512.368333,459.657299
365.603542,444.123565,-7994.224174,766.095498
365.603870,740.205942,-8290.306550,919.314598
365.604197,370.102971,-8290.306550,689.485948
365.604525,-222.061783,-8808.450710,612.876398
365.604852,-1258.350101,-9252.574275,306.438199
365.605180,-1924.535449,-9474.636058,689.485948
365.605508,-2146.597232,-9548.656652,0.000000
365.605835,-1702.473667,-9474.636058,0.000000
365.606163,-740.205942,-9400.615463,153.219100
365.606490,222.061783,-8808.450710,459.657299
365.606818,814.226536,-8512.368333,1149.143247
365.607145,1258.350101,-8216.285956,383.047749
365.607473,1480.411884,-8364.327145,1302.362347
365.607801,1406.391290,-8586.388927,1149.143247
365.608128,814.226536,-8956.491898,1225.752797
365.608456,0.000000,-9474.636058,995.924147
365.608783,-666.185348,-9844.739029,459.657299
365.609111,-1406.391290,-10288.862594,612.876398
365.609438,-1406.391290,-10066.800811,459.657299
365.609766,-1184.329507,-9844.739029,306.438199
365.610094,-740.205942,-9770.718434,229.828649
365.610421,148.041188,-9104.533087,766.095498
365.610749,-148.041188,-8734.430116,459.657299
365.611076,444.123565,-8364.327145,612.876398
365.611404,592.164754,-7994.224174,1072.533697
365.611731,296.082377,-8142.265362,1149.143247
365.612059,148.041188,-8734.430116,1532.190996
365.612386,-888.247130,-8586.388927,536.266849
365.612714,-1924.535449,-9474.636058,459.657299
365.613042,-2146.597232,-9696.697840,0.000000
365.613369,-1998.556043,-9622.677246,0.000000
365.613697,-1110.308913,-9030.512492,536.266849
365.614024,74.020594,-8808.450710,612.876398
365.614352,592.164754,-8512.368333,919.314598
365.614679,1036.288319,-8660.409521,1149.143247
365.615007,1332.370696,-8512.368333,1072.533697
365.615335,1258.350101,-8216.285956,1302.362347
365.615662,1110.308913,-8734.430116,919.314598
365.615990,444.123565,-9400.615463,1072.533697
365.616317,-370.102971,-9770.718434,842.705048
365.616645,-962.267725,-10066.800811,689.485948
365.616972,-1628.453072,-9844.739029,536.266849
365.617300,-1332.370696,-9918.759623,0.000000
365.617627,-1184.329507,-9474.636058,229.828649
365.617955,-666.185348,-9030.512492,76.609550
365.618283,-296.082377,-8586.388927,306.438199
365.618610,-296.082377,-7920.203579,153.219100
365.618938,222.061783,-7920.203579,842.705048
365.619265,370.102971,-7846.182985,229.828649
365.619593,222.061783,-8068.244768,229.828649
365.619920,-518.144159,-8364.327145,459.657299
365.620248,-1258.350101,-9178.553681,229.828649
365.620576,-2146.597232,-9474.636058,-153.219100
365.620903,-2294.638420,-9400.615463,-612.876398
365.621231,-2146.597232,-9474.636058,-459.657299
365.621558,-1110.308913,-9326.594869,-459.657299
365.621886,-444.123565,-8956.491898,0.000000
365.622213,814.226536,-8438.347739,0.000000
365.622541,1850.514855,-7920.203579,1072.533697
365.622869,2146.597232,-8142.265362,766.095498
365.623196,1998.556043,-8290.306550,995.924147
365.623524,1702.473667,-9104.533087,1072.533697
365.623851,666.185348,-9474.636058,919.314598
365.624179,-444.123565,-9548.656652,919.314598
365.624506,-444.123565,-10214.842000,306.438199
365.624834,-962.267725,-10362.883188,383.047749
365.625161,-1036.288319,-10066.800811,153.219100
365.625489,-370.102971,-9548.656652,229.828649
365.625817,0.000000,-8512.368333,383.047749
365.626144,222.061783,-8438.347739,306.438199
365.626472,740.205942,-8142.265362,766.095498
365.626799,740.205942,-7994.224174,459.657299
365.627127,444.123565,-8142.265362,536.266849
365.627454,74.020594,-8438.347739,536.266849
365.627782,-1332.370696,-9326.594869,536.266849
365.628110,-2368.659014,-9622.677246,76.609550
365.628437,-2738.761985,-9844.739029,0.000000
365.628765,-2886.803174,-9918.759623,0.000000
365.629092,-1924.535449,-9400.615463,76.609550
365.629420,-814.226536,-9030.512492,229.828649
365.629747,74.020594,-8734.430116,919.314598
365.630075,888.247130,-8364.327145,1225.752797
365.630403,1332.370696,-8512.368333,1302.362347
365.630730,1406.391290,-8660.409521,1378.971896
365.631058,962.267725,-8956.491898,2221.676944
365.631385,296.082377,-9252.574275,1685.410096
365.631713,-666.185348,-10140.821405,1762.019645
365.632040,-1332.370696,-10362.883188,1302.362347
365.632368,-1776.494261,-10436.903782,995.924147
365.632695,-1480.411884,-9696.697840,1225.752797
365.633023,0.000000,-9918.759623,689.485948
365.633351,-444.123565,-9622.677246,536.266849
365.633678,0.000000,-9104.533087,536.266849
365.634006,74.020594,-8364.327145,536.266849
365.634333,0.000000,-8216.285956,536.266849
365.634661,518.144159,-7994.224174,153.219100
365.634988,148.041188,-8216.285956,459.657299
365.635316,-888.247130,-8734.430116,383.047749
365.635644,-1332.370696,-9548.656652,229.828649
365.635971,-2294.638420,-9696.697840,153.219100
365.636299,-1924.535449,-10066.800811,153.219100
365.636626,-2146.597232,-9770.718434,0.000000
365.636954,-1258.350101,-9474.636058,-383.047749
365.637281,0.000000,-8882.471304,0.000000
365.637609,962.267725,-8438.347739,153.219100
365.637937,1998.556043,-8142.265362,459.657299
365.638264,2072.576638,-7550.100608,612.876398
365.638592,1998.556043,-8142.265362,1072.533697
365.638919,1554.432478,-9252.574275,1072.533697
365.639247,592.164754,-9844.739029,919.314598
365.639574,-444.123565,-10214.842000,842.705048
365.639902,-740.205942,-10436.903782,459.657299
365.640229,-888.247130,-10362.883188,766.095498
365.640557,-962.267725,-9992.780217,153.219100
365.640885,-444.123565,-9474.636058,229.828649
365.641212,370.102971,-8586.388927,536.266849
365.641540,814.226536,-8068.244768,919.314598
365.641867,740.205942,-8068.244768,766.095498
365.642195,814.226536,-7920.203579,536.266849
365.642522,740.205942,-8142.265362,536.266849
365.642850,222.061783,-8438.347739,612.876398
365.643178,-888.247130,-8808.450710,536.266849
365.643505,-2146.597232,-9326.594869,383.047749
365.643833,-2368.659014,-9622.677246,229.828649
365.644160,-2368.659014,-9474.636058,0.000000
365.644488,-1554.432478,-9252.574275,76.609550
365.644815,-370.102971,-8364.327145,229.828649
365.645143,370.102971,-8438.347739,842.705048
365.645471,962.267725,-8364.327145,1149.143247
365.645798,1110.308913,-7994.224174,1225.752797
365.646126,1110.308913,-8438.347739,1608.800546
365.646453,814.226536,-8956.491898,1608.800546
365.646781,0.000000,-9474.636058,1149.143247
365.647108,-1036.288319,-9918.759623,1225.752797
365.647436,-1554.432478,-10066.800811,995.924147
365.647764,-2072.576638,-10214.842000,766.095498
365.648091,-2294.638420,-10066.800811,229.828649
365.648419,-1406.391290,-9104.533087,-383.047749
365.648746,-814.226536,-9104.533087,0.000000
365.649074,-296.082377,-8734.430116,153.219100
365.649401,-148.041188,-8364.327145,459.657299
365.649729,148.041188,-8142.265362,536.266849
365.650057,370.102971,-7476.080014,459.657299
365.650384,370.102971,-8364.327145,612.876398
365.650712,-666.185348,-8660.409521,536.266849
365.651039,-1480.411884,-9474.636058,0.000000
365.651367,-2294.638420,-9992.780217,0.000000
365.651694,-2220.617826,-9622.677246,-383.047749
365.652022,-1776.494261,-9548.656652,-153.219100
365.652349,-888.247130,-9400.615463,-383.047749
365.652677,592.164754,-9104.533087,0.000000
365.653005,1480.411884,-8438.347739,76.609550
365.653332,2146.597232,-7994.224174,536.266849
365.653660,2664.741391,-8290.306550,459.657299
365.653987,2368.659014,-8660.409521,1072.533697
365.654315,1702.473667,-9326.594869,995.924147
365.654642,592.164754,-9770.718434,612.876398
365.654970,-296.082377,-10214.842000,459.657299
365.655298,-666.185348,-10584.944971,1225.752797
365.655625,-814.226536,-10510.924376,229.828649
365.655953,-666.185348,-10140.821405,229.828649
365.656280,0.000000,-9474.636058,76.609550
365.656608,222.061783,-9252.574275,306.438199
365.656935,296.082377,-8142.265362,842.705048
365.657263,518.144159,-7920.203579,612.876398
365.657591,444.123565,-7698.141797,766.095498
365.657918,444.123565,-8068.244768,919.314598
365.658246,148.041188,-8586.388927,842.705048
365.658573,-1110.308913,-8512.368333,1149.143247
365.658901,-2220.617826,-9474.636058,0.000000
365.659228,-2664.741391,-9696.697840,76.609550
365.659556,-2368.659014,-9622.677246,153.219100
365.659884,-1702.473667,-9326.594869,383.047749
365.660211,-370.102971,-8882.471304,306.438199
365.660539,444.123565,-8438.347739,1072.533697
365.660866,888.247130,-8142.265362,842.705048
365.661194,1110.308913,-8216.285956,1608.800546
365.661521,1332.370696,-8438.347739,1608.800546
365.661849,666.185348,-8808.450710,1838.629195
365.662177,518.144159,-9622.677246,1608.800546
365.662504,-962.267725,-9844.739029,1608.800546
365.662832,-1554.432478,-10066.800811,1378.971896
365.663159,-2072.576638,-10066.800811,1072.533697
365.663487,-1850.514855,-9992.780217,919.314598
365.663814,-1480.411884,-9326.594869,689.485948
365.664142,-962.267725,-9104.533087,612.876398
365.664470,-592.164754,-8808.450710,459.657299
365.664797,-222.061783,-8216.285956,459.657299
365.665125,74.020594,-7920.203579,842.705048
365.665452,-370.102971,-7328.038826,766.095498
365.665780,0.000000,-8142.265362,995.924147
365.666107,-1036.288319,-8586.388927,612.876398
365.666435,-1924.535449,-9178.553681,383.047749
365.666763,-2590.720797,-9548.656652,76.609550
365.667090,-2368.659014,-9548.656652,0.000000
365.667418,-1850.514855,-9548.656652,-153.219100
365.667745,-888.247130,-9400.615463,-229.828649
365.668073,74.020594,-9178.553681,0.000000
365.668400,962.267725,-8438.347739,153.219100
365.668728,1628.453072,-8364.327145,306.438199
365.669056,2146.597232,-7994.224174,536.266849
365.669383,2146.597232,-8586.388927,995.924147
365.669711,1332.370696,-8882.471304,1072.533697
365.670038,592.164754,-9474.636058,689.485948
365.670366,-370.102971,-10214.842000,383.047749
365.670693,-962.267725,-9992.780217,153.219100
365.671021,-1110.308913,-10214.842000,229.828649
365.671349,-888.247130,-9918.759623,0.000000
365.671676,-814.226536,-9696.697840,0.000000
365.672004,0.000000,-9030.512492,-306.438199
365.672331,444.123565,-8660.409521,153.219100
365.672659,962.267725,-8364.327145,-229.828649
365.672986,1184.329507,-7846.182985,153.219100
365.673314,962.267725,-8290.306550,459.657299
365.673642,444.123565,-8660.409521,229.828649
365.673969,-518.144159,-9326.594869,0.000000
365.674297,-1258.350101,-9474.636058,-383.047749
365.674624,-2072.576638,-9918.759623,-383.047749
365.674952,-1924.535449,-9844.739029,0.000000
365.675279,-1110.308913,-9474.636058,0.000000
365.675607,0.000000,-9104.533087,459.657299
365.675934,1036.288319,-8734.430116,842.705048
365.676262,1110.308913,-8660.409521,689.485948
365.676590,1480.411884,-8438.347739,1149.143247
365.676917,1554.432478,-8660.409521,1378.971896
365.677245,1184.329507,-8808.450710,1302.362347
365.677572,592.164754,-9474.636058,1838.629195
365.677900,-592.164754,-9474.636058,1378.971896
365.678227,-1554.432478,-10140.821405,842.705048
365.678555,-1998.556043,-10214.842000,919.314598
365.678883,-1480.411884,-9844.739029,689.485948
365.679210,-1184.329507,-9548.656652,383.047749
365.679538,-888.247130,-8956.491898,766.095498
365.679865,-740.205942,-8956.491898,612.876398
365.680193,-666.185348,-8734.430116,612.876398
365.680520,-444.123565,-8142.265362,919.314598
365.680848,-444.123565,-8290.306550,1072.533697
365.681176,-222.061783,-8290.306550,536.266849
365.681503,-1184.329507,-8956.491898,536.266849
365.681831,-1998.556043,-9400.615463,153.219100
365.682158,-2664.741391,-9992.780217,0.000000
365.682486,-2590.720797,-10066.800811,-229.828649
365.682813,-2442.679609,-9548.656652,-383.047749
365.683141,-1184.329507,-9474.636058,0.000000
365.683469,0.000000,-9326.594869,0.000000
365.683796,666.185348,-8808.450710,0.000000
365.684124,1628.453072,-8734.430116,459.657299
365.684451,2368.659014,-8660.409521,1302.362347
365.684779,2072.576638,-8586.388927,995.924147
365.685106,1702.473667,-9474.636058,1149.143247
365.685434,740.205942,-10214.842000,766.095498
365.685762,0.000000,-10510.924376,689.485948
365.686089,-888.247130,-10584.944971,536.266849
365.686417,-222.061783,-10510.924376,919.314598
365.686744,74.020594,-9992.780217,383.047749
365.687072,592.164754,-9548.656652,536.266849
365.687399,1258.350101,-8956.491898,383.047749
365.687727,1332.370696,-8364.327145,919.314598
365.688055,1702.473667,-8364.327145,1608.800546
365.688382,1036.288319,-8216.285956,689.485948
365.688710,740.205942,-8438.347739,766.095498
365.689037,-148.041188,-8808.450710,842.705048
365.689365,-1480.411884,-9474.636058,766.095498
365.689692,-2590.720797,-9474.636058,536.266849
365.690020,-2516.700203,-9474.636058,0.000000
365.690348,-2664.741391,-9326.594869,0.000000
365.690675,-1924.535449,-9252.574275,0.000000
365.691003,-1036.288319,-8734.430116,153.219100
365.691330,-222.061783,-7624.121203,612.876398
365.691658,518.144159,-7920.203579,919.314598
365.691985,740.205942,-7846.182985,1302.362347
365.692313,1036.288319,-8142.265362,1225.752797
365.692641,888.247130,-8808.450710,1455.581446
365.692968,74.020594,-8808.450710,1608.800546
365.693296,-1110.308913,-9474.636058,1532.190996
365.693623,-1480.411884,-10214.842000,1225.752797
365.693951,-1406.391290,-9992.780217,919.314598
365.694278,-888.247130,-9548.656652,842.705048
365.694606,0.000000,-9400.615463,919.314598
365.694934,592.164754,-9030.512492,1455.581446
365.695261,592.164754,-8438.347739,1455.581446
365.695589,296.082377,-8364.327145,995.924147
365.695916,444.123565,-8142.265362,1149.143247
365.696244,296.082377,-8364.327145,1149.143247
365.696571,74.020594,-8364.327145,1608.800546
365.696899,-666.185348,-9178.553681,383.047749
365.697226,-1776.494261,-9770.718434,536.266849
365.697554,-2516.700203,-9844.739029,229.828649
365.697882,-2886.803174,-9622.677246,0.000000
365.698209,-2442.679609,-9104.533087,-306.438199
365.698537,-1406.391290,-9252.574275,-612.876398
365.698864,-962.267725,-8734.430116,-229.828649
365.699192,0.000000,-8216.285956,-229.828649
365.699519,962.267725,-7846.182985,153.219100
365.699847,1406.391290,-7920.203579,0.000000
365.700175,1332.370696,-8068.244768,76.609550
365.700502,814.226536,-8956.491898,459.657299
365.700830,0.000000,-9622.677246,306.438199
365.701157,-740.205942,-10140.821405,153.219100
365.701485,-1036.288319,-10510.924376,0.000000
365.701812,-370.102971,-10362.883188,153.219100
365.702140,0.000000,-9918.759623,383.047749
365.702468,888.247130,-9770.718434,0.000000
365.702795,1036.288319,-9252.574275,0.000000
365.703123,1406.391290,-8956.491898,229.828649
365.703450,1554.432478,-8512.368333,153.219100
365.703778,1924.535449,-8364.327145,612.876398
365.704105,1184.329507,-8660.409521,536.266849
365.704433,592.164754,-9252.574275,689.485948
365.704761,-444.123565,-9400.615463,612.876398
365.705088,-1702.473667,-9104.533087,383.047749
365.705416,-1406.391290,-9844.739029,0.000000
365.705743,-2072.576638,-9548.656652,0.000000
365.706071,-1332.370696,-9400.615463,0.000000
365.706398,-518.144159,-8808.450710,229.828649
365.706726,74.020594,-8068.244768,612.876398
365.707054,888.247130,-8068.244768,1149.143247
365.707381,962.267725,-7994.224174,1608.800546
365.707709,740.205942,-8216.285956,1149.143247
365.708036,148.041188,-8660.409521,1532.190996
365.708364,-592.164754,-9326.594869,1378.971896
365.708691,-1702.473667,-8956.491898,919.314598
365.709019,-1776.494261,-9844.739029,1072.533697
365.709347,-2146.597232,-9918.759623,766.095498
365.709674,-1628.453072,-9548.656652,1149.143247
365.710002,-666.185348,-9178.553681,919.314598
365.710329,-148.041188,-8586.388927,995.924147
365.710657,0.000000,-8660.409521,1072.533697
365.710984,-148.041188,-8364.327145,1225.752797
365.711312,-148.041188,-8512.368333,1149.143247
365.711640,0.000000,-8364.327145,1149.143247
365.711967,-370.102971,-8438.347739,1072.533697
365.712295,-1036.288319,-9104.533087,1608.800546
365.712622,-1850.514855,-9252.574275,766.095498
365.712950,-2368.659014,-9696.697840,306.438199
365.713277,-2368.659014,-9548.656652,229.828649
365.713605,-2220.617826,-9326.594869,-842.705048
365.713933,-1110.308913,-8808.450710,76.609550
365.714260,-370.102971,-8290.306550,-229.828649
365.714588,592.164754,-8290.306550,76.609550
365.714915,1406.391290,-7920.203579,612.876398
365.715243,1850.514855,-7772.162391,689.485948
365.715570,1850.514855,-8216.285956,1225.752797
365.715898,1184.329507,-9104.533087,536.266849
365.716226,148.041188,-10140.821405,383.047749
365.716553,-962.267725,-10288.862594,229.828649
365.716881,-1258.350101,-10658.965565,229.828649
365.717208,-962.267725,-10584.944971,0.000000
365.717536,-740.205942,-9918.759623,0.000000
365.717863,222.061783,-9696.697840,-383.047749
365.718191,148.041188,-9030.512492,-229.828649
365.718518,740.205942,-8438.347739,0.000000
365.718846,1332.370696,-7624.121203,229.828649
365.719174,1332.370696,-7920.203579,306.438199
365.719501,962.267725,-8290.306550,153.219100
365.719829,370.102971,-8882.471304,536.266849
365.720156,-666.185348,-9474.636058,306.438199
365.720484,-1628.453072,-9474.636058,229.828649
365.720811,-1480.411884,-9844.739029,536.266849
365.721139,-1850.514855,-9770.718434,0.000000
365.721467,-1036.288319,-9474.636058,76.609550
365.721794,-148.041188,-9104.533087,766.095498
365.722122,740.205942,-8734.430116,689.485948
365.722449,888.247130,-8290.306550,1455.581446
365.722777,1554.432478,-8142.265362,1149.143247
365.723104,1184.329507,-8438.347739,1378.971896
365.723432,888.247130,-8956.491898,1302.362347
365.723760,74.020594,-9474.636058,1225.752797
365.724087,-1184.329507,-9474.636058,1378.971896
365.724415,-1480.411884,-9918.759623,1072.533697
365.724742,-1702.473667,-9992.780217,995.924147
365.725070,-1332.370696,-9696.697840,1302.362347
365.725397,-888.247130,-9474.636058,1225.752797
365.725725,-296.082377,-8734.430116,1455.581446
365.726053,-296.082377,-8734.430116,1532.190996
365.726380,-296.082377,-8808.450710,1378.971896
365.726708,-592.164754,-8586.388927,1302.362347
365.727035,-370.102971,-8438.347739,1378.971896
365.727363,-518.144159,-8660.409521,1149.143247
365.727690,-888.247130,-8734.430116,1378.971896
365.728018,-1702.473667,-9400.615463,766.095498
365.728346,-2738.761985,-9474.636058,153.219100
365.728673,-2812.782580,-9548.656652,0.000000
365.729001,-2738.761985,-9178.553681,-306.438199
365.729328,-1628.453072,-8512.368333,-459.657299
365.729656,-222.061783,-8660.409521,0.000000
365.729983,518.144159,-8512.368333,0.000000
365.730311,1036.288319,-8142.265362,536.266849
365.730639,1702.473667,-8364.327145,766.095498
365.730966,1702.473667,-8290.306550,1302.362347
365.731294,1184.329507,-9474.636058,689.485948
365.731621,148.041188,-9992.780217,536.266849
365.731949,-814.226536,-10658.965565,306.438199
365.732276,-1258.350101,-10881.027347,0.000000
365.732604,-740.205942,-10807.006753,-153.219100
365.732932,0.000000,-10288.862594,-689.485948
365.733259,370.102971,-9474.636058,0.000000
365.733587,1184.329507,-8882.471304,0.000000
365.733914,1480.411884,-8290.306550,-153.219100
365.734242,1924.535449,-8068.244768,383.047749
365.734569,2368.659014,-8290.306550,383.047749
365.734897,1628.453072,-8364.327145,536.266849
365.735225,666.185348,-9252.574275,459.657299
365.735552,-370.102971,-9992.780217,383.047749
365.735880,-1554.432478,-10288.862594,0.000000
365.736207,-2664.741391,-9770.718434,-229.828649
365.736535,-2146.597232,-9696.697840,0.000000
365.736862,-1776.494261,-9474.636058,76.609550
365.737190,-666.185348,-8808.450710,153.219100
365.737518,296.082377,-8290.306550,536.266849
365.737845,592.164754,-7846.182985,459.657299
365.738173,1480.411884,-7846.182985,919.314598
365.738500,1406.391290,-8216.285956,1149.143247
365.738828,666.185348,-8734.430116,1225.752797
365.739155,-148.041188,-9326.594869,995.924147
365.739483,-814.226536,-9474.636058,1455.581446
365.739810,-1406.391290,-10066.800811,1072.533697
365.740138,-1924.535449,-9844.739029,1225.752797
365.740466,-1554.432478,-9622.677246,1072.533697
365.740793,-814.226536,-9326.594869,1225.752797
365.741121,-296.082377,-8882.471304,1378.971896
365.741448,-222.061783,-8512.368333,1302.362347
365.741776,-148.041188,-8364.327145,1302.362347
365.742103,-444.123565,-8216.285956,1149.143247
365.742431,-296.082377,-8142.265362,1532.190996
365.742759,-370.102971,-8364.327145,1072.533697
365.743086,-1258.350101,-8438.347739,919.314598
365.743414,-1924.535449,-9178.553681,1072.533697
365.743741,-2368.659014,-9400.615463,383.047749
365.744069,-2664.741391,-9548.656652,0.000000
365.744396,-2146.597232,-9400.615463,0.000000
365.744724,-1850.514855,-8882.471304,0.000000
365.745052,-888.247130,-8808.450710,0.000000
365.745379,74.020594,-8512.368333,153.219100
365.745707,666.185348,-8142.265362,612.876398
365.746035,1480.411884,-8142.265362,842.705048
365.746363,1036.288319,-8660.409521,1225.752797
365.746690,962.267725,-9030.512492,1149.143247
365.747018,0.000000,-9696.697840,612.876398
365.747346,-740.205942,-10140.821405,153.219100
365.747673,-814.226536,-10436.903782,229.828649
365.748001,-592.164754,-10362.883188,0.000000
365.748329,148.041188,-10066.800811,-229.828649
365.748656,592.164754,-9622.677246,76.609550
365.748984,1258.350101,-8956.491898,0.000000
365.749312,1332.370696,-8586.388927,153.219100
365.749639,1480.411884,-8216.285956,383.047749
365.749967,1332.370696,-7994.224174,842.705048
365.750295,1332.370696,-8808.450710,459.657299
365.750622,296.082377,-9326.594869,306.438199
365.750950,-666.185348,-9474.636058,383.047749
365.751278,-1924.535449,-9918.759623,0.000000
365.751605,-2368.659014,-10436.903782,0.000000
365.751933,-2072.576638,-9622.677246,-383.047749
365.752261,-1702.473667,-9548.656652,-459.657299
365.752588,-888.247130,-8660.409521,0.000000
365.752916,222.061783,-8068.244768,0.000000
365.753244,1036.288319,-7920.203579,689.485948
365.753571,1184.329507,-7698.141797,229.828649
365.753899,1628.453072,-7846.182985,1072.533697
365.754227,1110.308913,-8290.306550,1455.581446
365.754554,74.020594,-8956.491898,1149.143247
365.754882,-1036.288319,-9844.739029,1225.752797
365.755210,-1406.391290,-10140.821405,1455.581446
365.755537,-1850.514855,-9696.697840,919.314598
365.755865,-1184.329507,-9696.697840,995.924147
365.756193,-444.123565,-9400.615463,995.924147
365.756520,0.000000,-8956.491898,919.314598
365.756848,444.123565,-9104.533087,1378.971896
365.757176,0.000000,-8142.265362,1072.533697
365.757504,444.123565,-8142.265362,1149.143247
365.757831,222.061783,-7994.224174,995.924147
365.758159,0.000000,-8438.347739,995.924147
365.758487,-888.247130,-8808.450710,842.705048
365.758814,-1702.473667,-9326.594869,919.314598
365.759142,-2368.659014,-9770.718434,383.047749
365.759470,-2590.720797,-9474.636058,153.219100
365.759797,-2294.638420,-9474.636058,0.000000
365.760125,-1406.391290,-9178.553681,0.000000
365.760453,-222.061783,-8364.327145,76.609550
365.760780,222.061783,-8364.327145,383.047749
365.761108,1184.329507,-8290.306550,842.705048
365.761436,1332.370696,-8216.285956,1072.533697
365.761763,1258.350101,-8586.388927,1072.533697
365.762091,740.205942,-9030.512492,459.657299
365.762419,0.000000,-9696.697840,689.485948
365.762746,-1036.288319,-10288.862594,383.047749
365.763074,-1702.473667,-10436.903782,0.000000
365.763402,-962.267725,-10584.944971,0.000000
365.763729,-370.102971,-9992.780217,-306.438199
365.764057,148.041188,-9474.636058,536.266849
365.764385,666.185348,-9104.533087,0.000000
365.764712,592.164754,-8808.450710,76.609550
365.765040,740.205942,-8512.368333,306.438199
365.765368,1332.370696,-8586.388927,306.438199
365.765695,518.144159,-8216.285956,766.095498
365.766023,370.102971,-9104.533087,383.047749
365.766351,-518.144159,-9622.677246,383.047749
365.766678,-1480.411884,-9992.780217,0.000000
365.767006,-2294.638420,-9844.739029,-306.438199
365.767334,-1924.535449,-9400.615463,-612.876398
365.767661,-1036.288319,-9400.615463,-306.438199
365.767989,-296.082377,-9030.512492,-306.438199
365.768317,518.144159,-8586.388927,306.438199
365.768644,1554.432478,-8216.285956,689.485948
365.768972,2220.617826,-8438.347739,1149.143247
365.769300,2146.597232,-8808.450710,1072.533697
365.769628,1184.329507,-8956.491898,1149.143247
365.769955,444.123565,-9548.656652,1149.143247
365.770283,-518.144159,-9844.739029,995.924147
365.770611,-1184.329507,-10140.821405,1149.143247
365.770938,-1036.288319,-9918.759623,1072.533697
365.771266,-666.185348,-9770.718434,1225.752797
365.771594,-592.164754,-9104.533087,1225.752797
365.771921,0.000000,-9104.533087,1302.362347
365.772249,222.061783,-8808.450710,1608.800546
365.772577,-222.061783,-7698.141797,1225.752797
365.772904,-148.041188,-8068.244768,1149.143247
365.773232,-148.041188,-8142.265362,1225.752797
365.773560,-518.144159,-8512.368333,1302.362347
365.773887,-1184.329507,-8660.409521,1149.143247
365.774215,-1850.514855,-9030.512492,536.266849
365.774543,-2664.741391,-9474.636058,459.657299
365.774870,-2812.782580,-9474.636058,306.438199
365.775198,-2516.700203,-9400.615463,0.000000
365.775526,-1924.535449,-8956.491898,0.000000
365.775853,-592.164754,-8512.368333,383.047749
365.776181,296.082377,-8216.285956,536.266849
365.776509,740.205942,-8068.244768,842.705048
365.776836,1184.329507,-8142.265362,1225.752797
365.777164,1110.308913,-8586.388927,1225.752797
365.777492,444.123565,-9104.533087,1149.143247
365.777819,-222.061783,-9992.780217,689.485948
365.778147,-962.267725,-10362.883188,383.047749
365.778475,-1332.370696,-10362.883188,229.828649
365.778802,-1110.308913,-10214.842000,153.219100
365.779130,74.020594,-9844.739029,229.828649
365.779458,666.185348,-9252.574275,76.609550
365.779785,740.205942,-8808.450710,153.219100
365.780113,1184.329507,-8734.430116,76.609550
365.780441,1110.308913,-8364.327145,153.219100
365.780769,1332.370696,-8438.347739,459.657299
365.781096,1406.391290,-8586.388927,0.000000
365.781424,592.164754,-8808.450710,229.828649
365.781752,-518.144159,-9252.574275,153.219100
365.782079,-1184.329507,-9918.759623,76.609550
365.782407,-2072.576638,-10066.800811,-229.828649
365.782735,-2072.576638,-9770.718434,-459.657299
365.783062,-1480.411884,-9474.636058,-766.095498
365.783390,-370.102971,-8882.471304,0.000000
365.783718,592.164754,-8364.327145,0.000000
365.784045,1258.350101,-8216.285956,383.047749
365.784373,2072.576638,-7920.203579,459.657299
365.784701,1998.556043,-8216.285956,1378.971896
365.785028,1332.370696,-8882.471304,766.095498
365.785356,148.041188,-9474.636058,1072.533697
365.785684,-666.185348,-9992.780217,919.314598
365.786011,-1258.350101,-10214.842000,1072.533697
365.786339,-1258.350101,-9918.759623,919.314598
365.786667,-888.247130,-9770.718434,919.314598
365.786994,-518.144159,-9474.636058,1072.533697
365.787322,74.020594,-8956.491898,1072.533697
365.787650,0.000000,-8586.388927,995.924147
365.787977,0.000000,-8142.265362,919.314598
365.788305,-296.082377,-8068.244768,919.314598
365.788633,-222.061783,-8142.265362,919.314598
365.788960,-666.185348,-8216.285956,1149.143247
365.789288,-1332.370696,-8734.430116,919.314598
365.789616,-1998.556043,-8956.491898,459.657299
365.789943,-2516.700203,-9400.615463,612.876398
365.790271,-2738.761985,-9474.636058,76.609550
365.790599,-2590.720797,-9252.574275,0.000000
365.790926,-1628.453072,-8956.491898,0.000000
365.791254,-888.247130,-8216.285956,383.047749
365.791582,0.000000,-8216.285956,383.047749
365.791909,740.205942,-8290.306550,995.924147
365.792237,814.226536,-8290.306550,1378.971896
365.792565,962.267725,-8364.327145,1225.752797
365.792893,592.164754,-9178.553681,1302.362347
365.793220,0.000000,-9400.615463,689.485948
365.793548,-962.267725,-9844.739029,536.266849
365.793876,-1332.370696,-10214.842000,229.828649
365.794203,-1036.288319,-9992.780217,0.000000
365.794531,-444.123565,-9770.718434,0.000000
365.794859,962.267725,-9474.636058,919.314598
365.795186,814.226536,-8956.491898,536.266849
365.795514,1110.308913,-8956.491898,383.047749
365.795842,888.247130,-8660.409521,536.266849
365.796169,962.267725,-8734.430116,536.266849
365.796497,814.226536,-9104.533087,1149.143247
365.796825,0.000000,-9252.574275,536.266849
365.797152,-814.226536,-9844.739029,306.438199
365.797480,-1554.432478,-9918.759623,-153.219100
365.797808,-1998.556043,-9696.697840,-306.438199
365.798135,-1628.453072,-9400.615463,-229.828649
365.798463,-1406.391290,-9030.512492,-383.047749
365.798791,0.000000,-8586.388927,-306.438199
365.799118,888.247130,-8438.347739,0.000000
365.799446,1110.308913,-8290.306550,612.876398
365.799774,1702.473667,-8438.347739,919.314598
365.800101,1924.535449,-8586.388927,1072.533697
365.800429,962.267725,-9030.512492,1302.362347
365.800757,296.082377,-9770.718434,1455.581446
365.801084,-814.226536,-10436.903782,1225.752797
365.801412,-1480.411884,-10584.944971,919.314598
365.801740,-1184.329507,-10510.924376,842.705048
365.802067,-888.247130,-9918.759623,689.485948
365.802395,-296.082377,-9622.677246,919.314598
365.802723,74.020594,-9030.512492,689.485948
365.803050,0.000000,-8586.388927,995.924147
365.803378,-74.020594,-8142.265362,842.705048
365.803706,222.061783,-8216.285956,1072.533697
365.804034,0.000000,-8142.265362,842.705048
365.804361,-296.082377,-8438.347739,995.924147
365.804689,-1110.308913,-9252.574275,689.485948
365.805017,-2072.576638,-9252.574275,995.924147
365.805344,-2812.782580,-9326.594869,76.609550
365.805672,-2664.741391,-9548.656652,0.000000
365.806000,-2442.679609,-9474.636058,0.000000
365.806327,-1628.453072,-9104.533087,0.000000
365.806655,-444.123565,-8438.347739,229.828649
365.806983,370.102971,-7698.141797,0.000000
365.807310,1110.308913,-7846.182985,995.924147
365.807638,1406.391290,-8142.265362,1149.143247
365.807966,1776.494261,-8734.430116,1225.752797
365.808293,888.247130,-9030.512492,842.705048
365.808621,0.000000,-9696.697840,689.485948
365.808949,-592.164754,-10288.862594,459.657299
365.809276,-1110.308913,-10214.842000,229.828649
365.809604,-814.226536,-10288.862594,153.219100
365.809932,148.041188,-9770.718434,229.828649
365.810259,444.123565,-9696.697840,612.876398
365.810587,1036.288319,-9178.553681,306.438199
365.810915,740.205942,-8660.409521,383.047749
365.811242,962.267725,-8512.368333,459.657299
365.811570,814.226536,-8586.388927,306.438199
365.811898,444.123565,-8512.368333,306.438199
365.812225,0.000000,-8882.471304,612.876398
365.812553,-1184.329507,-9474.636058,306.438199
365.812881,-2146.597232,-9696.697840,0.000000
365.813208,-2590.720797,-9844.739029,-459.657299
365.813536,-2220.617826,-9548.656652,-459.657299
365.813864,-1480.411884,-8734.430116,-536.266849
365.814191,-444.123565,-8660.409521,-383.047749
365.814519,518.144159,-8068.244768,0.000000
365.814847,1628.453072,-7772.162391,842.705048
365.815174,2072.576638,-7772.162391,1072.533697
365.815502,2368.659014,-7994.224174,842.705048
365.815830,1480.411884,-8734.430116,1532.190996
365.816158,222.061783,-9622.677246,1302.362347
365.816485,-666.185348,-9992.780217,1302.362347
365.816813,-1184.329507,-10066.800811,1149.143247
365.817141,-1036.288319,-10510.924376,1532.190996
365.817468,-370.102971,-9622.677246,1608.800546
365.817796,74.020594,-9252.574275,1225.752797
365.818124,-148.041188,-8734.430116,1378.971896
365.818451,148.041188,-8364.327145,1072.533697
365.818779,0.000000,-7772.162391,1378.971896
365.819107,0.000000,-8216.285956,842.705048
365.819434,0.000000,-7920.203579,1072.533697
365.819762,-592.164754,-8216.285956,1072.533697
365.820090,-1554.432478,-8734.430116,919.314598
365.820417,-2294.638420,-9252.574275,612.876398
365.820745,-2886.803174,-8956.491898,1072.533697
365.821073,-3182.885551,-9178.553681,153.219100
365.821400,-2664.741391,-9030.512492,306.438199
365.821728,-1850.514855,-8808.450710,153.219100
365.822056,-814.226536,-8364.327145,612.876398
365.822383,0.000000,-7476.080014,1378.971896
365.822711,1036.288319,-7920.203579,1072.533697
365.823039,1258.350101,-8216.285956,1225.752797
365.823366,1110.308913,-8808.450710,1302.362347
365.823694,370.102971,-9400.615463,1378.971896
365.824022,-592.164754,-9548.656652,1302.362347
365.824349,-962.267725,-9844.739029,612.876398
365.824677,-1184.329507,-10658.965565,306.438199
365.825005,-888.247130,-10214.842000,153.219100
365.825332,-370.102971,-9770.718434,153.219100
365.825660,222.061783,-9474.636058,76.609550
365.825988,592.164754,-8882.471304,76.609550
365.826315,518.144159,-8956.491898,0.000000
365.826643,592.164754,-8512.368333,76.609550
365.826971,518.144159,-8438.347739,76.609550
365.827299,444.123565,-8882.471304,229.828649
365.827626,-296.082377,-8956.491898,76.609550
365.827954,-888.247130,-9400.615463,0.000000
365.828282,-1776.494261,-9844.739029,-229.828649
365.828609,-2072.576638,-10066.800811,-612.876398
365.828937,-2072.576638,-9696.697840,-995.924147
365.829265,-962.267725,-9400.615463,-919.314598
365.829592,0.000000,-8882.471304,-1149.143247
365.829920,888.247130,-8290.306550,-383.047749
365.830248,1850.514855,-8438.347739,229.828649
365.830575,2442.679609,-8364.327145,612.876398
365.830903,2294.638420,-8364.327145,919.314598
365.831231,1998.556043,-9252.574275,995.924147
365.831558,592.164754,-9992.780217,919.314598
365.831886,-370.102971,-10436.903782,919.314598
365.832214,-888.247130,-10658.965565,842.705048
365.832541,-1258.350101,-10436.903782,612.876398
365.832869,-444.123565,-10288.862594,919.314598
365.833197,296.082377,-9548.656652,919.314598
365.833524,222.061783,-9030.512492,842.705048
365.833852,444.123565,-8438.347739,1072.533697
365.834180,222.061783,-8216.285956,689.485948
365.834507,0.000000,-7772.162391,995.924147
365.834835,0.000000,-8068.244768,842.705048
365.835163,-370.102971,-8438.347739,1072.533697
365.835490,-1332.370696,-8586.388927,842.705048
365.835818,-2146.597232,-9326.594869,919.314598
365.836146,-2960.823768,-9326.594869,766.095498
365.836473,-2960.823768,-9474.636058,0.000000
365.836801,-2516.700203,-9104.533087,153.219100
365.837129,-1480.411884,-8882.471304,383.047749
365.837456,-666.185348,-8512.368333,383.047749
365.837784,296.082377,-8068.244768,1072.533697
365.838112,1332.370696,-7772.162391,1378.971896
365.838440,1110.308913,-7994.224174,1225.752797
365.838767,962.267725,-8438.347739,995.924147
365.839095,148.041188,-9252.574275,919.314598
365.839423,-592.164754,-10066.800811,842.705048
365.839750,-1258.350101,-10066.800811,766.095498
365.840078,-1776.494261,-10066.800811,383.047749
365.840406,-1258.350101,-9918.759623,229.828649
365.840733,-592.164754,-9696.697840,229.828649
365.841061,0.000000,-9326.594869,229.828649
365.841389,370.102971,-8512.368333,0.000000
365.841716,666.185348,-8216.285956,383.047749
365.842044,814.226536,-7994.224174,153.219100
365.842372,814.226536,-8068.244768,536.266849
365.842699,518.144159,-8068.244768,689.485948
365.843027,0.000000,-8882.471304,766.095498
365.843355,-814.226536,-9770.718434,76.609550
365.843682,-1924.535449,-10066.800811,-153.219100
365.844010,-2368.659014,-9844.739029,-612.876398
365.844338,-2072.576638,-9622.677246,-536.266849
365.844665,-1110.308913,-9326.594869,-842.705048
365.844993,0.000000,-8882.471304,-919.314598
365.845321,1480.411884,-8216.285956,0.000000
365.845648,2368.659014,-7920.203579,459.657299
365.845976,2886.803174,-8068.244768,1072.533697
365.846304,2664.741391,-8586.388927,1302.362347
365.846631,1998.556043,-9178.553681,1532.190996
365.846959,666.185348,-10140.821405,1149.143247
365.847286,-444.123565,-10362.883188,1225.752797
365.847614,-1110.308913,-10658.965565,1302.362347
365.847942,-1258.350101,-10584.944971,1378.971896
365.848269,-444.123565,-9992.780217,1225.752797
365.848597,-148.041188,-9252.574275,1378.971896
365.848924,0.000000,-8882.471304,995.924147
365.849252,0.000000,-8660.409521,995.924147
365.849579,-148.041188,-8290.306550,766.095498
365.849907,0.000000,-7698.141797,919.314598
365.850235,-222.061783,-8216.285956,919.314598
365.850562,-740.205942,-8364.327145,612.876398
365.850890,-1850.514855,-9030.512492,766.095498
365.851217,-2590.720797,-9548.656652,766.095498
365.851545,-3034.844362,-9622.677246,383.047749
365.851873,-3034.844362,-9474.636058,229.828649
365.852200,-2442.679609,-9474.636058,306.438199
365.852528,-1480.411884,-9252.574275,306.438199
365.852855,-592.164754,-8882.471304,766.095498
365.853183,370.102971,-8438.347739,842.705048
365.853510,1036.288319,-8438.347739,612.876398
365.853838,888.247130,-8216.285956,1149.143247
365.854166,1036.288319,-8586.388927,1532.190996
365.854493,518.144159,-9104.533087,995.924147
365.854821,0.000000,-9474.636058,919.314598
365.855148,-518.144159,-10362.883188,766.095498
365.855476,-962.267725,-10436.903782,995.924147
365.855803,-518.144159,-10362.883188,459.657299
365.856131,0.000000,-9992.780217,383.047749
365.856459,518.144159,-9400.615463,306.438199
365.856786,592.164754,-9474.636058,459.657299
365.857114,814.226536,-8882.471304,689.485948
365.857441,888.247130,-8438.347739,383.047749
365.857769,814.226536,-8364.327145,612.876398
365.858097,370.102971,-8882.471304,459.657299
365.858424,-296.082377,-9252.574275,612.876398
365.858752,-1258.350101,-9178.553681,0.000000
365.859079,-1776.494261,-9844.739029,-153.219100
365.859407,-2516.700203,-9770.718434,-612.876398
365.859734,-2368.659014,-9400.615463,-689.485948
365.860062,-1406.391290,-8956.491898,-842.705048
365.860390,0.000000,-8068.244768,-536.266849
365.860717,1258.350101,-8216.285956,0.000000
365.861045,1554.432478,-7772.162391,306.438199
365.861372,2072.576638,-8290.306550,612.876398
365.861700,2072.576638,-8438.347739,995.924147
365.862028,1850.514855,-9252.574275,1149.143247
365.862355,888.247130,-9844.739029,1225.752797
365.862683,-592.164754,-10288.862594,919.314598
365.863010,-1036.288319,-10658.965565,842.705048
365.863338,-1036.288319,-10214.842000,536.266849
365.863665,-296.082377,-9770.718434,1072.533697
365.863993,0.000000,-9178.553681,1072.533697
365.864321,370.102971,-8882.471304,842.705048
365.864648,592.164754,-8364.327145,766.095498
365.864976,518.144159,-7772.162391,766.095498
365.865303,444.123565,-7772.162391,995.924147
365.865631,444.123565,-7698.141797,1915.238745
365.865959,-370.102971,-8734.430116,919.314598
365.866286,-1258.350101,-8956.491898,842.705048
365.866614,-2368.659014,-9326.594869,919.314598
365.866941,-2886.803174,-9400.615463,536.266849
365.867269,-2590.720797,-9400.615463,612.876398
365.867596,-2146.597232,-8956.491898,153.219100
365.867924,-1480.411884,-8956.491898,229.828649
365.868252,-740.205942,-8586.388927,842.705048
365.868579,0.000000,-8216.285956,842.705048
365.868907,814.226536,-7772.162391,995.924147
365.869234,592.164754,-8290.306550,1072.533697
365.869562,592.164754,-8512.368333,1225.752797
365.869889,74.020594,-9252.574275,1149.143247
365.870217,-740.205942,-9548.656652,995.924147
365.870545,-1480.411884,-10584.944971,689.485948
365.870872,-1258.350101,-10066.800811,153.219100
365.871200,-1480.411884,-9844.739029,536.266849
365.871527,-666.185348,-9770.718434,229.828649
365.871855,0.000000,-9548.656652,306.438199
365.872183,370.102971,-8882.471304,459.657299
365.872510,370.102971,-8364.327145,536.266849
365.872838,1036.288319,-8290.306550,459.657299
365.873165,962.267725,-8216.285956,383.047749
365.873493,592.164754,-8808.450710,383.047749
365.873820,148.041188,-9104.533087,383.047749
365.874148,-740.205942,-9696.697840,306.438199
365.874476,-1258.350101,-9770.718434,153.219100
365.874803,-2072.576638,-10066.800811,-536.266849
365.875131,-1850.514855,-9918.759623,-1072.533697
365.875458,-814.226536,-9326.594869,-766.095498
365.875786,592.164754,-8808.450710,-306.438199
365.876114,1702.473667,-8290.306550,0.000000
365.876441,2146.597232,-7994.224174,306.438199
365.876769,2368.659014,-8438.347739,842.705048
365.877096,2294.638420,-8734.430116,919.314598
365.877424,1628.453072,-9104.533087,919.314598
365.877751,148.041188,-9844.739029,995.924147
365.878079,-592.164754,-10510.924376,766.095498
365.878407,-1406.391290,-10436.903782,536.266849
365.878734,-1258.350101,-10584.944971,842.705048
365.879062,-814.226536,-10066.800811,383.047749
365.879389,-444.123565,-9918.759623,306.438199
365.879717,148.041188,-8882.471304,459.657299
365.880045,222.061783,-8364.327145,306.438199
365.880372,444.123565,-8142.265362,536.266849
365.880700,518.144159,-7994.224174,612.876398
365.881027,370.102971,-8512.368333,842.705048
365.881355,0.000000,-8512.368333,612.876398
365.881682,-1406.391290,-9030.512492,689.485948
365.882010,-2368.659014,-9622.677246,842.705048
365.882338,-2664.741391,-9474.636058,536.266849
365.882665,-3034.844362,-9548.656652,612.876398
365.882993,-1850.514855,-9400.615463,76.609550
365.883320,-1332.370696,-9104.533087,612.876398
365.883648,-222.061783,-8956.491898,919.314598
365.883975,74.020594,-8734.430116,1149.143247
365.884303,814.226536,-8068.244768,1072.533697
365.884631,1036.288319,-7698.141797,1915.238745
365.884958,1036.288319,-8660.409521,1225.752797
365.885286,296.082377,-9178.553681,842.705048
365.885613,-666.185348,-9326.594869,1149.143247
365.885941,-888.247130,-9770.718434,842.705048
365.886269,-1406.391290,-9992.780217,306.438199
365.886596,-1258.350101,-9622.677246,306.438199
365.886924,-592.164754,-9548.656652,536.266849
365.887251,-222.061783,-9326.594869,689.485948
365.887579,148.041188,-9030.512492,919.314598
365.887906,518.144159,-8882.471304,1149.143247
365.888234,814.226536,-8586.388927,1149.143247
365.888562,518.144159,-8364.327145,766.095498
365.888889,370.102971,-8364.327145,766.095498
365.889217,-148.041188,-8808.450710,919.314598
365.889544,-1036.288319,-9178.553681,229.828649
365.889872,-1924.535449,-9474.636058,76.609550
365.890200,-2368.659014,-9622.677246,-536.266849
365.890527,-1702.473667,-9474.636058,-536.266849
365.890855,-740.205942,-9104.533087,-612.876398
365.891182,148.041188,-8808.450710,0.000000
365.891510,814.226536,-8290.306550,459.657299
365.891837,1776.494261,-8290.306550,689.485948
365.892165,1702.473667,-8586.388927,919.314598
365.892493,1628.453072,-8808.450710,1225.752797
365.892820,888.247130,-9400.615463,1149.143247
365.893148,-148.041188,-9770.718434,1455.581446
365.893475,-444.123565,-10436.903782,689.485948
365.893803,-1110.308913,-10362.883188,689.485948
365.894131,-962.267725,-10066.800811,612.876398
365.894458,-740.205942,-9474.636058,306.438199
365.894786,74.020594,-9030.512492,459.657299
365.895113,0.000000,-8290.306550,536.266849
365.895441,222.061783,-8438.347739,153.219100
365.895768,148.041188,-8364.327145,306.438199
365.896096,148.041188,-8142.265362,306.438199
365.896424,666.185348,-8512.368333,919.314598
365.896751,-222.061783,-8216.285956,459.657299
365.897079,-1036.288319,-9104.533087,689.485948
365.897406,-1924.535449,-9622.677246,229.828649
365.897734,-2368.659014,-9622.677246,229.828649
365.898061,-2442.679609,-9474.636058,0.000000
365.898389,-1480.411884,-9178.553681,995.924147
365.898717,-888.247130,-8956.491898,0.000000
365.899044,-148.041188,-8438.347739,459.657299
365.899372,666.185348,-8068.244768,689.485948
365.899699,1110.308913,-7920.203579,1149.143247
365.900027,1554.432478,-7994.224174,1302.362347
365.900355,1554.432478,-8364.327145,1302.362347
365.900682,740.205942,-8882.471304,1149.143247
365.901010,-222.061783,-9770.718434,1225.752797
365.901337,-1036.288319,-10066.800811,842.705048
365.901665,-1480.411884,-9918.759623,766.095498
365.901992,-518.144159,-10214.842000,689.485948
365.902320,-444.123565,-9696.697840,842.705048
365.902648,0.000000,-9252.574275,689.485948
365.902975,296.082377,-9104.533087,919.314598
365.903303,222.061783,-8586.388927,1149.143247
365.903630,740.205942,-8438.347739,995.924147
365.903958,370.102971,-8142.265362,1149.143247
365.904286,0.000000,-8364.327145,1149.143247
365.904613,-592.164754,-8956.491898,1225.752797
365.904941,-1924.535449,-9474.636058,536.266849
365.905268,-2368.659014,-9696.697840,0.000000
365.905596,-3034.844362,-9474.636058,-229.828649
365.905923,-2590.720797,-9474.636058,-459.657299
365.906251,-1924.535449,-9030.512492,-383.047749
365.906579,-740.205942,-8660.409521,-229.828649
365.906906,148.041188,-8068.244768,229.828649
365.907234,1628.453072,-7920.203579,842.705048
365.907561,1702.473667,-8142.265362,612.876398
365.907889,1776.494261,-8512.368333,919.314598
365.908217,1258.350101,-9030.512492,1149.143247
365.908544,148.041188,-9474.636058,1302.362347
365.908872,0.000000,-9918.759623,689.485948
365.909199,-1110.308913,-10658.965565,612.876398
365.909527,-1184.329507,-10362.883188,229.828649
365.909854,-740.205942,-9918.759623,306.438199
365.910182,0.000000,-9326.594869,153.219100
365.910510,444.123565,-9474.636058,0.000000
365.910837,666.185348,-8290.306550,0.000000
365.911165,814.226536,-8216.285956,229.828649
365.911492,1036.288319,-7846.182985,459.657299
365.911820,814.226536,-7920.203579,229.828649
365.912147,296.082377,-8438.347739,842.705048
365.912475,-592.164754,-8956.491898,459.657299
365.912803,-1554.432478,-9326.594869,383.047749
365.913130,-2220.617826,-9696.697840,76.609550
365.913458,-2294.638420,-9696.697840,-153.219100
365.913785,-1924.535449,-9622.677246,153.219100
365.914113,-740.205942,-9400.615463,306.438199
365.914441,-518.144159,-8882.471304,153.219100
365.914768,222.061783,-8216.285956,612.876398
365.915096,740.205942,-8216.285956,612.876398
365.915423,1554.432478,-8290.306550,536.266849
365.915751,888.247130,-7994.224174,842.705048
365.916078,518.144159,-9030.512492,689.485948
365.916406,-296.082377,-9696.697840,459.657299
365.916734,-1332.370696,-9696.697840,689.485948
365.917061,-1406.391290,-10140.821405,306.438199
365.917389,-1480.411884,-9770.718434,0.000000
365.917716,-740.205942,-9918.759623,306.438199
365.918044,-296.082377,-9548.656652,536.266849
365.918372,74.020594,-8956.491898,383.047749
365.918699,148.041188,-8068.244768,766.095498
365.919027,592.164754,-8734.430116,842.705048
365.919354,1184.329507,-8290.306550,1149.143247
365.919682,296.082377,-8586.388927,612.876398
365.920009,-148.041188,-9474.636058,919.314598
365.920337,-1332.370696,-9400.615463,536.266849
365.920665,-2220.617826,-10436.903782,0.000000
365.920992,-2220.617826,-9844.739029,-76.609550
365.921320,-1924.535449,-9992.780217,-229.828649
365.921647,-1036.288319,-9474.636058,-306.438199
365.921975,-222.061783,-9104.533087,0.000000
365.922302,814.226536,-8364.327145,536.266849
365.922630,1406.391290,-8808.450710,766.095498
365.922958,1628.453072,-8512.368333,536.266849
365.923285,1850.514855,-8956.491898,1072.533697
365.923613,1036.288319,-9252.574275,842.705048
365.923940,222.061783,-10066.800811,1072.533697
365.924268,-814.226536,-9548.656652,1378.971896
365.924596,-1406.391290,-10584.944971,612.876398
365.924923,-1332.370696,-10214.842000,612.876398
365.925251,-962.267725,-10140.821405,306.438199
365.925578,-592.164754,-9622.677246,306.438199
365.925906,518.144159,-9548.656652,536.266849
365.926233,0.000000,-8660.409521,383.047749
365.926561,962.267725,-8290.306550,766.095498
365.926889,814.226536,-8068.244768,459.657299
365.927216,444.123565,-8808.450710,842.705048
365.927544,222.061783,-9104.533087,1608.800546
365.927871,-888.247130,-9030.512492,612.876398
365.928199,-1850.514855,-9918.759623,689.485948
365.928527,-2368.659014,-9918.759623,229.828649
365.928854,-2664.741391,-10066.800811,153.219100
365.929182,-1406.391290,-9252.574275,383.047749
365.929509,-814.226536,-8734.430116,229.828649
365.929837,222.061783,-8808.450710,842.705048
365.930164,296.082377,-8290.306550,919.314598
365.930492,1036.288319,-8142.265362,1455.581446
365.930820,1406.391290,-8216.285956,1302.362347
365.931147,962.267725,-8512.368333,1455.581446
365.931475,370.102971,-9400.615463,1072.533697
365.931802,-296.082377,-9548.656652,995.924147
365.932130,-1110.308913,-9622.677246,766.095498
365.932458,-1554.432478,-9918.759623,689.485948
365.932785,-814.226536,-9400.615463,689.485948
365.933113,0.000000,-9400.615463,689.485948
365.933440,370.102971,-8956.491898,995.924147
365.933768,444.123565,-8956.491898,1072.533697
365.934095,444.123565,-8586.388927,1072.533697
365.934423,592.164754,-8438.347739,1455.581446
365.934751,592.164754,-8216.285956,1455.581446
365.935078,74.020594,-8882.471304,1072.533697
365.935406,-370.102971,-9030.512492,536.266849
365.935733,-1554.432478,-9474.636058,689.485948
365.936061,-2072.576638,-9696.697840,383.047749
365.936388,-2220.617826,-9030.512492,-229.828649
365.936716,-1850.514855,-9104.533087,-306.438199
365.937044,-1332.370696,-8586.388927,-306.438199
365.937371,-222.061783,-8438.347739,-153.219100
365.937699,370.102971,-8142.265362,76.609550
365.938026,1184.329507,-7402.059420,612.876398
365.938354,1480.411884,-7994.224174,766.095498
365.938682,1258.350101,-8438.347739,1302.362347
365.939009,814.226536,-9178.553681,1072.533697
365.939337,-222.061783,-9622.677246,766.095498
365.939664,-1110.308913,-10140.821405,459.657299
365.939992,-1480.411884,-10510.924376,153.219100
365.940319,-1628.453072,-10288.862594,0.000000
365.940647,-1110.308913,-10066.800811,-306.438199
365.940975,0.000000,-9252.574275,-383.047749
365.941302,666.185348,-8734.430116,-229.828649
365.941630,1110.308913,-8068.244768,0.000000
365.941957,1406.391290,-8068.244768,0.000000
365.942285,1554.432478,-7994.224174,229.828649
365.942613,1332.370696,-8438.347739,306.438199
365.942940,814.226536,-9178.553681,766.095498
365.943268,-592.164754,-9104.533087,0.000000
365.943595,-1554.432478,-9992.780217,153.219100
365.943923,-1924.535449,-9918.759623,76.609550
365.944250,-1702.473667,-9844.739029,153.219100
365.944578,-962.267725,-9326.594869,383.047749
365.944906,0.000000,-8808.450710,689.485948
365.945233,518.144159,-8512.368333,766.095498
365.945561,962.267725,-8364.327145,689.485948
365.945888,888.247130,-8068.244768,1072.533697
365.946216,1110.308913,-8068.244768,1149.143247
365.946544,814.226536,-8660.409521,995.924147
365.946871,222.061783,-9474.636058,842.705048
365.947199,-814.226536,-9548.656652,995.924147
365.947526,-1776.494261,-10140.821405,995.924147
365.947854,-2368.659014,-10066.800811,689.485948
365.948182,-1776.494261,-9992.780217,919.314598
365.948509,-1406.391290,-9474.636058,459.657299
365.948837,-1258.350101,-9104.533087,612.876398
365.949164,-666.185348,-8882.471304,612.876398
365.949492,-296.082377,-8364.327145,766.095498
365.949820,0.000000,-8142.265362,689.485948
365.950147,370.102971,-7994.224174,1225.752797
365.950475,-222.061783,-8290.306550,842.705048
365.950803,-592.164754,-8956.491898,919.314598
365.951130,-1850.514855,-9474.636058,306.438199
365.951458,-2220.617826,-9474.636058,153.219100
365.951785,-2220.617826,-9548.656652,383.047749
365.952113,-1258.350101,-9474.636058,-229.828649
365.952441,-296.082377,-9252.574275,153.219100
365.952768,814.226536,-8808.450710,153.219100
365.953096,1480.411884,-8512.368333,536.266849
365.953424,1850.514855,-8364.327145,1378.971896
365.953751,1850.514855,-8512.368333,1072.533697
365.954079,1628.453072,-8956.491898,1302.362347
365.954406,814.226536,-9474.636058,1225.752797
365.954734,0.000000,-10288.862594,919.314598
365.955062,-740.205942,-10510.924376,1302.362347
365.955389,-1258.350101,-10436.903782,689.485948
365.955717,-1480.411884,-10288.862594,229.828649
365.956045,-888.247130,-9770.718434,76.609550
365.956372,-518.144159,-9400.615463,153.219100
365.956700,0.000000,-8882.471304,76.609550
365.957027,592.164754,-8068.244768,536.266849
365.957355,518.144159,-8216.285956,612.876398
365.957683,518.144159,-7994.224174,612.876398
365.958010,518.144159,-8216.285956,612.876398
365.958338,-296.082377,-8660.409521,536.266849
365.958666,-666.185348,-9400.615463,689.485948
365.958993,-2146.597232,-9474.636058,459.657299
365.959321,-2442.679609,-9770.718434,76.609550
365.959648,-2294.638420,-9474.636058,-306.438199
365.959976,-1554.432478,-9474.636058,0.000000
365.960304,-666.185348,-8586.388927,153.219100
365.960631,518.144159,-8438.347739,153.219100
365.960959,1110.308913,-8364.327145,689.485948
365.961287,1628.453072,-8142.265362,1072.533697
365.961614,1776.494261,-8216.285956,1302.362347
365.961942,1332.370696,-8438.347739,1149.143247
365.962269,740.205942,-9178.553681,1608.800546
365.962597,-370.102971,-9548.656652,919.314598
365.962925,-1184.329507,-9992.780217,919.314598
365.963252,-1036.288319,-9918.759623,919.314598
365.963580,-888.247130,-9770.718434,919.314598
365.963908,-222.061783,-9030.512492,1072.533697
365.964235,-222.061783,-8808.450710,995.924147
365.964563,0.000000,-8586.388927,919.314598
365.964891,0.000000,-8142.265362,1072.533697
365.965218,444.123565,-8068.244768,919.314598
365.965546,444.123565,-8068.244768,383.047749
365.965873,-222.061783,-8364.327145,689.485948
365.966201,-888.247130,-8956.491898,689.485948
365.966529,-1924.535449,-9400.615463,459.657299
365.966856,-2960.823768,-9548.656652,0.000000
365.967184,-2812.782580,-9770.718434,-459.657299
365.967512,-2664.741391,-8660.409521,-229.828649
365.967839,-1702.473667,-9178.553681,-383.047749
365.968167,-518.144159,-8438.347739,-153.219100
365.968494,296.082377,-8142.265362,306.438199
365.968822,1184.329507,-7920.203579,995.924147
365.969150,1702.473667,-8068.244768,1455.581446
365.969477,1406.391290,-8586.388927,1149.143247
365.969805,740.205942,-9326.594869,1149.143247
365.970133,0.000000,-9770.718434,1225.752797
365.970460,-888.247130,-10140.821405,766.095498
365.970788,-1332.370696,-9844.739029,536.266849
365.971115,-1110.308913,-10214.842000,76.609550
365.971443,-444.123565,-10066.800811,383.047749
365.971771,296.082377,-9474.636058,76.609550
365.972098,518.144159,-9104.533087,229.828649
365.972426,1110.308913,-8364.327145,459.657299
365.972754,1110.308913,-8216.285956,689.485948
365.973081,1184.329507,-8364.327145,766.095498
365.973409,1036.288319,-8364.327145,689.485948
365.973736,148.041188,-9252.574275,536.266849
365.974064,-666.185348,-9548.656652,689.485948
365.974392,-1850.514855,-9770.718434,459.657299
365.974719,-2368.659014,-9992.780217,76.609550
365.975047,-2072.576638,-9918.759623,153.219100
365.975375,-1406.391290,-9622.677246,306.438199
365.975702,-592.164754,-8956.491898,306.438199
365.976030,296.082377,-8512.368333,306.438199
365.976357,740.205942,-7846.182985,536.266849
365.976685,962.267725,-8068.244768,612.876398
365.977013,1110.308913,-8216.285956,1225.752797
365.977340,962.267725,-8734.430116,1072.533697
365.977668,74.020594,-8660.409521,919.314598
365.977996,-740.205942,-9696.697840,919.314598
365.978323,-1628.453072,-9844.739029,536.266849
365.978651,-1998.556043,-10066.800811,612.876398
365.978979,-1480.411884,-10066.800811,306.438199
365.979306,-814.226536,-9696.697840,0.000000
365.979634,-148.041188,-9326.594869,919.314598
365.979961,74.020594,-8660.409521,536.266849
365.980289,444.123565,-8216.285956,842.705048
365.980617,888.247130,-7920.203579,1149.143247
365.980944,1110.308913,-8290.306550,995.924147
365.981272,296.082377,-8216.285956,1608.800546
365.981600,-370.102971,-9104.533087,1072.533697
365.981927,-1480.411884,-9548.656652,612.876398
365.982255,-1998.556043,-9622.677246,536.266849
365.982582,-1776.494261,-9696.697840,306.438199
365.982910,-814.226536,-8956.491898,306.438199
365.983238,0.000000,-9030.512492,689.485948
365.983565,740.205942,-8512.368333,919.314598
365.983893,1036.288319,-8512.368333,1149.143247
365.984221,1184.329507,-8216.285956,1378.971896
365.984548,888.247130,-7772.162391,1455.581446
365.984876,1036.288319,-8660.409521,1378.971896
365.985203,370.102971,-9326.594869,1455.581446
365.985531,-592.164754,-9622.677246,1378.971896
365.985859,-1554.432478,-9992.780217,766.095498
365.986186,-1924.535449,-10140.821405,612.876398
365.986514,-2072.576638,-10066.800811,0.000000
365.986842,-1776.494261,-9770.718434,0.000000
365.987169,-1258.350101,-9400.615463,-229.828649
365.987497,-814.226536,-8956.491898,0.000000
365.987824,-518.144159,-8290.306550,76.609550
365.988152,444.123565,-8290.306550,536.266849
365.988480,518.144159,-7920.203579,383.047749
365.988807,370.102971,-8290.306550,689.485948
365.989135,-296.082377,-9104.533087,536.266849
365.989463,-1258.350101,-9326.594869,153.219100
365.989790,-1998.556043,-9178.553681,306.438199
365.990118,-2294.638420,-9918.759623,-459.657299
365.990445,-1554.432478,-9770.718434,-306.438199
365.990773,-814.226536,-9622.677246,-306.438199
365.991101,222.061783,-9104.533087,-229.828649
365.991428,1332.370696,-9104.533087,306.438199
365.991756,740.205942,-7772.162391,76.609550
365.992084,1850.514855,-8586.388927,383.047749
365.992411,1998.556043,-8808.450710,459.657299
365.992739,1332.370696,-8438.347739,383.047749
365.993066,1406.391290,-9844.739029,229.828649
365.993394,444.123565,-9622.677246,76.609550
365.993722,-666.185348,-10214.842000,229.828649
365.994049,-1184.329507,-9992.780217,0.000000
365.994377,-1332.370696,-10510.924376,0.000000
365.994705,-1110.308913,-8882.471304,0.000000
365.995032,-518.144159,-8956.491898,0.000000
365.995360,74.020594,-8586.388927,-306.438199
365.995688,1036.288319,-8364.327145,459.657299
365.996015,666.185348,-7920.203579,459.657299
365.996343,888.247130,-7772.162391,1149.143247
365.996670,74.020594,-8438.347739,459.657299
365.996998,-370.102971,-9622.677246,919.314598
365.997326,-1406.391290,-9770.718434,689.485948
365.997653,-2368.659014,-9622.677246,0.000000
365.997981,-1998.556043,-10214.842000,459.657299
365.998309,-1036.288319,-8956.491898,153.219100
365.998636,74.020594,-9400.615463,995.924147
365.998964,666.185348,-8364.327145,1149.143247
365.999291,962.267725,-8290.306550,1302.362347
365.999619,1406.391290,-9252.574275,1302.362347
365.999947,1480.411884,-8882.471304,995.924147
366.000274,1184.329507,-8882.471304,2451.505594
366.000602,148.041188,-9252.574275,1532.190996
366.000930,-370.102971,-10658.965565,1762.019645
366.001257,-1480.411884,-9992.780217,1378.971896
366.001585,-1924.535449,-10066.800811,995.924147
366.001912,-1998.556043,-10510.924376,1302.362347
366.002240,-962.267725,-9474.636058,1149.143247
366.002568,-1110.308913,-9104.533087,612.876398
366.002895,-814.226536,-8808.450710,689.485948
366.003223,-518.144159,-8438.347739,766.095498
366.003551,-370.102971,-7402.059420,766.095498
366.003878,74.020594,-8216.285956,612.876398
366.004206,74.020594,-8438.347739,995.924147
366.004533,-666.185348,-9030.512492,689.485948
366.004861,-1702.473667,-9474.636058,536.266849
366.005189,-2368.659014,-9252.574275,0.000000
366.005516,-2220.617826,-9770.718434,0.000000
366.005844,-2220.617826,-9770.718434,-76.609550
366.006172,-888.247130,-9474.636058,-229.828649
366.006499,0.000000,-9030.512492,76.609550
366.006827,1184.329507,-8586.388927,766.095498
366.007154,1776.494261,-8364.327145,459.657299
366.007482,2072.576638,-8364.327145,536.266849
366.007810,1998.556043,-8808.450710,689.485948
366.008137,1850.514855,-9400.615463,919.314598
366.008465,814.226536,-9696.697840,1149.143247
366.008793,148.041188,-9844.739029,766.095498
366.009120,-666.185348,-10436.903782,995.924147
366.009448,-222.061783,-10214.842000,842.705048
366.009775,0.000000,-9844.739029,612.876398
366.010103,518.144159,-9326.594869,919.314598
366.010431,814.226536,-9030.512492,1225.752797
366.010758,370.102971,-8586.388927,689.485948
366.011086,296.082377,-8142.265362,689.485948
366.011414,222.061783,-7846.182985,919.314598
366.011741,148.041188,-7994.224174,766.095498
366.012069,0.000000,-8438.347739,536.266849
366.012397,-888.247130,-8512.368333,766.095498
366.012724,-2146.597232,-9326.594869,306.438199
366.013052,-2812.782580,-9548.656652,0.000000
366.013379,-3034.844362,-9622.677246,-306.438199
366.013707,-2590.720797,-9030.512492,-153.219100
366.014035,-1332.370696,-8660.409521,-383.047749
366.014362,-444.123565,-8364.327145,0.000000
366.014690,296.082377,-8142.265362,536.266849
366.015018,1110.308913,-7994.224174,1149.143247
366.015345,1554.432478,-8142.265362,1072.533697
366.015673,1480.411884,-7920.203579,612.876398
366.016000,518.144159,-8808.450710,1072.533697
366.016328,-296.082377,-9770.718434,919.314598
366.016656,-962.267725,-10066.800811,612.876398
366.016983,-962.267725,-10214.842000,612.876398
366.017311,0.000000,-10214.842000,1072.533697
366.017639,0.000000,-9252.574275,612.876398
366.017966,222.061783,-9252.574275,612.876398
366.018294,666.185348,-8734.430116,766.095498
366.018621,592.164754,-8290.306550,689.485948
366.018949,740.205942,-8808.450710,1302.362347
366.019277,666.185348,-8438.347739,536.266849
366.019604,296.082377,-8586.388927,766.095498
366.019932,-296.082377,-9104.533087,766.095498
366.020260,-1110.308913,-9474.636058,536.266849
366.020587,-2072.576638,-9622.677246,612.876398
366.020915,-2812.782580,-9844.739029,383.047749
366.021242,-2516.700203,-9696.697840,-766.095498
366.021570,-2294.638420,-9326.594869,-689.485948
366.021898,-1258.350101,-8808.450710,-612.876398
366.022225,-296.082377,-8364.327145,-306.438199
366.022553,370.102971,-7624.121203,0.000000
366.022881,1480.411884,-7920.203579,536.266849
366.023208,1924.535449,-8216.285956,842.705048
366.023536,1258.350101,-8882.471304,612.876398
366.023863,222.061783,-9548.656652,995.924147
366.024191,-592.164754,-10362.883188,766.095498
366.024519,-1554.432478,-10510.924376,459.657299
366.024846,-1406.391290,-10584.944971,306.438199
366.025174,-592.164754,-10584.944971,306.438199
366.025502,0.000000,-9844.739029,383.047749
366.025829,666.185348,-9252.574275,229.828649
366.026157,1184.329507,-8438.347739,1225.752797
366.026484,1036.288319,-8068.244768,842.705048
366.026812,1406.391290,-8216.285956,919.314598
366.027140,1036.288319,-8438.347739,766.095498
366.027467,370.102971,-8956.491898,919.314598
366.027795,-1036.288319,-9178.553681,842.705048
366.028123,-1702.473667,-9622.677246,536.266849
366.028450,-2442.679609,-9622.677246,229.828649
366.028778,-2516.700203,-9548.656652,153.219100
366.029106,-1850.514855,-9178.553681,0.000000
366.029433,-1480.411884,-8068.244768,229.828649
366.029761,-148.041188,-8142.265362,306.438199
366.030088,296.082377,-7698.141797,766.095498
366.030416,1184.329507,-7476.080014,1302.362347
366.030744,1258.350101,-7772.162391,1455.581446
366.031071,1554.432478,-8586.388927,1455.581446
366.031399,370.102971,-9104.533087,1225.752797
366.031727,-666.185348,-9622.677246,1302.362347
366.032054,-1406.391290,-10288.862594,1072.533697
366.032382,-1702.473667,-10362.883188,612.876398
366.032709,-1628.453072,-10288.862594,1149.143247
366.033037,-592.164754,-9844.739029,459.657299
366.033365,-148.041188,-9474.636058,689.485948
366.033692,0.000000,-8956.491898,383.047749
366.034020,296.082377,-8882.471304,689.485948
366.034348,222.061783,-8216.285956,1072.533697
366.034675,666.185348,-8290.306550,919.314598
366.035003,444.123565,-8512.368333,919.314598
366.035330,-370.102971,-8734.430116,766.095498
366.035658,-1110.308913,-9474.636058,689.485948
366.035986,-2220.617826,-9844.739029,0.000000
366.036313,-2516.700203,-9770.718434,0.000000
366.036641,-2368.659014,-9918.759623,-612.876398
366.036969,-1702.473667,-9252.574275,-689.485948
366.037296,-518.144159,-9104.533087,-536.266849
366.037624,518.144159,-8438.347739,-306.438199
366.037951,1406.391290,-7920.203579,76.609550
366.038279,2368.659014,-7698.141797,459.657299
366.038607,2368.659014,-8290.306550,536.266849
366.038934,1702.473667,-9104.533087,536.266849
366.039262,666.185348,-9844.739029,383.047749
366.039590,-296.082377,-10362.883188,306.438199
366.039917,-1110.308913,-10658.965565,919.314598
366.040245,-888.247130,-10881.027347,153.219100
366.040572,-518.144159,-10436.903782,383.047749
366.040900,0.000000,-9844.739029,536.266849
366.041228,740.205942,-9696.697840,612.876398
366.041555,814.226536,-8808.450710,689.485948
366.041883,666.185348,-8586.388927,536.266849
366.042211,740.205942,-8438.347739,766.095498
366.042538,592.164754,-8586.388927,842.705048
366.042866,0.000000,-8956.491898,766.095498
366.043193,-1036.288319,-9474.636058,536.266849
366.043521,-1628.453072,-9548.656652,306.438199
366.043849,-2220.617826,-9992.780217,383.047749
366.044176,-2368.659014,-9696.697840,0.000000
366.044504,-2072.576638,-9326.594869,0.000000
366.044832,-740.205942,-8660.409521,459.657299
366.045159,0.000000,-8216.285956,766.095498
366.045487,740.205942,-7772.162391,766.095498
366.045815,1480.411884,-7772.162391,1685.410096
366.046142,1702.473667,-8068.244768,1838.629195
366.046470,1184.329507,-8438.347739,1149.143247
366.046797,592.164754,-8882.471304,2298.286494
366.047125,-740.205942,-9548.656652,1532.190996
366.047453,-1258.350101,-10140.821405,1378.971896
366.047780,-1776.494261,-10140.821405,1149.143247
366.048108,-1406.391290,-9918.759623,1149.143247
366.048435,-814.226536,-9178.553681,536.266849
366.048763,-592.164754,-9252.574275,459.657299
366.049091,0.000000,-8660.409521,919.314598
366.049418,222.061783,-8142.265362,306.438199
366.049746,0.000000,-7550.100608,689.485948
366.050073,148.041188,-7698.141797,459.657299
366.050401,-518.144159,-7994.224174,536.266849
366.050729,-962.267725,-8512.368333,536.266849
366.051056,-1776.494261,-9252.574275,229.828649
366.051384,-2368.659014,-9696.697840,0.000000
366.051712,-2590.720797,-9770.718434,-383.047749
366.052039,-2368.659014,-9474.636058,0.000000
366.052367,-1628.453072,-9104.533087,-536.266849
366.052694,-518.144159,-8734.430116,-536.266849
366.053022,592.164754,-8438.347739,-229.828649
366.053350,1554.432478,-8438.347739,153.219100
366.053677,2072.576638,-7994.224174,306.438199
366.054005,2294.638420,-8438.347739,689.485948
366.054332,2072.576638,-9326.594869,689.485948
366.054660,1110.308913,-9992.780217,536.266849
366.054988,148.041188,-10436.903782,383.047749
366.055315,-444.123565,-10362.883188,229.828649
366.055643,-518.144159,-10584.944971,229.828649
366.055971,74.020594,-10140.821405,306.438199
366.056298,222.061783,-9696.697840,306.438199
366.056626,814.226536,-9178.553681,459.657299
366.056953,1110.308913,-8808.450710,612.876398
366.057281,1184.329507,-8512.368333,459.657299
366.057609,888.247130,-8216.285956,766.095498
366.057936,592.164754,-8364.327145,842.705048
366.058264,0.000000,-8808.450710,842.705048
366.058591,-962.267725,-9474.636058,1149.143247
366.058919,-1850.514855,-9474.636058,612.876398
366.059247,-2590.720797,-9844.739029,76.609550
366.059574,-2516.700203,-9770.718434,0.000000
366.059902,-2146.597232,-9252.574275,229.828649
366.060230,-1258.350101,-8808.450710,459.657299
366.060557,-444.123565,-8290.306550,153.219100
366.060885,148.041188,-8290.306550,919.314598
366.061212,444.123565,-8216.285956,1378.971896
366.061540,814.226536,-8290.306550,1378.971896
366.061868,592.164754,-8734.430116,1455.581446
366.062195,222.061783,-9326.594869,1838.629195
366.062523,-1036.288319,-9770.718434,1225.752797
366.062850,-1776.494261,-10214.842000,1149.143247
366.063178,-1850.514855,-10066.800811,919.314598
366.063506,-1776.494261,-9770.718434,689.485948
366.063833,-1036.288319,-9548.656652,229.828649
366.064161,0.000000,-8882.471304,459.657299
366.064489,222.061783,-8660.409521,536.266849
366.064816,222.061783,-8290.306550,842.705048
366.065144,444.123565,-8216.285956,612.876398
366.065471,444.123565,-8142.265362,1149.143247
366.065799,296.082377,-8586.388927,842.705048
366.066127,-666.185348,-9178.553681,842.705048
366.066454,-1406.391290,-9474.636058,459.657299
366.066782,-2220.617826,-9844.739029,0.000000
366.067109,-2146.597232,-10140.821405,-306.438199
366.067437,-1850.514855,-9474.636058,-536.266849
366.067765,-1110.308913,-9326.594869,-536.266849
366.068092,0.000000,-9104.533087,-383.047749
366.068420,518.144159,-8586.388927,-229.828649
366.068747,1110.308913,-8364.327145,0.000000
366.069075,1184.329507,-7920.203579,766.095498
366.069403,2146.597232,-8364.327145,766.095498
366.069730,1554.432478,-9030.512492,689.485948
366.070058,592.164754,-9548.656652,689.485948
366.070386,-296.082377,-9918.759623,612.876398
366.070713,-814.226536,-10362.883188,536.266849
366.071041,-814.226536,-10362.883188,306.438199
366.071368,-444.123565,-9992.780217,229.828649
366.071696,148.041188,-9474.636058,383.047749
366.072024,444.123565,-9252.574275,842.705048
366.072351,1258.350101,-8438.347739,995.924147
366.072679,1184.329507,-7476.080014,383.047749
366.073006,1110.308913,-8216.285956,612.876398
366.073334,666.185348,-8364.327145,689.485948
366.073662,74.020594,-8586.388927,536.266849
366.073989,-1036.288319,-8956.491898,919.314598
366.074317,-1332.370696,-9252.574275,153.219100
366.074645,-2516.700203,-9622.677246,0.000000
366.074972,-2664.741391,-9474.636058,0.000000
366.075300,-1998.556043,-9474.636058,0.000000
366.075627,-1036.288319,-8956.491898,153.219100
366.075955,74.020594,-8290.306550,995.924147
366.076283,518.144159,-8438.347739,1072.533697
366.076610,740.205942,-8068.244768,1378.971896
366.076938,1184.329507,-8364.327145,1608.800546
366.077265,740.205942,-8660.409521,1915.238745
366.077593,74.020594,-9030.512492,1225.752797
366.077921,-814.226536,-9918.759623,1225.752797
366.078248,-1554.432478,-10140.821405,1072.533697
366.078576,-1924.535449,-10066.800811,919.314598
366.078904,-1406.391290,-9696.697840,919.314598
366.079231,-444.123565,-9400.615463,1072.533697
366.079559,-296.082377,-8734.430116,689.485948
366.079886,74.020594,-8660.409521,689.485948
366.080214,74.020594,-8438.347739,689.485948
366.080542,296.082377,-8068.244768,919.314598
366.080869,370.102971,-8290.306550,612.876398
366.081197,0.000000,-8512.368333,1072.533697
366.081524,-518.144159,-9030.512492,689.485948
366.081852,-1554.432478,-9548.656652,536.266849
366.082180,-2220.617826,-9770.718434,153.219100
366.082507,-2442.679609,-9548.656652,0.000000
366.082835,-1776.494261,-9326.594869,153.219100
366.083162,-1258.350101,-9178.553681,0.000000
366.083490,-370.102971,-8808.450710,-383.047749
366.083818,370.102971,-8142.265362,0.000000
366.084145,1332.370696,-7994.224174,229.828649
366.084473,1850.514855,-7846.182985,919.314598
366.084801,1554.432478,-7846.182985,919.314598
366.085128,1258.350101,-9030.512492,766.095498
366.085456,370.102971,-9622.677246,842.705048
366.085783,-592.164754,-10140.821405,612.876398
366.086111,-1036.288319,-10955.047942,459.657299
366.086439,-1036.288319,-10288.862594,612.876398
366.086766,-592.164754,-9770.718434,153.219100
366.087094,74.020594,-9548.656652,153.219100
366.087421,74.020594,-9252.574275,0.000000
366.087749,518.144159,-8734.430116,153.219100
366.088077,1184.329507,-8364.327145,459.657299
366.088404,740.205942,-8216.285956,306.438199
366.088732,444.123565,-8290.306550,306.438199
366.089060,296.082377,-8882.471304,459.657299
366.089387,-444.123565,-9400.615463,459.657299
366.089715,-1406.391290,-9474.636058,459.657299
366.090042,-1850.514855,-9622.677246,-229.828649
366.090370,-2146.597232,-9622.677246,0.000000
366.090698,-1480.411884,-9474.636058,0.000000
366.091025,-814.226536,-9178.553681,0.000000
366.091353,296.082377,-8586.388927,689.485948
366.091680,962.267725,-8512.368333,919.314598
366.092008,1184.329507,-8512.368333,1378.971896
366.092336,1406.391290,-8660.409521,1455.581446
366.092663,1258.350101,-9030.512492,1532.190996
366.092991,518.144159,-9400.615463,1149.143247
366.093319,-296.082377,-9992.780217,1149.143247
366.093646,-1406.391290,-9992.780217,995.924147
366.093974,-1850.514855,-9992.780217,766.095498
366.094301,-1480.411884,-9844.739029,689.485948
366.094629,-962.267725,-9474.636058,612.876398
366.094957,-296.082377,-9252.574275,995.924147
366.095284,0.000000,-8808.450710,842.705048
366.095612,-148.041188,-8586.388927,995.924147
366.095939,-222.061783,-8290.306550,919.314598
366.096267,-222.061783,-8216.285956,995.924147
366.096595,-296.082377,-7994.224174,1302.362347
366.096922,-962.267725,-8808.450710,1302.362347
366.097250,-1628.453072,-9326.594869,842.705048
366.097578,-2368.659014,-9474.636058,383.047749
366.097905,-2886.803174,-9548.656652,-153.219100
366.098233,-2368.659014,-9548.656652,76.609550
366.098560,-1480.411884,-9326.594869,-459.657299
366.098888,-814.226536,-8882.471304,-612.876398
366.099216,222.061783,-8512.368333,-153.219100
366.099543,1258.350101,-8290.306550,76.609550
366.099871,1998.556043,-8142.265362,612.876398
366.100198,2072.576638,-9030.512492,536.266849
366.100526,1554.432478,-9252.574275,536.266849
366.100854,518.144159,-9770.718434,459.657299
366.101181,0.000000,-10362.883188,306.438199
366.101509,-888.247130,-10584.944971,153.219100
366.101836,-592.164754,-10066.800811,153.219100
366.102164,-296.082377,-9992.780217,153.219100
366.102492,74.020594,-9474.636058,76.609550
366.102819,666.185348,-8956.491898,153.219100
366.103147,740.205942,-8512.368333,229.828649
366.103475,1406.391290,-7994.224174,612.876398
366.103802,1406.391290,-7994.224174,383.047749
366.104130,1332.370696,-8216.285956,76.609550
366.104457,666.185348,-8734.430116,536.266849
366.104785,-296.082377,-9474.636058,459.657299
366.105113,-1702.473667,-9548.656652,76.609550
366.105440,-2368.659014,-9770.718434,0.000000
366.105768,-2220.617826,-9770.718434,-306.438199
366.106095,-1776.494261,-9474.636058,-306.438199
366.106423,-962.267725,-9030.512492,153.219100
366.106751,296.082377,-8512.368333,306.438199
366.107078,888.247130,-7846.182985,1455.581446
366.107406,1406.391290,-8068.244768,1225.752797
366.107734,1332.370696,-8364.327145,1378.971896
366.108061,1110.308913,-8734.430116,1532.190996
366.108389,74.020594,-9474.636058,1532.190996
366.108716,-962.267725,-9622.677246,1762.019645
366.109044,-1480.411884,-10362.883188,1225.752797
366.109372,-1776.494261,-10140.821405,1225.752797
366.109699,-1406.391290,-9696.697840,995.924147
366.110027,-888.247130,-9474.636058,995.924147
366.110354,0.000000,-8956.491898,1072.533697
366.110682,0.000000,-8512.368333,1225.752797
366.111010,148.041188,-8216.285956,1302.362347
366.111337,296.082377,-8068.244768,1532.190996
366.111665,296.082377,-8364.327145,1378.971896
366.111993,-222.061783,-8586.388927,1149.143247
366.112320,-1036.288319,-8808.450710,1149.143247
366.112648,-2146.597232,-9548.656652,995.924147
366.112975,-2590.720797,-9548.656652,612.876398
366.113303,-2886.803174,-9696.697840,306.438199
366.113631,-2368.659014,-9474.636058,-153.219100
366.113958,-1480.411884,-8956.491898,0.000000
366.114286,-666.185348,-8734.430116,0.000000
366.114613,148.041188,-8438.347739,0.000000
366.114941,666.185348,-7994.224174,229.828649
366.115269,1258.350101,-8142.265362,0.000000
366.115596,1554.432478,-7994.224174,919.314598
366.115924,1036.288319,-8734.430116,459.657299
366.116252,444.123565,-9474.636058,229.828649
366.116579,-370.102971,-9992.780217,76.609550
366.116907,-888.247130,-9992.780217,229.828649
366.117234,-814.226536,-9622.677246,0.000000
366.117562,-592.164754,-9770.718434,76.609550
366.117890,222.061783,-9178.553681,76.609550
366.118217,444.123565,-8808.450710,0.000000
366.118545,1184.329507,-8512.368333,153.219100
366.118872,1628.453072,-7920.203579,1225.752797
366.119200,1554.432478,-7920.203579,536.266849
366.119528,1406.391290,-8216.285956,536.266849
366.119855,592.164754,-8660.409521,536.266849
366.120183,-370.102971,-9326.594869,306.438199
366.120510,-1332.370696,-9474.636058,76.609550
366.120838,-1628.453072,-9770.718434,-459.657299
366.121166,-1924.535449,-9400.615463,-229.828649
366.121493,-1258.350101,-8956.491898,0.000000
366.121821,-518.144159,-8660.409521,0.000000
366.122149,0.000000,-8216.285956,383.047749
366.122476,0.000000,-8142.265362,995.924147
366.122804,888.247130,-7994.224174,1072.533697
366.123131,1036.288319,-8438.347739,1455.581446
366.123459,740.205942,-8734.430116,1378.971896
366.123787,0.000000,-9474.636058,1225.752797
366.124114,-814.226536,-9844.739029,612.876398
366.124442,-1702.473667,-10288.862594,1225.752797
366.124769,-1924.535449,-9918.759623,919.314598
366.125097,-1702.473667,-9548.656652,536.266849
366.125425,-814.226536,-9474.636058,842.705048
366.125752,-222.061783,-9252.574275,1532.190996
366.126080,0.000000,-8808.450710,1149.143247
366.126408,148.041188,-8660.409521,689.485948
366.126735,296.082377,-8734.430116,1149.143247
366.127063,74.020594,-8882.471304,995.924147
366.127390,0.000000,-9030.512492,995.924147
366.127718,-518.144159,-9252.574275,1149.143247
366.128046,-1702.473667,-9770.718434,919.314598
366.128373,-2220.617826,-9992.780217,612.876398
366.128701,-2516.700203,-10140.821405,76.609550
366.129028,-2294.638420,-9696.697840,-229.828649
366.129356,-962.267725,-9474.636058,-76.609550
366.129684,-296.082377,-8956.491898,0.000000
366.130011,74.020594,-8586.388927,0.000000
366.130339,1036.288319,-8660.409521,383.047749
366.130667,1480.411884,-8660.409521,612.876398
366.130994,2072.576638,-8364.327145,1072.533697
366.131322,1406.391290,-9178.553681,1072.533697
366.131649,518.144159,-9770.718434,689.485948
366.131977,-814.226536,-10288.862594,306.438199
366.132305,-1258.350101,-10436.903782,76.609550
366.132632,-1332.370696,-10288.862594,612.876398
366.132960,-518.144159,-9992.780217,229.828649
366.133287,0.000000,-9548.656652,0.000000
366.133615,666.185348,-8956.491898,153.219100
366.133943,814.226536,-8660.409521,229.828649
366.134270,1110.308913,-8142.265362,383.047749
366.134598,1554.432478,-8068.244768,612.876398
366.134925,814.226536,-8216.285956,229.828649
366.135253,370.102971,-8808.450710,306.438199
366.135581,-666.185348,-9474.636058,306.438199
366.135908,-1628.453072,-9548.656652,306.438199
366.136236,-1998.556043,-9696.697840,229.828649
366.136564,-1998.556043,-9474.636058,306.438199
366.136891,-1332.370696,-8956.491898,0.000000
366.137219,-592.164754,-8512.368333,229.828649
366.137546,444.123565,-7846.182985,383.047749
366.137874,1184.329507,-7846.182985,536.266849
366.138202,1628.453072,-7550.100608,1532.190996
366.138529,1628.453072,-7698.141797,1608.800546
366.138857,1258.350101,-8216.285956,1608.800546
366.139184,148.041188,-9178.553681,1608.800546
366.139512,-666.185348,-9474.636058,1762.019645
366.139840,-1110.308913,-9622.677246,1685.410096
366.140167,-1924.535449,-9992.780217,1072.533697
366.140495,-1480.411884,-9474.636058,1072.533697
366.140823,-1184.329507,-9326.594869,919.314598
366.141150,-444.123565,-8882.471304,1149.143247
366.141478,-370.102971,-8068.244768,995.924147
366.141805,0.000000,-8216.285956,919.314598
366.142133,-222.061783,-7994.224174,919.314598
366.142461,0.000000,-7994.224174,1072.533697
366.142788,-370.102971,-8364.327145,995.924147
366.143116,-1036.288319,-8734.430116,919.314598
366.143443,-1924.535449,-9400.615463,919.314598
366.143771,-2738.761985,-9400.615463,229.828649
366.144099,-2664.741391,-9622.677246,0.000000
366.144426,-2442.679609,-9696.697840,0.000000
366.144754,-1480.411884,-9548.656652,-612.876398
366.145082,-518.144159,-8660.409521,229.828649
366.145409,370.102971,-8512.368333,153.219100
366.145737,1406.391290,-8438.347739,306.438199
366.146064,1998.556043,-8290.306550,612.876398
366.146392,2294.638420,-8586.388927,842.705048
366.146720,1702.473667,-9252.574275,842.705048
366.147047,444.123565,-9992.780217,459.657299
366.147375,-148.041188,-10436.903782,383.047749
366.147702,-814.226536,-10807.006753,0.000000
366.148030,-962.267725,-10510.924376,-306.438199
366.148357,0.000000,-10288.862594,-229.828649
366.148685,370.102971,-9696.697840,76.609550
366.149012,518.144159,-9326.594869,0.000000
366.149340,814.226536,-9030.512492,0.000000
366.149668,962.267725,-8586.388927,0.000000
366.149995,814.226536,-8216.285956,689.485948
366.150323,814.226536,-8586.388927,612.876398
366.150650,0.000000,-9030.512492,306.438199
366.150978,-1110.308913,-9326.594869,536.266849
366.151305,-1924.535449,-9474.636058,229.828649
366.151633,-2368.659014,-9992.780217,-229.828649
366.151960,-2294.638420,-9548.656652,0.000000
366.152288,-1480.411884,-9548.656652,-153.219100
366.152615,-888.247130,-8956.491898,0.000000
366.152943,0.000000,-8660.409521,459.657299
366.153270,666.185348,-7994.224174,536.266849
366.153598,1480.411884,-7698.141797,1762.019645
366.153925,1776.494261,-8364.327145,1302.362347
366.154253,1184.329507,-8882.471304,1302.362347
366.154580,296.082377,-9474.636058,1302.362347
366.154908,-666.185348,-10066.800811,1225.752797
366.155235,-1702.473667,-9770.718434,1838.629195
366.155563,-1332.370696,-9696.697840,919.314598
366.155891,-1258.350101,-9770.718434,1149.143247
366.156218,-296.082377,-9474.636058,1455.581446
366.156546,-148.041188,-9030.512492,995.924147
366.156873,-296.082377,-8290.306550,1378.971896
366.157201,296.082377,-8586.388927,1149.143247
366.157528,0.000000,-8512.368333,1149.143247
366.157856,0.000000,-8290.306550,766.095498
366.158183,-296.082377,-8364.327145,995.924147
366.158511,-814.226536,-8438.347739,1302.362347
366.158838,-1332.370696,-9178.553681,689.485948
366.159166,-2590.720797,-9474.636058,306.438199
366.159493,-2442.679609,-9474.636058,0.000000
366.159821,-2368.659014,-9400.615463,-459.657299
366.160148,-1776.494261,-9252.574275,-459.657299
366.160476,-444.123565,-8734.430116,153.219100
366.160803,148.041188,-8586.388927,0.000000
366.161131,1036.288319,-8068.244768,306.438199
366.161459,1554.432478,-8068.244768,536.266849
366.161786,1850.514855,-8808.450710,842.705048
366.162114,888.247130,-9178.553681,1149.143247
366.162441,222.061783,-9696.697840,689.485948
366.162769,-814.226536,-10288.862594,383.047749
366.163096,-962.267725,-10436.903782,0.000000
366.163424,-592.164754,-10510.924376,-229.828649
366.163751,0.000000,-9696.697840,229.828649
366.164079,518.144159,-9474.636058,0.000000
366.164406,740.205942,-9104.533087,306.438199
366.164734,1110.308913,-8586.388927,229.828649
366.165061,1110.308913,-8586.388927,459.657299
366.165389,1036.288319,-8586.388927,689.485948
366.165716,1036.288319,-8956.491898,612.876398
366.166044,370.102971,-9252.574275,459.657299
366.166371,-592.164754,-9844.739029,383.047749
366.166699,-1628.453072,-10140.821405,229.828649
366.167026,-2220.617826,-10288.862594,0.000000
366.167354,-1998.556043,-9844.739029,-229.828649
366.167682,-1702.473667,-9622.677246,0.000000
366.168009,-888.247130,-9474.636058,0.000000
366.168337,148.041188,-8586.388927,383.047749
366.168664,1110.308913,-8290.306550,919.314598
366.168992,1924.535449,-7846.182985,306.438199
366.169319,1332.370696,-8142.265362,1608.800546
366.169647,888.247130,-8734.430116,1685.410096
366.169974,0.000000,-9400.615463,1532.190996
366.170302,-1036.288319,-9622.677246,1225.752797
366.170629,-1702.473667,-10214.842000,1455.581446
366.170957,-1702.473667,-10140.821405,1149.143247
366.171284,-1332.370696,-9992.780217,1072.533697
366.171612,-370.102971,-9474.636058,1072.533697
366.171939,0.000000,-9104.533087,1225.752797
366.172267,222.061783,-8512.368333,1532.190996
366.172594,592.164754,-8364.327145,1455.581446
366.172922,74.020594,-8586.388927,1378.971896
366.173250,0.000000,-8438.347739,1225.752797
366.173577,-222.061783,-8734.430116,1072.533697
366.173905,-1036.288319,-9030.512492,995.924147
366.174232,-1702.473667,-9474.636058,612.876398
366.174560,-2590.720797,-9474.636058,536.266849
366.174887,-2664.741391,-9400.615463,153.219100
366.175215,-2146.597232,-9474.636058,0.000000
366.175542,-1480.411884,-9104.533087,0.000000
366.175870,-518.144159,-8808.450710,0.000000
366.176197,222.061783,-8290.306550,229.828649
366.176525,518.144159,-7920.203579,459.657299
366.176852,1036.288319,-8290.306550,1072.533697
366.177180,1332.370696,-8660.409521,919.314598
366.177507,518.144159,-8438.347739,1072.533697
366.177835,148.041188,-9474.636058,766.095498
366.178162,-592.164754,-9770.718434,153.219100
366.178490,-1184.329507,-9918.759623,0.000000
366.178818,-592.164754,-9918.759623,0.000000
366.179145,0.000000,-9326.594869,-229.828649
366.179473,592.164754,-9104.533087,229.828649
366.179800,814.226536,-8808.450710,76.609550
366.180128,1332.370696,-8808.450710,0.000000
366.180455,888.247130,-8586.388927,306.438199
366.180783,1110.308913,-8364.327145,459.657299
366.181110,814.226536,-8734.430116,459.657299
366.181438,74.020594,-8956.491898,0.000000
366.181765,-592.164754,-9548.656652,229.828649
366.182093,-1332.370696,-9992.780217,-153.219100
366.182420,-1850.514855,-9770.718434,-459.657299
366.182748,-1332.370696,-9326.594869,-536.266849
366.183075,-888.247130,-8956.491898,-612.876398
366.183403,-296.082377,-8956.491898,-306.438199
366.183730,888.247130,-8364.327145,0.000000
366.184058,1332.370696,-7846.182985,459.657299
366.184385,1628.453072,-7698.141797,1455.581446
366.184713,1924.535449,-8364.327145,1225.752797
366.185041,1110.308913,-9252.574275,1302.362347
366.185368,222.061783,-9696.697840,1225.752797
366.185696,-888.247130,-9844.739029,995.924147
366.186023,-1554.432478,-10140.821405,995.924147
366.186351,-1554.432478,-9770.718434,1225.752797
366.186678,-1184.329507,-9770.718434,766.095498
366.187006,-370.102971,-9252.574275,1072.533697
366.187333,0.000000,-8808.450710,995.924147
366.187661,148.041188,-8512.368333,1378.971896
366.187988,0.000000,-8216.285956,1532.190996
366.188316,74.020594,-8438.347739,995.924147
366.188643,-296.082377,-8512.368333,1149.143247
366.188971,-518.144159,-8660.409521,1378.971896
366.189298,-1480.411884,-9104.533087,919.314598
366.189626,-1998.556043,-9400.615463,995.924147
366.189953,-3034.844362,-9400.615463,766.095498
366.190281,-2960.823768,-9548.656652,153.219100
366.190609,-2294.638420,-9400.615463,153.219100
366.190936,-1406.391290,-9104.533087,0.000000
366.191264,-370.102971,-8808.450710,919.314598
366.191591,296.082377,-7994.224174,1225.752797
366.191919,1036.288319,-8068.244768,1149.143247
366.192246,1406.391290,-8068.244768,1225.752797
366.192574,1332.370696,-8290.306550,1302.362347
366.192901,962.267725,-8956.491898,1072.533697
366.193229,296.082377,-9696.697840,1532.190996
366.193556,-888.247130,-10436.903782,766.095498
366.193884,-1480.411884,-10584.944971,383.047749
366.194211,-1332.370696,-10510.924376,383.047749
366.194539,-370.102971,-9696.697840,76.609550
366.194866,-370.102971,-9400.615463,459.657299
366.195194,296.082377,-9104.533087,229.828649
366.195521,592.164754,-8734.430116,383.047749
366.195849,814.226536,-8290.306550,536.266849
366.196176,666.185348,-7994.224174,306.438199
366.196504,888.247130,-8364.327145,459.657299
366.196832,0.000000,-8660.409521,0.000000
366.197159,-962.267725,-9400.615463,306.438199
366.197487,-1776.494261,-9474.636058,0.000000
366.197814,-2368.659014,-9696.697840,-383.047749
366.198142,-2072.576638,-10066.800811,-689.485948
366.198469,-1702.473667,-9474.636058,-842.705048
366.198797,-666.185348,-8882.471304,-306.438199
366.199124,222.061783,-8438.347739,76.609550
366.199452,1332.370696,-8142.265362,306.438199
366.199779,1850.514855,-8068.244768,766.095498
366.200107,2516.700203,-8438.347739,1149.143247
366.200434,1554.432478,-8586.388927,1302.362347
366.200762,740.205942,-9474.636058,842.705048
366.201089,-444.123565,-10066.800811,766.095498
366.201417,-962.267725,-10362.883188,689.485948
366.201744,-962.267725,-10214.842000,383.047749
366.202072,-888.247130,-9548.656652,689.485948
366.202400,-222.061783,-9474.636058,919.314598
366.202727,148.041188,-9104.533087,1072.533697
366.203055,370.102971,-8808.450710,919.314598
366.203382,0.000000,-8438.347739,1072.533697
366.203710,222.061783,-8290.306550,1149.143247
366.204037,74.020594,-8364.327145,919.314598
366.204365,-444.123565,-8512.368333,995.924147
366.204692,-1332.370696,-8734.430116,919.314598
366.205020,-1924.535449,-9178.553681,1149.143247
366.205347,-2590.720797,-9252.574275,766.095498
366.205675,-2738.761985,-9400.615463,153.219100
366.206002,-2368.659014,-9326.594869,0.000000
366.206330,-1554.432478,-9030.512492,229.828649
366.206657,-592.164754,-8734.430116,536.266849
366.206985,-148.041188,-8364.327145,1149.143247
366.207312,592.164754,-8290.306550,919.314598
366.207640,962.267725,-8364.327145,1302.362347
366.207967,1036.288319,-8586.388927,1072.533697
366.208295,444.123565,-9178.553681,1225.752797
366.208623,-222.061783,-9918.759623,689.485948
366.208950,-1184.329507,-10066.800811,766.095498
366.209278,-1406.391290,-10214.842000,229.828649
366.209605,-1332.370696,-9918.759623,306.438199
366.209933,-296.082377,-9844.739029,229.828649
366.210260,74.020594,-9252.574275,612.876398
366.210588,592.164754,-9178.553681,459.657299
366.210915,814.226536,-8586.388927,229.828649
366.211243,518.144159,-8438.347739,153.219100
366.211570,740.205942,-8438.347739,383.047749
366.211898,740.205942,-8808.450710,689.485948
366.212225,0.000000,-8882.471304,383.047749
366.212553,-814.226536,-9474.636058,306.438199
366.212880,-1332.370696,-9992.780217,229.828649
366.213208,-2072.576638,-9844.739029,-306.438199
366.213535,-1776.494261,-9696.697840,-306.438199
366.213863,-1480.411884,-9400.615463,0.000000
366.214191,-296.082377,-8956.491898,-306.438199
366.214518,666.185348,-8734.430116,306.438199
366.214846,1184.329507,-8216.285956,536.266849
366.215173,2072.576638,-8290.306550,919.314598
366.215501,2072.576638,-8068.244768,1455.581446
366.215828,1406.391290,-8808.450710,1378.971896
366.216156,444.123565,-9548.656652,1149.143247
366.216483,-592.164754,-10066.800811,842.705048
366.216811,-1628.453072,-10288.862594,995.924147
366.217138,-1776.494261,-9844.739029,1225.752797
366.217466,-814.226536,-9622.677246,919.314598
366.217793,-518.144159,-9326.594869,842.705048
366.218121,-222.061783,-8512.368333,766.095498
366.218448,0.000000,-8438.347739,919.314598
366.218776,0.000000,-8290.306550,919.314598
366.219103,296.082377,-8216.285956,995.924147
366.219431,-222.061783,-7994.224174,919.314598
366.219758,-518.144159,-8438.347739,1149.143247
