#time,accel_x,accel_y,accel_z
476.142484,-370.102971,-9030.512492,842.705048
476.142811,0.000000,-9030.512492,842.705048
476.143139,0.000000,-9178.553681,689.485948
476.143466,-296.082377,-9252.574275,536.266849
476.143794,-74.020594,-9178.553681,459.657299
476.144122,-222.061783,-9326.594869,459.657299
476.144449,0.000000,-9622.677246,689.485948
476.144777,-370.102971,-9178.553681,536.266849
476.145104,-296.082377,-9104.533087,306.438199
476.145432,-296.082377,-9252.574275,612.876398
476.145760,0.000000,-9252.574275,689.485948
476.146087,-222.061783,-8734.430116,459.657299
476.146415,0.000000,-9252.574275,383.047749
476.146742,-296.082377,-9400.615463,689.485948
476.147070,-222.061783,-9178.553681,306.438199
476.147397,0.000000,-9104.533087,383.047749
476.147725,0.000000,-8808.450710,229.828649
476.148053,0.000000,-9400.615463,459.657299
476.148380,-444.123565,-9178.553681,459.657299
476.148708,-296.082377,-9252.574275,536.266849
476.149035,-444.123565,-9030.512492,612.876398
476.149363,-74.020594,-8882.471304,842.705048
476.149691,-370.102971,-8808.450710,153.219100
476.150018,-370.102971,-9030.512492,612.876398
476.150346,-222.061783,-9252.574275,536.266849
476.150673,-296.082377,-9104.533087,459.657299
476.151001,-222.061783,-9030.512492,919.314598
476.151328,-148.041188,-9252.574275,459.657299
476.151656,-296.082377,-9104.533087,536.266849
476.151984,-592.164754,-9030.512492,306.438199
476.152311,-1110.308913,-9252.574275,0.000000
476.152639,-1628.453072,-9400.615463,0.000000
476.152966,-1924.535449,-9326.594869,0.000000
476.153294,-1406.391290,-8808.450710,-383.047749
476.153622,-592.164754,-8882.471304,-383.047749
476.153949,-518.144159,-9030.512492,-383.047749
476.154277,-888.247130,-9104.533087,-766.095498
476.154604,-1036.288319,-8956.491898,0.000000
476.154932,-814.226536,-9104.533087,-1072.533697
476.155259,-740.205942,-9030.512492,-1225.752797
476.155587,-740.205942,-9178.553681,-1149.143247
476.155915,-444.123565,-9400.615463,-1302.362347
476.156242,-370.102971,-8882.471304,-1225.752797
476.156570,148.041188,-9474.636058,-1149.143247
476.156897,-148.041188,-9178.553681,-1302.362347
476.157225,-222.061783,-9178.553681,-1532.190996
476.157552,0.000000,-9326.594869,-1608.800546
476.157880,370.102971,-9474.636058,-1532.190996
476.158208,444.123565,-9326.594869,-1608.800546
476.158535,222.061783,-9178.553681,-1762.019645
476.158863,74.020594,-9326.594869,-1685.410096
476.159190,222.061783,-9326.594869,-1838.629195
476.159518,444.123565,-9548.656652,-1762.019645
476.159846,74.020594,-9178.553681,-1302.362347
476.160173,74.020594,-9326.594869,-1838.629195
476.160501,74.020594,-9474.636058,-1915.238745
476.160828,0.000000,-9178.553681,-1762.019645
476.161156,0.000000,-9326.594869,-1915.238745
476.161483,-296.082377,-9252.574275,-1455.581446
476.161811,-518.144159,-9400.615463,-1915.238745
476.162139,-814.226536,-9104.533087,-2145.067394
476.162466,-888.247130,-9178.553681,-1991.848295
476.162794,-962.267725,-9104.533087,-2145.067394
476.163121,-888.247130,-9178.553681,-2528.115143
476.163449,-1036.288319,-8956.491898,-2298.286494
476.163777,-1850.514855,-9030.512492,-2681.334243
476.164104,-1998.556043,-8956.491898,-2757.943793
476.164432,-2220.617826,-9030.512492,-3140.991542
476.164759,-2220.617826,-9030.512492,-3600.648841
476.165087,-1776.494261,-9178.553681,-3753.867940
476.165414,-1924.535449,-8882.471304,-3830.477490
476.165742,-1776.494261,-8956.491898,-3830.477490
476.166070,-1406.391290,-8660.409521,-3830.477490
476.166397,-1036.288319,-8882.471304,-3677.258390
476.166725,-518.144159,-8882.471304,-3753.867940
476.167052,148.041188,-8808.450710,-3447.429741
476.167380,1036.288319,-8956.491898,-2987.772442
476.167708,1554.432478,-9104.533087,-2451.505594
476.168035,2146.597232,-8808.450710,-2221.676944
476.168363,2294.638420,-9030.512492,-2145.067394
476.168690,2146.597232,-9548.656652,-1991.848295
476.169018,1406.391290,-9844.739029,-2221.676944
476.169345,222.061783,-10288.862594,-2528.115143
476.169673,-888.247130,-10066.800811,-3753.867940
476.170001,-1776.494261,-10288.862594,-3830.477490
476.170328,-2146.597232,-10362.883188,-4213.525239
476.170656,-1924.535449,-9696.697840,-5056.230287
476.170983,-1110.308913,-8586.388927,-4979.620737
476.171311,666.185348,-7920.203579,-4519.963438
476.171638,2220.617826,-7105.977043,-3677.258390
476.171966,3330.926739,-7031.956449,-2911.162892
476.172294,3256.906145,-7476.080014,-2374.896044
476.172621,1702.473667,-8364.327145,-2221.676944
476.172949,0.000000,-9474.636058,-2145.067394
476.173276,-2294.638420,-10584.944971,-2298.286494
476.173604,-3627.009116,-11103.089130,-2451.505594
476.173932,-3552.988522,-11103.089130,-2604.724693
476.174259,-1480.411884,-9844.739029,-1915.238745
476.174587,3034.844362,-7476.080014,-229.828649
476.174914,7920.203579,-5995.668130,2068.457845
476.175242,10584.944971,-5181.441594,3753.867940
476.175569,9326.594869,-6661.853478,4443.353888
476.175897,4811.338623,-9252.574275,3370.820191
476.176225,-1258.350101,-11399.171507,1685.410096
476.176552,-6883.915261,-13101.645173,-459.657299
476.176880,-10881.027347,-13915.871710,-2221.676944
476.177207,-11917.315666,-13693.809927,-3600.648841
476.177535,-11399.171507,-12509.480420,-3753.867940
476.177863,-7698.141797,-9400.615463,-4673.182538
476.178190,-4071.132681,-7031.956449,-2528.115143
476.178518,-740.205942,-4071.132681,-4290.134789
476.178845,1480.411884,-4589.276840,-3677.258390
476.179173,-2368.659014,-5847.626942,-5286.058936
476.179500,-5107.421000,-7402.059420,-6511.811733
476.179828,-10510.924376,-9474.636058,-7890.783629
476.180156,-11769.274478,-9844.739029,-8733.488677
476.180483,-9030.512492,-9844.739029,-7507.735880
476.180811,-5477.523971,-8882.471304,-6511.811733
476.181138,2220.617826,-7328.038826,-4903.011187
476.181466,6439.791695,-6883.915261,-3140.991542
476.181794,8216.285956,-7254.018232,-3140.991542
476.182121,8512.368333,-9252.574275,-3370.820191
476.182449,4737.318029,-10732.986159,-5669.106685
476.182776,3849.070898,-11325.150913,-6435.202183
476.183104,6587.832884,-11251.130318,-5362.668486
476.183431,9696.697840,-9400.615463,-3370.820191
476.183759,13027.624579,-9474.636058,-689.485948
476.184087,13471.748144,-9326.594869,1532.190996
476.184414,10436.903782,-10066.800811,383.047749
476.184742,8586.388927,-11251.130318,0.000000
476.185069,7179.997637,-10658.965565,-995.924147
476.185397,4589.276840,-11029.068536,-459.657299
476.185724,5255.462188,-11325.150913,-842.705048
476.186052,888.247130,-11177.109724,-536.266849
476.186380,-5255.462188,-12805.562797,-1685.410096
476.186707,-10214.842000,-10732.986159,-3907.087040
476.187035,-12509.480420,-8142.265362,-5056.230287
476.187362,-9474.636058,-4515.256246,-5592.497135
476.187690,-4219.173869,-1406.391290,-4443.353888
476.188018,444.123565,-2368.659014,-1915.238745
476.188345,148.041188,-2516.700203,-1225.752797
476.188673,-592.164754,-4367.215058,0.000000
476.189000,-4737.318029,-5477.523971,-612.876398
476.189328,-4885.359217,-6661.853478,689.485948
476.189655,-4885.359217,-8216.285956,766.095498
476.189983,-4367.215058,-9992.780217,2681.334243
476.190311,-3923.091493,-11621.233289,4366.744339
476.190638,-3627.009116,-11399.171507,5592.497135
476.190966,-1110.308913,-10732.986159,6281.983084
476.191293,1924.535449,-10140.821405,5669.106685
476.191621,3627.009116,-9696.697840,4903.011187
476.191949,2812.782580,-10881.027347,4060.306139
476.192276,1406.391290,-11547.212695,3064.381992
476.192604,-444.123565,-9992.780217,2528.115143
476.192931,0.000000,-9030.512492,2451.505594
476.193259,1998.556043,-8438.347739,3294.210641
476.193586,2294.638420,-8512.368333,3983.696590
476.193914,592.164754,-10066.800811,4213.525239
476.194242,-4811.338623,-10436.903782,1608.800546
476.194569,-6513.812290,-11695.253884,2145.067394
476.194897,-5477.523971,-9992.780217,1072.533697
476.195224,-3256.906145,-9844.739029,1608.800546
476.195552,-1184.329507,-8586.388927,1149.143247
476.195879,-1036.288319,-8216.285956,842.705048
476.196207,-3849.070898,-8438.347739,383.047749
476.196535,-4811.338623,-7254.018232,-919.314598
476.196862,-5033.400406,-7550.100608,-1991.848295
476.197190,-2072.576638,-7550.100608,-2681.334243
476.197517,1036.288319,-7994.224174,-3140.991542
476.197845,1998.556043,-9474.636058,-2451.505594
476.198173,1184.329507,-10584.944971,-1915.238745
476.198500,74.020594,-10807.006753,-1608.800546
476.198828,1702.473667,-10658.965565,-1532.190996
476.199155,4367.215058,-10732.986159,-919.314598
476.199483,5255.462188,-10881.027347,0.000000
476.199810,4885.359217,-11621.233289,0.000000
476.200138,2368.659014,-11843.295072,153.219100
476.200466,0.000000,-12287.418637,153.219100
476.200793,1036.288319,-11103.089130,612.876398
476.201121,3775.050304,-9548.656652,0.000000
476.201448,5773.606348,-8956.491898,76.609550
476.201776,4959.379811,-9326.594869,306.438199
476.202103,2442.679609,-8290.306550,0.000000
476.202431,592.164754,-6809.894666,-1455.581446
476.202758,888.247130,-6217.729913,153.219100
476.203086,4071.132681,-5773.606348,536.266849
476.203414,2220.617826,-7550.100608,459.657299
476.203741,-296.082377,-7846.182985,459.657299
476.204069,-3627.009116,-9844.739029,0.000000
476.204396,-6069.688724,-9400.615463,-383.047749
476.204724,-5921.647536,-8438.347739,-1225.752797
476.205051,-2812.782580,-8438.347739,-306.438199
476.205379,-2960.823768,-8216.285956,-689.485948
476.205707,-3923.091493,-8512.368333,-459.657299
476.206034,-6217.729913,-8142.265362,-995.924147
476.206362,-5033.400406,-6809.894666,-1532.190996
476.206689,-2072.576638,-6365.771101,-306.438199
476.207017,1110.308913,-6143.709319,229.828649
476.207344,2220.617826,-7031.956449,1149.143247
476.207672,592.164754,-8142.265362,1455.581446
476.208000,-1702.473667,-8512.368333,1302.362347
476.208327,-2516.700203,-8882.471304,1149.143247
476.208655,-148.041188,-8068.244768,2145.067394
476.208982,2960.823768,-8586.388927,2834.553343
476.209310,3552.988522,-9474.636058,3064.381992
476.209637,1850.514855,-10510.924376,3600.648841
476.209965,0.000000,-9844.739029,2987.772442
476.210292,222.061783,-9474.636058,3294.210641
476.210620,2368.659014,-8586.388927,2911.162892
476.210948,3997.112087,-8808.450710,2528.115143
476.211275,3182.885551,-9474.636058,2068.457845
476.211603,-888.247130,-10066.800811,153.219100
476.211930,-3404.947333,-10214.842000,612.876398
476.212258,-2960.823768,-9548.656652,229.828649
476.212585,-2664.741391,-10362.883188,0.000000
476.212913,-740.205942,-9992.780217,153.219100
476.213241,-1480.411884,-10510.924376,-689.485948
476.213568,-3849.070898,-10955.047942,76.609550
476.213896,-4811.338623,-9918.759623,-919.314598
476.214223,-3404.947333,-8956.491898,-306.438199
476.214551,-962.267725,-8068.244768,0.000000
476.214878,1776.494261,-8290.306550,459.657299
476.215206,444.123565,-8882.471304,1302.362347
476.215534,-1850.514855,-9252.574275,689.485948
476.215861,-2664.741391,-9030.512492,76.609550
476.216189,-1776.494261,-8586.388927,0.000000
476.216516,1554.432478,-8956.491898,76.609550
476.216844,2590.720797,-9400.615463,919.314598
476.217171,2220.617826,-10510.924376,612.876398
476.217499,444.123565,-10881.027347,766.095498
476.217827,-518.144159,-10288.862594,689.485948
476.218154,1110.308913,-9548.656652,612.876398
476.218482,3701.029710,-9622.677246,536.266849
476.218809,3849.070898,-10732.986159,919.314598
476.219137,1480.411884,-11399.171507,842.705048
476.219464,-1332.370696,-11695.253884,612.876398
476.219792,-3108.864956,-11029.068536,229.828649
476.220119,-1332.370696,-9770.718434,0.000000
476.220447,370.102971,-9400.615463,229.828649
476.220775,1332.370696,-8808.450710,-612.876398
476.221102,-1406.391290,-9104.533087,229.828649
476.221430,-2368.659014,-7994.224174,-459.657299
476.221757,-3256.906145,-7994.224174,-306.438199
476.222085,-1332.370696,-6291.750507,-229.828649
476.222412,1480.411884,-6735.874072,153.219100
476.222740,1480.411884,-7476.080014,995.924147
476.223068,74.020594,-8586.388927,689.485948
476.223395,-2220.617826,-9104.533087,1149.143247
476.223723,-2812.782580,-8660.409521,459.657299
476.224050,-740.205942,-8290.306550,612.876398
476.224378,1184.329507,-8586.388927,689.485948
476.224705,1702.473667,-9104.533087,1072.533697
476.225033,444.123565,-9178.553681,1149.143247
476.225361,-888.247130,-8586.388927,995.924147
476.225688,0.000000,-7994.224174,1072.533697
476.226016,1998.556043,-7772.162391,1072.533697
476.226343,3034.844362,-8364.327145,1225.752797
476.226671,1702.473667,-9400.615463,1762.019645
476.226998,-592.164754,-9844.739029,1455.581446
476.227326,-3256.906145,-9770.718434,1685.410096
476.227653,-2960.823768,-9178.553681,766.095498
476.227981,-592.164754,-8734.430116,919.314598
476.228309,888.247130,-8586.388927,995.924147
476.228636,296.082377,-8734.430116,2068.457845
476.228964,-1924.535449,-9104.533087,1149.143247
476.229291,-3256.906145,-8734.430116,842.705048
476.229619,-1924.535449,-7402.059420,76.609550
476.229946,0.000000,-7105.977043,689.485948
476.230274,2220.617826,-7476.080014,536.266849
476.230602,814.226536,-8512.368333,1455.581446
476.230929,-1776.494261,-9326.594869,459.657299
476.231257,-3404.947333,-9622.677246,0.000000
476.231584,-2590.720797,-9326.594869,0.000000
476.231912,370.102971,-9252.574275,0.000000
476.232239,1702.473667,-9992.780217,0.000000
476.232567,1258.350101,-10066.800811,306.438199
476.232895,-444.123565,-10362.883188,536.266849
476.233222,-1184.329507,-9770.718434,383.047749
476.233550,222.061783,-8956.491898,306.438199
476.233877,2590.720797,-8216.285956,383.047749
476.234205,2664.741391,-9400.615463,306.438199
476.234532,962.267725,-10140.821405,689.485948
476.234860,-1850.514855,-10584.944971,459.657299
476.235188,-2812.782580,-10288.862594,0.000000
476.235515,-1406.391290,-9252.574275,-306.438199
476.235843,740.205942,-8956.491898,229.828649
476.236170,1332.370696,-9622.677246,0.000000
476.236498,-740.205942,-10214.842000,0.000000
476.236825,-3108.864956,-10362.883188,-306.438199
476.237153,-3256.906145,-9474.636058,-919.314598
476.237480,-296.082377,-8364.327145,-459.657299
476.237808,2664.741391,-7550.100608,-536.266849
476.238136,3182.885551,-9104.533087,306.438199
476.238463,1184.329507,-10140.821405,612.876398
476.238791,-1850.514855,-10658.965565,612.876398
476.239118,-2516.700203,-10214.842000,383.047749
476.239446,-666.185348,-9844.739029,383.047749
476.239773,1406.391290,-9918.759623,689.485948
476.240101,1850.514855,-10436.903782,766.095498
476.240429,444.123565,-10214.842000,1072.533697
476.240756,-814.226536,-9696.697840,766.095498
476.241084,-444.123565,-8068.244768,1685.410096
476.241411,2072.576638,-7846.182985,1532.190996
476.241739,3627.009116,-8068.244768,1762.019645
476.242066,2294.638420,-8512.368333,1302.362347
476.242394,-888.247130,-9104.533087,1608.800546
476.242722,-3182.885551,-9474.636058,1072.533697
476.243049,-3404.947333,-8956.491898,1149.143247
476.243377,-814.226536,-8660.409521,1455.581446
476.243704,740.205942,-8808.450710,1225.752797
476.244032,-296.082377,-9400.615463,1302.362347
476.244359,-3108.864956,-9178.553681,1072.533697
476.244687,-4441.235652,-8956.491898,536.266849
476.245014,-3108.864956,-7550.100608,229.828649
476.245342,0.000000,-6883.915261,306.438199
476.245670,1702.473667,-7254.018232,842.705048
476.245997,666.185348,-7698.141797,995.924147
476.246325,-2294.638420,-9252.574275,1225.752797
476.246652,-4441.235652,-8956.491898,229.828649
476.246980,-3034.844362,-8438.347739,306.438199
476.247307,0.000000,-8364.327145,153.219100
476.247635,1998.556043,-8586.388927,689.485948
476.247963,888.247130,-8882.471304,306.438199
476.248290,-888.247130,-9326.594869,1225.752797
476.248618,-1258.350101,-8808.450710,842.705048
476.248945,444.123565,-8142.265362,1072.533697
476.249273,2368.659014,-7846.182985,766.095498
476.249600,3404.947333,-8438.347739,995.924147
476.249928,1110.308913,-9400.615463,689.485948
476.250256,-1554.432478,-9474.636058,612.876398
476.250583,-2368.659014,-9400.615463,0.000000
476.250911,0.000000,-8438.347739,76.609550
476.251238,2886.803174,-8364.327145,689.485948
476.251566,2812.782580,-8956.491898,766.095498
476.251893,888.247130,-10214.842000,766.095498
476.252221,-1554.432478,-9844.739029,383.047749
476.252549,-2294.638420,-9770.718434,383.047749
476.252876,-296.082377,-8956.491898,383.047749
476.253204,1998.556043,-9474.636058,536.266849
476.253531,1036.288319,-10140.821405,995.924147
476.253859,-1332.370696,-10955.047942,459.657299
476.254186,-4441.235652,-10510.924376,-229.828649
476.254514,-4145.153275,-9252.574275,-842.705048
476.254841,-1628.453072,-8512.368333,-766.095498
476.255169,740.205942,-8068.244768,-919.314598
476.255497,1480.411884,-8808.450710,-536.266849
476.255824,-222.061783,-8956.491898,-383.047749
476.256152,-2220.617826,-9030.512492,0.000000
476.256479,-1628.453072,-8290.306550,-459.657299
476.256807,222.061783,-8734.430116,0.000000
476.257134,2294.638420,-9252.574275,229.828649
476.257462,1776.494261,-10436.903782,766.095498
476.257790,-370.102971,-11251.130318,995.924147
476.258117,-2368.659014,-10658.965565,919.314598
476.258445,-1184.329507,-10362.883188,995.924147
476.258772,1332.370696,-9696.697840,766.095498
476.259100,3034.844362,-9622.677246,612.876398
476.259427,2368.659014,-10066.800811,842.705048
476.259755,0.000000,-9918.759623,1762.019645
476.260083,-814.226536,-9696.697840,689.485948
476.260410,296.082377,-8438.347739,919.314598
476.260738,2072.576638,-8290.306550,995.924147
476.261065,3256.906145,-8734.430116,1149.143247
476.261393,1036.288319,-9992.780217,1455.581446
476.261720,-2146.597232,-10214.842000,995.924147
476.262048,-3701.029710,-10066.800811,689.485948
476.262375,-2812.782580,-9326.594869,306.438199
476.262703,-888.247130,-8808.450710,612.876398
476.263031,814.226536,-8808.450710,842.705048
476.263358,-148.041188,-8216.285956,1072.533697
476.263686,-2442.679609,-8808.450710,919.314598
476.264013,-3404.947333,-8216.285956,612.876398
476.264341,-2072.576638,-7328.038826,383.047749
476.264668,296.082377,-7254.018232,536.266849
476.264996,1258.350101,-7698.141797,919.314598
476.265324,-296.082377,-8364.327145,1225.752797
476.265651,-2812.782580,-8882.471304,689.485948
476.265979,-3330.926739,-8734.430116,919.314598
476.266306,-1628.453072,-8068.244768,383.047749
476.266634,814.226536,-7772.162391,766.095498
476.266961,1184.329507,-8290.306550,766.095498
476.267289,-222.061783,-9030.512492,536.266849
476.267617,-2146.597232,-9548.656652,536.266849
476.267944,-2072.576638,-8882.471304,536.266849
476.268272,444.123565,-8142.265362,766.095498
476.268599,2664.741391,-7698.141797,995.924147
476.268927,2442.679609,-9104.533087,1072.533697
476.269254,-148.041188,-10066.800811,612.876398
476.269582,-2738.761985,-10436.903782,229.828649
476.269910,-3182.885551,-9770.718434,383.047749
476.270237,-740.205942,-9030.512492,-536.266849
476.270565,740.205942,-8882.471304,-229.828649
476.270892,1480.411884,-9474.636058,-153.219100
476.271220,-444.123565,-9622.677246,0.000000
476.271547,-2146.597232,-9400.615463,-383.047749
476.271875,-1554.432478,-7920.203579,-459.657299
476.272202,666.185348,-8142.265362,-306.438199
476.272530,2516.700203,-7994.224174,-459.657299
476.272858,2516.700203,-8808.450710,76.609550
476.273185,148.041188,-9844.739029,536.266849
476.273513,-1480.411884,-10140.821405,306.438199
476.273840,-1184.329507,-9770.718434,0.000000
476.274168,814.226536,-9400.615463,76.609550
476.274495,2368.659014,-9844.739029,459.657299
476.274823,1554.432478,-10584.944971,306.438199
476.275151,-222.061783,-10955.047942,153.219100
476.275478,-1702.473667,-9400.615463,1072.533697
476.275806,222.061783,-8734.430116,766.095498
476.276133,3034.844362,-8512.368333,1302.362347
476.276461,3923.091493,-8660.409521,1149.143247
476.276788,2146.597232,-9770.718434,1915.238745
476.277116,-814.226536,-10436.903782,842.705048
476.277444,-3701.029710,-10214.842000,306.438199
476.277771,-3034.844362,-9622.677246,0.000000
476.278099,-592.164754,-9252.574275,306.438199
476.278426,518.144159,-9326.594869,766.095498
476.278754,0.000000,-9474.636058,1378.971896
476.279081,-3108.864956,-9474.636058,766.095498
476.279409,-3997.112087,-8808.450710,459.657299
476.279737,-2220.617826,-7476.080014,229.828649
476.280064,444.123565,-7254.018232,459.657299
476.280392,1036.288319,-7698.141797,689.485948
476.280719,-370.102971,-8216.285956,689.485948
476.281047,-2812.782580,-9030.512492,995.924147
476.281374,-3478.967927,-8290.306550,689.485948
476.281702,-1776.494261,-7920.203579,919.314598
476.282029,666.185348,-7994.224174,536.266849
476.282357,1480.411884,-8438.347739,1149.143247
476.282685,0.000000,-9474.636058,1072.533697
476.283012,-1332.370696,-9252.574275,1149.143247
476.283340,-888.247130,-8586.388927,1225.752797
476.283667,1776.494261,-8290.306550,1685.410096
476.283995,3701.029710,-8438.347739,1915.238745
476.284322,2960.823768,-9326.594869,1838.629195
476.284650,148.041188,-10362.883188,1455.581446
476.284978,-2664.741391,-10362.883188,919.314598
476.285305,-3404.947333,-9770.718434,-153.219100
476.285633,-1258.350101,-9252.574275,459.657299
476.285960,1850.514855,-8660.409521,229.828649
476.286288,1628.453072,-9400.615463,459.657299
476.286615,-592.164754,-9474.636058,536.266849
476.286943,-2220.617826,-9622.677246,0.000000
476.287271,-1850.514855,-8660.409521,-689.485948
476.287598,148.041188,-7846.182985,-383.047749
476.287926,1776.494261,-8438.347739,-153.219100
476.288253,666.185348,-9474.636058,306.438199
476.288581,-1480.411884,-9844.739029,536.266849
476.288908,-2960.823768,-9474.636058,229.828649
476.289236,-2368.659014,-9178.553681,383.047749
476.289563,666.185348,-9178.553681,0.000000
476.289891,2220.617826,-9178.553681,0.000000
476.290219,1554.432478,-9548.656652,76.609550
476.290546,0.000000,-9918.759623,383.047749
476.290874,-1036.288319,-9400.615463,229.828649
476.291201,518.144159,-8808.450710,612.876398
476.291529,3182.885551,-8882.471304,995.924147
476.291856,3404.947333,-9548.656652,1072.533697
476.292184,1554.432478,-10955.047942,1378.971896
476.292512,-2146.597232,-11399.171507,1302.362347
476.292839,-4293.194464,-11547.212695,229.828649
476.293167,-2812.782580,-10362.883188,153.219100
476.293494,0.000000,-9622.677246,0.000000
476.293822,888.247130,-9474.636058,306.438199
476.294149,-148.041188,-9178.553681,383.047749
476.294477,-2294.638420,-9178.553681,76.609550
476.294805,-3182.885551,-8142.265362,0.000000
476.295132,-1480.411884,-7254.018232,-612.876398
476.295460,888.247130,-7105.977043,-153.219100
476.295787,1406.391290,-7105.977043,76.609550
476.296115,-222.061783,-8216.285956,536.266849
476.296442,-2146.597232,-8882.471304,383.047749
476.296770,-3330.926739,-8660.409521,153.219100
476.297098,-962.267725,-7994.224174,306.438199
476.297425,1850.514855,-7994.224174,689.485948
476.297753,2886.803174,-8290.306550,1455.581446
476.298080,1628.453072,-8956.491898,1532.190996
476.298408,222.061783,-9104.533087,1991.848295
476.298735,592.164754,-8364.327145,2298.286494
476.299063,2812.782580,-7920.203579,2451.505594
476.299391,4737.318029,-7994.224174,2451.505594
476.299718,3404.947333,-8808.450710,2451.505594
476.300046,666.185348,-9844.739029,2451.505594
476.300374,-1924.535449,-10214.842000,2221.676944
476.300701,-2516.700203,-9252.574275,1532.190996
476.301029,-1406.391290,-8290.306550,1455.581446
476.301357,222.061783,-8290.306550,919.314598
476.301684,-1110.308913,-9474.636058,1072.533697
476.302012,-3627.009116,-9622.677246,306.438199
476.302340,-5329.482782,-9030.512492,-306.438199
476.302668,-4811.338623,-8290.306550,-153.219100
476.302995,-2294.638420,-7105.977043,-383.047749
476.303323,-370.102971,-7328.038826,-306.438199
476.303651,-1036.288319,-7698.141797,-229.828649
476.303978,-3182.885551,-8512.368333,-459.657299
476.304306,-5107.421000,-8734.430116,-995.924147
476.304634,-4367.215058,-8438.347739,-1302.362347
476.304961,-1332.370696,-8216.285956,-919.314598
476.305289,1406.391290,-8660.409521,-536.266849
476.305617,1924.535449,-9326.594869,306.438199
476.305945,666.185348,-9252.574275,689.485948
476.306272,74.020594,-9474.636058,995.924147
476.306600,2072.576638,-8808.450710,612.876398
476.306928,4071.132681,-9326.594869,689.485948
476.307255,5551.544565,-10288.862594,1072.533697
476.307583,4441.235652,-11029.068536,1225.752797
476.307911,1110.308913,-11547.212695,1225.752797
476.308238,-1110.308913,-11621.233289,612.876398
476.308566,740.205942,-11399.171507,0.000000
476.308894,1998.556043,-10510.924376,383.047749
476.309222,3478.967927,-10732.986159,229.828649
476.309549,518.144159,-11547.212695,0.000000
476.309877,-2812.782580,-10436.903782,0.000000
476.310205,-3034.844362,-10881.027347,-383.047749
476.310532,-2072.576638,-8956.491898,-995.924147
476.310860,0.000000,-8438.347739,-383.047749
476.311188,592.164754,-8438.347739,-383.047749
476.311515,-1406.391290,-9474.636058,-306.438199
476.311843,-3997.112087,-9770.718434,-383.047749
476.312171,-5107.421000,-9104.533087,-1072.533697
476.312499,-3034.844362,-8586.388927,-1072.533697
476.312826,-148.041188,-8216.285956,-612.876398
476.313154,444.123565,-8956.491898,-306.438199
476.313482,-518.144159,-9844.739029,383.047749
476.313809,-1628.453072,-9474.636058,995.924147
476.314137,-1184.329507,-9252.574275,1532.190996
476.314465,1702.473667,-8808.450710,1532.190996
476.314792,3849.070898,-9178.553681,2145.067394
476.315120,3997.112087,-9696.697840,2221.676944
476.315448,1628.453072,-10881.027347,2451.505594
476.315776,-1110.308913,-10584.944971,2451.505594
476.316103,-962.267725,-9770.718434,2221.676944
476.316431,962.267725,-9252.574275,2374.896044
476.316759,2664.741391,-9178.553681,2221.676944
476.317086,1406.391290,-9326.594869,2145.067394
476.317414,-1110.308913,-10140.821405,2068.457845
476.317742,-3701.029710,-9030.512492,1302.362347
476.318069,-3775.050304,-7994.224174,1225.752797
476.318397,-296.082377,-7179.997637,689.485948
476.318725,296.082377,-7402.059420,1378.971896
476.319052,-888.247130,-7994.224174,536.266849
476.319380,-3182.885551,-8290.306550,459.657299
476.319708,-5255.462188,-8290.306550,153.219100
476.320036,-4441.235652,-7476.080014,0.000000
476.320363,-1480.411884,-7105.977043,-383.047749
476.320691,370.102971,-7476.080014,-306.438199
476.321019,666.185348,-8142.265362,229.828649
476.321346,-1184.329507,-8438.347739,459.657299
476.321674,-1850.514855,-8290.306550,536.266849
476.322002,518.144159,-7328.038826,0.000000
476.322329,3182.885551,-7698.141797,919.314598
476.322657,4367.215058,-8512.368333,1302.362347
476.322985,2960.823768,-9770.718434,1378.971896
476.323313,148.041188,-10214.842000,1072.533697
476.323640,-370.102971,-10140.821405,919.314598
476.323968,518.144159,-9104.533087,766.095498
476.324296,2886.803174,-9030.512492,536.266849
476.324623,3701.029710,-9400.615463,919.314598
476.324951,1406.391290,-9992.780217,612.876398
476.325279,-1554.432478,-9992.780217,689.485948
476.325606,-1998.556043,-9252.574275,0.000000
476.325934,-1036.288319,-8068.244768,-689.485948
476.326262,740.205942,-8142.265362,-306.438199
476.326590,1110.308913,-8438.347739,-229.828649
476.326917,-1702.473667,-9474.636058,0.000000
476.327245,-4219.173869,-9548.656652,-1072.533697
476.327573,-5107.421000,-9252.574275,-1608.800546
476.327900,-3478.967927,-8660.409521,-1762.019645
476.328228,0.000000,-8438.347739,-1685.410096
476.328556,962.267725,-8660.409521,-919.314598
476.328883,-444.123565,-8512.368333,-689.485948
476.329211,-1406.391290,-8882.471304,76.609550
476.329539,-888.247130,-9030.512492,0.000000
476.329867,1554.432478,-8216.285956,383.047749
476.330194,3701.029710,-8882.471304,766.095498
476.330522,3108.864956,-9474.636058,842.705048
476.330850,888.247130,-11029.068536,1685.410096
476.331177,-1258.350101,-11325.150913,1455.581446
476.331505,-518.144159,-10658.965565,1302.362347
476.331833,2220.617826,-10066.800811,1608.800546
476.332160,3997.112087,-9844.739029,2298.286494
476.332488,2590.720797,-10584.944971,1685.410096
476.332816,0.000000,-10732.986159,1685.410096
476.333144,-1998.556043,-10140.821405,1149.143247
476.333471,-1480.411884,-8734.430116,842.705048
476.333799,-222.061783,-8068.244768,229.828649
476.334127,1184.329507,-8586.388927,536.266849
476.334454,-444.123565,-9030.512492,1225.752797
476.334782,-3849.070898,-9548.656652,612.876398
476.335110,-5773.606348,-9400.615463,229.828649
476.335437,-4811.338623,-8734.430116,-459.657299
476.335765,-2368.659014,-8290.306550,306.438199
476.336093,0.000000,-8290.306550,153.219100
476.336420,-370.102971,-8808.450710,842.705048
476.336748,-1850.514855,-8586.388927,1072.533697
476.337076,-2368.659014,-8438.347739,1455.581446
476.337404,-370.102971,-8068.244768,1149.143247
476.337731,2072.576638,-7254.018232,1455.581446
476.338059,2664.741391,-8808.450710,1685.410096
476.338387,1110.308913,-9918.759623,1762.019645
476.338714,-1036.288319,-10362.883188,1685.410096
476.339042,-1776.494261,-10140.821405,2145.067394
476.339370,592.164754,-8956.491898,1685.410096
476.339697,2664.741391,-9104.533087,1762.019645
476.340025,3108.864956,-9696.697840,1915.238745
476.340353,962.267725,-10214.842000,1915.238745
476.340681,-1776.494261,-9400.615463,1302.362347
476.341008,-1998.556043,-8956.491898,766.095498
476.341336,-814.226536,-8068.244768,536.266849
476.341664,1332.370696,-7994.224174,995.924147
476.341991,1110.308913,-8438.347739,612.876398
476.342319,-1850.514855,-9252.574275,306.438199
476.342647,-4737.318029,-8438.347739,0.000000
476.342974,-5181.441594,-8364.327145,-766.095498
476.343302,-3182.885551,-7328.038826,-1302.362347
476.343630,-444.123565,-7105.977043,-1225.752797
476.343958,592.164754,-7402.059420,-689.485948
476.344285,-1332.370696,-7846.182985,229.828649
476.344613,-2072.576638,-8586.388927,-229.828649
476.344941,-1776.494261,-7920.203579,0.000000
476.345268,814.226536,-7846.182985,0.000000
476.345596,3108.864956,-8586.388927,306.438199
476.345924,3108.864956,-9474.636058,842.705048
476.346251,1184.329507,-10066.800811,1225.752797
476.346579,-148.041188,-10140.821405,1149.143247
476.346907,222.061783,-9696.697840,1149.143247
476.347235,2294.638420,-9252.574275,536.266849
476.347562,3330.926739,-9326.594869,459.657299
476.347890,2590.720797,-9474.636058,536.266849
476.348218,0.000000,-9622.677246,76.609550
476.348545,-1998.556043,-9326.594869,-306.438199
476.348873,-1110.308913,-8586.388927,-459.657299
476.349201,1554.432478,-7846.182985,0.000000
476.349528,1776.494261,-7550.100608,842.705048
476.349856,740.205942,-8808.450710,383.047749
476.350184,-3182.885551,-9918.759623,-383.047749
476.350512,-5181.441594,-9844.739029,-766.095498
476.350839,-4589.276840,-9178.553681,-1149.143247
476.351167,-1554.432478,-8142.265362,-766.095498
476.351495,592.164754,-8660.409521,-1302.362347
476.351822,0.000000,-9252.574275,-306.438199
476.352150,-1628.453072,-9400.615463,-153.219100
476.352478,-2368.659014,-9104.533087,-383.047749
476.352805,-592.164754,-8586.388927,-536.266849
476.353133,2368.659014,-8586.388927,0.000000
476.353461,3627.009116,-9104.533087,919.314598
476.353788,2442.679609,-9992.780217,1455.581446
476.354116,444.123565,-10510.924376,1762.019645
476.354444,-296.082377,-10288.862594,1991.848295
476.354772,1258.350101,-10288.862594,2681.334243
476.355099,2738.761985,-10066.800811,1991.848295
476.355427,3034.844362,-10658.965565,2145.067394
476.355755,1036.288319,-11251.130318,2145.067394
476.356082,-1998.556043,-10658.965565,1685.410096
476.356410,-2738.761985,-9326.594869,1608.800546
476.356738,0.000000,-8216.285956,1685.410096
476.357065,1184.329507,-8142.265362,1149.143247
476.357393,740.205942,-8290.306550,1608.800546
476.357721,-2220.617826,-9400.615463,995.924147
476.358049,-5329.482782,-8808.450710,536.266849
476.358376,-5773.606348,-8512.368333,-153.219100
476.358704,-4145.153275,-7476.080014,-306.438199
476.359032,-1554.432478,-7550.100608,-229.828649
476.359359,-814.226536,-8438.347739,306.438199
476.359687,-2368.659014,-8660.409521,306.438199
476.360015,-3775.050304,-8808.450710,383.047749
476.360342,-2664.741391,-8068.244768,306.438199
476.360670,0.000000,-7920.203579,842.705048
476.360998,2590.720797,-8290.306550,1149.143247
476.361326,3034.844362,-9252.574275,1991.848295
476.361653,1332.370696,-9474.636058,2451.505594
476.361981,-518.144159,-9992.780217,2298.286494
476.362309,-148.041188,-9696.697840,1991.848295
476.362636,1332.370696,-9326.594869,1532.190996
476.362964,2960.823768,-9770.718434,1455.581446
476.363292,2072.576638,-9844.739029,1532.190996
476.363619,-444.123565,-9992.780217,1149.143247
476.363947,-2368.659014,-9252.574275,383.047749
476.364275,-740.205942,-8216.285956,689.485948
476.364603,1480.411884,-7179.997637,0.000000
476.364930,2146.597232,-7476.080014,229.828649
476.365258,814.226536,-8364.327145,0.000000
476.365586,-3108.864956,-9400.615463,-383.047749
476.365913,-5403.503377,-9474.636058,-1302.362347
476.366241,-4663.297435,-8660.409521,-1762.019645
476.366569,-1998.556043,-7994.224174,-1608.800546
476.366896,222.061783,-8290.306550,-459.657299
476.367224,-592.164754,-8882.471304,-995.924147
476.367552,-2590.720797,-9104.533087,-766.095498
476.367879,-3034.844362,-8734.430116,-1072.533697
476.368207,-370.102971,-7994.224174,-995.924147
476.368535,3256.906145,-7624.121203,-536.266849
476.368863,4737.318029,-8216.285956,153.219100
476.369190,3256.906145,-9400.615463,612.876398
476.369518,1406.391290,-10362.883188,1072.533697
476.369846,518.144159,-10362.883188,995.924147
476.370173,2072.576638,-9918.759623,919.314598
476.370501,3849.070898,-10436.903782,1072.533697
476.370829,3923.091493,-11029.068536,995.924147
476.371156,1998.556043,-11769.274478,1378.971896
476.371484,0.000000,-11251.130318,1149.143247
476.371812,-148.041188,-10436.903782,919.314598
476.372140,1184.329507,-8586.388927,1072.533697
476.372467,2886.803174,-9178.553681,919.314598
476.372795,1628.453072,-9548.656652,612.876398
476.373123,-2146.597232,-10066.800811,306.438199
476.373450,-5329.482782,-10214.842000,-459.657299
476.373778,-5699.585753,-9178.553681,-1149.143247
476.374106,-3849.070898,-8068.244768,-995.924147
476.374433,-518.144159,-7994.224174,-689.485948
476.374761,0.000000,-8290.306550,-229.828649
476.375089,-1702.473667,-8734.430116,76.609550
476.375417,-2960.823768,-9030.512492,153.219100
476.375744,-2738.761985,-8512.368333,383.047749
476.376072,-518.144159,-8364.327145,306.438199
476.376400,1702.473667,-8586.388927,842.705048
476.376727,1628.453072,-9326.594869,1532.190996
476.377055,74.020594,-9992.780217,1915.238745
476.377383,-1554.432478,-10214.842000,2068.457845
476.377710,-1110.308913,-9844.739029,1915.238745
476.378038,1258.350101,-9622.677246,1838.629195
476.378366,2590.720797,-9696.697840,1838.629195
476.378694,2072.576638,-10214.842000,2528.115143
476.379021,0.000000,-9548.656652,1608.800546
476.379349,-666.185348,-9474.636058,2068.457845
476.379677,592.164754,-8438.347739,2451.505594
476.380004,2664.741391,-7698.141797,2451.505594
476.380332,2516.700203,-8068.244768,2298.286494
476.380660,962.267725,-8808.450710,2145.067394
476.380987,-3775.050304,-9474.636058,1378.971896
476.381315,-5995.668130,-8808.450710,766.095498
476.381643,-4811.338623,-7994.224174,0.000000
476.381971,-2220.617826,-7105.977043,0.000000
476.382298,-296.082377,-7031.956449,383.047749
476.382626,-1554.432478,-7550.100608,0.000000
476.382954,-3923.091493,-7476.080014,-229.828649
476.383281,-4367.215058,-7179.997637,-1072.533697
476.383609,-2368.659014,-6439.791695,-1225.752797
476.383937,666.185348,-6217.729913,-842.705048
476.384264,2294.638420,-7254.018232,-153.219100
476.384592,1332.370696,-8808.450710,153.219100
476.384920,-888.247130,-9622.677246,383.047749
476.385247,-1628.453072,-10140.821405,229.828649
476.385575,222.061783,-9770.718434,306.438199
476.385903,2368.659014,-9918.759623,229.828649
476.386231,3108.864956,-10510.924376,306.438199
476.386558,1924.535449,-11325.150913,536.266849
476.386886,592.164754,-10955.047942,612.876398
476.387214,814.226536,-10066.800811,459.657299
476.387541,3478.967927,-9030.512492,229.828649
476.387869,4737.318029,-8808.450710,842.705048
476.388197,3552.988522,-9474.636058,153.219100
476.388524,888.247130,-10214.842000,229.828649
476.388852,-2368.659014,-9992.780217,-536.266849
476.389180,-3552.988522,-9252.574275,-612.876398
476.389508,-1258.350101,-8438.347739,-995.924147
476.389835,666.185348,-8808.450710,-689.485948
476.390163,370.102971,-9104.533087,-383.047749
476.390491,-1554.432478,-9770.718434,-153.219100
476.390818,-3627.009116,-9622.677246,76.609550
476.391146,-2886.803174,-8734.430116,-612.876398
476.391474,0.000000,-8364.327145,-153.219100
476.391801,2220.617826,-8142.265362,306.438199
476.392129,2072.576638,-9178.553681,1225.752797
476.392457,74.020594,-9844.739029,1685.410096
476.392785,-2146.597232,-10510.924376,2068.457845
476.393112,-2220.617826,-9844.739029,1378.971896
476.393440,0.000000,-9474.636058,1225.752797
476.393768,1258.350101,-10140.821405,1302.362347
476.394095,1110.308913,-10881.027347,1532.190996
476.394423,-592.164754,-10214.842000,1838.629195
476.394751,-1554.432478,-9770.718434,2145.067394
476.395078,0.000000,-9104.533087,2068.457845
476.395406,1998.556043,-8142.265362,2068.457845
476.395734,2072.576638,-8660.409521,1762.019645
476.396062,-222.061783,-9474.636058,1532.190996
476.396389,-4219.173869,-10140.821405,459.657299
476.396717,-6291.750507,-9474.636058,0.000000
476.397045,-3997.112087,-8364.327145,0.000000
476.397372,-666.185348,-7476.080014,0.000000
476.397700,814.226536,-7698.141797,842.705048
476.398028,0.000000,-8216.285956,612.876398
476.398355,-2368.659014,-8438.347739,689.485948
476.398683,-3182.885551,-7920.203579,306.438199
476.399011,-1184.329507,-7476.080014,76.609550
476.399339,1702.473667,-7698.141797,459.657299
476.399666,2590.720797,-8586.388927,1302.362347
476.399994,1110.308913,-9770.718434,1532.190996
476.400322,-1184.329507,-10436.903782,1455.581446
476.400649,-2220.617826,-9844.739029,995.924147
476.400977,0.000000,-9474.636058,919.314598
476.401304,2072.576638,-9474.636058,1072.533697
476.401632,3182.885551,-9622.677246,842.705048
476.401959,1036.288319,-10066.800811,919.314598
476.402287,0.000000,-9622.677246,1378.971896
476.402614,-370.102971,-8882.471304,1072.533697
476.402942,2072.576638,-8734.430116,842.705048
476.403269,2664.741391,-8438.347739,919.314598
476.403597,1924.535449,-9400.615463,1149.143247
476.403924,-1702.473667,-9770.718434,229.828649
476.404252,-4737.318029,-9918.759623,0.000000
476.404579,-4811.338623,-8734.430116,-383.047749
476.404907,-1998.556043,-8068.244768,-842.705048
476.405235,592.164754,-7772.162391,-306.438199
476.405562,444.123565,-8290.306550,-229.828649
476.405890,-1850.514855,-8364.327145,-612.876398
476.406217,-3108.864956,-8290.306550,-536.266849
476.406545,-2368.659014,-7476.080014,-1072.533697
476.406872,0.000000,-7550.100608,-919.314598
476.407200,2072.576638,-7994.224174,-383.047749
476.407527,1998.556043,-9252.574275,459.657299
476.407855,-222.061783,-9918.759623,153.219100
476.408182,-1924.535449,-10066.800811,306.438199
476.408510,-1332.370696,-10066.800811,459.657299
476.408837,1332.370696,-9918.759623,153.219100
476.409165,3034.844362,-10066.800811,306.438199
476.409492,2886.803174,-10436.903782,919.314598
476.409820,1184.329507,-10362.883188,1762.019645
476.410147,592.164754,-10066.800811,1149.143247
476.410475,1480.411884,-9030.512492,919.314598
476.410802,3256.906145,-8808.450710,1225.752797
476.411130,3775.050304,-9030.512492,1149.143247
476.411457,1480.411884,-9844.739029,1608.800546
476.411785,-1554.432478,-10214.842000,766.095498
476.412112,-3404.947333,-10140.821405,536.266849
476.412440,-2220.617826,-9400.615463,383.047749
476.412767,0.000000,-8660.409521,459.657299
476.413095,814.226536,-8660.409521,306.438199
476.413422,-962.267725,-9548.656652,383.047749
476.413750,-3627.009116,-9992.780217,-153.219100
476.414077,-4589.276840,-8734.430116,-306.438199
476.414405,-2294.638420,-7846.182985,-229.828649
476.414732,814.226536,-7550.100608,383.047749
476.415060,1702.473667,-7994.224174,1225.752797
476.415387,444.123565,-8882.471304,1302.362347
476.415715,-2072.576638,-9548.656652,1378.971896
476.416042,-3256.906145,-9548.656652,842.705048
476.416370,-1850.514855,-9178.553681,689.485948
476.416697,444.123565,-9104.533087,766.095498
476.417025,888.247130,-9400.615463,1149.143247
476.417353,0.000000,-9992.780217,1685.410096
476.417680,-1110.308913,-9622.677246,1991.848295
476.418008,-666.185348,-8660.409521,1991.848295
476.418335,1702.473667,-7994.224174,1532.190996
476.418663,2960.823768,-7846.182985,1455.581446
476.418990,1998.556043,-8956.491898,1225.752797
476.419318,-1258.350101,-9696.697840,1072.533697
476.419645,-3627.009116,-9548.656652,536.266849
476.419973,-3256.906145,-8586.388927,153.219100
476.420300,-666.185348,-7550.100608,1225.752797
476.420628,2220.617826,-7994.224174,1072.533697
476.420955,1258.350101,-8808.450710,1225.752797
476.421283,-1332.370696,-9474.636058,1072.533697
476.421610,-3701.029710,-9178.553681,459.657299
476.421938,-2960.823768,-8512.368333,229.828649
476.422265,0.000000,-7476.080014,76.609550
476.422593,2146.597232,-7772.162391,153.219100
476.422920,1406.391290,-8660.409521,536.266849
476.423248,-888.247130,-9178.553681,689.485948
476.423575,-2960.823768,-9104.533087,0.000000
476.423903,-2368.659014,-8438.347739,0.000000
476.424230,-148.041188,-8586.388927,-612.876398
476.424558,1628.453072,-8734.430116,-612.876398
476.424885,1406.391290,-9252.574275,0.000000
476.425213,0.000000,-9548.656652,536.266849
476.425540,-1628.453072,-8956.491898,842.705048
476.425868,0.000000,-9030.512492,536.266849
476.426195,1628.453072,-8882.471304,459.657299
476.426523,2220.617826,-9474.636058,306.438199
476.426850,592.164754,-10214.842000,153.219100
476.427178,-1850.514855,-10066.800811,-76.609550
476.427505,-3182.885551,-9844.739029,-459.657299
476.427833,-962.267725,-8808.450710,-536.266849
476.428160,2146.597232,-8216.285956,-153.219100
476.428488,2590.720797,-9030.512492,0.000000
476.428816,1332.370696,-9992.780217,0.000000
476.429143,-2294.638420,-10436.903782,-612.876398
476.429471,-3330.926739,-9844.739029,-1072.533697
476.429798,-740.205942,-9400.615463,-842.705048
476.430126,1998.556043,-8882.471304,0.000000
476.430453,2442.679609,-9474.636058,383.047749
476.430781,888.247130,-10732.986159,1455.581446
476.431108,-1850.514855,-11177.109724,612.876398
476.431436,-2886.803174,-10362.883188,76.609550
476.431763,-1036.288319,-10140.821405,0.000000
476.432091,962.267725,-9844.739029,76.609550
476.432418,1036.288319,-9844.739029,459.657299
476.432746,296.082377,-10288.862594,766.095498
476.433073,-1036.288319,-9992.780217,995.924147
476.433401,-740.205942,-8956.491898,1378.971896
476.433728,1406.391290,-8660.409521,1072.533697
476.434056,3034.844362,-8808.450710,1302.362347
476.434383,1998.556043,-9548.656652,1455.581446
476.434711,-222.061783,-10510.924376,1685.410096
476.435038,-2368.659014,-10658.965565,1455.581446
476.435366,-1998.556043,-9770.718434,1762.019645
476.435693,370.102971,-9104.533087,2451.505594
476.436021,2294.638420,-9030.512492,1991.848295
476.436348,1036.288319,-9326.594869,1991.848295
476.436676,-1776.494261,-9622.677246,1378.971896
476.437003,-4145.153275,-9178.553681,919.314598
476.437331,-2886.803174,-8290.306550,995.924147
476.437658,444.123565,-6883.915261,1149.143247
476.437986,2220.617826,-7402.059420,1762.019645
476.438313,888.247130,-8142.265362,1685.410096
476.438641,-1776.494261,-9030.512492,1685.410096
476.438968,-4441.235652,-8808.450710,1302.362347
476.439296,-3997.112087,-8660.409521,459.657299
476.439623,-1924.535449,-8142.265362,76.609550
476.439951,-296.082377,-8660.409521,536.266849
476.440278,-888.247130,-8734.430116,689.485948
476.440606,-2442.679609,-8808.450710,766.095498
476.440934,-2516.700203,-8660.409521,689.485948
476.441261,-1258.350101,-7179.997637,459.657299
476.441589,1406.391290,-6957.935855,229.828649
476.441916,2294.638420,-7698.141797,153.219100
476.442244,666.185348,-8734.430116,459.657299
476.442571,-1850.514855,-9326.594869,0.000000
476.442899,-2442.679609,-8956.491898,229.828649
476.443226,-666.185348,-8290.306550,229.828649
476.443554,2072.576638,-8216.285956,536.266849
476.443881,2960.823768,-9178.553681,383.047749
476.444209,444.123565,-9326.594869,536.266849
476.444536,-1258.350101,-9474.636058,459.657299
476.444864,-1480.411884,-8956.491898,-459.657299
476.445191,1036.288319,-7994.224174,-612.876398
476.445519,3478.967927,-7550.100608,0.000000
476.445846,4071.132681,-8660.409521,842.705048
476.446174,1332.370696,-9548.656652,306.438199
476.446501,-1998.556043,-10214.842000,0.000000
476.446829,-3034.844362,-9918.759623,-842.705048
476.447156,-1406.391290,-9400.615463,-766.095498
476.447484,1184.329507,-9474.636058,-306.438199
476.447811,1702.473667,-10066.800811,-229.828649
476.448139,74.020594,-10288.862594,306.438199
476.448466,-1628.453072,-10140.821405,153.219100
476.448794,-1332.370696,-9178.553681,229.828649
476.449121,740.205942,-8364.327145,-306.438199
476.449449,2368.659014,-8586.388927,0.000000
476.449776,1554.432478,-9400.615463,153.219100
476.450104,-740.205942,-10140.821405,306.438199
476.450431,-2886.803174,-9770.718434,153.219100
476.450759,-2368.659014,-9252.574275,229.828649
476.451086,74.020594,-8290.306550,689.485948
476.451414,1924.535449,-8586.388927,1149.143247
476.451741,1184.329507,-9548.656652,1149.143247
476.452069,-1554.432478,-9844.739029,1302.362347
476.452397,-2960.823768,-9844.739029,1072.533697
476.452724,-1924.535449,-8586.388927,1072.533697
476.453052,1480.411884,-8068.244768,1455.581446
476.453379,2368.659014,-8438.347739,1685.410096
476.453707,740.205942,-9474.636058,1915.238745
476.454034,-2368.659014,-9918.759623,1532.190996
476.454362,-4293.194464,-9992.780217,842.705048
476.454689,-2886.803174,-8956.491898,919.314598
476.455017,-518.144159,-8364.327145,459.657299
476.455344,1332.370696,-8660.409521,919.314598
476.455672,370.102971,-9400.615463,1532.190996
476.455999,-1480.411884,-9178.553681,1532.190996
476.456327,-2442.679609,-8216.285956,1532.190996
476.456654,-518.144159,-8068.244768,1149.143247
476.456982,1036.288319,-7994.224174,1225.752797
476.457309,1332.370696,-8364.327145,1225.752797
476.457637,0.000000,-9252.574275,1302.362347
476.457964,-2294.638420,-9178.553681,1072.533697
476.458292,-2516.700203,-8660.409521,995.924147
476.458619,-740.205942,-7846.182985,536.266849
476.458947,1924.535449,-7994.224174,612.876398
476.459274,2220.617826,-8438.347739,612.876398
476.459602,518.144159,-9400.615463,459.657299
476.459929,-1702.473667,-9548.656652,536.266849
476.460257,-1850.514855,-8808.450710,536.266849
476.460584,666.185348,-8216.285956,536.266849
476.460912,3108.864956,-8364.327145,919.314598
476.461239,2664.741391,-9622.677246,1302.362347
476.461567,-148.041188,-10362.883188,1225.752797
476.461894,-3478.967927,-11325.150913,995.924147
476.462222,-4071.132681,-10658.965565,-153.219100
476.462549,-2220.617826,-9622.677246,-536.266849
476.462877,740.205942,-9326.594869,-306.438199
476.463204,1332.370696,-9252.574275,0.000000
476.463532,-296.082377,-9252.574275,-306.438199
476.463859,-1998.556043,-9104.533087,-306.438199
476.464187,-1850.514855,-8438.347739,-536.266849
476.464515,0.000000,-7772.162391,-766.095498
476.464842,1332.370696,-8290.306550,-766.095498
476.465170,1110.308913,-9104.533087,-306.438199
476.465497,-1036.288319,-9844.739029,-306.438199
476.465825,-2516.700203,-9770.718434,-229.828649
476.466152,-1850.514855,-9178.553681,-536.266849
476.466480,444.123565,-9030.512492,-306.438199
476.466807,2368.659014,-8956.491898,-1532.190996
476.467135,1406.391290,-9992.780217,0.000000
476.467462,-592.164754,-10362.883188,76.609550
476.467790,-1702.473667,-9696.697840,0.000000
476.468117,296.082377,-8660.409521,0.000000
476.468445,3552.988522,-7994.224174,459.657299
476.468772,4885.359217,-8586.388927,1378.971896
476.469100,3330.926739,-9622.677246,1838.629195
476.469427,0.000000,-10436.903782,1532.190996
476.469755,-2442.679609,-10658.965565,1149.143247
476.470082,-2368.659014,-9770.718434,1302.362347
476.470410,148.041188,-9844.739029,612.876398
476.470737,1110.308913,-10066.800811,842.705048
476.471065,0.000000,-10288.862594,1455.581446
476.471392,-2294.638420,-9844.739029,1378.971896
476.471720,-3034.844362,-8956.491898,1455.581446
476.472047,-1702.473667,-7846.182985,689.485948
476.472375,444.123565,-7254.018232,766.095498
476.472702,888.247130,-7920.203579,229.828649
476.473030,-1036.288319,-8956.491898,612.876398
476.473357,-3182.885551,-9030.512492,612.876398
476.473685,-3627.009116,-8512.368333,536.266849
476.474012,-1480.411884,-7624.121203,383.047749
476.474340,888.247130,-7772.162391,995.924147
476.474667,1554.432478,-9252.574275,1225.752797
476.474995,-370.102971,-9992.780217,1378.971896
476.475322,-1998.556043,-10214.842000,1378.971896
476.475650,-1554.432478,-9252.574275,1838.629195
476.475978,1258.350101,-8586.388927,1838.629195
476.476305,3627.009116,-8734.430116,2221.676944
476.476633,3330.926739,-9474.636058,2068.457845
476.476960,666.185348,-10066.800811,1378.971896
476.477288,-2294.638420,-10214.842000,1302.362347
476.477615,-3108.864956,-9400.615463,76.609550
476.477943,-814.226536,-9030.512492,229.828649
476.478270,1628.453072,-8586.388927,383.047749
476.478598,1480.411884,-9548.656652,612.876398
476.478925,-1110.308913,-9252.574275,689.485948
476.479253,-2960.823768,-9252.574275,459.657299
476.479580,-3108.864956,-8660.409521,-229.828649
476.479908,-1036.288319,-8068.244768,-383.047749
476.480235,148.041188,-8364.327145,-153.219100
476.480563,74.020594,-8660.409521,0.000000
476.480890,-2368.659014,-8734.430116,153.219100
476.481218,-3256.906145,-8808.450710,-229.828649
476.481545,-2442.679609,-8216.285956,-766.095498
476.481873,444.123565,-7994.224174,-612.876398
476.482200,2146.597232,-7994.224174,-306.438199
476.482528,1776.494261,-8216.285956,-306.438199
476.482855,0.000000,-8660.409521,0.000000
476.483183,-666.185348,-8586.388927,76.609550
476.483510,1036.288319,-7772.162391,536.266849
476.483838,4071.132681,-7698.141797,1149.143247
476.484165,4589.276840,-8734.430116,1532.190996
476.484493,1998.556043,-10510.924376,1685.410096
476.484820,-1480.411884,-11547.212695,1685.410096
476.485148,-3404.947333,-11251.130318,842.705048
476.485475,-2220.617826,-9918.759623,459.657299
476.485803,222.061783,-9326.594869,153.219100
476.486130,1850.514855,-9400.615463,612.876398
476.486458,444.123565,-9474.636058,689.485948
476.486785,-1850.514855,-8956.491898,536.266849
476.487113,-2590.720797,-8068.244768,-459.657299
476.487440,-1554.432478,-7254.018232,-536.266849
476.487768,148.041188,-7254.018232,-536.266849
476.488096,666.185348,-7772.162391,-229.828649
476.488423,-1184.329507,-8734.430116,0.000000
476.488751,-3627.009116,-9474.636058,0.000000
476.489078,-3627.009116,-9400.615463,0.000000
476.489406,-1924.535449,-9030.512492,153.219100
476.489733,592.164754,-9326.594869,0.000000
476.490061,1110.308913,-9992.780217,459.657299
476.490388,0.000000,-10807.006753,919.314598
476.490716,-1184.329507,-10140.821405,1302.362347
476.491043,-444.123565,-9104.533087,1302.362347
476.491371,2738.761985,-8734.430116,1378.971896
476.491698,4959.379811,-8734.430116,2374.896044
476.492026,4515.256246,-9622.677246,2298.286494
476.492353,1924.535449,-10658.965565,2681.334243
476.492681,-1184.329507,-11251.130318,2068.457845
476.493008,-2294.638420,-10436.903782,842.705048
476.493336,0.000000,-9844.739029,1072.533697
476.493663,1258.350101,-9918.759623,1378.971896
476.493991,296.082377,-10584.944971,1378.971896
476.494318,-1850.514855,-11029.068536,995.924147
476.494646,-4071.132681,-9770.718434,842.705048
476.494973,-4293.194464,-8586.388927,-229.828649
476.495301,-1480.411884,-7772.162391,0.000000
476.495628,0.000000,-7402.059420,0.000000
476.495956,-518.144159,-7105.977043,153.219100
476.496283,-2886.803174,-8364.327145,0.000000
476.496611,-4441.235652,-7994.224174,-383.047749
476.496938,-3552.988522,-7550.100608,-689.485948
476.497266,-740.205942,-7328.038826,-536.266849
476.497593,888.247130,-7624.121203,-306.438199
476.497921,666.185348,-8586.388927,383.047749
476.498248,-1406.391290,-9696.697840,536.266849
476.498576,-1776.494261,-9474.636058,459.657299
476.498903,666.185348,-8660.409521,842.705048
476.499231,3627.009116,-8142.265362,1149.143247
476.499559,5255.462188,-9252.574275,1685.410096
476.499886,3552.988522,-10140.821405,1762.019645
476.500214,518.144159,-10807.006753,1455.581446
476.500541,-1184.329507,-10288.862594,842.705048
476.500869,-296.082377,-9400.615463,536.266849
476.501196,1924.535449,-8734.430116,689.485948
476.501524,2960.823768,-9326.594869,612.876398
476.501851,1258.350101,-9474.636058,536.266849
476.502179,-1924.535449,-9548.656652,459.657299
476.502506,-3034.844362,-8438.347739,76.609550
476.502834,-1776.494261,-8142.265362,-306.438199
476.503161,0.000000,-7179.997637,-229.828649
476.503489,222.061783,-8142.265362,0.000000
476.503816,-1998.556043,-9326.594869,0.000000
476.504144,-4145.153275,-9252.574275,-153.219100
476.504472,-4663.297435,-8216.285956,-689.485948
476.504799,-1850.514855,-7624.121203,-766.095498
476.505127,962.267725,-7624.121203,-459.657299
476.505454,1554.432478,-8290.306550,0.000000
476.505782,740.205942,-9104.533087,229.828649
476.506109,-962.267725,-9400.615463,229.828649
476.506437,-222.061783,-9030.512492,995.924147
476.506764,2294.638420,-8512.368333,995.924147
476.507092,4441.235652,-9474.636058,1608.800546
476.507420,3330.926739,-10584.944971,2145.067394
476.507747,296.082377,-11621.233289,1991.848295
476.508075,-2294.638420,-11991.336260,1838.629195
476.508402,-2220.617826,-11029.068536,1302.362347
476.508730,0.000000,-10066.800811,1302.362347
476.509057,1332.370696,-9770.718434,1302.362347
476.509385,1406.391290,-9992.780217,1302.362347
476.509713,-370.102971,-9474.636058,1149.143247
476.510040,-3182.885551,-8808.450710,229.828649
476.510368,-2590.720797,-7772.162391,0.000000
476.510695,-740.205942,-7402.059420,76.609550
476.511023,0.000000,-7476.080014,0.000000
476.511350,-888.247130,-8512.368333,536.266849
476.511678,-3034.844362,-8882.471304,689.485948
476.512005,-5181.441594,-9030.512492,229.828649
476.512333,-4219.173869,-8660.409521,0.000000
476.512661,-1554.432478,-8290.306550,-153.219100
476.512988,444.123565,-8364.327145,0.000000
476.513316,296.082377,-9030.512492,612.876398
476.513643,-814.226536,-9252.574275,689.485948
476.513971,-1110.308913,-8660.409521,766.095498
476.514298,888.247130,-7994.224174,842.705048
476.514626,3552.988522,-8290.306550,1072.533697
476.514954,4515.256246,-8808.450710,1915.238745
476.515281,2812.782580,-9918.759623,1608.800546
476.515609,-148.041188,-10881.027347,1455.581446
476.515936,-1554.432478,-10362.883188,919.314598
476.516264,-444.123565,-9770.718434,1072.533697
476.516591,2516.700203,-9474.636058,919.314598
476.516919,2590.720797,-9104.533087,919.314598
476.517246,592.164754,-9844.739029,1378.971896
476.517574,-2072.576638,-9918.759623,612.876398
476.517902,-3034.844362,-9326.594869,153.219100
476.518229,-1702.473667,-8216.285956,-153.219100
476.518557,222.061783,-7550.100608,0.000000
476.518884,740.205942,-8068.244768,76.609550
476.519212,-1480.411884,-9030.512492,-153.219100
476.519539,-3701.029710,-9104.533087,-306.438199
476.519867,-4515.256246,-8586.388927,-1378.971896
476.520195,-2368.659014,-8512.368333,-536.266849
476.520522,-370.102971,-8512.368333,-1225.752797
476.520850,444.123565,-8956.491898,-689.485948
476.521177,-370.102971,-9548.656652,-612.876398
476.521505,-1628.453072,-9770.718434,-229.828649
476.521832,-444.123565,-9030.512492,306.438199
476.522160,2294.638420,-8438.347739,689.485948
476.522487,4589.276840,-8808.450710,1225.752797
476.522815,4663.297435,-9622.677246,1608.800546
476.523143,1924.535449,-10807.006753,1991.848295
476.523470,-370.102971,-11103.089130,1532.190996
476.523798,0.000000,-9770.718434,1225.752797
476.524125,2072.576638,-9622.677246,1608.800546
476.524453,3182.885551,-9474.636058,1991.848295
476.524780,2072.576638,-10214.842000,1378.971896
476.525108,-1184.329507,-11029.068536,1532.190996
476.525436,-3256.906145,-9918.759623,1149.143247
476.525763,-2886.803174,-8660.409521,0.000000
476.526091,-888.247130,-7846.182985,76.609550
476.526418,518.144159,-8068.244768,306.438199
476.526746,-592.164754,-8586.388927,536.266849
476.527073,-3552.988522,-8734.430116,1149.143247
476.527401,-5033.400406,-8512.368333,0.000000
476.527728,-4737.318029,-8068.244768,-306.438199
476.528056,-2590.720797,-7920.203579,-612.876398
476.528384,-888.247130,-8068.244768,-306.438199
476.528711,-962.267725,-8660.409521,612.876398
476.529039,-2220.617826,-8438.347739,229.828649
476.529366,-2516.700203,-7920.203579,383.047749
476.529694,-222.061783,-7402.059420,689.485948
476.530021,3034.844362,-7476.080014,1072.533697
476.530349,4367.215058,-8216.285956,1762.019645
476.530677,2738.761985,-9326.594869,1991.848295
476.531004,148.041188,-10214.842000,2221.676944
476.531332,-962.267725,-10066.800811,1455.581446
476.531659,666.185348,-9622.677246,1532.190996
476.531987,3182.885551,-9104.533087,1455.581446
476.532314,3701.029710,-9622.677246,2451.505594
476.532642,1998.556043,-10066.800811,1838.629195
476.532969,-1554.432478,-10362.883188,842.705048
476.533297,-2442.679609,-9770.718434,612.876398
476.533625,-592.164754,-8364.327145,0.000000
476.533952,666.185348,-8216.285956,459.657299
476.534280,518.144159,-8956.491898,0.000000
476.534607,-1924.535449,-9548.656652,-306.438199
476.534935,-4737.318029,-9622.677246,-919.314598
476.535262,-5329.482782,-8734.430116,-1762.019645
476.535590,-2886.803174,-7476.080014,-1685.410096
476.535918,-370.102971,-7698.141797,-1378.971896
476.536245,740.205942,-8216.285956,-689.485948
476.536573,0.000000,-8808.450710,-229.828649
476.536900,-1406.391290,-9030.512492,229.828649
476.537228,-148.041188,-8808.450710,689.485948
476.537555,1480.411884,-8216.285956,842.705048
476.537883,3552.988522,-8808.450710,1225.752797
476.538210,3108.864956,-10066.800811,1455.581446
476.538538,740.205942,-11103.089130,1915.238745
476.538866,-1184.329507,-11103.089130,1378.971896
476.539193,-370.102971,-9844.739029,1072.533697
476.539521,2220.617826,-9178.553681,1302.362347
476.539848,3775.050304,-9104.533087,995.924147
476.540176,2368.659014,-9548.656652,1302.362347
476.540503,-296.082377,-10140.821405,1225.752797
476.540831,-2072.576638,-10214.842000,612.876398
476.541159,-2516.700203,-8734.430116,459.657299
476.541486,-296.082377,-8142.265362,459.657299
476.541814,888.247130,-8512.368333,689.485948
476.542141,-1036.288319,-9474.636058,689.485948
476.542469,-3627.009116,-9548.656652,766.095498
476.542796,-5181.441594,-8512.368333,-306.438199
476.543124,-4885.359217,-7994.224174,-612.876398
476.543451,-2146.597232,-6957.935855,-766.095498
476.543779,-370.102971,-7105.977043,-689.485948
476.544107,-740.205942,-7550.100608,0.000000
476.544434,-1554.432478,-7550.100608,0.000000
476.544762,-1924.535449,-7698.141797,229.828649
476.545089,296.082377,-7105.977043,229.828649
476.545417,3034.844362,-7772.162391,766.095498
476.545744,3997.112087,-8512.368333,1455.581446
476.546072,2590.720797,-10140.821405,1225.752797
476.546400,222.061783,-11325.150913,1685.410096
476.546727,-1184.329507,-10807.006753,1608.800546
476.547055,518.144159,-10436.903782,1072.533697
476.547382,2516.700203,-9918.759623,1225.752797
476.547710,3108.864956,-10436.903782,919.314598
476.548037,814.226536,-10584.944971,1532.190996
476.548365,-1998.556043,-10436.903782,766.095498
476.548692,-2368.659014,-9548.656652,76.609550
476.549020,-666.185348,-8364.327145,0.000000
476.549348,296.082377,-7550.100608,383.047749
476.549675,1184.329507,-7920.203579,0.000000
476.550003,-1554.432478,-9104.533087,306.438199
476.550330,-3997.112087,-9178.553681,-153.219100
476.550658,-4737.318029,-8956.491898,-612.876398
476.550985,-2664.741391,-8438.347739,-306.438199
476.551313,-740.205942,-8216.285956,0.000000
476.551640,0.000000,-9474.636058,-229.828649
476.551968,-1554.432478,-9770.718434,0.000000
476.552296,-2590.720797,-9770.718434,0.000000
476.552623,-1332.370696,-9030.512492,306.438199
476.552951,1480.411884,-8142.265362,612.876398
476.553278,4219.173869,-8956.491898,842.705048
476.553606,3997.112087,-9918.759623,1149.143247
476.553933,1480.411884,-10584.944971,1685.410096
476.554261,-370.102971,-11177.109724,1455.581446
476.554589,74.020594,-10140.821405,1532.190996
476.554916,1998.556043,-9992.780217,1378.971896
476.555244,3256.906145,-10436.903782,1302.362347
476.555571,1776.494261,-10881.027347,1225.752797
476.555899,-962.267725,-11325.150913,1455.581446
476.556226,-2368.659014,-10066.800811,842.705048
476.556554,-1702.473667,-9104.533087,766.095498
476.556881,296.082377,-8364.327145,383.047749
476.557209,1702.473667,-8660.409521,919.314598
476.557537,0.000000,-8956.491898,612.876398
476.557864,-3108.864956,-9252.574275,153.219100
476.558192,-5107.421000,-9030.512492,-459.657299
476.558519,-4071.132681,-7994.224174,-766.095498
476.558847,-1702.473667,-7476.080014,-766.095498
476.559174,-222.061783,-7476.080014,-842.705048
476.559502,-666.185348,-8438.347739,-536.266849
476.559830,-2220.617826,-8734.430116,-612.876398
476.560157,-2220.617826,-7846.182985,0.000000
476.560485,0.000000,-7402.059420,0.000000
476.560812,2738.761985,-7328.038826,459.657299
476.561140,3923.091493,-8364.327145,1149.143247
476.561467,2294.638420,-9770.718434,995.924147
476.561795,222.061783,-10436.903782,1838.629195
476.562122,-888.247130,-9918.759623,1225.752797
476.562450,814.226536,-9474.636058,1455.581446
476.562778,2960.823768,-9400.615463,1455.581446
476.563105,3330.926739,-9770.718434,1225.752797
476.563433,1406.391290,-9696.697840,1225.752797
476.563760,-1036.288319,-9400.615463,1225.752797
476.564088,-814.226536,-8734.430116,1072.533697
476.564415,592.164754,-7402.059420,689.485948
476.564743,1702.473667,-7328.038826,766.095498
476.565071,1776.494261,-7772.162391,1378.971896
476.565398,-1924.535449,-9104.533087,612.876398
476.565726,-4737.318029,-9326.594869,0.000000
476.566053,-5181.441594,-8586.388927,-383.047749
476.566381,-3256.906145,-7846.182985,-383.047749
476.566708,-666.185348,-7772.162391,-306.438199
476.567036,-222.061783,-8216.285956,-383.047749
476.567363,-2220.617826,-8882.471304,0.000000
476.567691,-3256.906145,-9030.512492,0.000000
476.568019,-2146.597232,-8068.244768,0.000000
476.568346,814.226536,-7920.203579,-229.828649
476.568674,2664.741391,-8068.244768,306.438199
476.569001,2368.659014,-9178.553681,995.924147
476.569329,592.164754,-9918.759623,1072.533697
476.569656,-962.267725,-10214.842000,995.924147
476.569984,-370.102971,-9474.636058,1072.533697
476.570312,1924.535449,-9474.636058,1302.362347
476.570639,3552.988522,-9844.739029,1072.533697
476.570967,2516.700203,-10436.903782,1225.752797
476.571294,666.185348,-10658.965565,1532.190996
476.571622,-592.164754,-10436.903782,1762.019645
476.571949,148.041188,-8512.368333,995.924147
476.572277,2220.617826,-8808.450710,1225.752797
476.572604,2294.638420,-9178.553681,1302.362347
476.572932,74.020594,-9918.759623,995.924147
476.573260,-3330.926739,-10362.883188,383.047749
476.573587,-5107.421000,-9696.697840,-383.047749
476.573915,-4367.215058,-8734.430116,-536.266849
476.574242,-1998.556043,-8586.388927,-459.657299
476.574570,-370.102971,-8364.327145,-383.047749
476.574897,-1480.411884,-8808.450710,0.000000
476.575225,-2960.823768,-8586.388927,995.924147
476.575553,-3330.926739,-8586.388927,-76.609550
476.575880,-1554.432478,-8290.306550,0.000000
476.576208,888.247130,-8512.368333,306.438199
476.576535,1332.370696,-8956.491898,766.095498
476.576863,592.164754,-9992.780217,1608.800546
476.577190,-1628.453072,-10362.883188,1532.190996
476.577518,-2072.576638,-10066.800811,995.924147
476.577845,0.000000,-9252.574275,1149.143247
476.578173,2368.659014,-9104.533087,1149.143247
476.578501,3182.885551,-9400.615463,1072.533697
476.578828,1776.494261,-9252.574275,1378.971896
476.579156,-222.061783,-9474.636058,1225.752797
476.579483,-444.123565,-8882.471304,1455.581446
476.579811,1036.288319,-8142.265362,1532.190996
476.580138,2590.720797,-8216.285956,1532.190996
476.580466,2294.638420,-9400.615463,1455.581446
476.580794,-1110.308913,-9770.718434,1225.752797
476.581121,-3701.029710,-9696.697840,689.485948
476.581449,-4219.173869,-9030.512492,153.219100
476.581776,-2368.659014,-8290.306550,0.000000
476.582104,0.000000,-8216.285956,0.000000
476.582431,-592.164754,-8068.244768,0.000000
476.582759,-2072.576638,-8956.491898,0.000000
476.583086,-3330.926739,-8290.306550,-612.876398
476.583414,-2146.597232,-7846.182985,-689.485948
476.583742,296.082377,-7254.018232,0.000000
476.584069,2590.720797,-7698.141797,153.219100
476.584397,2368.659014,-8882.471304,459.657299
476.584724,0.000000,-9622.677246,766.095498
476.585052,-1628.453072,-9992.780217,612.876398
476.585379,-1332.370696,-9844.739029,229.828649
476.585707,1258.350101,-9918.759623,689.485948
476.586035,2590.720797,-9770.718434,536.266849
476.586362,2294.638420,-9844.739029,995.924147
476.586690,814.226536,-10288.862594,1302.362347
476.587017,-222.061783,-9696.697840,1072.533697
476.587345,1258.350101,-8586.388927,919.314598
476.587672,2738.761985,-8216.285956,1149.143247
476.588000,2960.823768,-8512.368333,1072.533697
476.588327,888.247130,-9474.636058,842.705048
476.588655,-2294.638420,-10288.862594,842.705048
476.588983,-3701.029710,-9918.759623,612.876398
476.589310,-3404.947333,-9104.533087,0.000000
476.589638,-1258.350101,-8364.327145,-229.828649
476.589965,-444.123565,-8882.471304,-306.438199
476.590293,-1850.514855,-9178.553681,-306.438199
476.590620,-3330.926739,-8808.450710,-153.219100
476.590948,-3701.029710,-7994.224174,-383.047749
476.591276,-1332.370696,-7402.059420,-383.047749
476.591603,1406.391290,-7179.997637,-306.438199
476.591931,2294.638420,-8438.347739,306.438199
476.592258,1036.288319,-9400.615463,536.266849
476.592586,-1332.370696,-9770.718434,689.485948
476.592913,-1406.391290,-9844.739029,306.438199
476.593241,74.020594,-9474.636058,689.485948
476.593568,2516.700203,-9548.656652,766.095498
476.593896,3108.864956,-9918.759623,1072.533697
476.594224,2146.597232,-10214.842000,1072.533697
476.594551,74.020594,-10140.821405,1532.190996
476.594879,296.082377,-9474.636058,1455.581446
476.595206,1998.556043,-8808.450710,1455.581446
476.595534,3330.926739,-8956.491898,1455.581446
476.595861,1924.535449,-9696.697840,1072.533697
476.596189,-962.267725,-9992.780217,1072.533697
476.596517,-3701.029710,-10362.883188,536.266849
476.596844,-4441.235652,-9474.636058,0.000000
476.597172,-2146.597232,-8734.430116,0.000000
476.597499,-148.041188,-8512.368333,0.000000
476.597827,-296.082377,-8882.471304,383.047749
476.598154,-2516.700203,-9178.553681,0.000000
476.598482,-3997.112087,-8808.450710,-536.266849
476.598809,-3182.885551,-7846.182985,-383.047749
476.599137,-370.102971,-7698.141797,-383.047749
476.599465,1480.411884,-8068.244768,536.266849
476.599792,1184.329507,-8734.430116,383.047749
476.600120,-888.247130,-9474.636058,919.314598
476.600447,-2220.617826,-9474.636058,612.876398
476.600776,-1184.329507,-9104.533087,76.609550
476.601104,1702.473667,-8660.409521,1149.143247
476.601431,3256.906145,-8882.471304,536.266849
476.601759,2590.720797,-9474.636058,1149.143247
476.602087,518.144159,-9548.656652,1149.143247
476.602414,0.000000,-9178.553681,1225.752797
476.602742,1258.350101,-8734.430116,1455.581446
476.603070,2590.720797,-8808.450710,1608.800546
476.603397,2960.823768,-9474.636058,1532.190996
476.603725,962.267725,-10362.883188,1685.410096
476.604052,-1998.556043,-10362.883188,1455.581446
476.604380,-3404.947333,-10066.800811,612.876398
476.604708,-2590.720797,-8660.409521,689.485948
476.605035,-370.102971,-8068.244768,76.609550
476.605363,0.000000,-8512.368333,0.000000
476.605690,-1406.391290,-8586.388927,153.219100
476.606018,-3404.947333,-8290.306550,76.609550
476.606346,-3775.050304,-7254.018232,76.609550
476.606673,-1480.411884,-7105.977043,76.609550
476.607001,888.247130,-7328.038826,306.438199
476.607328,1480.411884,-8290.306550,995.924147
476.607656,0.000000,-9252.574275,1149.143247
476.607984,-2294.638420,-9622.677246,1149.143247
476.608311,-2590.720797,-9918.759623,689.485948
476.608639,-814.226536,-9548.656652,689.485948
476.608967,1036.288319,-9696.697840,842.705048
476.609294,1702.473667,-9918.759623,919.314598
476.609622,518.144159,-10066.800811,1455.581446
476.609949,-148.041188,-10066.800811,995.924147
476.610277,0.000000,-9400.615463,612.876398
476.610605,1998.556043,-8956.491898,383.047749
476.610932,3330.926739,-9326.594869,1072.533697
476.611260,2442.679609,-9474.636058,1302.362347
476.611587,0.000000,-10510.924376,1072.533697
476.611915,-2368.659014,-10140.821405,229.828649
476.612243,-2368.659014,-9622.677246,229.828649
476.612570,0.000000,-9104.533087,0.000000
476.612898,1184.329507,-8956.491898,229.828649
476.613226,592.164754,-8586.388927,1072.533697
476.613553,-1036.288319,-9474.636058,306.438199
476.613881,-2590.720797,-9030.512492,153.219100
476.614208,-2146.597232,-8438.347739,0.000000
476.614536,370.102971,-7550.100608,0.000000
476.614864,2072.576638,-8142.265362,76.609550
476.615191,888.247130,-8586.388927,383.047749
476.615519,-1628.453072,-9696.697840,306.438199
476.615846,-3478.967927,-9770.718434,0.000000
476.616174,-2294.638420,-9252.574275,0.000000
476.616502,0.000000,-9104.533087,0.000000
476.616829,1332.370696,-9030.512492,383.047749
476.617157,1036.288319,-9770.718434,612.876398
476.617485,-444.123565,-10214.842000,766.095498
476.617812,-1258.350101,-9622.677246,689.485948
476.618140,222.061783,-8734.430116,1072.533697
476.618467,1924.535449,-7846.182985,383.047749
476.618795,2886.803174,-8438.347739,995.924147
476.619123,962.267725,-9104.533087,1149.143247
476.619450,-1702.473667,-9548.656652,842.705048
476.619778,-2664.741391,-9030.512492,689.485948
476.620105,-1776.494261,-7698.141797,536.266849
476.620433,1110.308913,-8364.327145,612.876398
476.620761,1332.370696,-8512.368333,842.705048
476.621088,0.000000,-9178.553681,919.314598
476.621416,-2368.659014,-9252.574275,612.876398
476.621744,-2368.659014,-8068.244768,229.828649
476.622071,-888.247130,-7550.100608,0.000000
476.622399,1184.329507,-7624.121203,306.438199
476.622726,1258.350101,-8660.409521,766.095498
476.623054,-296.082377,-9622.677246,766.095498
476.623382,-3034.844362,-10362.883188,1072.533697
476.623709,-3404.947333,-9474.636058,229.828649
476.624037,-1480.411884,-8956.491898,-229.828649
476.624364,962.267725,-9030.512492,76.609550
476.624692,1628.453072,-9326.594869,459.657299
476.625020,370.102971,-9548.656652,919.314598
476.625347,-814.226536,-9548.656652,1302.362347
476.625675,-444.123565,-8808.450710,612.876398
476.626003,1406.391290,-8512.368333,766.095498
476.626330,2738.761985,-8734.430116,995.924147
476.626658,1924.535449,-9696.697840,995.924147
476.626985,-222.061783,-10214.842000,1149.143247
476.627313,-2516.700203,-10140.821405,459.657299
476.627641,-1998.556043,-9030.512492,229.828649
476.627968,370.102971,-8660.409521,459.657299
476.628296,1998.556043,-8512.368333,766.095498
476.628623,1628.453072,-9030.512492,919.314598
476.628951,-962.267725,-9326.594869,153.219100
476.629279,-2886.803174,-9178.553681,76.609550
476.629606,-2294.638420,-8660.409521,0.000000
476.629934,296.082377,-8364.327145,153.219100
476.630261,1702.473667,-8808.450710,383.047749
476.630589,888.247130,-10288.862594,1685.410096
476.630917,-2146.597232,-10584.944971,1072.533697
476.631244,-3552.988522,-10732.986159,383.047749
476.631572,-2664.741391,-9770.718434,229.828649
476.631900,-148.041188,-9474.636058,0.000000
476.632227,1480.411884,-9104.533087,842.705048
476.632555,1332.370696,-9474.636058,536.266849
476.632882,-592.164754,-9326.594869,689.485948
476.633210,-1184.329507,-8734.430116,842.705048
476.633538,0.000000,-7846.182985,459.657299
476.633865,2146.597232,-8142.265362,383.047749
476.634193,2072.576638,-8512.368333,919.314598
476.634520,296.082377,-9548.656652,536.266849
476.634848,-2294.638420,-10066.800811,995.924147
476.635176,-2738.761985,-9622.677246,995.924147
476.635503,-1332.370696,-9252.574275,536.266849
476.635831,1258.350101,-8660.409521,536.266849
476.636159,1480.411884,-9474.636058,612.876398
476.636486,74.020594,-9844.739029,689.485948
476.636814,-1924.535449,-9474.636058,459.657299
476.637141,-2368.659014,-8808.450710,459.657299
476.637469,0.000000,-8216.285956,459.657299
476.637797,1702.473667,-7994.224174,536.266849
476.638124,2146.597232,-8956.491898,919.314598
476.638452,0.000000,-9548.656652,1072.533697
476.638779,-2886.803174,-9770.718434,536.266849
476.639107,-3108.864956,-9548.656652,76.609550
476.639435,-1554.432478,-8882.471304,-153.219100
476.639762,370.102971,-9030.512492,0.000000
476.640090,962.267725,-9252.574275,536.266849
476.640418,-666.185348,-9252.574275,459.657299
476.640745,-1554.432478,-8734.430116,689.485948
476.641073,-1332.370696,-7624.121203,306.438199
476.641400,962.267725,-7698.141797,229.828649
476.641728,2738.761985,-7846.182985,229.828649
476.642056,2146.597232,-8586.388927,766.095498
476.642383,0.000000,-9474.636058,1149.143247
476.642711,-2146.597232,-9844.739029,536.266849
476.643038,-1776.494261,-9474.636058,612.876398
476.643366,74.020594,-9104.533087,383.047749
476.643694,1628.453072,-9400.615463,766.095498
476.644021,592.164754,-9844.739029,612.876398
476.644349,-888.247130,-10436.903782,842.705048
476.644677,-2368.659014,-9844.739029,459.657299
476.645004,-1036.288319,-9030.512492,459.657299
476.645332,1406.391290,-8438.347739,459.657299
476.645659,2368.659014,-8586.388927,919.314598
476.645987,1702.473667,-9104.533087,1685.410096
476.646315,-1258.350101,-9770.718434,842.705048
476.646642,-2960.823768,-9474.636058,536.266849
476.646970,-2368.659014,-9252.574275,306.438199
476.647297,-518.144159,-8734.430116,76.609550
476.647625,666.185348,-8808.450710,536.266849
476.647953,-296.082377,-9326.594869,306.438199
476.648280,-2664.741391,-9474.636058,383.047749
476.648608,-3182.885551,-8956.491898,459.657299
476.648936,-888.247130,-8068.244768,306.438199
476.649263,1554.432478,-7624.121203,612.876398
476.649591,2516.700203,-7698.141797,689.485948
476.649918,1406.391290,-8734.430116,536.266849
476.650246,-1110.308913,-9474.636058,766.095498
476.650574,-2220.617826,-9326.594869,536.266849
476.650901,-666.185348,-9400.615463,842.705048
476.651229,1554.432478,-9326.594869,0.000000
476.651556,1406.391290,-9992.780217,995.924147
476.651884,0.000000,-10584.944971,766.095498
476.652212,-1776.494261,-10436.903782,842.705048
476.652539,-1776.494261,-9474.636058,766.095498
476.652867,444.123565,-8660.409521,689.485948
476.653194,2664.741391,-8364.327145,1149.143247
476.653522,2812.782580,-8808.450710,919.314598
476.653850,222.061783,-9474.636058,842.705048
476.654177,-2294.638420,-9474.636058,459.657299
476.654505,-3182.885551,-8808.450710,612.876398
476.654833,-1110.308913,-8290.306550,459.657299
476.655160,666.185348,-8586.388927,153.219100
476.655488,1036.288319,-8956.491898,612.876398
476.655815,-1036.288319,-9326.594869,459.657299
476.656143,-2072.576638,-9030.512492,842.705048
476.656471,-2220.617826,-8216.285956,229.828649
476.656798,148.041188,-7994.224174,153.219100
476.657126,1850.514855,-8438.347739,306.438199
476.657453,888.247130,-9326.594869,459.657299
476.657781,-1258.350101,-10066.800811,612.876398
476.658109,-3034.844362,-9252.574275,689.485948
476.658436,-2146.597232,-9252.574275,0.000000
476.658764,0.000000,-8882.471304,0.000000
476.659092,1554.432478,-8956.491898,76.609550
476.659419,1258.350101,-9326.594869,306.438199
476.659747,0.000000,-9474.636058,689.485948
476.660074,-1110.308913,-9030.512492,612.876398
476.660402,-296.082377,-8364.327145,612.876398
476.660730,2294.638420,-8216.285956,1072.533697
476.661057,2738.761985,-8734.430116,995.924147
476.661385,1110.308913,-9696.697840,1072.533697
476.661712,-1998.556043,-10362.883188,995.924147
476.662040,-3627.009116,-10214.842000,459.657299
476.662368,-2368.659014,-9474.636058,76.609550
476.662695,148.041188,-9252.574275,229.828649
476.663023,1406.391290,-8734.430116,306.438199
476.663351,888.247130,-8734.430116,689.485948
476.663678,-1110.308913,-9178.553681,612.876398
476.664006,-2072.576638,-9030.512492,306.438199
476.664333,-666.185348,-8586.388927,306.438199
476.664661,962.267725,-8512.368333,459.657299
476.664989,1850.514855,-8808.450710,919.314598
476.665316,-148.041188,-9474.636058,766.095498
476.665644,-2220.617826,-10066.800811,689.485948
476.665971,-2886.803174,-9844.739029,612.876398
476.666299,-1480.411884,-9252.574275,459.657299
476.666627,1036.288319,-8956.491898,76.609550
476.666954,1036.288319,-9178.553681,766.095498
476.667282,0.000000,-9474.636058,1072.533697
476.667610,-1184.329507,-9326.594869,1225.752797
476.667937,-962.267725,-8364.327145,1072.533697
476.668265,1702.473667,-7254.018232,2145.067394
476.668592,3478.967927,-7624.121203,1455.581446
476.668920,2442.679609,-8660.409521,1532.190996
476.669248,-666.185348,-9770.718434,1608.800546
476.669575,-3034.844362,-9992.780217,919.314598
476.669903,-3775.050304,-9696.697840,153.219100
476.670230,-1776.494261,-9326.594869,919.314598
476.670558,592.164754,-9104.533087,536.266849
476.670886,666.185348,-9474.636058,995.924147
476.671213,-1036.288319,-9844.739029,919.314598
476.671541,-2368.659014,-9474.636058,229.828649
476.671868,-2368.659014,-8734.430116,-306.438199
476.672196,222.061783,-7920.203579,0.000000
476.672524,1702.473667,-8068.244768,0.000000
476.672851,888.247130,-8808.450710,76.609550
476.673179,-1110.308913,-9400.615463,153.219100
476.673507,-2664.741391,-8956.491898,153.219100
476.673834,-2146.597232,-9178.553681,76.609550
476.674162,74.020594,-8438.347739,0.000000
476.674489,1628.453072,-8808.450710,306.438199
476.674817,1258.350101,-9252.574275,383.047749
476.675145,-296.082377,-9178.553681,1072.533697
476.675472,-370.102971,-8882.471304,536.266849
476.675800,592.164754,-8438.347739,995.924147
476.676127,2590.720797,-8364.327145,1455.581446
476.676455,3552.988522,-8734.430116,1455.581446
476.676783,2220.617826,-9474.636058,1685.410096
476.677110,-592.164754,-10214.842000,1378.971896
476.677438,-2368.659014,-10140.821405,842.705048
476.677766,-1406.391290,-9474.636058,459.657299
476.678093,74.020594,-9178.553681,383.047749
476.678421,962.267725,-9252.574275,536.266849
476.678748,-222.061783,-9770.718434,536.266849
476.679076,-2960.823768,-10140.821405,0.000000
476.679404,-3701.029710,-9252.574275,-229.828649
476.679731,-2220.617826,-8216.285956,-383.047749
476.680059,444.123565,-7698.141797,-229.828649
476.680386,1406.391290,-7698.141797,306.438199
476.680714,0.000000,-8660.409521,766.095498
476.681042,-2146.597232,-8808.450710,153.219100
476.681369,-3034.844362,-8734.430116,-229.828649
476.681697,-1332.370696,-8290.306550,0.000000
476.682025,962.267725,-7994.224174,0.000000
476.682352,2072.576638,-8586.388927,536.266849
476.682680,740.205942,-9030.512492,766.095498
476.683007,-148.041188,-9252.574275,1302.362347
476.683335,-222.061783,-8512.368333,1302.362347
476.683663,2146.597232,-8216.285956,1608.800546
476.683990,4441.235652,-9030.512492,1685.410096
476.684318,3330.926739,-9548.656652,1838.629195
476.684645,222.061783,-10807.006753,1225.752797
476.684973,-2294.638420,-11325.150913,1072.533697
476.685301,-2442.679609,-10658.965565,536.266849
476.685628,-222.061783,-9474.636058,229.828649
476.685956,962.267725,-9104.533087,536.266849
476.686284,888.247130,-9474.636058,995.924147
476.686611,-1628.453072,-9696.697840,229.828649
476.686939,-3552.988522,-9326.594869,76.609550
476.687266,-3478.967927,-7772.162391,-229.828649
476.687594,-1184.329507,-7550.100608,0.000000
476.687922,518.144159,-7846.182985,76.609550
476.688249,0.000000,-8216.285956,229.828649
476.688577,-2368.659014,-8882.471304,306.438199
476.688904,-3701.029710,-8734.430116,153.219100
476.689232,-3108.864956,-8142.265362,-153.219100
476.689560,-814.226536,-7920.203579,-229.828649
476.689887,1480.411884,-8512.368333,0.000000
476.690215,1184.329507,-9326.594869,306.438199
476.690543,74.020594,-9696.697840,766.095498
476.690870,-74.020594,-9474.636058,1378.971896
476.691198,1110.308913,-8808.450710,1302.362347
476.691525,3627.009116,-9178.553681,1378.971896
476.691853,4293.194464,-9918.759623,1532.190996
476.692181,2368.659014,-10807.006753,1838.629195
476.692508,-296.082377,-11325.150913,2298.286494
476.692836,-1850.514855,-10807.006753,995.924147
476.693163,-888.247130,-9992.780217,536.266849
476.693491,666.185348,-10066.800811,919.314598
476.693819,1110.308913,-10214.842000,536.266849
476.694146,-222.061783,-9992.780217,612.876398
476.694474,-2590.720797,-9770.718434,0.000000
476.694801,-3552.988522,-9030.512492,0.000000
476.695129,-1850.514855,-8216.285956,-306.438199
476.695457,222.061783,-7698.141797,0.000000
476.695784,888.247130,-7476.080014,306.438199
476.696112,-592.164754,-8216.285956,-229.828649
476.696440,-3182.885551,-8734.430116,0.000000
476.696767,-3701.029710,-8512.368333,-612.876398
476.697095,-2072.576638,-8364.327145,-612.876398
476.697422,444.123565,-8290.306550,-459.657299
476.697750,1480.411884,-8956.491898,0.000000
476.698078,0.000000,-9622.677246,0.000000
476.698405,-962.267725,-9622.677246,383.047749
476.698733,-370.102971,-9252.574275,766.095498
476.699060,2220.617826,-8512.368333,1072.533697
476.699388,4145.153275,-8956.491898,766.095498
476.699716,3478.967927,-9918.759623,1838.629195
476.700043,1110.308913,-10955.047942,1838.629195
476.700371,-1258.350101,-10732.986159,1532.190996
476.700699,-1628.453072,-10214.842000,1149.143247
476.701026,0.000000,-9474.636058,919.314598
476.701354,1776.494261,-9474.636058,1455.581446
476.701681,814.226536,-9252.574275,995.924147
476.702009,-2146.597232,-9326.594869,766.095498
476.702337,-2960.823768,-8660.409521,383.047749
476.702664,-3034.844362,-7846.182985,306.438199
476.702992,-222.061783,-6957.935855,-229.828649
476.703320,814.226536,-7254.018232,0.000000
476.703647,0.000000,-8364.327145,229.828649
476.703975,-2812.782580,-8882.471304,76.609550
476.704303,-4589.276840,-8808.450710,-383.047749
476.704630,-3256.906145,-8438.347739,-1072.533697
476.704958,-888.247130,-8068.244768,-536.266849
476.705286,1036.288319,-8290.306550,0.000000
476.705613,888.247130,-8956.491898,306.438199
476.705941,-370.102971,-9326.594869,919.314598
476.706269,-518.144159,-8956.491898,612.876398
476.706596,444.123565,-8290.306550,1149.143247
476.706924,3182.885551,-8660.409521,1455.581446
476.707251,3701.029710,-9474.636058,1608.800546
476.707579,2146.597232,-10214.842000,1762.019645
476.707907,-444.123565,-10362.883188,1378.971896
476.708234,-1406.391290,-9474.636058,2451.505594
476.708562,-370.102971,-9326.594869,1455.581446
476.708890,1776.494261,-9178.553681,1302.362347
476.709217,1924.535449,-9178.553681,1225.752797
476.709545,370.102971,-9548.656652,995.924147
476.709873,-2368.659014,-9918.759623,1072.533697
476.710200,-3034.844362,-8660.409521,153.219100
476.710528,-1702.473667,-8364.327145,0.000000
476.710856,296.082377,-7698.141797,76.609550
476.711183,666.185348,-8290.306550,306.438199
476.711511,-1406.391290,-8882.471304,766.095498
476.711839,-4071.132681,-9622.677246,0.000000
476.712166,-4515.256246,-9252.574275,0.000000
476.712494,-2442.679609,-8660.409521,-766.095498
476.712822,0.000000,-8364.327145,-459.657299
476.713149,888.247130,-8586.388927,0.000000
476.713477,-148.041188,-8882.471304,383.047749
476.713805,-1480.411884,-8956.491898,459.657299
476.714132,-592.164754,-8364.327145,0.000000
476.714460,1554.432478,-8216.285956,612.876398
476.714788,3404.947333,-8660.409521,919.314598
476.715115,2960.823768,-9326.594869,1378.971896
476.715443,814.226536,-10658.965565,1685.410096
476.715770,-1332.370696,-10955.047942,1762.019645
476.716098,-1036.288319,-10658.965565,995.924147
476.716426,740.205942,-9992.780217,1072.533697
476.716753,2072.576638,-9844.739029,1302.362347
476.717081,1110.308913,-10140.821405,1149.143247
476.717409,-962.267725,-10436.903782,842.705048
476.717736,-3330.926739,-9622.677246,0.000000
476.718064,-3256.906145,-8660.409521,-383.047749
476.718392,-518.144159,-7550.100608,-842.705048
476.718719,888.247130,-7698.141797,-306.438199
476.719047,222.061783,-8290.306550,0.000000
476.719375,-2146.597232,-9252.574275,0.000000
476.719702,-4293.194464,-9252.574275,-536.266849
476.720030,-3849.070898,-9252.574275,-1378.971896
476.720358,-1554.432478,-8882.471304,-689.485948
476.720685,296.082377,-8734.430116,-766.095498
476.721013,666.185348,-9474.636058,0.000000
476.721341,0.000000,-9474.636058,459.657299
476.721668,0.000000,-9252.574275,995.924147
476.721996,1184.329507,-8216.285956,1072.533697
476.722324,3701.029710,-8068.244768,1225.752797
476.722651,4589.276840,-8808.450710,1378.971896
476.722979,2960.823768,-9844.739029,1685.410096
476.723307,370.102971,-10436.903782,1532.190996
476.723634,-888.247130,-9770.718434,1608.800546
476.723962,518.144159,-9474.636058,1455.581446
476.724289,2294.638420,-9400.615463,1532.190996
476.724617,2590.720797,-9696.697840,1455.581446
476.724945,814.226536,-10066.800811,1838.629195
476.725272,-1850.514855,-10362.883188,2145.067394
476.725600,-2442.679609,-9178.553681,1302.362347
476.725928,-1258.350101,-8512.368333,1378.971896
476.726255,740.205942,-8290.306550,1455.581446
476.726583,740.205942,-8512.368333,1762.019645
476.726911,-1332.370696,-9252.574275,1991.848295
476.727238,-4071.132681,-9400.615463,1302.362347
476.727566,-5625.565159,-9252.574275,995.924147
476.727894,-3849.070898,-8364.327145,536.266849
476.728221,-1184.329507,-7772.162391,842.705048
476.728549,222.061783,-7476.080014,1225.752797
476.728877,74.020594,-7698.141797,1915.238745
476.729204,-962.267725,-8142.265362,1991.848295
476.729532,-1332.370696,-8068.244768,2068.457845
476.729860,518.144159,-8068.244768,1838.629195
476.730187,2368.659014,-8586.388927,2298.286494
476.730515,3404.947333,-9474.636058,3447.429741
476.730843,1998.556043,-10140.821405,3907.087040
476.731170,370.102971,-10807.006753,4136.915689
476.731498,-370.102971,-11029.068536,3600.648841
476.731826,222.061783,-10658.965565,3064.381992
476.732153,1924.535449,-10140.821405,3294.210641
476.732481,1406.391290,-10140.821405,2681.334243
476.732809,296.082377,-9770.718434,3140.991542
476.733136,-1036.288319,-9474.636058,2911.162892
476.733464,-2368.659014,-9400.615463,2221.676944
476.733791,-962.267725,-8512.368333,1608.800546
476.734119,-296.082377,-7624.121203,1991.848295
476.734447,962.267725,-7476.080014,2451.505594
476.734774,666.185348,-7476.080014,3370.820191
476.735102,-666.185348,-8734.430116,3677.258390
476.735430,-2886.803174,-9400.615463,2451.505594
476.735757,-4219.173869,-9844.739029,1762.019645
476.736085,-4589.276840,-9992.780217,995.924147
476.736413,-3330.926739,-9326.594869,1149.143247
476.736740,-962.267725,-8438.347739,2451.505594
476.737068,888.247130,-7920.203579,4213.525239
476.737396,2294.638420,-7994.224174,3907.087040
476.737723,1036.288319,-8660.409521,3064.381992
476.738051,-444.123565,-9326.594869,2068.457845
476.738379,-1924.535449,-9622.677246,1302.362347
476.738706,-1776.494261,-9474.636058,1149.143247
476.739034,888.247130,-9104.533087,2911.162892
476.739362,3478.967927,-8808.450710,4673.182538
476.739689,4737.318029,-9178.553681,5592.497135
476.740017,3775.050304,-9770.718434,5669.106685
476.740345,962.267725,-10658.965565,4903.011187
476.740672,-2368.659014,-11029.068536,3677.258390
476.741000,-3182.885551,-10881.027347,2834.553343
476.741328,-2072.576638,-10140.821405,2834.553343
476.741655,74.020594,-8882.471304,3677.258390
476.741983,2590.720797,-7698.141797,5286.058936
476.742310,3182.885551,-7179.997637,6052.154434
476.742638,1776.494261,-7698.141797,5669.106685
476.742966,-1702.473667,-8512.368333,4060.306139
476.743293,-4293.194464,-9474.636058,2528.115143
476.743621,-5773.606348,-9548.656652,1532.190996
476.743949,-4811.338623,-9326.594869,1532.190996
476.744276,-2220.617826,-8364.327145,2681.334243
476.744604,666.185348,-7846.182985,4673.182538
476.744932,1850.514855,-7698.141797,5592.497135
476.745259,1036.288319,-8068.244768,5515.887586
476.745587,-1332.370696,-8956.491898,4136.915689
476.745915,-3404.947333,-9622.677246,3217.601092
476.746242,-4885.359217,-10140.821405,1225.752797
476.746570,-4293.194464,-10362.883188,1149.143247
476.746898,-1924.535449,-9400.615463,2221.676944
476.747225,888.247130,-8660.409521,3370.820191
476.747553,3108.864956,-7476.080014,4213.525239
476.747881,3552.988522,-7254.018232,4136.915689
476.748208,2960.823768,-8364.327145,3907.087040
476.748536,1258.350101,-9474.636058,2681.334243
476.748864,148.041188,-9992.780217,2145.067394
476.749191,0.000000,-9992.780217,2451.505594
476.749519,148.041188,-10362.883188,2528.115143
476.749847,814.226536,-10140.821405,3677.258390
476.750174,1110.308913,-9844.739029,4060.306139
476.750502,592.164754,-9474.636058,3294.210641
476.750829,-370.102971,-9252.574275,3140.991542
476.751157,592.164754,-8808.450710,2298.286494
476.751485,-444.123565,-8734.430116,2068.457845
476.751812,592.164754,-8586.388927,2374.896044
476.752140,1184.329507,-8512.368333,2451.505594
476.752468,1332.370696,-8364.327145,3370.820191
476.752795,1554.432478,-8216.285956,4060.306139
476.753123,1184.329507,-8956.491898,4519.963438
476.753451,74.020594,-9474.636058,4060.306139
476.753778,-592.164754,-9918.759623,3600.648841
476.754106,-1702.473667,-9992.780217,3370.820191
476.754434,-1998.556043,-9622.677246,3907.087040
476.754761,-1110.308913,-9252.574275,2987.772442
476.755089,-1480.411884,-9104.533087,3140.991542
476.755417,-592.164754,-8512.368333,3140.991542
476.755744,-222.061783,-8290.306550,3064.381992
476.756072,0.000000,-7994.224174,3600.648841
476.756400,-222.061783,-7328.038826,2911.162892
476.756727,-1258.350101,-8216.285956,2757.943793
476.757055,-1554.432478,-8586.388927,2834.553343
476.757383,-1480.411884,-8882.471304,3140.991542
476.757710,-740.205942,-9178.553681,3140.991542
476.758038,296.082377,-9474.636058,3753.867940
476.758366,370.102971,-9622.677246,4060.306139
476.758693,148.041188,-10214.842000,4060.306139
476.759021,-296.082377,-10288.862594,4136.915689
476.759349,-1036.288319,-9992.780217,3753.867940
476.759676,-1110.308913,-9770.718434,3753.867940
476.760004,-518.144159,-8956.491898,3370.820191
476.760331,0.000000,-8512.368333,3217.601092
476.760659,740.205942,-8586.388927,3140.991542
476.760987,962.267725,-8660.409521,2911.162892
476.761314,888.247130,-9252.574275,3140.991542
476.761642,148.041188,-9474.636058,2451.505594
476.761970,-370.102971,-9252.574275,2451.505594
476.762297,-666.185348,-9326.594869,2374.896044
476.762625,-444.123565,-9400.615463,2068.457845
476.762953,-370.102971,-9326.594869,2298.286494
476.763280,-222.061783,-9400.615463,2068.457845
476.763608,-740.205942,-9252.574275,2145.067394
476.763936,-1036.288319,-9474.636058,1991.848295
476.764263,-1628.453072,-9178.553681,1838.629195
476.764591,-1036.288319,-9178.553681,1685.410096
476.764919,-592.164754,-8734.430116,1455.581446
476.765246,0.000000,-8290.306550,995.924147
476.765574,222.061783,-8290.306550,1378.971896
476.765902,518.144159,-8586.388927,1225.752797
476.766229,74.020594,-8956.491898,1225.752797
476.766557,74.020594,-9474.636058,1225.752797
476.766885,-296.082377,-9918.759623,1225.752797
476.767212,0.000000,-10066.800811,1455.581446
476.767540,296.082377,-10140.821405,1608.800546
476.767868,740.205942,-9918.759623,1685.410096
476.768195,1258.350101,-9844.739029,2298.286494
476.768523,1184.329507,-9474.636058,1685.410096
476.768850,296.082377,-9326.594869,1532.190996
476.769178,0.000000,-9104.533087,1225.752797
476.769506,-592.164754,-9178.553681,766.095498
476.769833,-518.144159,-9030.512492,842.705048
476.770161,0.000000,-8364.327145,306.438199
476.770489,-222.061783,-8882.471304,995.924147
476.770816,-222.061783,-8956.491898,612.876398
476.771144,-296.082377,-8882.471304,766.095498
476.771472,-592.164754,-8512.368333,536.266849
476.771799,-444.123565,-8364.327145,306.438199
476.772127,-962.267725,-8438.347739,306.438199
476.772455,-518.144159,-8660.409521,229.828649
476.772782,-444.123565,-8882.471304,459.657299
476.773110,-296.082377,-9030.512492,919.314598
476.773438,-370.102971,-9030.512492,612.876398
476.773765,-370.102971,-9178.553681,1302.362347
476.774093,-444.123565,-9252.574275,995.924147
476.774421,-222.061783,-9030.512492,919.314598
476.774748,0.000000,-8882.471304,689.485948
476.775076,148.041188,-8882.471304,612.876398
476.775404,0.000000,-8586.388927,689.485948
476.775731,0.000000,-9178.553681,842.705048
476.776059,0.000000,-9400.615463,995.924147
476.776387,-222.061783,-9400.615463,1302.362347
476.776714,0.000000,-9548.656652,1378.971896
476.777042,0.000000,-8660.409521,766.095498
476.777369,0.000000,-9030.512492,766.095498
476.777697,-148.041188,-8882.471304,766.095498
476.778025,-222.061783,-9178.553681,919.314598
476.778352,-592.164754,-8956.491898,995.924147
476.778680,-518.144159,-8660.409521,1532.190996
476.779008,-962.267725,-8808.450710,919.314598
476.779335,-1110.308913,-9178.553681,842.705048
476.779663,-1332.370696,-9030.512492,536.266849
476.779991,-962.267725,-8956.491898,766.095498
476.780318,-370.102971,-8586.388927,689.485948
476.780646,-296.082377,-8734.430116,536.266849
476.780974,-444.123565,-8956.491898,459.657299
476.781301,-296.082377,-9104.533087,766.095498
476.781629,-296.082377,-8956.491898,612.876398
476.781957,-74.020594,-9030.512492,919.314598
476.782284,-444.123565,-8956.491898,536.266849
476.782612,-740.205942,-9770.718434,536.266849
476.782940,-814.226536,-9844.739029,459.657299
476.783267,-296.082377,-9770.718434,766.095498
476.783595,0.000000,-9770.718434,689.485948
476.783923,444.123565,-9474.636058,689.485948
476.784250,370.102971,-9548.656652,459.657299
476.784578,666.185348,-9326.594869,612.876398
476.784906,592.164754,-9326.594869,383.047749
476.785233,444.123565,-9252.574275,536.266849
476.785561,296.082377,-9474.636058,459.657299
476.785888,-222.061783,-9326.594869,153.219100
476.786216,222.061783,-9548.656652,459.657299
476.786544,74.020594,-9252.574275,536.266849
476.786871,74.020594,-9104.533087,229.828649
476.787199,296.082377,-9104.533087,0.000000
476.787527,0.000000,-8808.450710,612.876398
476.787854,-222.061783,-8734.430116,153.219100
476.788182,-148.041188,-8512.368333,459.657299
476.788510,-444.123565,-8882.471304,229.828649
476.788837,-518.144159,-8808.450710,612.876398
476.789165,-962.267725,-8808.450710,459.657299
476.789493,-814.226536,-9030.512492,229.828649
476.789820,-814.226536,-9178.553681,306.438199
476.790148,-814.226536,-9030.512492,229.828649
476.790476,-592.164754,-8956.491898,306.438199
476.790803,-518.144159,-8364.327145,306.438199
476.791131,-148.041188,-8734.430116,383.047749
476.791459,-518.144159,-9030.512492,459.657299
476.791786,-740.205942,-9030.512492,536.266849
476.792114,-740.205942,-9400.615463,842.705048
476.792442,-962.267725,-9252.574275,689.485948
476.792769,-1110.308913,-9178.553681,919.314598
476.793097,-518.144159,-9252.574275,612.876398
476.793425,-444.123565,-8956.491898,766.095498
476.793752,-370.102971,-8586.388927,689.485948
476.794080,-222.061783,-8808.450710,536.266849
476.794408,-222.061783,-8142.265362,612.876398
476.794735,-666.185348,-8808.450710,919.314598
476.795063,-814.226536,-8956.491898,995.924147
476.795390,-962.267725,-9104.533087,919.314598
476.795718,-444.123565,-9030.512492,1149.143247
476.796046,-296.082377,-8956.491898,1072.533697
476.796373,-592.164754,-9030.512492,919.314598
476.796701,-370.102971,-9104.533087,612.876398
476.797029,-592.164754,-8882.471304,766.095498
476.797356,-592.164754,-9104.533087,612.876398
476.797684,-592.164754,-8808.450710,1225.752797
476.798012,-740.205942,-9474.636058,689.485948
476.798339,-518.144159,-9474.636058,842.705048
476.798667,-444.123565,-9178.553681,383.047749
476.798995,-148.041188,-9178.553681,459.657299
476.799322,0.000000,-9030.512492,689.485948
476.799650,-444.123565,-8734.430116,459.657299
476.799978,-444.123565,-9030.512492,383.047749
476.800305,-370.102971,-9104.533087,383.047749
476.800633,0.000000,-9400.615463,612.876398
476.800961,0.000000,-9178.553681,919.314598
476.801288,148.041188,-9178.553681,536.266849
476.801616,0.000000,-9326.594869,612.876398
476.801944,-444.123565,-8882.471304,612.876398
476.802271,-370.102971,-8660.409521,306.438199
476.802599,-814.226536,-8290.306550,306.438199
476.802927,-1036.288319,-8660.409521,306.438199
476.803254,-1036.288319,-8956.491898,0.000000
476.803582,-962.267725,-8956.491898,229.828649
476.803909,-592.164754,-8808.450710,612.876398
476.804237,0.000000,-9104.533087,689.485948
476.804565,74.020594,-8364.327145,766.095498
476.804892,74.020594,-8290.306550,459.657299
476.805220,370.102971,-8734.430116,383.047749
476.805547,148.041188,-9030.512492,536.266849
476.805875,-222.061783,-9474.636058,612.876398
476.806203,-370.102971,-9696.697840,842.705048
476.806530,-444.123565,-9696.697840,842.705048
476.806858,296.082377,-9770.718434,842.705048
476.807185,370.102971,-9252.574275,689.485948
476.807513,666.185348,-9030.512492,689.485948
476.807840,814.226536,-8438.347739,612.876398
476.808168,814.226536,-7920.203579,612.876398
476.808496,296.082377,-8216.285956,76.609550
476.808823,-222.061783,-8660.409521,306.438199
476.809151,-370.102971,-9252.574275,536.266849
476.809478,-444.123565,-9474.636058,766.095498
476.809806,-148.041188,-9326.594869,306.438199
476.810134,0.000000,-9400.615463,919.314598
476.810461,222.061783,-9178.553681,459.657299
476.810789,518.144159,-8586.388927,383.047749
476.811116,814.226536,-8586.388927,229.828649
476.811444,370.102971,-8438.347739,383.047749
476.811772,370.102971,-8956.491898,76.609550
476.812099,0.000000,-9474.636058,612.876398
476.812427,-370.102971,-9770.718434,536.266849
476.812754,-222.061783,-10066.800811,842.705048
476.813082,0.000000,-9918.759623,689.485948
476.813410,0.000000,-9400.615463,153.219100
476.813737,0.000000,-8882.471304,76.609550
476.814065,148.041188,-8512.368333,306.438199
476.814392,222.061783,-8734.430116,229.828649
476.814720,148.041188,-8882.471304,536.266849
476.815047,-296.082377,-9030.512492,766.095498
476.815375,-444.123565,-9474.636058,766.095498
476.815703,-666.185348,-9844.739029,842.705048
476.816030,-666.185348,-9696.697840,842.705048
476.816358,-740.205942,-9474.636058,536.266849
476.816685,-148.041188,-9178.553681,229.828649
476.817013,-296.082377,-9030.512492,383.047749
476.817341,-518.144159,-9178.553681,306.438199
476.817668,-666.185348,-9474.636058,229.828649
476.817996,-518.144159,-9770.718434,612.876398
476.818323,-592.164754,-9844.739029,766.095498
476.818651,-888.247130,-9844.739029,842.705048
476.818979,-740.205942,-9918.759623,766.095498
476.819306,-518.144159,-9622.677246,612.876398
476.819634,-370.102971,-9400.615463,459.657299
476.819961,-444.123565,-9030.512492,842.705048
476.820289,0.000000,-9326.594869,689.485948
476.820616,-444.123565,-9400.615463,689.485948
476.820944,-666.185348,-9400.615463,842.705048
476.821272,-666.185348,-9474.636058,1149.143247
476.821599,-740.205942,-9326.594869,1225.752797
476.821927,-518.144159,-8882.471304,689.485948
476.822254,-740.205942,-8882.471304,536.266849
476.822582,-740.205942,-8660.409521,383.047749
476.822910,-814.226536,-8660.409521,229.828649
476.823237,-888.247130,-8512.368333,229.828649
476.823565,-888.247130,-8882.471304,459.657299
476.823892,-962.267725,-8882.471304,383.047749
476.824220,-740.205942,-9104.533087,536.266849
476.824548,-666.185348,-8956.491898,612.876398
476.824875,-666.185348,-8734.430116,306.438199
476.825203,-518.144159,-8438.347739,0.000000
476.825530,-370.102971,-8808.450710,689.485948
476.825858,-370.102971,-8512.368333,459.657299
476.826186,-296.082377,-8956.491898,459.657299
476.826513,-296.082377,-8808.450710,612.876398
476.826841,-296.082377,-9474.636058,919.314598
476.827168,0.000000,-9104.533087,306.438199
476.827496,0.000000,-8808.450710,766.095498
476.827823,0.000000,-8586.388927,612.876398
476.828151,-296.082377,-8586.388927,612.876398
476.828479,0.000000,-8586.388927,536.266849
476.828806,74.020594,-8290.306550,612.876398
476.829134,370.102971,-8660.409521,536.266849
476.829461,0.000000,-8882.471304,612.876398
476.829789,0.000000,-8882.471304,689.485948
476.830117,0.000000,-9104.533087,689.485948
476.830444,0.000000,-8586.388927,689.485948
476.830772,74.020594,-8956.491898,459.657299
476.831099,0.000000,-8808.450710,383.047749
476.831427,74.020594,-9104.533087,0.000000
476.831755,0.000000,-8956.491898,306.438199
476.832082,0.000000,-9178.553681,689.485948
476.832410,0.000000,-9178.553681,383.047749
476.832737,0.000000,-9400.615463,689.485948
476.833065,0.000000,-9326.594869,306.438199
476.833393,0.000000,-9326.594869,306.438199
476.833720,-222.061783,-8808.450710,612.876398
476.834048,74.020594,-9104.533087,766.095498
476.834375,148.041188,-9178.553681,306.438199
476.834703,222.061783,-9474.636058,383.047749
476.835030,74.020594,-9400.615463,306.438199
476.835358,148.041188,-9474.636058,766.095498
476.835686,0.000000,-9252.574275,842.705048
476.836013,0.000000,-9474.636058,536.266849
476.836341,0.000000,-9474.636058,306.438199
476.836668,74.020594,-9474.636058,612.876398
476.836996,0.000000,-9178.553681,459.657299
476.837324,296.082377,-9400.615463,0.000000
476.837651,-222.061783,-9252.574275,306.438199
476.837979,-222.061783,-9326.594869,459.657299
476.838306,-296.082377,-9400.615463,612.876398
476.838634,-444.123565,-9474.636058,459.657299
476.838962,-370.102971,-9326.594869,306.438199
476.839289,-666.185348,-8956.491898,689.485948
476.839617,-370.102971,-9326.594869,612.876398
476.839944,-666.185348,-9474.636058,306.438199
476.840272,-444.123565,-9400.615463,612.876398
476.840599,-444.123565,-9474.636058,612.876398
476.840927,-592.164754,-9178.553681,766.095498
476.841255,-444.123565,-9326.594869,842.705048
476.841582,-148.041188,-9326.594869,766.095498
476.841910,-370.102971,-9474.636058,919.314598
476.842237,0.000000,-9474.636058,995.924147
476.842565,-370.102971,-9178.553681,766.095498
476.842893,-222.061783,-8956.491898,842.705048
476.843220,-370.102971,-9400.615463,612.876398
476.843548,0.000000,-9400.615463,766.095498
476.843875,-148.041188,-9252.574275,612.876398
476.844203,74.020594,-9104.533087,919.314598
476.844531,148.041188,-9400.615463,689.485948
476.844858,-296.082377,-9104.533087,612.876398
476.845186,-222.061783,-9030.512492,842.705048
476.845513,-370.102971,-8808.450710,536.266849
476.845841,-296.082377,-8586.388927,536.266849
476.846169,-370.102971,-8734.430116,536.266849
476.846496,-296.082377,-9178.553681,459.657299
476.846824,-370.102971,-8956.491898,612.876398
476.847151,-370.102971,-8956.491898,612.876398
476.847479,0.000000,-9030.512492,383.047749
476.847806,-222.061783,-8882.471304,689.485948
476.848134,-370.102971,-9030.512492,536.266849
476.848462,0.000000,-9030.512492,612.876398
476.848789,-296.082377,-9178.553681,459.657299
476.849117,-444.123565,-9326.594869,536.266849
476.849444,0.000000,-9252.574275,536.266849
476.849772,-148.041188,-9326.594869,459.657299
476.850100,-148.041188,-9252.574275,612.876398
476.850427,-148.041188,-9104.533087,536.266849
476.850755,0.000000,-8956.491898,536.266849
476.851082,0.000000,-9178.553681,459.657299
476.851410,0.000000,-8808.450710,459.657299
476.851738,-370.102971,-8808.450710,459.657299
476.852065,-370.102971,-8882.471304,459.657299
476.852393,-222.061783,-9104.533087,536.266849
476.852720,0.000000,-9252.574275,-229.828649
476.853048,-518.144159,-8438.347739,689.485948
476.853375,-444.123565,-9030.512492,536.266849
476.853703,-666.185348,-9030.512492,689.485948
476.854031,-592.164754,-8734.430116,383.047749
476.854358,-592.164754,-8438.347739,306.438199
476.854686,-592.164754,-8512.368333,766.095498
476.855013,-666.185348,-8956.491898,536.266849
476.855341,-814.226536,-9104.533087,612.876398
476.855669,-814.226536,-9104.533087,459.657299
476.855996,-740.205942,-8882.471304,766.095498
476.856324,-814.226536,-9178.553681,842.705048
476.856651,-888.247130,-9104.533087,612.876398
476.856979,-518.144159,-9178.553681,842.705048
476.857307,-666.185348,-8956.491898,689.485948
476.857634,-444.123565,-8882.471304,536.266849
476.857962,-296.082377,-8660.409521,766.095498
476.858289,-518.144159,-8882.471304,536.266849
476.858617,-666.185348,-9030.512492,383.047749
476.858945,-370.102971,-8882.471304,689.485948
476.859272,-518.144159,-8882.471304,766.095498
476.859600,0.000000,-8586.388927,919.314598
476.859927,-222.061783,-9030.512492,612.876398
476.860255,-666.185348,-8734.430116,612.876398
476.860582,-296.082377,-8734.430116,459.657299
476.860910,-518.144159,-8808.450710,383.047749
476.861238,-296.082377,-8808.450710,536.266849
476.861565,-444.123565,-8808.450710,919.314598
476.861893,-370.102971,-8734.430116,536.266849
476.862220,-296.082377,-9104.533087,383.047749
476.862548,-444.123565,-9030.512492,229.828649
476.862876,-296.082377,-9104.533087,459.657299
476.863203,-148.041188,-8808.450710,766.095498
476.863531,-370.102971,-9030.512492,306.438199
476.863858,-444.123565,-8956.491898,229.828649
476.864186,-296.082377,-9178.553681,459.657299
476.864514,0.000000,-9252.574275,536.266849
476.864841,296.082377,-9178.553681,612.876398
476.865169,222.061783,-9474.636058,536.266849
476.865496,0.000000,-9326.594869,689.485948
476.865824,74.020594,-9474.636058,612.876398
476.866151,0.000000,-9252.574275,459.657299
476.866479,0.000000,-9030.512492,76.609550
476.866807,370.102971,-9252.574275,919.314598
476.867134,0.000000,-9104.533087,536.266849
476.867462,148.041188,-9252.574275,689.485948
476.867789,74.020594,-9252.574275,536.266849
476.868117,0.000000,-9252.574275,766.095498
476.868445,0.000000,-9400.615463,612.876398
476.868772,0.000000,-9474.636058,536.266849
476.869100,0.000000,-9400.615463,306.438199
476.869427,0.000000,-9474.636058,459.657299
476.869755,0.000000,-9474.636058,306.438199
476.870083,74.020594,-9400.615463,459.657299
476.870410,-148.041188,-9474.636058,153.219100
476.870738,-148.041188,-9474.636058,536.266849
476.871065,-296.082377,-9400.615463,536.266849
476.871393,-148.041188,-9474.636058,612.876398
476.871721,148.041188,-9474.636058,0.000000
476.872048,-296.082377,-9104.533087,612.876398
476.872376,0.000000,-9474.636058,229.828649
476.872703,-148.041188,-9326.594869,612.876398
476.873031,-222.061783,-9400.615463,383.047749
476.873358,-222.061783,-9400.615463,536.266849
476.873686,0.000000,-9400.615463,536.266849
476.874014,74.020594,-9548.656652,689.485948
476.874341,148.041188,-9474.636058,536.266849
476.874669,0.000000,-9400.615463,459.657299
476.874996,0.000000,-9400.615463,842.705048
476.875324,0.000000,-9474.636058,766.095498
476.875652,0.000000,-9030.512492,842.705048
476.875979,-296.082377,-9178.553681,689.485948
476.876307,-444.123565,-9104.533087,536.266849
476.876634,-518.144159,-9030.512492,612.876398
476.876962,-222.061783,-8808.450710,919.314598
476.877290,-222.061783,-8808.450710,766.095498
476.877617,-592.164754,-8956.491898,689.485948
476.877945,-666.185348,-8808.450710,689.485948
476.878272,-814.226536,-8660.409521,383.047749
476.878600,-148.041188,-8660.409521,459.657299
476.878927,-814.226536,-8956.491898,306.438199
476.879255,-814.226536,-8882.471304,689.485948
476.879583,-814.226536,-8808.450710,612.876398
476.879910,-666.185348,-8956.491898,612.876398
476.880238,-370.102971,-8808.450710,766.095498
476.880565,-962.267725,-8216.285956,919.314598
476.880893,-592.164754,-8734.430116,766.095498
476.881221,-518.144159,-8734.430116,459.657299
476.881548,-518.144159,-8882.471304,689.485948
476.881876,-518.144159,-8956.491898,536.266849
476.882203,-296.082377,-8438.347739,536.266849
476.882531,-740.205942,-8808.450710,383.047749
476.882859,-444.123565,-8734.430116,766.095498
476.883186,-518.144159,-8734.430116,612.876398
476.883514,-444.123565,-8660.409521,536.266849
476.883841,-518.144159,-8512.368333,689.485948
476.884169,-148.041188,-8438.347739,306.438199
476.884497,-444.123565,-8734.430116,383.047749
476.884824,-518.144159,-8438.347739,229.828649
476.885152,-444.123565,-8734.430116,612.876398
476.885479,-888.247130,-8142.265362,612.876398
476.885807,0.000000,-9104.533087,383.047749
476.886134,-592.164754,-9030.512492,153.219100
476.886462,-592.164754,-8956.491898,612.876398
476.886790,-444.123565,-8956.491898,229.828649
476.887117,0.000000,-8808.450710,536.266849
476.887445,-74.020594,-8882.471304,689.485948
476.887772,-296.082377,-9030.512492,459.657299
476.888100,-148.041188,-9326.594869,459.657299
476.888428,0.000000,-9326.594869,689.485948
476.888755,0.000000,-9178.553681,459.657299
476.889083,296.082377,-9326.594869,689.485948
476.889410,0.000000,-9178.553681,612.876398
476.889738,-148.041188,-9326.594869,459.657299
476.890066,0.000000,-9252.574275,612.876398
476.890393,0.000000,-9326.594869,612.876398
476.890721,148.041188,-9030.512492,1149.143247
476.891048,148.041188,-9030.512492,306.438199
476.891376,0.000000,-9104.533087,306.438199
476.891704,-222.061783,-9104.533087,612.876398
476.892031,0.000000,-9252.574275,306.438199
476.892359,-222.061783,-8734.430116,919.314598
476.892686,148.041188,-9030.512492,153.219100
476.893014,0.000000,-9178.553681,536.266849
476.893341,0.000000,-9030.512492,383.047749
476.893669,0.000000,-9326.594869,536.266849
476.893997,0.000000,-9622.677246,0.000000
476.894324,296.082377,-9474.636058,229.828649
476.894652,0.000000,-9474.636058,536.266849
476.894979,0.000000,-9474.636058,383.047749
476.895307,0.000000,-9474.636058,459.657299
476.895635,222.061783,-9622.677246,612.876398
476.895962,592.164754,-9770.718434,842.705048
476.896290,148.041188,-9474.636058,689.485948
476.896617,0.000000,-9548.656652,612.876398
476.896945,0.000000,-9474.636058,612.876398
476.897273,74.020594,-9548.656652,459.657299
476.897600,74.020594,-9326.594869,842.705048
476.897928,0.000000,-9104.533087,153.219100
476.898255,0.000000,-9326.594869,842.705048
476.898583,0.000000,-9400.615463,306.438199
476.898910,-222.061783,-9104.533087,689.485948
476.899238,0.000000,-9400.615463,0.000000
476.899566,-444.123565,-8438.347739,919.314598
476.899893,-444.123565,-9104.533087,536.266849
476.900221,-518.144159,-9252.574275,536.266849
476.900548,-592.164754,-9104.533087,536.266849
476.900876,-666.185348,-9104.533087,766.095498
476.901204,-370.102971,-9400.615463,536.266849
476.901531,-592.164754,-8956.491898,612.876398
476.901859,-592.164754,-9252.574275,612.876398
476.902186,-518.144159,-9030.512492,536.266849
476.902514,-518.144159,-9030.512492,766.095498
476.902842,-296.082377,-9400.615463,459.657299
476.903169,-518.144159,-9252.574275,689.485948
476.903497,-518.144159,-9104.533087,612.876398
476.903824,-444.123565,-9178.553681,612.876398
476.904152,-296.082377,-9252.574275,612.876398
476.904480,-148.041188,-9030.512492,229.828649
476.904807,-370.102971,-8734.430116,842.705048
476.905135,-370.102971,-8808.450710,306.438199
476.905462,-222.061783,-8956.491898,383.047749
476.905790,-370.102971,-9030.512492,459.657299
476.906118,-444.123565,-8808.450710,689.485948
476.906445,0.000000,-8808.450710,459.657299
476.906773,-148.041188,-9326.594869,459.657299
476.907100,-296.082377,-8956.491898,306.438199
476.907428,-444.123565,-9030.512492,229.828649
476.907756,-296.082377,-9030.512492,995.924147
476.908083,0.000000,-9400.615463,612.876398
476.908411,-592.164754,-8956.491898,306.438199
476.908738,-518.144159,-8734.430116,383.047749
476.909066,-444.123565,-8882.471304,383.047749
476.909394,-370.102971,-8956.491898,229.828649
476.909721,-222.061783,-8808.450710,383.047749
476.910049,-296.082377,-8956.491898,383.047749
476.910376,-296.082377,-8734.430116,306.438199
476.910704,-370.102971,-9030.512492,612.876398
476.911032,-370.102971,-8882.471304,306.438199
476.911359,148.041188,-8734.430116,766.095498
476.911687,0.000000,-8956.491898,306.438199
476.912014,-296.082377,-9104.533087,689.485948
476.912342,-296.082377,-9178.553681,383.047749
476.912670,0.000000,-9474.636058,842.705048
476.912997,0.000000,-8808.450710,689.485948
476.913325,74.020594,-8734.430116,689.485948
476.913652,0.000000,-9030.512492,536.266849
476.913980,0.000000,-9178.553681,689.485948
476.914307,0.000000,-9104.533087,612.876398
476.914635,0.000000,-8956.491898,459.657299
476.914963,0.000000,-8882.471304,306.438199
476.915290,-370.102971,-8956.491898,612.876398
476.915618,-222.061783,-9178.553681,306.438199
476.915945,-222.061783,-9178.553681,459.657299
476.916273,-370.102971,-8882.471304,229.828649
476.916601,0.000000,-9178.553681,0.000000
476.916928,-518.144159,-8882.471304,383.047749
476.917256,-518.144159,-8956.491898,383.047749
476.917583,-518.144159,-9104.533087,383.047749
476.917911,-370.102971,-9252.574275,842.705048
476.918239,-222.061783,-9178.553681,536.266849
476.918566,-296.082377,-9104.533087,1072.533697
476.918894,-148.041188,-9326.594869,459.657299
476.919221,-370.102971,-9326.594869,842.705048
476.919549,-370.102971,-9400.615463,459.657299
476.919877,-148.041188,-9030.512492,1455.581446
476.920204,-222.061783,-8882.471304,612.876398
476.920532,-222.061783,-9400.615463,689.485948
476.920859,-222.061783,-9326.594869,689.485948
476.921187,0.000000,-9252.574275,612.876398
476.921515,-148.041188,-9474.636058,766.095498
476.921842,-592.164754,-9030.512492,536.266849
476.922170,-740.205942,-9252.574275,612.876398
476.922497,-296.082377,-9104.533087,612.876398
476.922825,-370.102971,-9178.553681,229.828649
476.923153,-296.082377,-9252.574275,459.657299
476.923480,0.000000,-9326.594869,1072.533697
476.923808,-444.123565,-8956.491898,536.266849
476.924135,-296.082377,-9178.553681,536.266849
476.924463,-370.102971,-9178.553681,536.266849
476.924791,-370.102971,-9178.553681,536.266849
476.925118,-74.020594,-8882.471304,612.876398
476.925446,-148.041188,-9326.594869,229.828649
476.925773,-296.082377,-9252.574275,306.438199
476.926101,0.000000,-9326.594869,459.657299
476.926429,0.000000,-9474.636058,306.438199
476.926756,0.000000,-9104.533087,459.657299
476.927084,0.000000,-9400.615463,766.095498
476.927411,0.000000,-9474.636058,383.047749
476.927739,0.000000,-9400.615463,612.876398
476.928067,0.000000,-9400.615463,459.657299
476.928394,0.000000,-9104.533087,229.828649
476.928722,0.000000,-9104.533087,1149.143247
476.929049,0.000000,-9326.594869,536.266849
476.929377,-148.041188,-9178.553681,306.438199
476.929705,-222.061783,-9178.553681,612.876398
476.930032,0.000000,-9326.594869,459.657299
476.930360,518.144159,-8882.471304,459.657299
476.930687,0.000000,-8882.471304,229.828649
476.931015,-296.082377,-9030.512492,459.657299
476.931343,-518.144159,-8956.491898,459.657299
476.931670,-370.102971,-9030.512492,536.266849
476.931998,74.020594,-8956.491898,1072.533697
476.932325,-370.102971,-8882.471304,153.219100
476.932653,0.000000,-9178.553681,459.657299
476.932981,-370.102971,-9104.533087,612.876398
476.933308,-296.082377,-9326.594869,612.876398
476.933636,-444.123565,-9178.553681,536.266849
476.933963,-518.144159,-8512.368333,995.924147
476.934291,-444.123565,-8956.491898,689.485948
476.934619,0.000000,-9178.553681,689.485948
476.934946,-296.082377,-9178.553681,612.876398
476.935274,-148.041188,-9104.533087,842.705048
476.935601,-148.041188,-8586.388927,306.438199
476.935929,-222.061783,-9326.594869,612.876398
476.936257,-370.102971,-9178.553681,919.314598
476.936584,-444.123565,-9104.533087,459.657299
476.936912,-444.123565,-8956.491898,612.876398
476.937239,148.041188,-8660.409521,536.266849
476.937567,-444.123565,-8882.471304,459.657299
476.937895,-296.082377,-8956.491898,612.876398
476.938222,-444.123565,-9104.533087,842.705048
476.938550,-370.102971,-9030.512492,612.876398
476.938877,-444.123565,-9030.512492,153.219100
476.939205,-518.144159,-8586.388927,842.705048
476.939533,-592.164754,-8956.491898,459.657299
476.939860,-444.123565,-8808.450710,383.047749
476.940188,-518.144159,-8734.430116,536.266849
476.940515,-592.164754,-8956.491898,229.828649
476.940843,-814.226536,-8808.450710,536.266849
476.941171,-592.164754,-8956.491898,459.657299
476.941498,-518.144159,-9030.512492,612.876398
476.941826,-444.123565,-9030.512492,459.657299
476.942153,-296.082377,-9104.533087,612.876398
476.942481,-740.205942,-8882.471304,306.438199
476.942808,-592.164754,-8660.409521,689.485948
476.943136,-592.164754,-8882.471304,536.266849
476.943464,-370.102971,-9104.533087,383.047749
476.943791,-592.164754,-8808.450710,612.876398
476.944119,-888.247130,-8956.491898,1149.143247
476.944446,0.000000,-9104.533087,689.485948
476.944774,-666.185348,-8882.471304,689.485948
476.945102,-518.144159,-8882.471304,536.266849
476.945429,-592.164754,-8882.471304,536.266849
476.945757,-296.082377,-8808.450710,612.876398
476.946084,-592.164754,-8882.471304,612.876398
476.946412,-740.205942,-8956.491898,459.657299
476.946740,-444.123565,-9104.533087,459.657299
476.947067,-370.102971,-9178.553681,689.485948
476.947395,-222.061783,-9178.553681,536.266849
476.947722,-370.102971,-8438.347739,612.876398
476.948050,-444.123565,-8956.491898,536.266849
476.948378,-222.061783,-9326.594869,459.657299
476.948705,-296.082377,-9178.553681,612.876398
476.949033,-296.082377,-9252.574275,536.266849
476.949360,0.000000,-9252.574275,306.438199
476.949688,74.020594,-9474.636058,689.485948
476.950016,0.000000,-9252.574275,612.876398
476.950343,0.000000,-9474.636058,536.266849
476.950671,74.020594,-9474.636058,689.485948
476.950998,296.082377,-9252.574275,689.485948
476.951326,148.041188,-9252.574275,0.000000
476.951654,74.020594,-9474.636058,459.657299
476.951981,222.061783,-9326.594869,536.266849
476.952309,148.041188,-9252.574275,689.485948
476.952636,222.061783,-9400.615463,229.828649
476.952964,148.041188,-9474.636058,383.047749
476.953292,0.000000,-9252.574275,612.876398
476.953619,0.000000,-9252.574275,306.438199
476.953947,-222.061783,-9252.574275,536.266849
476.954274,-222.061783,-9474.636058,383.047749
476.954602,-370.102971,-9400.615463,766.095498
476.954930,0.000000,-9252.574275,459.657299
476.955257,-296.082377,-9326.594869,383.047749
476.955585,-296.082377,-9326.594869,459.657299
476.955912,-296.082377,-9178.553681,612.876398
476.956240,-296.082377,-9178.553681,612.876398
476.956568,0.000000,-9474.636058,842.705048
476.956895,0.000000,-9178.553681,459.657299
476.957223,-296.082377,-9400.615463,612.876398
476.957550,-222.061783,-9326.594869,536.266849
476.957878,-592.164754,-9400.615463,766.095498
476.958206,74.020594,-9474.636058,689.485948
476.958533,0.000000,-9400.615463,536.266849
476.958861,0.000000,-9326.594869,612.876398
476.959188,0.000000,-9178.553681,766.095498
476.959516,148.041188,-9696.697840,842.705048
476.959844,0.000000,-9400.615463,1149.143247
476.960171,-444.123565,-8882.471304,459.657299
476.960499,-370.102971,-9030.512492,459.657299
476.960826,-296.082377,-9030.512492,536.266849
476.961154,-444.123565,-9030.512492,459.657299
476.961482,-296.082377,-8438.347739,459.657299
476.961809,-666.185348,-8734.430116,612.876398
476.962137,-518.144159,-8882.471304,383.047749
476.962464,-370.102971,-9030.512492,459.657299
476.962792,-444.123565,-8808.450710,689.485948
476.963120,-962.267725,-8660.409521,1072.533697
476.963447,-222.061783,-9030.512492,536.266849
476.963775,-370.102971,-8956.491898,612.876398
476.964102,-444.123565,-9030.512492,536.266849
476.964430,-444.123565,-8956.491898,459.657299
476.964758,0.000000,-9178.553681,689.485948
476.965085,-518.144159,-8660.409521,842.705048
476.965413,-222.061783,-8808.450710,766.095498
476.965740,-296.082377,-8808.450710,842.705048
476.966068,-518.144159,-9178.553681,689.485948
476.966396,-444.123565,-8734.430116,612.876398
476.966723,-518.144159,-8660.409521,1149.143247
476.967051,-444.123565,-9104.533087,842.705048
476.967378,-370.102971,-8956.491898,612.876398
476.967706,-444.123565,-8956.491898,612.876398
476.968034,-370.102971,-8956.491898,612.876398
476.968361,-222.061783,-8956.491898,383.047749
476.968689,0.000000,-9104.533087,459.657299
476.969016,-592.164754,-8882.471304,612.876398
476.969344,-666.185348,-8882.471304,383.047749
476.969672,-444.123565,-8956.491898,306.438199
476.969999,74.020594,-9400.615463,306.438199
476.970327,-222.061783,-9030.512492,536.266849
476.970654,0.000000,-9178.553681,383.047749
476.970982,-296.082377,-9030.512492,459.657299
476.971309,-222.061783,-9326.594869,229.828649
476.971637,0.000000,-9400.615463,842.705048
476.971965,0.000000,-9178.553681,612.876398
476.972292,-370.102971,-9178.553681,459.657299
476.972620,0.000000,-9474.636058,383.047749
476.972947,74.020594,-9474.636058,383.047749
476.973275,0.000000,-9104.533087,766.095498
476.973603,74.020594,-8956.491898,459.657299
