#time,accel_x,accel_y,accel_z
548.084851,-370.102971,-9178.553681,689.485948
548.085179,-370.102971,-9178.553681,689.485948
548.085507,-296.082377,-9030.512492,459.657299
548.085835,-370.102971,-8882.471304,459.657299
548.086163,-148.041188,-9030.512492,536.266849
548.086491,0.000000,-8808.450710,536.266849
548.086819,0.000000,-9178.553681,995.924147
548.087147,-222.061783,-8956.491898,612.876398
548.087475,0.000000,-9178.553681,459.657299
548.087803,-222.061783,-9030.512492,383.047749
548.088132,-296.082377,-8882.471304,459.657299
548.088460,-296.082377,-9030.512492,919.314598
548.088788,-296.082377,-9178.553681,842.705048
548.089116,-296.082377,-8956.491898,383.047749
548.089444,-148.041188,-9252.574275,383.047749
548.089772,-148.041188,-9178.553681,383.047749
548.090100,-592.164754,-8734.430116,842.705048
548.090428,0.000000,-9178.553681,459.657299
548.090756,-222.061783,-9252.574275,612.876398
548.091084,-370.102971,-9178.553681,536.266849
548.091412,0.000000,-9252.574275,459.657299
548.091740,0.000000,-9104.533087,229.828649
548.092068,0.000000,-9178.553681,383.047749
548.092396,-222.061783,-9104.533087,459.657299
548.092724,-148.041188,-9252.574275,689.485948
548.093052,-370.102971,-9178.553681,306.438199
548.093380,0.000000,-9474.636058,306.438199
548.093708,-222.061783,-8512.368333,536.266849
548.094036,-370.102971,-9104.533087,383.047749
548.094364,-296.082377,-9252.574275,459.657299
548.094692,-962.267725,-9400.615463,0.000000
548.095020,-1406.391290,-9030.512492,0.000000
548.095348,-1110.308913,-9252.574275,-383.047749
548.095676,-888.247130,-9178.553681,-459.657299
548.096004,-592.164754,-9030.512492,0.000000
548.096332,-740.205942,-8956.491898,-383.047749
548.096660,-888.247130,-9178.553681,-536.266849
548.096988,-1332.370696,-9104.533087,-612.876398
548.097316,-1406.391290,-9178.553681,-1072.533697
548.097644,-1110.308913,-8882.471304,-1378.971896
548.097972,-814.226536,-9252.574275,-1225.752797
548.098300,-444.123565,-9252.574275,-1378.971896
548.098628,-148.041188,-9252.574275,-1532.190996
548.098956,0.000000,-8956.491898,-1455.581446
548.099284,-222.061783,-9104.533087,-1455.581446
548.099613,-148.041188,-9178.553681,-1685.410096
548.099941,0.000000,-9178.553681,-1608.800546
548.100269,148.041188,-9030.512492,-1532.190996
548.100597,222.061783,-8882.471304,-1991.848295
548.100925,222.061783,-9326.594869,-1762.019645
548.101253,296.082377,-9326.594869,-1608.800546
548.101581,370.102971,-9326.594869,-1685.410096
548.101909,444.123565,-9326.594869,-2145.067394
548.102237,518.144159,-8808.450710,-2145.067394
548.102565,148.041188,-9326.594869,-1685.410096
548.102893,0.000000,-9474.636058,-1915.238745
548.103221,222.061783,-9326.594869,-1991.848295
548.103549,222.061783,-9030.512492,-1991.848295
548.103877,0.000000,-9622.677246,-1991.848295
548.104205,-296.082377,-9104.533087,-1915.238745
548.104533,-592.164754,-9326.594869,-1915.238745
548.104861,-888.247130,-9030.512492,-1991.848295
548.105189,-962.267725,-9252.574275,-2298.286494
548.105517,-814.226536,-9178.553681,-2757.943793
548.105845,-1332.370696,-9326.594869,-2834.553343
548.106173,-1776.494261,-9178.553681,-2681.334243
548.106501,-2072.576638,-9326.594869,-2987.772442
548.106829,-2072.576638,-8956.491898,-3064.381992
548.107157,-2294.638420,-8734.430116,-3064.381992
548.107485,-1998.556043,-8438.347739,-3447.429741
548.107813,-1850.514855,-8882.471304,-3907.087040
548.108141,-1924.535449,-8808.450710,-3983.696590
548.108469,-1628.453072,-8808.450710,-3830.477490
548.108797,-962.267725,-9104.533087,-4136.915689
548.109125,0.000000,-8956.491898,-3370.820191
548.109453,148.041188,-9030.512492,-3600.648841
548.109781,814.226536,-9178.553681,-3064.381992
548.110109,1628.453072,-8956.491898,-2528.115143
548.110437,2072.576638,-8882.471304,-2145.067394
548.110765,2072.576638,-8512.368333,-1915.238745
548.111093,2146.597232,-9622.677246,-2221.676944
548.111422,1258.350101,-9992.780217,-2451.505594
548.111750,74.020594,-10288.862594,-2528.115143
548.112078,-814.226536,-10436.903782,-3447.429741
548.112406,-1850.514855,-10362.883188,-4060.306139
548.112734,-1702.473667,-10436.903782,-4366.744339
548.113062,-1776.494261,-9696.697840,-4673.182538
548.113390,-1110.308913,-8660.409521,-4826.401637
548.113718,592.164754,-7846.182985,-4213.525239
548.114046,2072.576638,-6957.935855,-3447.429741
548.114374,3404.947333,-7402.059420,-2834.553343
548.114702,2960.823768,-7402.059420,-2298.286494
548.115030,1332.370696,-8586.388927,-1762.019645
548.115358,-296.082377,-9474.636058,-2068.457845
548.115686,-2368.659014,-10436.903782,-2221.676944
548.116014,-3701.029710,-11103.089130,-2451.505594
548.116342,-3701.029710,-11251.130318,-2528.115143
548.116670,-1628.453072,-9844.739029,-1991.848295
548.116998,2886.803174,-7550.100608,-153.219100
548.117326,7994.224174,-5403.503377,2374.896044
548.117654,11399.171507,-4885.359217,4596.572988
548.117982,9770.718434,-7031.956449,4826.401637
548.118310,5181.441594,-9844.739029,3524.039291
548.118638,-1332.370696,-11843.295072,1685.410096
548.118966,-6957.935855,-13767.830521,-306.438199
548.119294,-11029.068536,-14508.036463,-2374.896044
548.119622,-12213.398043,-14211.954086,-3294.210641
548.119950,-11843.295072,-12213.398043,-3983.696590
548.120278,-7328.038826,-9548.656652,-4060.306139
548.120606,-4885.359217,-6513.812290,-2834.553343
548.120934,-1332.370696,-3330.926739,-4060.306139
548.121262,1184.329507,-4367.215058,-4290.134789
548.121590,-2442.679609,-5181.441594,-5592.497135
548.121918,-5403.503377,-7105.977043,-6818.249932
548.122246,-11473.192101,-9252.574275,-8120.612279
548.122574,-11843.295072,-9474.636058,-9499.584175
548.122903,-9918.759623,-9770.718434,-7431.126331
548.123231,-5625.565159,-7994.224174,-7124.688131
548.123559,2738.761985,-7254.018232,-4903.011187
548.123887,7402.059420,-7254.018232,-2911.162892
548.124215,8586.388927,-7031.956449,-3294.210641
548.124543,8364.327145,-9844.739029,-3140.991542
548.124871,5107.421000,-11029.068536,-5669.106685
548.125199,4515.256246,-11695.253884,-6588.421283
548.125527,6365.771101,-11917.315666,-5822.325785
548.125855,10214.842000,-9622.677246,-3447.429741
548.126183,12879.583391,-9474.636058,-1608.800546
548.126511,13323.706956,-9992.780217,153.219100
548.126839,9622.677246,-10510.924376,-1302.362347
548.127167,7772.162391,-10955.047942,-1532.190996
548.127495,6809.894666,-10584.944971,-2374.896044
548.127823,4811.338623,-10658.965565,-2145.067394
548.128151,3552.988522,-11695.253884,-2374.896044
548.128479,-2294.638420,-12361.439231,-3064.381992
548.128807,-8956.491898,-13545.768739,-5286.058936
548.129135,-13989.892304,-10584.944971,-8044.002729
548.129463,-12213.398043,-6661.853478,-7660.954980
548.129791,-8068.244768,-2516.700203,-7201.297681
548.130119,370.102971,-592.164754,-5669.106685
548.130447,1702.473667,-740.205942,-2987.772442
548.130775,3404.947333,-2220.617826,-2221.676944
548.131103,0.000000,-4145.153275,-1072.533697
548.131431,-2664.741391,-5625.565159,-1378.971896
548.131759,-3775.050304,-7698.141797,-612.876398
548.132087,-3997.112087,-10436.903782,1072.533697
548.132415,-4293.194464,-11695.253884,1991.848295
548.132743,-3627.009116,-11843.295072,3677.258390
548.133071,-370.102971,-11621.233289,5209.449386
548.133399,1406.391290,-9770.718434,4979.620737
548.133727,1776.494261,-9770.718434,3217.601092
548.134055,1258.350101,-11843.295072,1225.752797
548.134383,-1406.391290,-12509.480420,-306.438199
548.134712,-3256.906145,-10658.965565,-1532.190996
548.135040,-1036.288319,-8290.306550,-1072.533697
548.135368,1332.370696,-7698.141797,-383.047749
548.135696,888.247130,-7920.203579,-306.438199
548.136024,-1702.473667,-10436.903782,-459.657299
548.136352,-4737.318029,-9992.780217,-229.828649
548.136680,-5255.462188,-8438.347739,-995.924147
548.137008,-5181.441594,-9918.759623,-766.095498
548.137336,-4219.173869,-11177.109724,-2374.896044
548.137664,-5477.523971,-11177.109724,-2834.553343
548.137992,-5255.462188,-10436.903782,-3370.820191
548.138320,-4515.256246,-7105.977043,-4136.915689
548.138648,-2516.700203,-5107.421000,-3064.381992
548.138976,0.000000,-6143.709319,-3600.648841
548.139304,814.226536,-7698.141797,-4749.792088
548.139632,1998.556043,-7698.141797,-5669.106685
548.139960,4145.153275,-8068.244768,-4673.182538
548.140288,5477.523971,-8660.409521,-4213.525239
548.140616,4663.297435,-10732.986159,-3677.258390
548.140944,5033.400406,-13323.706956,-2987.772442
548.141272,4737.318029,-13841.851115,-2834.553343
548.141600,5255.462188,-13397.727550,-2068.457845
548.141928,5033.400406,-12953.603985,-1455.581446
548.142256,3330.926739,-11621.233289,-1532.190996
548.142584,3256.906145,-11991.336260,-306.438199
548.142912,4145.153275,-11399.171507,0.000000
548.143240,2886.803174,-9622.677246,-1225.752797
548.143568,2072.576638,-8808.450710,-2221.676944
548.143896,444.123565,-8364.327145,-2681.334243
548.144223,-592.164754,-7698.141797,-2757.943793
548.144551,-148.041188,-5921.647536,-3753.867940
548.144879,-1480.411884,-6069.688724,-2834.553343
548.145207,-370.102971,-5255.462188,-2604.724693
548.145534,-296.082377,-4589.276840,-766.095498
548.145862,-888.247130,-6143.709319,-459.657299
548.146190,-2590.720797,-7846.182985,-689.485948
548.146517,-5107.421000,-9844.739029,-612.876398
548.146845,-5329.482782,-10066.800811,-842.705048
548.147173,-5477.523971,-9474.636058,-1608.800546
548.147500,-5847.626942,-8882.471304,-1072.533697
548.147828,-4441.235652,-8660.409521,-612.876398
548.148156,-1924.535449,-7550.100608,0.000000
548.148484,-518.144159,-6883.915261,0.000000
548.148811,-370.102971,-7179.997637,0.000000
548.149139,-2072.576638,-8734.430116,-995.924147
548.149467,-2220.617826,-8808.450710,-1302.362347
548.149794,-1332.370696,-8734.430116,-1685.410096
548.150122,518.144159,-8882.471304,-689.485948
548.150450,2368.659014,-7846.182985,153.219100
548.150778,4367.215058,-7550.100608,1838.629195
548.151105,5551.544565,-6957.935855,3064.381992
548.151433,5255.462188,-7994.224174,3907.087040
548.151761,1998.556043,-9696.697840,2681.334243
548.152088,518.144159,-9844.739029,1991.848295
548.152416,-296.082377,-9844.739029,1685.410096
548.152744,-518.144159,-10288.862594,2068.457845
548.153072,370.102971,-9252.574275,2681.334243
548.153399,3552.988522,-8438.347739,3753.867940
548.153727,4737.318029,-7994.224174,3524.039291
548.154055,2294.638420,-8364.327145,3217.601092
548.154382,-592.164754,-9178.553681,1072.533697
548.154710,-4959.379811,-10955.047942,-306.438199
548.155038,-5625.565159,-10732.986159,-1225.752797
548.155366,-5181.441594,-11177.109724,-995.924147
548.155693,-4367.215058,-11325.150913,0.000000
548.156021,-2072.576638,-9844.739029,612.876398
548.156349,74.020594,-8882.471304,1685.410096
548.156676,-592.164754,-9104.533087,1838.629195
548.157004,-3552.988522,-10140.821405,689.485948
548.157332,-5403.503377,-10510.924376,459.657299
548.157660,-5625.565159,-9992.780217,-1302.362347
548.157987,-5033.400406,-9104.533087,-1149.143247
548.158315,-3256.906145,-8290.306550,-229.828649
548.158643,888.247130,-7550.100608,842.705048
548.158970,4515.256246,-6957.935855,2451.505594
548.159298,4219.173869,-7920.203579,2451.505594
548.159626,1628.453072,-9474.636058,1302.362347
548.159953,-1258.350101,-10140.821405,0.000000
548.160281,-1998.556043,-10807.006753,-1378.971896
548.160609,-1628.453072,-11843.295072,-1532.190996
548.160937,0.000000,-12287.418637,-612.876398
548.161264,2664.741391,-11325.150913,766.095498
548.161592,5921.647536,-10288.862594,2451.505594
548.161920,6069.688724,-9548.656652,3064.381992
548.162247,2590.720797,-10732.986159,1072.533697
548.162575,0.000000,-11103.089130,459.657299
548.162903,-296.082377,-9844.739029,-1225.752797
548.163231,-1554.432478,-10510.924376,-1225.752797
548.163558,-1332.370696,-8956.491898,-612.876398
548.163886,1332.370696,-8586.388927,536.266849
548.164214,2738.761985,-6661.853478,2451.505594
548.164541,2738.761985,-7772.162391,1915.238745
548.164869,74.020594,-8956.491898,919.314598
548.165197,-3552.988522,-8290.306550,-1378.971896
548.165525,-3849.070898,-7698.141797,-2451.505594
548.165852,-3552.988522,-7698.141797,-1915.238745
548.166180,-2072.576638,-7105.977043,-2145.067394
548.166508,518.144159,-7105.977043,-383.047749
548.166835,3256.906145,-5847.626942,1225.752797
548.167163,2886.803174,-6143.709319,1915.238745
548.167491,444.123565,-8068.244768,1532.190996
548.167819,-2294.638420,-8808.450710,-459.657299
548.168146,-3182.885551,-9400.615463,-1225.752797
548.168474,-3034.844362,-9696.697840,-1302.362347
548.168802,-2442.679609,-9770.718434,-229.828649
548.169129,666.185348,-8808.450710,1149.143247
548.169457,3849.070898,-8586.388927,3370.820191
548.169785,3775.050304,-8660.409521,4060.306139
548.170113,1628.453072,-9252.574275,2987.772442
548.170440,-814.226536,-9548.656652,1762.019645
548.170768,-2294.638420,-9474.636058,383.047749
548.171096,-3034.844362,-9400.615463,0.000000
548.171423,-3034.844362,-9030.512492,0.000000
548.171751,0.000000,-8216.285956,1608.800546
548.172079,3034.844362,-6587.832884,2451.505594
548.172407,2516.700203,-7105.977043,3753.867940
548.172734,1110.308913,-8142.265362,2528.115143
548.173062,-1850.514855,-9104.533087,1532.190996
548.173390,-3923.091493,-9548.656652,0.000000
548.173717,-4737.318029,-9622.677246,-919.314598
548.174045,-4441.235652,-9770.718434,-612.876398
548.174373,-2146.597232,-9178.553681,229.828649
548.174700,1776.494261,-8512.368333,1532.190996
548.175028,2664.741391,-7920.203579,2451.505594
548.175356,888.247130,-9474.636058,1915.238745
548.175684,-740.205942,-9844.739029,383.047749
548.176011,-2146.597232,-10288.862594,-1072.533697
548.176339,-2072.576638,-10584.944971,-1455.581446
548.176667,-2146.597232,-10288.862594,-1685.410096
548.176994,-148.041188,-10288.862594,-689.485948
548.177322,3182.885551,-9918.759623,1225.752797
548.177650,4071.132681,-9474.636058,2298.286494
548.177978,2516.700203,-10140.821405,2374.896044
548.178305,0.000000,-10584.944971,919.314598
548.178633,-2072.576638,-10807.006753,-383.047749
548.178961,-3108.864956,-11103.089130,-1225.752797
548.179288,-3478.967927,-10584.944971,-1838.629195
548.179616,-962.267725,-9548.656652,-842.705048
548.179944,1850.514855,-8364.327145,383.047749
548.180272,3330.926739,-8808.450710,2068.457845
548.180599,1998.556043,-9400.615463,1302.362347
548.180927,-888.247130,-10140.821405,995.924147
548.181255,-1554.432478,-10066.800811,-459.657299
548.181582,-3775.050304,-10658.965565,-459.657299
548.181910,-3256.906145,-10584.944971,-1072.533697
548.182238,-592.164754,-9696.697840,-153.219100
548.182566,2516.700203,-8660.409521,1915.238745
548.182893,3997.112087,-8438.347739,2451.505594
548.183221,2146.597232,-9622.677246,2681.334243
548.183549,-814.226536,-10066.800811,1302.362347
548.183876,-1998.556043,-9474.636058,383.047749
548.184204,-2368.659014,-9474.636058,-459.657299
548.184532,-2516.700203,-9326.594869,-766.095498
548.184860,148.041188,-9030.512492,383.047749
548.185187,2442.679609,-7624.121203,1302.362347
548.185515,2960.823768,-7179.997637,3140.991542
548.185843,1628.453072,-8068.244768,2604.724693
548.186170,-814.226536,-8734.430116,1378.971896
548.186498,-2368.659014,-8882.471304,306.438199
548.186826,-3330.926739,-8956.491898,-459.657299
548.187154,-2886.803174,-8438.347739,-766.095498
548.187481,-962.267725,-7772.162391,76.609550
548.187809,2072.576638,-6883.915261,1762.019645
548.188137,3108.864956,-7698.141797,2451.505594
548.188464,1110.308913,-8216.285956,2068.457845
548.188792,-1702.473667,-9104.533087,689.485948
548.189120,-3330.926739,-9400.615463,-229.828649
548.189447,-4663.297435,-9770.718434,-1532.190996
548.189775,-4293.194464,-9622.677246,-1608.800546
548.190103,-1702.473667,-8290.306550,-689.485948
548.190431,1924.535449,-7105.977043,229.828649
548.190758,3552.988522,-6735.874072,1838.629195
548.191086,2886.803174,-7328.038826,1455.581446
548.191414,518.144159,-8734.430116,306.438199
548.191741,-518.144159,-8438.347739,-612.876398
548.192069,-1036.288319,-9622.677246,-459.657299
548.192397,-1332.370696,-9770.718434,-612.876398
548.192725,666.185348,-8734.430116,689.485948
548.193052,3775.050304,-8438.347739,2604.724693
548.193380,4737.318029,-8290.306550,3294.210641
548.193708,2516.700203,-9474.636058,3064.381992
548.194035,-444.123565,-10288.862594,1455.581446
548.194363,-2294.638420,-10066.800811,-306.438199
548.194691,-3256.906145,-9918.759623,-1225.752797
548.195019,-2960.823768,-9548.656652,-1302.362347
548.195346,-666.185348,-8438.347739,-459.657299
548.195674,2368.659014,-7994.224174,766.095498
548.196002,2590.720797,-7624.121203,1762.019645
548.196329,518.144159,-9030.512492,1225.752797
548.196657,-3182.885551,-9844.739029,-383.047749
548.196985,-3923.091493,-10436.903782,-1302.362347
548.197313,-5033.400406,-10510.924376,-1685.410096
548.197640,-4811.338623,-10881.027347,-1378.971896
548.197968,-2368.659014,-9622.677246,0.000000
548.198296,1480.411884,-8290.306550,1991.848295
548.198623,3627.009116,-7550.100608,3600.648841
548.198951,2368.659014,-8364.327145,3140.991542
548.199279,-518.144159,-9474.636058,1455.581446
548.199607,-2812.782580,-9548.656652,-459.657299
548.199934,-3627.009116,-9622.677246,-1072.533697
548.200262,-3478.967927,-9622.677246,-1149.143247
548.200590,-370.102971,-9030.512492,0.000000
548.200917,3108.864956,-8734.430116,1072.533697
548.201245,5107.421000,-8068.244768,2451.505594
548.201573,4145.153275,-9030.512492,2068.457845
548.201900,1258.350101,-10436.903782,919.314598
548.202228,-740.205942,-10881.027347,153.219100
548.202556,-1850.514855,-11843.295072,-612.876398
548.202884,-2072.576638,-11621.233289,-459.657299
548.203211,0.000000,-10658.965565,842.705048
548.203539,3330.926739,-9252.574275,2834.553343
548.203867,4737.318029,-9252.574275,3983.696590
548.204194,3404.947333,-9548.656652,3830.477490
548.204522,-222.061783,-10658.965565,2451.505594
548.204850,-3034.844362,-10510.924376,536.266849
548.205178,-4885.359217,-9918.759623,-919.314598
548.205505,-5329.482782,-10066.800811,-1455.581446
548.205833,-3404.947333,-9326.594869,-1532.190996
548.206161,0.000000,-7550.100608,0.000000
548.206488,2368.659014,-6439.791695,1072.533697
548.206816,1924.535449,-6883.915261,919.314598
548.207144,-888.247130,-7550.100608,-229.828649
548.207472,-2146.597232,-7254.018232,-1838.629195
548.207799,-2738.761985,-8216.285956,-1608.800546
548.208127,-3330.926739,-9104.533087,-1378.971896
548.208455,-1406.391290,-8956.491898,76.609550
548.208782,1480.411884,-7994.224174,2298.286494
548.209110,3849.070898,-7328.038826,4596.572988
548.209438,3701.029710,-8438.347739,4290.134789
548.209766,592.164754,-9474.636058,3217.601092
548.210093,-1480.411884,-9770.718434,1455.581446
548.210421,-3330.926739,-9474.636058,153.219100
548.210749,-3627.009116,-9474.636058,-842.705048
548.211076,-2294.638420,-8438.347739,-995.924147
548.211404,222.061783,-7846.182985,229.828649
548.211732,3256.906145,-6513.812290,1608.800546
548.212060,3330.926739,-6957.935855,1762.019645
548.212387,0.000000,-7402.059420,612.876398
548.212715,-1924.535449,-8068.244768,-842.705048
548.213043,-3701.029710,-8882.471304,-1762.019645
548.213370,-4367.215058,-8808.450710,-1991.848295
548.213698,-2886.803174,-8438.347739,-1378.971896
548.214026,0.000000,-7994.224174,612.876398
548.214354,2368.659014,-7698.141797,2757.943793
548.214681,1628.453072,-8364.327145,2757.943793
548.215009,-592.164754,-8808.450710,1838.629195
548.215337,-2442.679609,-9474.636058,76.609550
548.215664,-3627.009116,-9622.677246,-1455.581446
548.215992,-3478.967927,-9474.636058,-1685.410096
548.216320,-1702.473667,-9030.512492,-2221.676944
548.216647,1850.514855,-8290.306550,-689.485948
548.216975,4589.276840,-8586.388927,383.047749
548.217303,4441.235652,-9252.574275,612.876398
548.217631,1998.556043,-10584.944971,0.000000
548.217958,592.164754,-10658.965565,-919.314598
548.218286,-1258.350101,-11399.171507,-1838.629195
548.218614,-1480.411884,-11843.295072,-1532.190996
548.218941,0.000000,-11103.089130,-766.095498
548.219269,3478.967927,-9992.780217,1455.581446
548.219597,5255.462188,-9696.697840,3294.210641
548.219925,4219.173869,-10955.047942,3907.087040
548.220252,814.226536,-11621.233289,2528.115143
548.220580,-814.226536,-11473.192101,1532.190996
548.220908,-2368.659014,-11029.068536,153.219100
548.221235,-2886.803174,-10955.047942,-536.266849
548.221563,-1924.535449,-10214.842000,0.000000
548.221891,740.205942,-9252.574275,1302.362347
548.222219,2220.617826,-8142.265362,2374.896044
548.222546,1924.535449,-9030.512492,2604.724693
548.222874,-1036.288319,-9622.677246,1072.533697
548.223202,-2886.803174,-10214.842000,0.000000
548.223529,-4293.194464,-9992.780217,-689.485948
548.223857,-4589.276840,-9992.780217,-842.705048
548.224185,-2960.823768,-9474.636058,383.047749
548.224513,592.164754,-7920.203579,2374.896044
548.224840,2960.823768,-7105.977043,3907.087040
548.225168,2516.700203,-7624.121203,3983.696590
548.225496,-296.082377,-8808.450710,2757.943793
548.225823,-2368.659014,-9104.533087,1762.019645
548.226151,-3404.947333,-8660.409521,842.705048
548.226479,-3923.091493,-8438.347739,536.266849
548.226807,-2442.679609,-8290.306550,76.609550
548.227134,888.247130,-7179.997637,1608.800546
548.227462,2590.720797,-6661.853478,2451.505594
548.227790,2220.617826,-7105.977043,2221.676944
548.228117,-1036.288319,-8364.327145,536.266849
548.228445,-3478.967927,-9030.512492,-995.924147
548.228773,-3849.070898,-8660.409521,-2221.676944
548.229100,-3182.885551,-8068.244768,-2068.457845
548.229428,-1036.288319,-7105.977043,-1302.362347
548.229756,1776.494261,-6439.791695,612.876398
548.230084,4367.215058,-6587.832884,2528.115143
548.230411,3923.091493,-7624.121203,2911.162892
548.230739,1258.350101,-8586.388927,1838.629195
548.231067,-962.267725,-9474.636058,612.876398
548.231394,-1998.556043,-10362.883188,-612.876398
548.231722,-3404.947333,-10066.800811,-1378.971896
548.232050,-1850.514855,-9844.739029,-842.705048
548.232378,666.185348,-8586.388927,0.000000
548.232705,3775.050304,-7476.080014,919.314598
548.233033,3182.885551,-7179.997637,842.705048
548.233361,1406.391290,-8216.285956,-536.266849
548.233688,-518.144159,-9104.533087,-1915.238745
548.234016,-1998.556043,-8956.491898,-2528.115143
548.234344,-2294.638420,-9400.615463,-2604.724693
548.234672,-1184.329507,-9178.553681,-2068.457845
548.234999,1924.535449,-8882.471304,0.000000
548.235327,4071.132681,-8438.347739,1915.238745
548.235655,3923.091493,-9030.512492,2757.943793
548.235982,1850.514855,-10436.903782,2681.334243
548.236310,-740.205942,-11103.089130,1378.971896
548.236638,-1776.494261,-11547.212695,612.876398
548.236966,-3256.906145,-11547.212695,153.219100
548.237293,-3404.947333,-11547.212695,0.000000
548.237621,-370.102971,-10436.903782,536.266849
548.237949,2368.659014,-8808.450710,1915.238745
548.238276,2368.659014,-8586.388927,2451.505594
548.238604,1184.329507,-9178.553681,1378.971896
548.238932,-1480.411884,-9696.697840,-536.266849
548.239260,-3330.926739,-9474.636058,-1302.362347
548.239587,-4441.235652,-9474.636058,-1685.410096
548.239915,-3775.050304,-9326.594869,-842.705048
548.240243,-740.205942,-9030.512492,536.266849
548.240570,1998.556043,-8956.491898,2681.334243
548.240898,2738.761985,-8660.409521,4136.915689
548.241226,1110.308913,-9178.553681,3677.258390
548.241554,-592.164754,-9770.718434,2681.334243
548.241881,-2368.659014,-9770.718434,1072.533697
548.242208,-3627.009116,-9918.759623,459.657299
548.242536,-3701.029710,-9400.615463,76.609550
548.242863,-1702.473667,-8290.306550,153.219100
548.243191,1332.370696,-8142.265362,1378.971896
548.243518,1628.453072,-7328.038826,1915.238745
548.243846,0.000000,-8438.347739,766.095498
548.244173,-1702.473667,-8734.430116,-766.095498
548.244501,-2664.741391,-8808.450710,-1608.800546
548.244828,-2738.761985,-9326.594869,-2145.067394
548.245156,-1776.494261,-9104.533087,-1991.848295
548.245483,1110.308913,-9326.594869,0.000000
548.245811,3330.926739,-8438.347739,1991.848295
548.246138,3701.029710,-8734.430116,2834.553343
548.246466,2146.597232,-9622.677246,2681.334243
548.246793,0.000000,-9770.718434,2145.067394
548.247121,-962.267725,-9770.718434,459.657299
548.247448,-2220.617826,-9992.780217,459.657299
548.247776,-1332.370696,-9622.677246,76.609550
548.248103,740.205942,-8216.285956,612.876398
548.248431,3330.926739,-7402.059420,1915.238745
548.248758,3256.906145,-7254.018232,2451.505594
548.249086,1406.391290,-8956.491898,689.485948
548.249413,-1332.370696,-9326.594869,-536.266849
548.249741,-2368.659014,-8882.471304,-1608.800546
548.250068,-2664.741391,-9104.533087,-2221.676944
548.250396,-1998.556043,-8438.347739,-1991.848295
548.250723,814.226536,-8068.244768,-306.438199
548.251051,3034.844362,-7994.224174,1455.581446
548.251378,3256.906145,-7624.121203,2451.505594
548.251706,1406.391290,-9030.512492,2298.286494
548.252033,-1628.453072,-9918.759623,1225.752797
548.252361,-3701.029710,-9844.739029,459.657299
548.252688,-4885.359217,-10584.944971,-229.828649
548.253016,-4811.338623,-9918.759623,-689.485948
548.253343,-2368.659014,-8956.491898,76.609550
548.253670,74.020594,-7624.121203,919.314598
548.253998,1406.391290,-6809.894666,1838.629195
548.254325,518.144159,-8438.347739,229.828649
548.254653,-1850.514855,-9474.636058,-1072.533697
548.254980,-2812.782580,-9326.594869,-2451.505594
548.255308,-3404.947333,-9326.594869,-2834.553343
548.255635,-1776.494261,-9178.553681,-2757.943793
548.255963,1258.350101,-8290.306550,-995.924147
548.256290,4219.173869,-8438.347739,1685.410096
548.256618,4367.215058,-8438.347739,2911.162892
548.256945,2590.720797,-9548.656652,2604.724693
548.257273,666.185348,-10584.944971,689.485948
548.257600,-1258.350101,-10362.883188,689.485948
548.257928,-1776.494261,-11103.089130,0.000000
548.258255,-1332.370696,-10732.986159,76.609550
548.258583,444.123565,-9696.697840,842.705048
548.258910,4367.215058,-8216.285956,2987.772442
548.259238,4737.318029,-7772.162391,2604.724693
548.259565,3404.947333,-8660.409521,1608.800546
548.259893,370.102971,-10288.862594,76.609550
548.260220,-2146.597232,-10362.883188,-842.705048
548.260548,-3849.070898,-9992.780217,-2068.457845
548.260875,-2812.782580,-9548.656652,-1378.971896
548.261203,-666.185348,-9252.574275,-689.485948
548.261530,1924.535449,-8808.450710,1762.019645
548.261858,2960.823768,-8216.285956,2911.162892
548.262185,1036.288319,-8586.388927,2451.505594
548.262513,-1406.391290,-9104.533087,1532.190996
548.262840,-2886.803174,-9844.739029,919.314598
548.263168,-4959.379811,-10510.924376,0.000000
548.263495,-4663.297435,-10732.986159,383.047749
548.263823,-2590.720797,-9252.574275,1302.362347
548.264150,370.102971,-8068.244768,2757.943793
548.264478,2072.576638,-7179.997637,3907.087040
548.264805,1184.329507,-8808.450710,2681.334243
548.265132,-1480.411884,-9622.677246,842.705048
548.265460,-3404.947333,-9474.636058,-383.047749
548.265787,-4663.297435,-9104.533087,-1532.190996
548.266115,-4219.173869,-8142.265362,-1302.362347
548.266442,-1406.391290,-8142.265362,-766.095498
548.266770,1924.535449,-7402.059420,919.314598
548.267097,3775.050304,-6883.915261,2298.286494
548.267425,3108.864956,-7772.162391,2604.724693
548.267752,222.061783,-8290.306550,2221.676944
548.268080,-1998.556043,-9474.636058,459.657299
548.268407,-3627.009116,-10214.842000,-612.876398
548.268735,-3701.029710,-10140.821405,-995.924147
548.269062,-1406.391290,-9326.594869,-229.828649
548.269390,2368.659014,-8216.285956,1838.629195
548.269717,4071.132681,-7328.038826,2145.067394
548.270045,3182.885551,-8068.244768,1532.190996
548.270372,592.164754,-9030.512492,0.000000
548.270700,-1184.329507,-8956.491898,-1302.362347
548.271027,-2368.659014,-9104.533087,-3064.381992
548.271355,-2886.803174,-9400.615463,-2681.334243
548.271682,-666.185348,-9104.533087,-2298.286494
548.272010,2886.803174,-8216.285956,0.000000
548.272337,4959.379811,-7846.182985,1762.019645
548.272665,4737.318029,-8734.430116,2374.896044
548.272992,1184.329507,-9770.718434,1838.629195
548.273320,-1110.308913,-10584.944971,459.657299
548.273647,-2886.803174,-11251.130318,-306.438199
548.273975,-3330.926739,-11251.130318,-306.438199
548.274302,-1702.473667,-9844.739029,0.000000
548.274630,1850.514855,-8808.450710,1532.190996
548.274957,3330.926739,-7846.182985,2528.115143
548.275285,2590.720797,-8068.244768,2068.457845
548.275612,222.061783,-8956.491898,842.705048
548.275940,-1850.514855,-9030.512492,-383.047749
548.276267,-4145.153275,-9474.636058,-2145.067394
548.276594,-4293.194464,-9400.615463,-2298.286494
548.276922,-3552.988522,-9104.533087,-1762.019645
548.277249,0.000000,-8068.244768,229.828649
548.277577,2368.659014,-8216.285956,2068.457845
548.277904,2442.679609,-8512.368333,3217.601092
548.278232,296.082377,-9474.636058,2681.334243
548.278559,-1998.556043,-10510.924376,1455.581446
548.278887,-3997.112087,-10658.965565,229.828649
548.279214,-4515.256246,-11251.130318,0.000000
548.279542,-3256.906145,-10436.903782,76.609550
548.279869,370.102971,-8882.471304,1991.848295
548.280197,2442.679609,-8512.368333,2757.943793
548.280524,2368.659014,-8808.450710,2987.772442
548.280852,592.164754,-9178.553681,1532.190996
548.281179,-1480.411884,-9474.636058,229.828649
548.281507,-2220.617826,-9844.739029,-612.876398
548.281834,-2960.823768,-9992.780217,-1532.190996
548.282162,-1554.432478,-9104.533087,-1072.533697
548.282489,1258.350101,-8512.368333,383.047749
548.282817,3997.112087,-7772.162391,2451.505594
548.283144,3923.091493,-8290.306550,2987.772442
548.283472,1332.370696,-8882.471304,1685.410096
548.283799,-814.226536,-9844.739029,1455.581446
548.284127,-3182.885551,-10732.986159,0.000000
548.284454,-3775.050304,-10362.883188,-306.438199
548.284782,-2886.803174,-9326.594869,0.000000
548.285109,1332.370696,-8142.265362,1762.019645
548.285437,3108.864956,-7254.018232,1838.629195
548.285764,2886.803174,-8364.327145,2221.676944
548.286092,222.061783,-8956.491898,842.705048
548.286419,-1480.411884,-9030.512492,-306.438199
548.286747,-2516.700203,-8734.430116,-1225.752797
548.287074,-2368.659014,-9770.718434,-1838.629195
548.287402,-1332.370696,-9104.533087,-995.924147
548.287729,1480.411884,-8882.471304,459.657299
548.288056,3404.947333,-8586.388927,2298.286494
548.288384,2664.741391,-7920.203579,2834.553343
548.288711,740.205942,-9104.533087,1915.238745
548.289039,-1850.514855,-9844.739029,536.266849
548.289366,-3404.947333,-10362.883188,-306.438199
548.289694,-3923.091493,-10362.883188,-383.047749
548.290021,-2294.638420,-8216.285956,76.609550
548.290349,1110.308913,-6883.915261,1225.752797
548.290676,3404.947333,-6957.935855,2068.457845
548.291004,2738.761985,-7476.080014,2298.286494
548.291331,222.061783,-8364.327145,1072.533697
548.291659,-2146.597232,-8586.388927,-153.219100
548.291986,-3552.988522,-9104.533087,-612.876398
548.292314,-3182.885551,-10140.821405,-919.314598
548.292641,-2960.823768,-9474.636058,-842.705048
548.292969,444.123565,-8956.491898,689.485948
548.293296,2590.720797,-7550.100608,1915.238745
548.293624,2812.782580,-7476.080014,2068.457845
548.293951,444.123565,-8660.409521,1378.971896
548.294279,-2072.576638,-9548.656652,-153.219100
548.294606,-3256.906145,-9992.780217,-1149.143247
548.294934,-3478.967927,-9400.615463,-1072.533697
548.295261,-1850.514855,-7846.182985,-842.705048
548.295589,1258.350101,-7402.059420,689.485948
548.295916,3404.947333,-7772.162391,2068.457845
548.296244,3182.885551,-8438.347739,2451.505594
548.296571,592.164754,-9326.594869,919.314598
548.296899,-888.247130,-10066.800811,-459.657299
548.297226,-2368.659014,-9992.780217,-1532.190996
548.297554,-2812.782580,-11399.171507,-1225.752797
548.297881,-1850.514855,-10436.903782,-1149.143247
548.298209,1332.370696,-9178.553681,0.000000
548.298536,3627.009116,-8364.327145,1455.581446
548.298864,3404.947333,-9030.512492,1915.238745
548.299191,1332.370696,-9918.759623,766.095498
548.299518,-962.267725,-10214.842000,-229.828649
548.299846,-2146.597232,-10658.965565,-1378.971896
548.300173,-3034.844362,-11769.274478,-1149.143247
548.300501,-2146.597232,-11325.150913,-919.314598
548.300828,518.144159,-9326.594869,383.047749
548.301156,3701.029710,-8734.430116,1991.848295
548.301483,3478.967927,-9326.594869,2451.505594
548.301811,1554.432478,-10510.924376,1838.629195
548.302138,-296.082377,-9696.697840,766.095498
548.302466,-1036.288319,-9770.718434,-153.219100
548.302793,-2146.597232,-10881.027347,-229.828649
548.303121,-1998.556043,-10362.883188,-383.047749
548.303448,1110.308913,-9252.574275,1149.143247
548.303776,3478.967927,-7846.182985,2374.896044
548.304103,3330.926739,-7846.182985,3753.867940
548.304431,888.247130,-9400.615463,2451.505594
548.304758,-1924.535449,-10288.862594,1455.581446
548.305086,-3404.947333,-10584.944971,459.657299
548.305413,-4811.338623,-10362.883188,76.609550
548.305741,-4293.194464,-10214.842000,306.438199
548.306068,-1998.556043,-9178.553681,919.314598
548.306396,296.082377,-8364.327145,2298.286494
548.306723,666.185348,-8586.388927,2681.334243
548.307051,-1332.370696,-8438.347739,1072.533697
548.307378,-1480.411884,-8586.388927,919.314598
548.307706,-3034.844362,-8438.347739,-1072.533697
548.308033,-3849.070898,-9030.512492,-1149.143247
548.308361,-3034.844362,-8734.430116,-919.314598
548.308688,74.020594,-7402.059420,0.000000
548.309016,2738.761985,-6809.894666,2145.067394
548.309343,3256.906145,-7254.018232,2757.943793
548.309671,888.247130,-8586.388927,2068.457845
548.309998,-1110.308913,-9252.574275,842.705048
548.310326,-2516.700203,-9252.574275,0.000000
548.310653,-2812.782580,-9400.615463,-612.876398
548.310980,-2442.679609,-9400.615463,-689.485948
548.311308,888.247130,-8290.306550,229.828649
548.311635,3552.988522,-7254.018232,995.924147
548.311963,4663.297435,-6809.894666,1991.848295
548.312290,2886.803174,-7550.100608,995.924147
548.312618,1628.453072,-8364.327145,842.705048
548.312945,-444.123565,-9030.512492,-766.095498
548.313273,-1924.535449,-9844.739029,-842.705048
548.313600,-2220.617826,-9326.594869,-1225.752797
548.313928,148.041188,-9252.574275,306.438199
548.314255,2294.638420,-8438.347739,1302.362347
548.314583,2664.741391,-8290.306550,2604.724693
548.314910,666.185348,-8956.491898,1455.581446
548.315238,-666.185348,-9178.553681,1072.533697
548.315565,-2516.700203,-9400.615463,-306.438199
548.315893,-3552.988522,-9622.677246,-919.314598
548.316220,-2886.803174,-8586.388927,-1762.019645
548.316548,-1258.350101,-7550.100608,-1149.143247
548.316875,1628.453072,-7179.997637,306.438199
548.317203,1628.453072,-7105.977043,919.314598
548.317530,592.164754,-7994.224174,383.047749
548.317858,-444.123565,-8660.409521,0.000000
548.318185,-1480.411884,-8882.471304,-842.705048
548.318513,-2368.659014,-9918.759623,-919.314598
548.318840,-1406.391290,-10214.842000,-612.876398
548.319168,518.144159,-9474.636058,612.876398
548.319495,3108.864956,-9104.533087,1762.019645
548.319823,3034.844362,-9770.718434,3140.991542
548.320150,1110.308913,-10955.047942,2298.286494
548.320478,-1258.350101,-11547.212695,1149.143247
548.320805,-2442.679609,-11843.295072,306.438199
548.321133,-3552.988522,-11547.212695,-689.485948
548.321460,-2146.597232,-10584.944971,-689.485948
548.321788,148.041188,-9548.656652,0.000000
548.322115,2072.576638,-8586.388927,995.924147
548.322442,2220.617826,-8290.306550,1302.362347
548.322770,1184.329507,-8660.409521,76.609550
548.323097,-1110.308913,-8882.471304,-1225.752797
548.323425,-2368.659014,-9770.718434,-1225.752797
548.323752,-3478.967927,-10732.986159,-1225.752797
548.324080,-3182.885551,-10214.842000,-995.924147
548.324407,0.000000,-9252.574275,689.485948
548.324735,2516.700203,-8586.388927,2451.505594
548.325062,3256.906145,-8956.491898,3294.210641
548.325390,1258.350101,-10214.842000,2681.334243
548.325717,-1258.350101,-10955.047942,1378.971896
548.326045,-2368.659014,-10362.883188,306.438199
548.326372,-3034.844362,-10510.924376,153.219100
548.326700,-1998.556043,-10066.800811,0.000000
548.327027,74.020594,-8586.388927,459.657299
548.327355,3182.885551,-7994.224174,2068.457845
548.327682,3552.988522,-7550.100608,2298.286494
548.328010,2590.720797,-8216.285956,2068.457845
548.328337,888.247130,-8882.471304,1302.362347
548.328665,-740.205942,-9548.656652,459.657299
548.328992,-2220.617826,-10658.965565,536.266849
548.329320,-2442.679609,-10584.944971,536.266849
548.329647,-888.247130,-9474.636058,2068.457845
548.329975,1776.494261,-8068.244768,3677.258390
548.330302,2960.823768,-7698.141797,4290.134789
548.330630,814.226536,-8660.409521,3140.991542
548.330957,-1554.432478,-9400.615463,1915.238745
548.331285,-3775.050304,-9252.574275,612.876398
548.331612,-5033.400406,-8512.368333,-689.485948
548.331940,-4737.318029,-8142.265362,-1455.581446
548.332267,-2516.700203,-7624.121203,-842.705048
548.332595,0.000000,-7105.977043,153.219100
548.332922,1258.350101,-6957.935855,919.314598
548.333250,592.164754,-7254.018232,0.000000
548.333577,-1480.411884,-8290.306550,-229.828649
548.333904,-2442.679609,-9326.594869,-1149.143247
548.334232,-3478.967927,-9770.718434,-1608.800546
548.334559,-3404.947333,-9696.697840,-1915.238745
548.334887,-740.205942,-8586.388927,-766.095498
548.335214,2664.741391,-7031.956449,1072.533697
548.335542,4219.173869,-7105.977043,2298.286494
548.335869,3404.947333,-8290.306550,2068.457845
548.336197,1184.329507,-9770.718434,1149.143247
548.336524,-370.102971,-9918.759623,0.000000
548.336852,-1998.556043,-9178.553681,-612.876398
548.337179,-1924.535449,-9696.697840,-1455.581446
548.337507,0.000000,-8956.491898,-1455.581446
548.337834,3034.844362,-7772.162391,0.000000
548.338162,4589.276840,-7402.059420,306.438199
548.338489,3108.864956,-7402.059420,459.657299
548.338817,1554.432478,-8660.409521,-306.438199
548.339144,-740.205942,-9104.533087,-766.095498
548.339472,-1850.514855,-10066.800811,-1532.190996
548.339799,-2368.659014,-10807.006753,-1532.190996
548.340127,-962.267725,-10510.924376,229.828649
548.340454,2368.659014,-9474.636058,2298.286494
548.340782,3552.988522,-9030.512492,3370.820191
548.341109,2442.679609,-10140.821405,3140.991542
548.341437,-296.082377,-11103.089130,2145.067394
548.341764,-2442.679609,-10881.027347,383.047749
548.342092,-3923.091493,-10658.965565,-306.438199
548.342419,-4145.153275,-10214.842000,-1302.362347
548.342747,-2516.700203,-9400.615463,-459.657299
548.343074,444.123565,-8734.430116,536.266849
548.343402,1776.494261,-7698.141797,1685.410096
548.343729,1480.411884,-8586.388927,1915.238745
548.344057,-1184.329507,-8956.491898,383.047749
548.344384,-2664.741391,-9104.533087,-383.047749
548.344712,-3701.029710,-10214.842000,-689.485948
548.345040,-3404.947333,-10955.047942,-536.266849
548.345367,-1924.535449,-9400.615463,306.438199
548.345695,2072.576638,-8734.430116,2681.334243
548.346022,2886.803174,-8734.430116,3907.087040
548.346350,1924.535449,-9770.718434,4060.306139
548.346677,-666.185348,-10955.047942,2528.115143
548.347005,-1998.556043,-10881.027347,1225.752797
548.347333,-3256.906145,-9696.697840,-229.828649
548.347660,-2812.782580,-9770.718434,-459.657299
548.347988,-740.205942,-8734.430116,-229.828649
548.348315,2368.659014,-7994.224174,919.314598
548.348643,3478.967927,-7476.080014,1838.629195
548.348970,2294.638420,-7994.224174,1225.752797
548.349298,-222.061783,-9252.574275,306.438199
548.349626,-1850.514855,-9548.656652,-766.095498
548.349953,-2516.700203,-9622.677246,-1149.143247
548.350281,-2590.720797,-9252.574275,-842.705048
548.350608,518.144159,-8438.347739,766.095498
548.350936,2812.782580,-8068.244768,2451.505594
548.351263,3701.029710,-7550.100608,3524.039291
548.351591,2072.576638,-8290.306550,3217.601092
548.351919,-888.247130,-9474.636058,2145.067394
548.352246,-2886.803174,-9326.594869,383.047749
548.352574,-4145.153275,-9622.677246,-919.314598
548.352901,-3701.029710,-8882.471304,-1149.143247
548.353229,-1628.453072,-7624.121203,-459.657299
548.353556,1480.411884,-6661.853478,383.047749
548.353884,2960.823768,-6587.832884,766.095498
548.354212,2220.617826,-7105.977043,76.609550
548.354539,-296.082377,-8068.244768,-229.828649
548.354867,-2294.638420,-8734.430116,-1149.143247
548.355194,-3775.050304,-9474.636058,-1915.238745
548.355522,-4145.153275,-10214.842000,-1378.971896
548.355849,-1998.556043,-9696.697840,0.000000
548.356177,1110.308913,-8512.368333,1685.410096
548.356505,3404.947333,-8142.265362,3294.210641
548.356832,3330.926739,-8734.430116,3294.210641
548.357160,370.102971,-9326.594869,1915.238745
548.357487,-962.267725,-9844.739029,1302.362347
548.357815,-2516.700203,-9992.780217,-536.266849
548.358142,-2960.823768,-10140.821405,-1225.752797
548.358470,-2072.576638,-9696.697840,-766.095498
548.358798,1332.370696,-8364.327145,383.047749
548.359125,3108.864956,-7624.121203,1149.143247
548.359453,2886.803174,-8512.368333,919.314598
548.359780,592.164754,-9548.656652,-459.657299
548.360108,-1406.391290,-9918.759623,-1378.971896
548.360435,-2368.659014,-9918.759623,-2145.067394
548.360763,-2516.700203,-10066.800811,-2528.115143
548.361091,-1110.308913,-9844.739029,-1149.143247
548.361418,2368.659014,-9400.615463,612.876398
548.361746,3849.070898,-8734.430116,2451.505594
548.362073,3627.009116,-9252.574275,3294.210641
548.362401,962.267725,-9696.697840,2298.286494
548.362728,-518.144159,-10140.821405,1149.143247
548.363056,-2664.741391,-11029.068536,0.000000
548.363384,-3256.906145,-11473.192101,-459.657299
548.363711,-2738.761985,-10510.924376,-229.828649
548.364039,666.185348,-9030.512492,536.266849
548.364366,2220.617826,-8216.285956,2145.067394
548.364694,1998.556043,-8808.450710,1532.190996
548.365021,222.061783,-9178.553681,689.485948
548.365349,-1702.473667,-9178.553681,-459.657299
548.365677,-2960.823768,-9030.512492,-1072.533697
548.366004,-3701.029710,-9178.553681,-1225.752797
548.366332,-1850.514855,-9326.594869,-689.485948
548.366659,1110.308913,-8290.306550,1532.190996
548.366987,3034.844362,-7698.141797,3370.820191
548.367314,3034.844362,-8364.327145,3983.696590
548.367642,1036.288319,-8956.491898,3140.991542
548.367970,-666.185348,-9326.594869,2528.115143
548.368297,-2220.617826,-9622.677246,1685.410096
548.368625,-3478.967927,-9844.739029,612.876398
548.368952,-3404.947333,-9474.636058,306.438199
548.369280,-1184.329507,-8216.285956,536.266849
548.369607,592.164754,-6957.935855,1838.629195
548.369935,1628.453072,-7179.997637,1532.190996
548.370263,370.102971,-7698.141797,459.657299
548.370590,-1480.411884,-8216.285956,-766.095498
548.370918,-2368.659014,-8586.388927,-1302.362347
548.371245,-2738.761985,-9178.553681,-1302.362347
548.371573,-1924.535449,-8438.347739,-1302.362347
548.371900,1110.308913,-8586.388927,766.095498
548.372228,2960.823768,-8808.450710,2221.676944
548.372556,2294.638420,-9252.574275,2911.162892
548.372883,666.185348,-9770.718434,2451.505594
548.373211,-1036.288319,-9622.677246,1302.362347
548.373538,-1850.514855,-9474.636058,459.657299
548.373866,-2960.823768,-9992.780217,-689.485948
548.374193,-1998.556043,-9696.697840,-689.485948
548.374521,0.000000,-8438.347739,0.000000
548.374849,2664.741391,-7698.141797,612.876398
548.375176,2368.659014,-7698.141797,612.876398
548.375504,740.205942,-8512.368333,-689.485948
548.375831,-962.267725,-9104.533087,-1685.410096
548.376159,-2072.576638,-8808.450710,-2451.505594
548.376486,-2442.679609,-9178.553681,-2528.115143
548.376814,-1554.432478,-9030.512492,-1685.410096
548.377142,888.247130,-8438.347739,0.000000
548.377469,2886.803174,-8142.265362,1685.410096
548.377797,2960.823768,-8142.265362,1838.629195
548.378124,814.226536,-9252.574275,1378.971896
548.378452,-1554.432478,-9992.780217,919.314598
548.378780,-2812.782580,-10362.883188,153.219100
548.379107,-3330.926739,-10436.903782,-383.047749
548.379435,-2146.597232,-9474.636058,-536.266849
548.379762,888.247130,-8586.388927,689.485948
548.380090,2590.720797,-8290.306550,1149.143247
548.380417,2516.700203,-8438.347739,1225.752797
548.380745,888.247130,-9252.574275,0.000000
548.381073,-1036.288319,-9844.739029,-766.095498
548.381400,-1628.453072,-10436.903782,-1685.410096
548.381728,-2442.679609,-10436.903782,-1915.238745
548.382055,-1258.350101,-10510.924376,-766.095498
548.382383,1332.370696,-9178.553681,1072.533697
548.382710,3627.009116,-8808.450710,2911.162892
548.383038,3849.070898,-9400.615463,4290.134789
548.383366,1776.494261,-10214.842000,3140.991542
548.383693,-1258.350101,-10510.924376,1915.238745
548.384021,-2960.823768,-10732.986159,689.485948
548.384348,-3997.112087,-10658.965565,306.438199
548.384676,-2738.761985,-10214.842000,383.047749
548.385003,0.000000,-9178.553681,919.314598
548.385331,2368.659014,-8660.409521,2298.286494
548.385659,2146.597232,-8956.491898,2221.676944
548.385986,74.020594,-9696.697840,1302.362347
548.386314,-2368.659014,-10436.903782,-153.219100
548.386641,-2960.823768,-10140.821405,-995.924147
548.386969,-3552.988522,-10214.842000,-2068.457845
548.387296,-2294.638420,-9770.718434,-1225.752797
548.387624,444.123565,-8660.409521,536.266849
548.387952,2738.761985,-7920.203579,2528.115143
548.388279,3256.906145,-7550.100608,3983.696590
548.388607,1406.391290,-9104.533087,2757.943793
548.388934,-888.247130,-9770.718434,1762.019645
548.389262,-2960.823768,-9992.780217,612.876398
548.389589,-3627.009116,-10362.883188,76.609550
548.389917,-2664.741391,-9178.553681,-536.266849
548.390245,0.000000,-8512.368333,995.924147
548.390572,2738.761985,-7698.141797,2221.676944
548.390900,3182.885551,-7624.121203,2221.676944
548.391227,1480.411884,-7772.162391,689.485948
548.391555,-148.041188,-8142.265362,-536.266849
548.391882,-1480.411884,-7920.203579,-1762.019645
548.392210,-2738.761985,-8956.491898,-2451.505594
548.392538,-2516.700203,-9104.533087,-2068.457845
548.392865,-148.041188,-8142.265362,-689.485948
548.393193,2664.741391,-7179.997637,1455.581446
548.393520,3923.091493,-6365.771101,2681.334243
548.393848,2368.659014,-8068.244768,2451.505594
548.394175,0.000000,-9400.615463,1762.019645
548.394503,-2294.638420,-8956.491898,612.876398
548.394831,-3552.988522,-9474.636058,-612.876398
548.395158,-3182.885551,-8586.388927,-689.485948
548.395486,-222.061783,-8290.306550,306.438199
548.395813,2516.700203,-7550.100608,1532.190996
548.396141,3701.029710,-7031.956449,1915.238745
548.396468,2146.597232,-8068.244768,1072.533697
548.396796,-370.102971,-8068.244768,-306.438199
548.397124,-2368.659014,-8068.244768,-1915.238745
548.397451,-3552.988522,-9030.512492,-2451.505594
548.397779,-3034.844362,-9548.656652,-2298.286494
548.398106,-962.267725,-8734.430116,-766.095498
548.398434,1628.453072,-8216.285956,1378.971896
548.398761,2664.741391,-8438.347739,2374.896044
548.399089,1332.370696,-9326.594869,2451.505594
548.399417,-666.185348,-10288.862594,1608.800546
548.399744,-2886.803174,-10436.903782,153.219100
548.400072,-3849.070898,-10510.924376,-383.047749
548.400399,-3775.050304,-9992.780217,-229.828649
548.400727,-1332.370696,-8808.450710,-306.438199
548.401054,1702.473667,-7994.224174,1455.581446
548.401382,3034.844362,-8216.285956,1838.629195
548.401710,1554.432478,-8808.450710,919.314598
548.402037,-296.082377,-9622.677246,459.657299
548.402365,-2220.617826,-9474.636058,-1685.410096
548.402692,-3256.906145,-10214.842000,-2298.286494
548.403020,-2368.659014,-10658.965565,-1608.800546
548.403347,518.144159,-9770.718434,-306.438199
548.403675,3182.885551,-8586.388927,1991.848295
548.404003,4293.194464,-9326.594869,2604.724693
548.404330,2368.659014,-10436.903782,2834.553343
548.404658,-370.102971,-10955.047942,1991.848295
548.404985,-2072.576638,-10881.027347,842.705048
548.405313,-2812.782580,-11103.089130,76.609550
548.405640,-1850.514855,-11029.068536,1302.362347
548.405968,0.000000,-9696.697840,1532.190996
548.406296,2664.741391,-8808.450710,3140.991542
548.406623,3108.864956,-8660.409521,2911.162892
548.406951,1406.391290,-9548.656652,2298.286494
548.407278,-2220.617826,-10214.842000,1072.533697
548.407606,-3627.009116,-10066.800811,-536.266849
548.407933,-4811.338623,-9918.759623,-1685.410096
548.408261,-3849.070898,-9400.615463,-1608.800546
548.408589,-888.247130,-8068.244768,-306.438199
548.408916,2516.700203,-7105.977043,1915.238745
548.409244,3552.988522,-6735.874072,2528.115143
548.409571,1702.473667,-7698.141797,2451.505594
548.409899,-962.267725,-9252.574275,1378.971896
548.410226,-2664.741391,-9770.718434,612.876398
548.410554,-3701.029710,-10066.800811,0.000000
548.410882,-2886.803174,-9252.574275,0.000000
548.411209,-814.226536,-9030.512492,1225.752797
548.411537,2368.659014,-8068.244768,2451.505594
548.411864,3552.988522,-7698.141797,2681.334243
548.412192,2294.638420,-8290.306550,1915.238745
548.412519,-296.082377,-9326.594869,1149.143247
548.412847,-2516.700203,-9844.739029,-1378.971896
548.413175,-3478.967927,-10140.821405,-2451.505594
548.413502,-3330.926739,-10066.800811,-2757.943793
548.413830,-296.082377,-8956.491898,-1302.362347
548.414157,2960.823768,-7994.224174,536.266849
548.414485,4589.276840,-7476.080014,1608.800546
548.414812,3256.906145,-9030.512492,1685.410096
548.415140,222.061783,-9474.636058,612.876398
548.415468,-1924.535449,-9400.615463,-612.876398
548.415795,-2960.823768,-9622.677246,-1685.410096
548.416123,-2442.679609,-9548.656652,-1838.629195
548.416450,-444.123565,-8956.491898,0.000000
548.416778,2294.638420,-7846.182985,1378.971896
548.417105,3775.050304,-6883.915261,2221.676944
548.417433,2516.700203,-8364.327145,1762.019645
548.417761,-222.061783,-8660.409521,689.485948
548.418088,-1702.473667,-9030.512492,-1072.533697
548.418416,-2664.741391,-9474.636058,-2068.457845
548.418743,-2664.741391,-9622.677246,-2221.676944
548.419071,-1110.308913,-8882.471304,-1072.533697
548.419398,2146.597232,-7846.182985,536.266849
548.419726,4515.256246,-7476.080014,1991.848295
548.420054,3182.885551,-8586.388927,2221.676944
548.420381,592.164754,-9696.697840,1302.362347
548.420709,-1332.370696,-9918.759623,612.876398
548.421036,-3849.070898,-10658.965565,-766.095498
548.421364,-3997.112087,-11029.068536,0.000000
548.421692,-2146.597232,-9844.739029,459.657299
548.422019,1258.350101,-9104.533087,2298.286494
548.422347,2590.720797,-8512.368333,3140.991542
548.422674,1628.453072,-8882.471304,3294.210641
548.423002,148.041188,-9474.636058,1915.238745
548.423329,-2220.617826,-8734.430116,229.828649
548.423657,-2738.761985,-8586.388927,-919.314598
548.423985,-2812.782580,-9326.594869,-1225.752797
548.424312,-1554.432478,-8438.347739,-536.266849
548.424640,1554.432478,-7402.059420,1532.190996
548.424967,2812.782580,-7402.059420,2298.286494
548.425295,1332.370696,-8660.409521,2068.457845
548.425622,-1036.288319,-10362.883188,1455.581446
548.425950,-3108.864956,-10288.862594,76.609550
548.426278,-4071.132681,-10362.883188,-306.438199
548.426605,-3849.070898,-10955.047942,0.000000
548.426933,-1184.329507,-9696.697840,689.485948
548.427260,1850.514855,-8660.409521,2068.457845
548.427588,3182.885551,-7846.182985,2681.334243
548.427915,2516.700203,-8216.285956,2145.067394
548.428243,-888.247130,-9400.615463,995.924147
548.428571,-2442.679609,-9474.636058,-229.828649
548.428898,-3256.906145,-9548.656652,-1225.752797
548.429226,-2516.700203,-9622.677246,-995.924147
548.429553,-518.144159,-9030.512492,-306.438199
548.429881,2294.638420,-7179.997637,1225.752797
548.430208,3108.864956,-7105.977043,2451.505594
548.430536,1998.556043,-8882.471304,2145.067394
548.430864,-1036.288319,-9844.739029,1072.533697
548.431191,-2960.823768,-9696.697840,0.000000
548.431519,-3182.885551,-9400.615463,-229.828649
548.431846,-2516.700203,-9474.636058,-612.876398
548.432174,-444.123565,-8586.388927,536.266849
548.432501,2590.720797,-7846.182985,1762.019645
548.432829,3552.988522,-7328.038826,2221.676944
548.433157,2590.720797,-8142.265362,1608.800546
548.433484,0.000000,-9474.636058,995.924147
548.433812,-2146.597232,-9474.636058,-306.438199
548.434139,-2812.782580,-9474.636058,-1302.362347
548.434467,-2368.659014,-9770.718434,-1455.581446
548.434794,-592.164754,-8956.491898,-1149.143247
548.435122,2072.576638,-7624.121203,1762.019645
548.435450,3478.967927,-7476.080014,2451.505594
548.435777,2220.617826,-8734.430116,2145.067394
548.436105,-888.247130,-10140.821405,842.705048
548.436432,-2960.823768,-10288.862594,306.438199
548.436760,-3330.926739,-9918.759623,-1225.752797
548.437087,-3404.947333,-9770.718434,-1455.581446
548.437415,-1406.391290,-9178.553681,-229.828649
548.437743,1776.494261,-7550.100608,919.314598
548.438070,3256.906145,-7105.977043,1838.629195
548.438398,3108.864956,-7476.080014,2374.896044
548.438725,0.000000,-8956.491898,766.095498
548.439053,-1998.556043,-9622.677246,-536.266849
548.439380,-2960.823768,-10214.842000,-1378.971896
548.439708,-3256.906145,-10955.047942,-1149.143247
548.440036,-1628.453072,-10362.883188,0.000000
548.440363,1554.432478,-9474.636058,995.924147
548.440691,3478.967927,-8512.368333,2298.286494
548.441018,2738.761985,-8882.471304,2068.457845
548.441346,740.205942,-9696.697840,1302.362347
548.441673,-1480.411884,-9622.677246,0.000000
548.442001,-2442.679609,-9474.636058,-1072.533697
548.442329,-3108.864956,-9992.780217,-1378.971896
548.442656,-1998.556043,-9474.636058,-536.266849
548.442984,1110.308913,-8882.471304,842.705048
548.443311,2886.803174,-7994.224174,2068.457845
548.443639,2442.679609,-8438.347739,2451.505594
548.443966,148.041188,-9326.594869,1378.971896
548.444294,-1406.391290,-9622.677246,536.266849
548.444622,-2590.720797,-9992.780217,-459.657299
548.444949,-3034.844362,-10436.903782,-766.095498
548.445277,-1776.494261,-10214.842000,-306.438199
548.445604,962.267725,-8734.430116,1762.019645
548.445932,3108.864956,-7994.224174,2451.505594
548.446260,2812.782580,-8216.285956,2604.724693
548.446587,740.205942,-9104.533087,1762.019645
548.446915,-1332.370696,-9474.636058,612.876398
548.447242,-2738.761985,-8808.450710,-383.047749
548.447570,-3627.009116,-9992.780217,-842.705048
548.447897,-2442.679609,-9770.718434,-383.047749
548.448225,0.000000,-8364.327145,766.095498
548.448553,2664.741391,-7698.141797,2221.676944
548.448880,2368.659014,-8142.265362,2528.115143
548.449208,444.123565,-9252.574275,1915.238745
548.449535,-1480.411884,-9400.615463,995.924147
548.449863,-3108.864956,-9622.677246,0.000000
548.450191,-3775.050304,-10362.883188,-612.876398
548.450518,-2368.659014,-9326.594869,-842.705048
548.450846,666.185348,-8808.450710,1225.752797
548.451173,2664.741391,-7772.162391,2221.676944
548.451501,2812.782580,-8216.285956,2604.724693
548.451829,962.267725,-8956.491898,1991.848295
548.452156,-740.205942,-8808.450710,1302.362347
548.452484,-1998.556043,-9252.574275,-842.705048
548.452811,-3182.885551,-9844.739029,-1149.143247
548.453139,-2442.679609,-9770.718434,-766.095498
548.453466,0.000000,-8808.450710,-153.219100
548.453794,2294.638420,-7550.100608,1302.362347
548.454122,2886.803174,-8142.265362,1455.581446
548.454449,1332.370696,-9696.697840,1378.971896
548.454777,-740.205942,-9918.759623,306.438199
548.455104,-1998.556043,-10066.800811,-612.876398
548.455432,-3034.844362,-10140.821405,-2298.286494
548.455760,-2442.679609,-9474.636058,-689.485948
548.456087,0.000000,-8586.388927,-306.438199
548.456415,2738.761985,-7550.100608,1532.190996
548.456742,2516.700203,-7846.182985,1838.629195
548.457070,740.205942,-8956.491898,1532.190996
548.457398,-666.185348,-9622.677246,153.219100
548.457725,-2368.659014,-9252.574275,-766.095498
548.458053,-3256.906145,-9844.739029,-1608.800546
548.458380,-2664.741391,-9918.759623,-1302.362347
548.458708,-370.102971,-9030.512492,-536.266849
548.459036,2812.782580,-7698.141797,1532.190996
548.459363,2960.823768,-7846.182985,1685.410096
548.459691,1628.453072,-9326.594869,1149.143247
548.460018,0.000000,-9770.718434,536.266849
548.460346,-1406.391290,-9844.739029,-306.438199
548.460673,-1480.411884,-10066.800811,-536.266849
548.461001,-740.205942,-9474.636058,0.000000
548.461329,1702.473667,-8216.285956,1072.533697
548.461656,3997.112087,-7550.100608,2528.115143
548.461984,3997.112087,-8142.265362,3217.601092
548.462311,1776.494261,-8882.471304,2757.943793
548.462639,-1258.350101,-9548.656652,1378.971896
548.462967,-3182.885551,-9844.739029,229.828649
548.463294,-4367.215058,-11103.089130,-536.266849
548.463622,-3923.091493,-10510.924376,-766.095498
548.463949,-1258.350101,-8882.471304,153.219100
548.464277,1702.473667,-7179.997637,1838.629195
548.464605,1850.514855,-7402.059420,1685.410096
548.464932,222.061783,-8660.409521,995.924147
548.465260,-1702.473667,-8956.491898,0.000000
548.465587,-3034.844362,-8808.450710,-1072.533697
548.465915,-3552.988522,-9252.574275,-1455.581446
548.466242,-3182.885551,-9030.512492,-1149.143247
548.466570,0.000000,-8586.388927,842.705048
548.466898,2368.659014,-7698.141797,2757.943793
548.467225,2812.782580,-8216.285956,2757.943793
548.467553,518.144159,-9326.594869,2757.943793
548.467880,-962.267725,-10066.800811,1685.410096
548.468208,-2886.803174,-10214.842000,0.000000
548.468536,-3849.070898,-10362.883188,-919.314598
548.468863,-3108.864956,-10066.800811,-842.705048
548.469191,0.000000,-8660.409521,0.000000
548.469518,3478.967927,-7179.997637,1149.143247
548.469846,3849.070898,-7254.018232,1685.410096
548.470174,2886.803174,-8734.430116,1225.752797
548.470501,666.185348,-9400.615463,153.219100
548.470829,-1406.391290,-9252.574275,-536.266849
548.471156,-2516.700203,-9622.677246,-689.485948
548.471484,-1332.370696,-9844.739029,-383.047749
548.471811,518.144159,-8956.491898,1378.971896
548.472139,3330.926739,-8364.327145,3447.429741
548.472467,3034.844362,-8512.368333,4060.306139
548.472794,1110.308913,-9326.594869,3217.601092
548.473122,-1184.329507,-9770.718434,1991.848295
548.473449,-3108.864956,-9918.759623,76.609550
548.473777,-4441.235652,-9770.718434,-1072.533697
548.474105,-3997.112087,-9770.718434,-1302.362347
548.474432,-1776.494261,-8586.388927,0.000000
548.474760,1554.432478,-7402.059420,536.266849
548.475087,1998.556043,-6661.853478,995.924147
548.475415,1184.329507,-7772.162391,612.876398
548.475743,-962.267725,-9326.594869,0.000000
548.476070,-2812.782580,-9400.615463,-919.314598
548.476398,-4219.173869,-9992.780217,-1455.581446
548.476725,-3404.947333,-9844.739029,-1072.533697
548.477053,-592.164754,-9548.656652,306.438199
548.477380,2664.741391,-8734.430116,2451.505594
548.477708,3108.864956,-8512.368333,3294.210641
548.478036,2146.597232,-8586.388927,2681.334243
548.478363,370.102971,-9696.697840,1685.410096
548.478691,-1554.432478,-9622.677246,306.438199
548.479018,-3108.864956,-10732.986159,-842.705048
548.479346,-2590.720797,-10881.027347,-1378.971896
548.479674,-296.082377,-9770.718434,-1072.533697
548.480001,2442.679609,-8586.388927,1072.533697
548.480329,3775.050304,-8290.306550,1149.143247
548.480656,2516.700203,-9252.574275,842.705048
548.480984,518.144159,-10140.821405,-153.219100
548.481312,-888.247130,-9844.739029,0.000000
548.481639,-2812.782580,-10510.924376,-1762.019645
548.481967,-1924.535449,-9992.780217,-1225.752797
548.482294,0.000000,-8808.450710,0.000000
548.482622,2738.761985,-8142.265362,2145.067394
548.482950,3701.029710,-8216.285956,3447.429741
548.483277,2146.597232,-9252.574275,2911.162892
548.483605,-592.164754,-9252.574275,2221.676944
548.483932,-2738.761985,-9696.697840,766.095498
548.484260,-4515.256246,-10214.842000,-383.047749
548.484587,-4737.318029,-10066.800811,-1149.143247
548.484915,-2664.741391,-8660.409521,-689.485948
548.485243,444.123565,-7254.018232,76.609550
548.485570,1776.494261,-7105.977043,1072.533697
548.485898,1480.411884,-7920.203579,842.705048
548.486225,0.000000,-8512.368333,0.000000
548.486553,-888.247130,-7920.203579,-383.047749
548.486881,-1184.329507,-8142.265362,-689.485948
548.487208,-592.164754,-8438.347739,536.266849
548.487536,1628.453072,-8512.368333,2451.505594
548.487863,3775.050304,-8734.430116,4749.792088
548.488191,3775.050304,-8956.491898,5975.544884
548.488519,2294.638420,-9400.615463,5822.325785
548.488846,0.000000,-10288.862594,4979.620737
548.489174,-1332.370696,-10436.903782,4519.963438
548.489501,-2294.638420,-9844.739029,3064.381992
548.489829,-2368.659014,-9622.677246,2451.505594
548.490156,0.000000,-8808.450710,2834.553343
548.490484,1480.411884,-7254.018232,3524.039291
548.490812,2738.761985,-6143.709319,3983.696590
548.491139,1924.535449,-7105.977043,3753.867940
548.491467,-666.185348,-8512.368333,2374.896044
548.491794,-3701.029710,-8956.491898,1302.362347
548.492122,-5625.565159,-9030.512492,766.095498
548.492450,-6069.688724,-8808.450710,76.609550
548.492777,-4589.276840,-8438.347739,1072.533697
548.493105,-2146.597232,-7698.141797,2298.286494
548.493432,0.000000,-6809.894666,3524.039291
548.493760,888.247130,-7105.977043,4366.744339
548.494088,-296.082377,-8512.368333,3830.477490
548.494415,-2664.741391,-9474.636058,2681.334243
548.494743,-2812.782580,-9844.739029,2068.457845
548.495070,-1850.514855,-9252.574275,1838.629195
548.495398,-740.205942,-9252.574275,1838.629195
548.495725,666.185348,-9326.594869,2604.724693
548.496053,2220.617826,-9030.512492,3140.991542
548.496381,3923.091493,-8660.409521,4060.306139
548.496708,4071.132681,-8660.409521,3524.039291
548.497036,2368.659014,-10584.944971,2451.505594
548.497363,0.000000,-11843.295072,2298.286494
548.497691,-1480.411884,-12139.377449,1378.971896
548.498019,-1036.288319,-11251.130318,2068.457845
548.498346,814.226536,-10584.944971,2911.162892
548.498674,1406.391290,-10288.862594,4366.744339
548.499001,2516.700203,-10066.800811,4749.792088
548.499329,2590.720797,-9400.615463,4749.792088
548.499657,1998.556043,-8956.491898,5056.230287
548.499984,1110.308913,-9326.594869,4596.572988
548.500312,370.102971,-10066.800811,4213.525239
548.500639,-962.267725,-10658.965565,2757.943793
548.500967,-1480.411884,-10288.862594,3677.258390
548.501295,-1406.391290,-9326.594869,3830.477490
548.501622,-814.226536,-8808.450710,3677.258390
548.501950,-1924.535449,-9326.594869,3294.210641
548.502277,-2368.659014,-9770.718434,2604.724693
548.502605,-3034.844362,-9030.512492,2298.286494
548.502932,-2220.617826,-7994.224174,2145.067394
548.503260,-518.144159,-8142.265362,2451.505594
548.503588,-962.267725,-9474.636058,2681.334243
548.503915,-2220.617826,-10288.862594,3447.429741
548.504243,-3330.926739,-10288.862594,2374.896044
548.504570,-2516.700203,-9104.533087,2528.115143
548.504898,-1110.308913,-8734.430116,3064.381992
548.505226,0.000000,-8586.388927,3370.820191
548.505553,296.082377,-9104.533087,3140.991542
548.505881,222.061783,-9474.636058,3064.381992
548.506208,962.267725,-8438.347739,3907.087040
548.506536,2664.741391,-7846.182985,4366.744339
548.506864,4811.338623,-7920.203579,5132.839837
548.507191,4885.359217,-8586.388927,5286.058936
548.507519,3775.050304,-9622.677246,5669.106685
548.507846,814.226536,-10066.800811,4903.011187
548.508174,-444.123565,-9474.636058,4290.134789
548.508501,888.247130,-8660.409521,4596.572988
548.508829,1776.494261,-8808.450710,4673.182538
548.509157,888.247130,-8808.450710,4290.134789
548.509484,-592.164754,-9622.677246,3600.648841
548.509812,-2664.741391,-9548.656652,2681.334243
548.510139,-3627.009116,-8512.368333,1915.238745
548.510467,-2220.617826,-7624.121203,2451.505594
548.510795,-666.185348,-7105.977043,2374.896044
548.511122,0.000000,-7550.100608,2604.724693
548.511450,-1998.556043,-7920.203579,2834.553343
548.511777,-4071.132681,-7994.224174,2145.067394
548.512105,-5403.503377,-8290.306550,2068.457845
548.512433,-4811.338623,-8068.244768,1149.143247
548.512760,-2960.823768,-8438.347739,1378.971896
548.513088,-370.102971,-8364.327145,2451.505594
548.513415,1258.350101,-7920.203579,3524.039291
548.513743,1480.411884,-7772.162391,3907.087040
548.514070,592.164754,-8734.430116,3524.039291
548.514398,-740.205942,-9252.574275,2834.553343
548.514726,-148.041188,-9844.739029,1762.019645
548.515053,1332.370696,-9474.636058,2145.067394
548.515381,3404.947333,-9178.553681,3600.648841
548.515708,4885.359217,-9474.636058,5056.230287
548.516036,4811.338623,-9992.780217,6665.030833
548.516364,4737.318029,-11103.089130,5669.106685
548.516691,2146.597232,-11399.171507,4519.963438
548.517019,-1258.350101,-11843.295072,3140.991542
548.517346,-1554.432478,-11621.233289,2757.943793
548.517674,-740.205942,-10584.944971,3370.820191
548.518002,370.102971,-9622.677246,4519.963438
548.518329,2590.720797,-9030.512492,5056.230287
548.518657,2442.679609,-8882.471304,5362.668486
548.518984,-518.144159,-9252.574275,4826.401637
548.519312,-3627.009116,-9474.636058,3064.381992
548.519640,-6143.709319,-9178.553681,1915.238745
548.519967,-6439.791695,-9326.594869,1149.143247
548.520295,-3997.112087,-8438.347739,995.924147
548.520622,-1628.453072,-7624.121203,2757.943793
548.520950,444.123565,-6143.709319,4060.306139
548.521277,1110.308913,-6883.915261,5209.449386
548.521605,0.000000,-7920.203579,4749.792088
548.521933,-2220.617826,-9548.656652,3600.648841
548.522260,-3923.091493,-10510.924376,2145.067394
548.522588,-4811.338623,-11177.109724,1302.362347
548.522915,-3997.112087,-10584.944971,1991.848295
548.523243,-1628.453072,-9992.780217,2604.724693
548.523571,1406.391290,-8956.491898,3753.867940
548.523898,3775.050304,-8364.327145,4903.011187
548.524226,4071.132681,-8364.327145,4596.572988
548.524553,2960.823768,-8808.450710,3983.696590
548.524881,2294.638420,-10214.842000,3140.991542
548.525209,962.267725,-10436.903782,2681.334243
548.525536,888.247130,-10066.800811,2834.553343
548.525864,1110.308913,-9844.739029,3064.381992
548.526191,814.226536,-9252.574275,3907.087040
548.526519,1406.391290,-8660.409521,3983.696590
548.526846,888.247130,-9178.553681,3753.867940
548.527174,-592.164754,-8142.265362,3217.601092
548.527502,-666.185348,-8438.347739,2145.067394
548.527829,-518.144159,-7772.162391,2374.896044
548.528157,-222.061783,-6883.915261,1685.410096
548.528484,1036.288319,-7105.977043,2911.162892
548.528812,1036.288319,-7105.977043,3447.429741
548.529140,1554.432478,-7402.059420,4060.306139
548.529467,740.205942,-8142.265362,4136.915689
548.529795,-666.185348,-8438.347739,4749.792088
548.530122,-1184.329507,-9474.636058,3524.039291
548.530450,-2294.638420,-9918.759623,3370.820191
548.530778,-2368.659014,-9992.780217,3140.991542
548.531105,-2072.576638,-10066.800811,3370.820191
548.531433,-1480.411884,-9696.697840,2757.943793
548.531760,-370.102971,-9252.574275,3524.039291
548.532088,-370.102971,-8586.388927,3140.991542
548.532415,-444.123565,-8216.285956,2911.162892
548.532743,-444.123565,-8216.285956,2528.115143
548.533071,-814.226536,-8364.327145,1915.238745
548.533398,-962.267725,-7698.141797,3140.991542
548.533726,-592.164754,-8660.409521,3294.210641
548.534053,74.020594,-9178.553681,3524.039291
548.534381,592.164754,-9400.615463,3983.696590
548.534709,1036.288319,-9474.636058,4136.915689
548.535036,444.123565,-10214.842000,3907.087040
548.535364,-518.144159,-10288.862594,3983.696590
548.535691,-666.185348,-10140.821405,3830.477490
548.536019,-1110.308913,-9696.697840,3370.820191
548.536347,-222.061783,-9104.533087,3140.991542
548.536674,888.247130,-8882.471304,3140.991542
548.537002,962.267725,-9030.512492,2757.943793
548.537329,444.123565,-9178.553681,2528.115143
548.537657,222.061783,-9844.739029,2681.334243
548.537984,-518.144159,-9992.780217,2221.676944
548.538312,-1110.308913,-10066.800811,1838.629195
548.538640,-888.247130,-10214.842000,1762.019645
548.538967,-888.247130,-9918.759623,1762.019645
548.539295,-740.205942,-9622.677246,1838.629195
548.539622,-814.226536,-9474.636058,1991.848295
548.539950,-1332.370696,-9252.574275,2145.067394
548.540278,-1406.391290,-9252.574275,1455.581446
548.540605,-1554.432478,-9252.574275,1302.362347
548.540933,-1332.370696,-9104.533087,1072.533697
548.541260,-370.102971,-8290.306550,1225.752797
548.541588,222.061783,-8216.285956,1149.143247
548.541916,1184.329507,-7920.203579,1532.190996
548.542243,1184.329507,-8438.347739,1302.362347
548.542571,666.185348,-8956.491898,1378.971896
548.542898,296.082377,-9326.594869,1378.971896
548.543226,444.123565,-9770.718434,1608.800546
548.543554,814.226536,-9844.739029,1838.629195
548.543881,1480.411884,-10288.862594,1762.019645
548.544209,1850.514855,-9844.739029,1915.238745
548.544536,1332.370696,-9770.718434,2068.457845
548.544864,1406.391290,-9548.656652,1838.629195
548.545192,592.164754,-9474.636058,1149.143247
548.545519,-592.164754,-8808.450710,1532.190996
548.545847,-740.205942,-9104.533087,919.314598
548.546175,-888.247130,-8734.430116,842.705048
548.546502,-962.267725,-8660.409521,689.485948
548.546830,-296.082377,-8068.244768,306.438199
548.547157,-592.164754,-8290.306550,1532.190996
548.547485,-814.226536,-8068.244768,766.095498
548.547813,-1036.288319,-7920.203579,383.047749
548.548140,-1036.288319,-7994.224174,306.438199
548.548468,-1184.329507,-7920.203579,383.047749
548.548795,-518.144159,-8068.244768,306.438199
548.549123,-1110.308913,-8512.368333,612.876398
548.549451,-814.226536,-8808.450710,919.314598
548.549778,-666.185348,-8734.430116,842.705048
548.550106,-444.123565,-8882.471304,1072.533697
548.550434,-296.082377,-9104.533087,383.047749
548.550761,0.000000,-9104.533087,919.314598
548.551089,148.041188,-9178.553681,1072.533697
548.551416,444.123565,-9252.574275,842.705048
548.551744,444.123565,-9252.574275,766.095498
548.552072,222.061783,-9474.636058,1225.752797
548.552399,148.041188,-10066.800811,1378.971896
548.552727,148.041188,-9696.697840,1532.190996
548.553055,74.020594,-9622.677246,919.314598
548.553382,-222.061783,-9178.553681,919.314598
548.553710,74.020594,-9030.512492,1302.362347
548.554037,0.000000,-8956.491898,995.924147
548.554365,-518.144159,-9030.512492,995.924147
548.554693,-518.144159,-9178.553681,919.314598
548.555020,-666.185348,-9030.512492,842.705048
548.555348,-1258.350101,-8956.491898,842.705048
548.555675,-814.226536,-8660.409521,919.314598
548.556003,-1480.411884,-8956.491898,842.705048
548.556331,-1406.391290,-9030.512492,229.828649
548.556658,-1258.350101,-9252.574275,76.609550
548.556986,-740.205942,-9400.615463,229.828649
548.557314,-222.061783,-9104.533087,1225.752797
548.557641,0.000000,-9252.574275,766.095498
548.557969,-222.061783,-9696.697840,383.047749
548.558296,-222.061783,-9770.718434,612.876398
548.558624,-148.041188,-9992.780217,536.266849
548.558952,0.000000,-9770.718434,612.876398
548.559279,-296.082377,-9844.739029,689.485948
548.559607,0.000000,-10288.862594,689.485948
548.559935,74.020594,-10140.821405,689.485948
548.560262,444.123565,-9548.656652,306.438199
548.560590,962.267725,-9326.594869,1072.533697
548.560917,740.205942,-9030.512492,995.924147
548.561245,592.164754,-9104.533087,306.438199
548.561573,444.123565,-9030.512492,459.657299
548.561900,296.082377,-9030.512492,383.047749
548.562228,74.020594,-9030.512492,612.876398
548.562555,444.123565,-9400.615463,306.438199
548.562883,0.000000,-9030.512492,229.828649
548.563211,148.041188,-8882.471304,383.047749
548.563538,0.000000,-8586.388927,229.828649
548.563866,0.000000,-8660.409521,76.609550
548.564194,-518.144159,-8734.430116,306.438199
548.564521,-518.144159,-8586.388927,536.266849
548.564849,-592.164754,-8438.347739,229.828649
548.565176,-592.164754,-8808.450710,153.219100
548.565504,-592.164754,-9178.553681,153.219100
548.565832,-666.185348,-8734.430116,306.438199
548.566159,-666.185348,-8438.347739,383.047749
548.566487,-370.102971,-8586.388927,153.219100
548.566814,-592.164754,-8438.347739,229.828649
548.567142,-518.144159,-8586.388927,459.657299
548.567470,-370.102971,-8364.327145,842.705048
548.567797,-296.082377,-8438.347739,995.924147
548.568125,-444.123565,-8660.409521,612.876398
548.568453,-888.247130,-9030.512492,842.705048
548.568780,-888.247130,-9178.553681,919.314598
548.569108,-814.226536,-8956.491898,995.924147
548.569435,0.000000,-8808.450710,1225.752797
548.569763,-370.102971,-8660.409521,842.705048
548.570091,-222.061783,-8734.430116,536.266849
548.570418,0.000000,-8808.450710,536.266849
548.570746,-370.102971,-8660.409521,689.485948
548.571074,-518.144159,-9030.512492,995.924147
548.571401,-444.123565,-9474.636058,842.705048
548.571729,-666.185348,-9696.697840,919.314598
548.572056,-444.123565,-9622.677246,612.876398
548.572384,-370.102971,-9622.677246,689.485948
548.572712,0.000000,-9326.594869,306.438199
548.573039,0.000000,-9104.533087,612.876398
548.573367,-370.102971,-9326.594869,306.438199
548.573694,-444.123565,-9400.615463,459.657299
548.574022,-592.164754,-9474.636058,536.266849
548.574350,-296.082377,-9474.636058,612.876398
548.574677,-296.082377,-9252.574275,689.485948
548.575005,-370.102971,-9326.594869,612.876398
548.575333,0.000000,-9326.594869,536.266849
548.575660,-296.082377,-8956.491898,612.876398
548.575988,0.000000,-8808.450710,383.047749
548.576315,-222.061783,-8808.450710,995.924147
548.576643,0.000000,-9326.594869,536.266849
548.576971,0.000000,-9622.677246,536.266849
548.577298,-518.144159,-9622.677246,766.095498
548.577626,-370.102971,-9622.677246,766.095498
548.577954,74.020594,-9548.656652,842.705048
548.578281,0.000000,-9548.656652,612.876398
548.578609,-148.041188,-9326.594869,766.095498
548.578936,0.000000,-8956.491898,612.876398
548.579264,-222.061783,-8586.388927,306.438199
548.579592,-666.185348,-8660.409521,383.047749
548.579919,-888.247130,-8734.430116,153.219100
548.580247,-1110.308913,-8882.471304,536.266849
548.580574,-1184.329507,-8734.430116,766.095498
548.580902,-740.205942,-8808.450710,766.095498
548.581230,-222.061783,-8734.430116,383.047749
548.581557,74.020594,-8364.327145,76.609550
548.581885,370.102971,-8438.347739,459.657299
548.582213,148.041188,-8216.285956,306.438199
548.582540,0.000000,-8586.388927,459.657299
548.582868,-296.082377,-9400.615463,842.705048
548.583195,-444.123565,-9992.780217,919.314598
548.583523,-370.102971,-9844.739029,689.485948
548.583851,-296.082377,-9696.697840,995.924147
548.584178,0.000000,-9326.594869,766.095498
548.584506,592.164754,-9030.512492,689.485948
548.584834,814.226536,-8142.265362,153.219100
548.585161,666.185348,-7920.203579,0.000000
548.585489,222.061783,-8068.244768,153.219100
548.585816,-370.102971,-8586.388927,76.609550
548.586144,-370.102971,-9252.574275,306.438199
548.586472,-814.226536,-9326.594869,383.047749
548.586799,-1110.308913,-9030.512492,842.705048
548.587127,-296.082377,-9474.636058,689.485948
548.587454,0.000000,-9326.594869,306.438199
548.587782,148.041188,-8808.450710,0.000000
548.588110,296.082377,-8438.347739,229.828649
548.588437,888.247130,-8438.347739,229.828649
548.588765,0.000000,-8882.471304,383.047749
548.589093,-370.102971,-9178.553681,459.657299
548.589420,-592.164754,-9696.697840,766.095498
548.589748,-1036.288319,-9474.636058,229.828649
548.590075,-444.123565,-9474.636058,995.924147
548.590403,-592.164754,-9400.615463,459.657299
548.590731,-296.082377,-9104.533087,383.047749
548.591058,148.041188,-8808.450710,306.438199
548.591386,444.123565,-8808.450710,229.828649
548.591714,370.102971,-8512.368333,306.438199
548.592041,296.082377,-9474.636058,689.485948
548.592369,0.000000,-9696.697840,995.924147
548.592696,-444.123565,-10066.800811,1225.752797
548.593024,-592.164754,-10140.821405,1072.533697
548.593352,-296.082377,-9844.739029,766.095498
548.593679,-370.102971,-9178.553681,229.828649
548.594007,-444.123565,-9030.512492,842.705048
548.594334,-370.102971,-8882.471304,383.047749
548.594662,-518.144159,-9104.533087,766.095498
548.594990,-962.267725,-9104.533087,459.657299
548.595317,-888.247130,-9178.553681,689.485948
548.595645,-962.267725,-9474.636058,995.924147
548.595973,-962.267725,-9548.656652,766.095498
548.596300,-814.226536,-9474.636058,766.095498
548.596628,-518.144159,-9474.636058,612.876398
548.596955,-444.123565,-8956.491898,995.924147
548.597283,0.000000,-9030.512492,842.705048
548.597611,-222.061783,-9252.574275,536.266849
548.597938,0.000000,-9548.656652,689.485948
548.598266,-296.082377,-9696.697840,766.095498
548.598594,-370.102971,-9548.656652,1302.362347
548.598921,-148.041188,-9474.636058,459.657299
548.599249,-592.164754,-9548.656652,689.485948
548.599576,-666.185348,-9252.574275,229.828649
548.599904,-370.102971,-8882.471304,536.266849
548.600232,-592.164754,-8364.327145,306.438199
548.600559,-148.041188,-8068.244768,-153.219100
548.600887,0.000000,-8438.347739,229.828649
548.601214,-222.061783,-8512.368333,229.828649
548.601542,-296.082377,-8512.368333,383.047749
548.601870,-370.102971,-8734.430116,612.876398
548.602197,222.061783,-8586.388927,842.705048
548.602525,0.000000,-8956.491898,306.438199
548.602853,0.000000,-8882.471304,383.047749
548.603180,0.000000,-9030.512492,383.047749
548.603508,148.041188,-8956.491898,383.047749
548.603835,222.061783,-8882.471304,919.314598
548.604163,148.041188,-8808.450710,689.485948
548.604491,-296.082377,-8882.471304,612.876398
548.604818,0.000000,-9104.533087,766.095498
548.605146,-222.061783,-8956.491898,536.266849
548.605474,-592.164754,-8364.327145,306.438199
548.605801,0.000000,-8512.368333,766.095498
548.606129,-444.123565,-8734.430116,229.828649
548.606456,-370.102971,-8586.388927,383.047749
548.606784,-296.082377,-8734.430116,536.266849
548.607112,-148.041188,-8808.450710,1072.533697
548.607439,0.000000,-8512.368333,536.266849
548.607767,-222.061783,-8808.450710,766.095498
548.608094,0.000000,-9326.594869,919.314598
548.608422,-666.185348,-9104.533087,689.485948
548.608750,-222.061783,-9400.615463,689.485948
548.609077,-370.102971,-9326.594869,612.876398
548.609405,-518.144159,-9252.574275,689.485948
548.609733,-370.102971,-9400.615463,612.876398
548.610060,-444.123565,-9326.594869,612.876398
548.610388,-370.102971,-9178.553681,612.876398
548.610715,-296.082377,-9104.533087,1302.362347
548.611043,444.123565,-9474.636058,383.047749
548.611371,-222.061783,-9030.512492,306.438199
548.611698,0.000000,-9178.553681,536.266849
548.612026,0.000000,-9622.677246,536.266849
548.612354,0.000000,-9696.697840,995.924147
548.612681,148.041188,-9326.594869,842.705048
548.613009,0.000000,-9474.636058,536.266849
548.613336,0.000000,-9548.656652,383.047749
548.613664,0.000000,-9474.636058,842.705048
548.613992,222.061783,-9400.615463,229.828649
548.614319,74.020594,-8956.491898,536.266849
548.614647,222.061783,-9104.533087,383.047749
548.614974,-222.061783,-9252.574275,536.266849
548.615302,-370.102971,-9252.574275,383.047749
548.615630,0.000000,-9252.574275,536.266849
548.615957,148.041188,-9178.553681,995.924147
548.616285,-148.041188,-9326.594869,536.266849
548.616613,-444.123565,-9178.553681,536.266849
548.616940,-296.082377,-9252.574275,229.828649
548.617268,0.000000,-8956.491898,153.219100
548.617595,0.000000,-9030.512492,1072.533697
548.617923,0.000000,-9252.574275,459.657299
548.618251,-222.061783,-9178.553681,306.438199
548.618578,-222.061783,-9178.553681,459.657299
548.618906,-222.061783,-9178.553681,459.657299
548.619233,-518.144159,-8882.471304,536.266849
548.619561,-518.144159,-9252.574275,612.876398
548.619889,-444.123565,-9178.553681,459.657299
548.620216,-666.185348,-9030.512492,612.876398
548.620544,-370.102971,-9030.512492,306.438199
548.620872,-444.123565,-8882.471304,536.266849
548.621199,0.000000,-8882.471304,0.000000
548.621527,-296.082377,-8734.430116,306.438199
548.621854,0.000000,-8808.450710,459.657299
548.622182,-296.082377,-8808.450710,459.657299
548.622510,0.000000,-9030.512492,766.095498
548.622837,0.000000,-9326.594869,306.438199
548.623165,-370.102971,-8956.491898,383.047749
548.623493,0.000000,-9400.615463,612.876398
548.623820,0.000000,-9252.574275,766.095498
548.624148,0.000000,-9400.615463,766.095498
548.624475,296.082377,-9474.636058,306.438199
548.624803,296.082377,-9178.553681,1302.362347
548.625131,0.000000,-9104.533087,612.876398
548.625458,-518.144159,-9030.512492,536.266849
548.625786,-148.041188,-9326.594869,459.657299
548.626113,0.000000,-9030.512492,766.095498
548.626441,-592.164754,-8882.471304,689.485948
548.626769,-444.123565,-8956.491898,536.266849
548.627096,-444.123565,-9252.574275,459.657299
548.627424,-296.082377,-9326.594869,536.266849
548.627752,-592.164754,-8956.491898,306.438199
548.628079,-592.164754,-8586.388927,459.657299
548.628407,-222.061783,-8956.491898,536.266849
548.628734,-518.144159,-9400.615463,689.485948
548.629062,-518.144159,-9326.594869,612.876398
548.629390,-370.102971,-9474.636058,536.266849
548.629717,-370.102971,-9474.636058,995.924147
548.630045,0.000000,-9474.636058,689.485948
548.630373,-592.164754,-9400.615463,536.266849
548.630700,-518.144159,-9326.594869,459.657299
548.631028,-296.082377,-9104.533087,459.657299
548.631355,-370.102971,-9474.636058,612.876398
548.631683,-666.185348,-8882.471304,766.095498
548.632011,-814.226536,-9178.553681,459.657299
548.632338,-444.123565,-9030.512492,383.047749
548.632666,-814.226536,-8882.471304,536.266849
548.632993,-666.185348,-8734.430116,689.485948
548.633321,-592.164754,-8586.388927,842.705048
548.633649,-814.226536,-8734.430116,306.438199
548.633976,-444.123565,-9104.533087,383.047749
548.634304,-592.164754,-8956.491898,459.657299
548.634632,-444.123565,-9104.533087,536.266849
548.634959,-74.020594,-8660.409521,612.876398
548.635287,0.000000,-8956.491898,306.438199
548.635614,-222.061783,-9252.574275,383.047749
548.635942,-296.082377,-9252.574275,459.657299
548.636270,-370.102971,-9178.553681,383.047749
548.636597,-296.082377,-9030.512492,459.657299
548.636925,-592.164754,-8882.471304,229.828649
548.637253,-518.144159,-9104.533087,306.438199
548.637580,-148.041188,-9030.512492,76.609550
548.637908,-296.082377,-8660.409521,383.047749
548.638235,0.000000,-8882.471304,0.000000
548.638563,-148.041188,-8438.347739,995.924147
548.638891,0.000000,-8956.491898,306.438199
548.639218,-148.041188,-8956.491898,536.266849
548.639546,0.000000,-8734.430116,612.876398
548.639873,0.000000,-8808.450710,459.657299
548.640201,-444.123565,-8808.450710,842.705048
548.640529,-296.082377,-9030.512492,536.266849
548.640856,0.000000,-8882.471304,612.876398
548.641184,0.000000,-8734.430116,536.266849
548.641512,0.000000,-8808.450710,612.876398
548.641839,-518.144159,-8808.450710,766.095498
548.642167,-296.082377,-9030.512492,612.876398
548.642494,0.000000,-9030.512492,689.485948
548.642822,-148.041188,-8882.471304,689.485948
548.643150,-222.061783,-8882.471304,689.485948
548.643477,-370.102971,-8882.471304,536.266849
548.643805,-296.082377,-9104.533087,766.095498
548.644133,0.000000,-9030.512492,536.266849
548.644460,-222.061783,-9326.594869,612.876398
548.644789,0.000000,-9400.615463,536.266849
548.645116,74.020594,-9474.636058,766.095498
548.645444,0.000000,-9252.574275,306.438199
548.645771,0.000000,-9622.677246,842.705048
548.646099,-222.061783,-9696.697840,612.876398
548.646427,-222.061783,-9622.677246,612.876398
548.646754,-222.061783,-9548.656652,459.657299
548.647082,0.000000,-9474.636058,766.095498
548.647410,-148.041188,-9474.636058,612.876398
548.647737,-222.061783,-9178.553681,306.438199
548.648065,-296.082377,-9178.553681,153.219100
548.648392,-296.082377,-9252.574275,383.047749
548.648720,-222.061783,-9104.533087,0.000000
548.649048,-296.082377,-9326.594869,383.047749
548.649375,0.000000,-9474.636058,459.657299
548.649703,0.000000,-9400.615463,306.438199
548.650030,0.000000,-9474.636058,459.657299
548.650358,0.000000,-8956.491898,612.876398
548.650686,148.041188,-9474.636058,76.609550
548.651013,0.000000,-9548.656652,459.657299
548.651341,-444.123565,-9400.615463,383.047749
548.651669,-370.102971,-9474.636058,612.876398
548.651996,-148.041188,-8956.491898,842.705048
548.652324,-296.082377,-9326.594869,689.485948
548.652651,-370.102971,-9326.594869,306.438199
548.652979,-518.144159,-8808.450710,383.047749
548.653307,-518.144159,-8660.409521,459.657299
548.653634,-370.102971,-8512.368333,383.047749
548.653962,-296.082377,-8734.430116,229.828649
548.654289,-518.144159,-8734.430116,383.047749
548.654617,-296.082377,-9030.512492,612.876398
548.654945,-370.102971,-8882.471304,689.485948
548.655272,-370.102971,-8882.471304,766.095498
548.655600,-370.102971,-8808.450710,995.924147
548.655928,-518.144159,-8808.450710,459.657299
548.656255,-518.144159,-8808.450710,689.485948
548.656583,-370.102971,-8660.409521,612.876398
548.656910,-666.185348,-8808.450710,689.485948
548.657238,-592.164754,-8956.491898,1072.533697
548.657566,-222.061783,-9030.512492,842.705048
548.657893,-666.185348,-8882.471304,842.705048
548.658221,-296.082377,-8586.388927,842.705048
548.658548,-444.123565,-8660.409521,536.266849
548.658876,-444.123565,-8512.368333,995.924147
548.659204,-148.041188,-8364.327145,689.485948
548.659531,-370.102971,-8290.306550,612.876398
548.659859,-148.041188,-8660.409521,689.485948
548.660187,-370.102971,-9030.512492,766.095498
548.660514,-518.144159,-9030.512492,536.266849
548.660842,-296.082377,-8660.409521,612.876398
548.661169,-222.061783,-9104.533087,766.095498
548.661497,0.000000,-9178.553681,536.266849
548.661825,0.000000,-9326.594869,612.876398
548.662152,-296.082377,-9104.533087,689.485948
548.662480,-444.123565,-9030.512492,536.266849
548.662807,-370.102971,-8882.471304,536.266849
548.663135,-444.123565,-9104.533087,689.485948
548.663463,-296.082377,-9104.533087,383.047749
548.663790,-148.041188,-9104.533087,689.485948
548.664118,-222.061783,-9104.533087,766.095498
548.664445,-296.082377,-9030.512492,306.438199
548.664773,-518.144159,-9178.553681,306.438199
548.665101,-296.082377,-9178.553681,383.047749
548.665428,-370.102971,-9400.615463,612.876398
548.665756,-296.082377,-9474.636058,919.314598
548.666084,74.020594,-9474.636058,919.314598
548.666411,0.000000,-9474.636058,612.876398
548.666739,-296.082377,-9474.636058,689.485948
548.667066,-370.102971,-9474.636058,459.657299
548.667394,-296.082377,-9474.636058,842.705048
548.667722,-296.082377,-9178.553681,766.095498
548.668049,0.000000,-9252.574275,459.657299
548.668377,-296.082377,-9474.636058,536.266849
548.668704,-370.102971,-9252.574275,536.266849
548.669032,-148.041188,-9178.553681,689.485948
548.669360,-370.102971,-8882.471304,612.876398
548.669687,-444.123565,-9030.512492,459.657299
548.670015,-222.061783,-9178.553681,536.266849
548.670343,-296.082377,-9178.553681,383.047749
548.670670,-370.102971,-9104.533087,612.876398
548.670998,-148.041188,-9030.512492,1072.533697
548.671325,74.020594,-9030.512492,612.876398
548.671653,0.000000,-9474.636058,459.657299
548.671981,0.000000,-9474.636058,689.485948
548.672308,0.000000,-9326.594869,612.876398
548.672636,0.000000,-8882.471304,919.314598
548.672963,148.041188,-8734.430116,383.047749
548.673291,0.000000,-9178.553681,459.657299
548.673619,0.000000,-9252.574275,766.095498
548.673946,0.000000,-8956.491898,689.485948
548.674274,-222.061783,-8956.491898,383.047749
548.674602,-444.123565,-8808.450710,612.876398
548.674929,-148.041188,-8882.471304,459.657299
548.675257,0.000000,-9104.533087,536.266849
548.675584,0.000000,-8882.471304,612.876398
548.675912,0.000000,-8734.430116,459.657299
548.676240,0.000000,-8956.491898,766.095498
548.676567,-296.082377,-8956.491898,612.876398
548.676895,0.000000,-9178.553681,689.485948
548.677222,-222.061783,-9104.533087,766.095498
548.677550,-222.061783,-9326.594869,612.876398
548.677878,-370.102971,-8660.409521,842.705048
548.678205,-148.041188,-9474.636058,1149.143247
548.678533,-370.102971,-9178.553681,459.657299
548.678861,-370.102971,-9030.512492,842.705048
548.679188,-444.123565,-9030.512492,459.657299
548.679516,-444.123565,-9104.533087,536.266849
548.679843,-444.123565,-8734.430116,1149.143247
548.680171,-444.123565,-8956.491898,612.876398
548.680499,-296.082377,-9252.574275,306.438199
548.680826,-296.082377,-9400.615463,612.876398
548.681154,-592.164754,-9178.553681,766.095498
548.681481,-592.164754,-9400.615463,1149.143247
548.681809,0.000000,-9326.594869,459.657299
548.682137,-518.144159,-9178.553681,612.876398
548.682464,-222.061783,-9326.594869,689.485948
548.682792,-148.041188,-9400.615463,689.485948
548.683120,-370.102971,-8660.409521,842.705048
548.683447,0.000000,-9252.574275,612.876398
548.683775,-444.123565,-9252.574275,689.485948
548.684102,-370.102971,-9400.615463,689.485948
548.684430,-444.123565,-9178.553681,459.657299
548.684758,0.000000,-8808.450710,536.266849
548.685085,-444.123565,-9104.533087,766.095498
548.685413,-370.102971,-9252.574275,612.876398
548.685740,-444.123565,-9400.615463,383.047749
548.686068,-222.061783,-9104.533087,612.876398
548.686396,0.000000,-8956.491898,612.876398
548.686723,0.000000,-8882.471304,919.314598
548.687051,0.000000,-9400.615463,459.657299
548.687379,-296.082377,-9178.553681,536.266849
548.687706,-296.082377,-9104.533087,612.876398
548.688034,-518.144159,-9104.533087,383.047749
548.688361,-518.144159,-9030.512492,766.095498
548.688689,-296.082377,-9252.574275,153.219100
548.689017,-296.082377,-9030.512492,766.095498
548.689344,-666.185348,-8882.471304,536.266849
548.689672,-370.102971,-8882.471304,536.266849
548.689999,-518.144159,-8290.306550,536.266849
548.690327,-444.123565,-8734.430116,306.438199
548.690655,-666.185348,-8660.409521,383.047749
548.690982,-592.164754,-8808.450710,536.266849
548.691310,-518.144159,-8808.450710,383.047749
548.691637,-592.164754,-8734.430116,383.047749
548.691965,-296.082377,-8734.430116,229.828649
548.692293,-148.041188,-8882.471304,842.705048
548.692620,-222.061783,-8956.491898,536.266849
548.692948,-148.041188,-9030.512492,612.876398
548.693276,-222.061783,-8956.491898,689.485948
548.693603,0.000000,-9178.553681,1302.362347
548.693931,0.000000,-9252.574275,536.266849
548.694258,-296.082377,-9326.594869,689.485948
548.694586,-444.123565,-9030.512492,459.657299
548.694914,-296.082377,-9252.574275,612.876398
548.695241,-444.123565,-8734.430116,536.266849
548.695569,-222.061783,-8882.471304,689.485948
548.695896,-222.061783,-8882.471304,612.876398
548.696224,-222.061783,-9104.533087,306.438199
548.696552,-296.082377,-9030.512492,383.047749
548.696879,-814.226536,-8586.388927,612.876398
548.697207,-148.041188,-9252.574275,766.095498
548.697535,0.000000,-9252.574275,612.876398
548.697862,0.000000,-9326.594869,383.047749
548.698190,-296.082377,-9326.594869,459.657299
548.698517,0.000000,-9030.512492,229.828649
548.698845,0.000000,-9104.533087,536.266849
548.699173,-222.061783,-9030.512492,612.876398
548.699500,-296.082377,-9030.512492,383.047749
548.699828,-222.061783,-9400.615463,459.657299
548.700155,-444.123565,-9400.615463,306.438199
548.700483,-296.082377,-8882.471304,306.438199
548.700811,-444.123565,-9104.533087,536.266849
548.701138,0.000000,-9474.636058,536.266849
548.701466,0.000000,-9326.594869,306.438199
548.701794,0.000000,-9400.615463,536.266849
548.702121,-148.041188,-9030.512492,229.828649
548.702449,0.000000,-9400.615463,536.266849
548.702776,0.000000,-9474.636058,459.657299
548.703104,-148.041188,-9548.656652,383.047749
548.703432,74.020594,-9474.636058,689.485948
548.703759,-296.082377,-9178.553681,306.438199
548.704087,0.000000,-9474.636058,306.438199
548.704414,-222.061783,-9474.636058,383.047749
548.704742,-296.082377,-9400.615463,383.047749
548.705070,-148.041188,-9252.574275,536.266849
548.705397,-666.185348,-9252.574275,306.438199
548.705725,-370.102971,-8956.491898,383.047749
548.706053,-296.082377,-9030.512492,536.266849
548.706380,-370.102971,-9178.553681,536.266849
548.706708,-296.082377,-9030.512492,612.876398
548.707035,-148.041188,-9104.533087,229.828649
548.707363,0.000000,-9178.553681,459.657299
548.707691,-148.041188,-8882.471304,229.828649
548.708018,-370.102971,-9104.533087,306.438199
548.708346,-296.082377,-9030.512492,459.657299
548.708673,0.000000,-9178.553681,919.314598
548.709001,74.020594,-9030.512492,612.876398
548.709329,-444.123565,-9104.533087,536.266849
548.709656,-370.102971,-9104.533087,766.095498
548.709984,0.000000,-9104.533087,536.266849
548.710312,-296.082377,-8734.430116,459.657299
548.710639,0.000000,-9104.533087,0.000000
548.710967,0.000000,-8660.409521,919.314598
548.711294,-222.061783,-8734.430116,536.266849
548.711622,-296.082377,-8734.430116,459.657299
548.711950,-148.041188,-8734.430116,612.876398
548.712277,-222.061783,-8734.430116,766.095498
548.712605,-296.082377,-8808.450710,766.095498
548.712932,-296.082377,-8956.491898,536.266849
548.713260,-370.102971,-8808.450710,689.485948
548.713588,-148.041188,-9178.553681,459.657299
548.713915,-296.082377,-9104.533087,536.266849
548.714243,-222.061783,-9030.512492,536.266849
548.714571,-518.144159,-9104.533087,842.705048
548.714898,-444.123565,-9178.553681,536.266849
548.715226,-444.123565,-9326.594869,842.705048
548.715553,-592.164754,-9104.533087,536.266849
548.715881,-592.164754,-8734.430116,383.047749
548.716209,-222.061783,-8660.409521,612.876398
548.716536,-666.185348,-8734.430116,459.657299
548.716864,-444.123565,-9104.533087,612.876398
548.717191,-592.164754,-9030.512492,536.266849
548.717519,-888.247130,-8808.450710,459.657299
548.717847,-666.185348,-9104.533087,383.047749
548.718174,-518.144159,-9178.553681,459.657299
548.718502,-592.164754,-9104.533087,612.876398
548.718830,-444.123565,-9178.553681,536.266849
548.719157,-444.123565,-9104.533087,689.485948
548.719485,-444.123565,-8956.491898,76.609550
548.719812,-444.123565,-9178.553681,459.657299
548.720140,-592.164754,-9326.594869,383.047749
548.720468,-518.144159,-9252.574275,612.876398
548.720795,-518.144159,-9104.533087,306.438199
548.721123,0.000000,-8882.471304,919.314598
548.721450,-296.082377,-9178.553681,383.047749
548.721778,-296.082377,-9326.594869,229.828649
548.722106,0.000000,-9030.512492,536.266849
548.722433,-370.102971,-8660.409521,383.047749
548.722761,0.000000,-9104.533087,1072.533697
548.723088,-370.102971,-9104.533087,383.047749
548.723416,0.000000,-9252.574275,383.047749
548.723744,0.000000,-8956.491898,459.657299
548.724071,74.020594,-8882.471304,766.095498
548.724399,222.061783,-9400.615463,689.485948
548.724727,-444.123565,-8808.450710,842.705048
548.725054,0.000000,-9030.512492,383.047749
548.725382,0.000000,-9178.553681,459.657299
548.725709,-296.082377,-9104.533087,536.266849
548.726037,-222.061783,-9326.594869,306.438199
548.726365,74.020594,-8956.491898,383.047749
548.726692,0.000000,-9178.553681,306.438199
548.727020,0.000000,-9030.512492,306.438199
548.727347,-296.082377,-8956.491898,383.047749
548.727675,-148.041188,-8882.471304,459.657299
548.728003,74.020594,-8956.491898,383.047749
548.728330,-222.061783,-8808.450710,383.047749
548.728658,0.000000,-9104.533087,459.657299
548.728986,0.000000,-9178.553681,459.657299
548.729313,0.000000,-9326.594869,612.876398
548.729641,222.061783,-9326.594869,229.828649
548.729968,0.000000,-9030.512492,919.314598
548.730296,-222.061783,-9474.636058,612.876398
548.730624,-444.123565,-9252.574275,612.876398
548.730951,-296.082377,-9252.574275,459.657299
548.731279,-148.041188,-9030.512492,842.705048
548.731606,-370.102971,-9030.512492,536.266849
548.731934,0.000000,-9252.574275,536.266849
548.732262,-370.102971,-9178.553681,766.095498
548.732589,-370.102971,-9326.594869,459.657299
548.732917,-518.144159,-9252.574275,459.657299
548.733245,-444.123565,-8660.409521,536.266849
548.733572,-222.061783,-9252.574275,689.485948
548.733900,0.000000,-9474.636058,766.095498
548.734227,0.000000,-9400.615463,766.095498
548.734555,-222.061783,-9400.615463,919.314598
548.734883,-592.164754,-9104.533087,1072.533697
548.735210,0.000000,-9770.718434,383.047749
548.735538,-592.164754,-9400.615463,842.705048
548.735865,-518.144159,-9326.594869,766.095498
548.736193,-888.247130,-9178.553681,995.924147
548.736521,0.000000,-9326.594869,1072.533697
548.736848,-296.082377,-8882.471304,612.876398
548.737176,-592.164754,-8882.471304,766.095498
548.737504,-370.102971,-9030.512492,612.876398
548.737831,-370.102971,-9030.512492,689.485948
548.738159,-444.123565,-8808.450710,612.876398
548.738486,0.000000,-8660.409521,766.095498
548.738814,-148.041188,-9104.533087,689.485948
548.739142,0.000000,-9326.594869,536.266849
548.739469,-296.082377,-9252.574275,612.876398
548.739797,-296.082377,-9104.533087,306.438199
548.740124,0.000000,-9252.574275,919.314598
548.740452,0.000000,-9252.574275,383.047749
548.740780,-296.082377,-9178.553681,536.266849
548.741107,-296.082377,-9030.512492,536.266849
548.741435,-296.082377,-9252.574275,459.657299
548.741763,-592.164754,-9104.533087,1072.533697
548.742090,-592.164754,-9104.533087,383.047749
548.742418,-296.082377,-8956.491898,383.047749
548.742745,0.000000,-8734.430116,306.438199
548.743073,-148.041188,-8808.450710,229.828649
548.743401,148.041188,-9104.533087,689.485948
548.743728,0.000000,-8660.409521,306.438199
548.744056,-296.082377,-8808.450710,306.438199
548.744383,-370.102971,-8956.491898,306.438199
548.744711,-222.061783,-9400.615463,766.095498
548.745039,0.000000,-8808.450710,766.095498
548.745366,-296.082377,-9030.512492,536.266849
548.745694,0.000000,-9030.512492,612.876398
548.746022,-296.082377,-9030.512492,612.876398
548.746349,-444.123565,-8882.471304,612.876398
548.746677,-370.102971,-8808.450710,689.485948
548.747004,0.000000,-8512.368333,612.876398
548.747332,-888.247130,-8586.388927,1072.533697
548.747660,-666.185348,-8882.471304,612.876398
548.747987,-592.164754,-8808.450710,766.095498
548.748315,-592.164754,-8734.430116,536.266849
548.748642,-296.082377,-8512.368333,536.266849
548.748970,-518.144159,-8734.430116,766.095498
548.749298,-592.164754,-8882.471304,689.485948
548.749625,-518.144159,-9030.512492,689.485948
548.749953,-296.082377,-8808.450710,689.485948
548.750280,-444.123565,-9104.533087,1225.752797
548.750608,0.000000,-9400.615463,536.266849
548.750936,-74.020594,-9474.636058,459.657299
548.751263,-296.082377,-9252.574275,459.657299
548.751591,-296.082377,-9400.615463,459.657299
548.751918,0.000000,-9400.615463,689.485948
548.752246,0.000000,-9326.594869,383.047749
548.752574,-296.082377,-8956.491898,536.266849
548.752901,-370.102971,-9178.553681,536.266849
548.753229,-296.082377,-9326.594869,459.657299
548.753556,-296.082377,-9326.594869,536.266849
548.753884,0.000000,-8956.491898,689.485948
548.754212,74.020594,-9104.533087,459.657299
548.754539,-148.041188,-9326.594869,536.266849
548.754867,-148.041188,-9474.636058,383.047749
548.755194,0.000000,-9326.594869,612.876398
548.755522,74.020594,-8808.450710,153.219100
548.755850,0.000000,-9474.636058,612.876398
548.756177,-222.061783,-9770.718434,766.095498
548.756505,-444.123565,-9548.656652,612.876398
548.756833,-222.061783,-9548.656652,995.924147
548.757160,-148.041188,-9178.553681,1302.362347
548.757488,-370.102971,-9104.533087,919.314598
548.757815,-666.185348,-9178.553681,919.314598
548.758143,-592.164754,-9030.512492,383.047749
548.758471,-592.164754,-9252.574275,842.705048
548.758798,-444.123565,-9104.533087,612.876398
548.759126,-148.041188,-9474.636058,612.876398
548.759453,-740.205942,-9030.512492,766.095498
548.759781,-518.144159,-8956.491898,612.876398
548.760109,-444.123565,-8882.471304,612.876398
548.760436,-296.082377,-9104.533087,919.314598
548.760764,-296.082377,-9030.512492,229.828649
548.761091,0.000000,-9030.512492,842.705048
548.761419,0.000000,-9178.553681,612.876398
548.761747,0.000000,-9104.533087,612.876398
548.762074,0.000000,-9030.512492,536.266849
548.762402,0.000000,-9178.553681,229.828649
548.762729,0.000000,-9030.512492,919.314598
548.763057,-296.082377,-9104.533087,536.266849
548.763385,-222.061783,-9104.533087,306.438199
548.763712,-148.041188,-9104.533087,459.657299
548.764040,0.000000,-8956.491898,153.219100
548.764367,0.000000,-8882.471304,229.828649
548.764695,74.020594,-8882.471304,229.828649
548.765023,0.000000,-8956.491898,306.438199
548.765350,-148.041188,-8956.491898,306.438199
548.765678,-148.041188,-9252.574275,153.219100
548.766006,-148.041188,-9030.512492,306.438199
548.766333,0.000000,-9030.512492,459.657299
548.766661,222.061783,-9252.574275,459.657299
548.766988,0.000000,-9178.553681,536.266849
548.767316,0.000000,-9252.574275,459.657299
548.767644,74.020594,-9104.533087,689.485948
548.767971,-444.123565,-8882.471304,766.095498
548.768299,-518.144159,-8956.491898,459.657299
548.768626,-296.082377,-9474.636058,689.485948
548.768954,-518.144159,-9178.553681,766.095498
548.769282,0.000000,-8808.450710,689.485948
548.769609,-518.144159,-8956.491898,919.314598
548.769937,-518.144159,-9104.533087,612.876398
548.770264,-666.185348,-8956.491898,459.657299
548.770592,-444.123565,-8956.491898,536.266849
548.770920,-370.102971,-8808.450710,766.095498
548.771247,-444.123565,-9030.512492,842.705048
548.771575,-444.123565,-9474.636058,842.705048
548.771902,-296.082377,-9400.615463,919.314598
548.772230,-222.061783,-9400.615463,995.924147
548.772558,-444.123565,-9400.615463,842.705048
548.772885,-370.102971,-8956.491898,689.485948
548.773213,-222.061783,-9178.553681,766.095498
548.773540,-370.102971,-8882.471304,536.266849
548.773868,-444.123565,-8808.450710,536.266849
548.774196,-518.144159,-9030.512492,536.266849
548.774523,0.000000,-9030.512492,842.705048
548.774851,-370.102971,-8808.450710,306.438199
548.775178,-518.144159,-8956.491898,306.438199
548.775506,-592.164754,-8882.471304,383.047749
548.775834,-444.123565,-9252.574275,612.876398
548.776161,0.000000,-9030.512492,229.828649
548.776489,0.000000,-9252.574275,459.657299
548.776817,0.000000,-9030.512492,459.657299
548.777144,0.000000,-9400.615463,306.438199
548.777472,-296.082377,-9400.615463,459.657299
548.777799,-888.247130,-9474.636058,612.876398
548.778127,-370.102971,-9326.594869,612.876398
548.778455,-296.082377,-8956.491898,306.438199
548.778782,-296.082377,-9030.512492,536.266849
548.779110,-444.123565,-8956.491898,383.047749
548.779437,-296.082377,-8882.471304,536.266849
548.779765,-296.082377,-8660.409521,536.266849
548.780093,-370.102971,-8660.409521,459.657299
548.780420,-518.144159,-8734.430116,459.657299
548.780748,-296.082377,-8956.491898,536.266849
548.781075,-222.061783,-9104.533087,536.266849
548.781403,-222.061783,-8808.450710,689.485948
548.781731,0.000000,-9252.574275,766.095498
548.782058,0.000000,-9400.615463,766.095498
548.782386,-296.082377,-9474.636058,459.657299
548.782713,0.000000,-9474.636058,766.095498
548.783041,74.020594,-9326.594869,766.095498
548.783369,-148.041188,-8956.491898,306.438199
548.783696,-370.102971,-8956.491898,995.924147
548.784024,-296.082377,-9252.574275,536.266849
548.784351,-370.102971,-9252.574275,612.876398
548.784679,-518.144159,-9030.512492,995.924147
548.785007,-148.041188,-9030.512492,153.219100
548.785334,-222.061783,-8808.450710,459.657299
548.785662,0.000000,-8956.491898,229.828649
548.785989,-148.041188,-8808.450710,383.047749
548.786317,0.000000,-8956.491898,536.266849
548.786645,-370.102971,-8956.491898,842.705048
548.786972,0.000000,-9178.553681,842.705048
548.787300,74.020594,-9400.615463,612.876398
548.787628,0.000000,-9326.594869,459.657299
548.787955,0.000000,-9474.636058,766.095498
548.788283,296.082377,-9252.574275,536.266849
548.788610,222.061783,-9622.677246,919.314598
548.788938,0.000000,-9474.636058,612.876398
548.789266,-148.041188,-9252.574275,689.485948
548.789593,-222.061783,-9252.574275,383.047749
548.789921,-296.082377,-9030.512492,1149.143247
548.790248,-296.082377,-8956.491898,612.876398
548.790576,-518.144159,-9400.615463,612.876398
548.790904,-518.144159,-9252.574275,612.876398
548.791231,-370.102971,-9252.574275,612.876398
548.791559,-592.164754,-9252.574275,689.485948
548.791886,0.000000,-9400.615463,612.876398
548.792214,-296.082377,-9326.594869,766.095498
548.792542,-296.082377,-9326.594869,766.095498
548.792869,-518.144159,-9252.574275,536.266849
548.793197,-444.123565,-9400.615463,766.095498
548.793524,-222.061783,-9326.594869,919.314598
548.793852,-518.144159,-9178.553681,995.924147
548.794180,-222.061783,-9252.574275,612.876398
548.794507,-444.123565,-9178.553681,612.876398
548.794835,-296.082377,-9030.512492,459.657299
548.795162,0.000000,-8734.430116,383.047749
548.795490,0.000000,-9252.574275,229.828649
548.795818,-296.082377,-9178.553681,383.047749
548.796145,-370.102971,-8882.471304,383.047749
548.796473,-296.082377,-9178.553681,536.266849
548.796801,74.020594,-9104.533087,919.314598
548.797128,-222.061783,-9178.553681,612.876398
548.797456,74.020594,-9104.533087,229.828649
548.797783,0.000000,-8956.491898,612.876398
548.798111,0.000000,-9104.533087,306.438199
548.798439,0.000000,-9104.533087,383.047749
548.798766,148.041188,-9178.553681,383.047749
548.799094,0.000000,-8956.491898,612.876398
548.799421,-296.082377,-8956.491898,612.876398
548.799749,-370.102971,-8882.471304,459.657299
548.800077,-296.082377,-9030.512492,306.438199
548.800404,-518.144159,-8882.471304,0.000000
548.800732,-74.020594,-8808.450710,459.657299
548.801059,-296.082377,-8512.368333,306.438199
548.801387,-444.123565,-8660.409521,229.828649
548.801715,-296.082377,-8882.471304,459.657299
548.802042,-370.102971,-8438.347739,459.657299
548.802370,-296.082377,-9326.594869,919.314598
548.802697,-518.144159,-9030.512492,766.095498
548.803025,-222.061783,-9104.533087,459.657299
548.803353,-296.082377,-9104.533087,612.876398
548.803680,-370.102971,-8882.471304,919.314598
548.804008,-222.061783,-8882.471304,612.876398
548.804335,-296.082377,-9104.533087,536.266849
548.804663,-370.102971,-9030.512492,689.485948
548.804991,-444.123565,-9104.533087,689.485948
548.805318,-592.164754,-9178.553681,459.657299
548.805646,0.000000,-9104.533087,536.266849
548.805973,-444.123565,-9030.512492,383.047749
548.806301,-222.061783,-8882.471304,536.266849
548.806629,-222.061783,-8956.491898,459.657299
548.806956,-444.123565,-9030.512492,153.219100
548.807284,-148.041188,-9178.553681,1302.362347
548.807612,-148.041188,-9326.594869,383.047749
548.807939,-222.061783,-9178.553681,766.095498
548.808267,-222.061783,-9326.594869,536.266849
548.808594,-222.061783,-9474.636058,612.876398
548.808922,-444.123565,-9474.636058,919.314598
548.809250,0.000000,-9474.636058,459.657299
548.809577,0.000000,-9474.636058,612.876398
548.809905,-222.061783,-9474.636058,689.485948
548.810232,-148.041188,-9696.697840,689.485948
548.810560,0.000000,-9400.615463,689.485948
548.810888,-222.061783,-8882.471304,536.266849
548.811215,-222.061783,-9030.512492,612.876398
548.811543,-222.061783,-9400.615463,689.485948
548.811870,-296.082377,-9400.615463,689.485948
548.812198,-370.102971,-9252.574275,689.485948
548.812526,-222.061783,-9030.512492,383.047749
548.812853,-296.082377,-9252.574275,383.047749
548.813181,-222.061783,-9474.636058,689.485948
548.813508,0.000000,-9104.533087,766.095498
548.813836,0.000000,-9326.594869,689.485948
548.814164,-148.041188,-9030.512492,1072.533697
548.814491,-222.061783,-9252.574275,919.314598
548.814819,-444.123565,-9326.594869,689.485948
548.815146,0.000000,-9104.533087,612.876398
548.815474,-148.041188,-9178.553681,459.657299
548.815802,0.000000,-9252.574275,153.219100
548.816129,-222.061783,-9178.553681,536.266849
548.816457,0.000000,-9030.512492,383.047749
548.816785,-296.082377,-9030.512492,383.047749
548.817112,0.000000,-8956.491898,459.657299
548.817440,-296.082377,-8956.491898,76.609550
548.817767,0.000000,-9104.533087,689.485948
548.818095,0.000000,-9178.553681,306.438199
548.818423,0.000000,-9178.553681,459.657299
548.818750,0.000000,-9252.574275,459.657299
548.819078,0.000000,-9400.615463,459.657299
548.819405,-370.102971,-8882.471304,766.095498
548.819733,-148.041188,-9252.574275,383.047749
548.820061,-222.061783,-9178.553681,536.266849
548.820388,-370.102971,-8956.491898,229.828649
548.820716,-370.102971,-9104.533087,612.876398
548.821043,-444.123565,-8882.471304,995.924147
548.821371,-370.102971,-8882.471304,306.438199
548.821699,-592.164754,-8956.491898,459.657299
548.822026,-444.123565,-8882.471304,612.876398
548.822354,-518.144159,-8882.471304,306.438199
548.822681,0.000000,-8956.491898,766.095498
548.823009,-296.082377,-8586.388927,766.095498
548.823337,-222.061783,-8734.430116,689.485948
548.823664,-296.082377,-9030.512492,612.876398
548.823992,-518.144159,-9030.512492,766.095498
548.824319,-296.082377,-9104.533087,1072.533697
548.824647,0.000000,-9104.533087,919.314598
548.824975,0.000000,-9104.533087,689.485948
548.825302,0.000000,-9400.615463,766.095498
548.825630,-444.123565,-9252.574275,689.485948
548.825957,-370.102971,-9030.512492,689.485948
548.826285,0.000000,-8956.491898,1149.143247
548.826613,0.000000,-8956.491898,229.828649
548.826940,0.000000,-9252.574275,383.047749
548.827268,-296.082377,-9030.512492,612.876398
548.827596,-370.102971,-8808.450710,536.266849
548.827923,-370.102971,-8808.450710,536.266849
548.828251,0.000000,-8956.491898,612.876398
548.828578,0.000000,-9104.533087,536.266849
548.828906,-222.061783,-9104.533087,612.876398
548.829234,0.000000,-9252.574275,459.657299
548.829561,0.000000,-9622.677246,306.438199
548.829889,74.020594,-9104.533087,383.047749
548.830216,-222.061783,-9104.533087,536.266849
548.830544,-296.082377,-9400.615463,612.876398
548.830872,-370.102971,-9400.615463,536.266849
548.831199,-740.205942,-9326.594869,459.657299
548.831527,-518.144159,-8734.430116,612.876398
548.831854,-296.082377,-9178.553681,459.657299
548.832182,0.000000,-9252.574275,383.047749
548.832510,-370.102971,-8882.471304,766.095498
548.832837,-222.061783,-9030.512492,383.047749
548.833165,-222.061783,-8512.368333,1072.533697
548.833492,-148.041188,-8956.491898,612.876398
548.833820,-518.144159,-9252.574275,689.485948
548.834148,-370.102971,-9474.636058,689.485948
548.834475,-518.144159,-9400.615463,919.314598
548.834803,-370.102971,-9548.656652,1225.752797
548.835130,-370.102971,-9104.533087,612.876398
548.835458,-518.144159,-9104.533087,689.485948
548.835786,-370.102971,-9104.533087,612.876398
548.836113,-444.123565,-9178.553681,689.485948
548.836441,-222.061783,-8956.491898,229.828649
548.836769,-148.041188,-8882.471304,766.095498
548.837096,-592.164754,-9030.512492,459.657299
548.837424,-518.144159,-9252.574275,689.485948
548.837751,-518.144159,-9178.553681,536.266849
548.838079,-370.102971,-9030.512492,536.266849
548.838407,0.000000,-9030.512492,153.219100
548.838734,0.000000,-8956.491898,612.876398
548.839062,0.000000,-9104.533087,612.876398
548.839389,0.000000,-9030.512492,459.657299
548.839717,0.000000,-9030.512492,383.047749
548.840045,0.000000,-8808.450710,689.485948
548.840372,0.000000,-9178.553681,459.657299
548.840700,0.000000,-9178.553681,383.047749
548.841027,0.000000,-9104.533087,459.657299
548.841355,-222.061783,-9178.553681,306.438199
548.841683,-148.041188,-8660.409521,536.266849
548.842010,-74.020594,-9030.512492,153.219100
548.842338,-296.082377,-8882.471304,306.438199
548.842665,-370.102971,-8808.450710,383.047749
548.842993,-592.164754,-8956.491898,459.657299
548.843321,-296.082377,-9030.512492,842.705048
548.843648,-370.102971,-8734.430116,766.095498
548.843976,-444.123565,-9104.533087,153.219100
548.844303,-370.102971,-9178.553681,536.266849
548.844631,-666.185348,-9104.533087,459.657299
548.844959,-370.102971,-9252.574275,919.314598
548.845286,74.020594,-9400.615463,842.705048
548.845614,0.000000,-9030.512492,689.485948
548.845942,0.000000,-9178.553681,689.485948
548.846269,0.000000,-9252.574275,689.485948
548.846597,-296.082377,-9252.574275,612.876398
548.846924,-222.061783,-9400.615463,689.485948
548.847252,-370.102971,-8956.491898,612.876398
548.847580,-444.123565,-8956.491898,612.876398
548.847907,-666.185348,-9252.574275,612.876398
548.848235,-518.144159,-9104.533087,536.266849
548.848562,-370.102971,-8882.471304,995.924147
548.848890,-222.061783,-8882.471304,919.314598
548.849218,-444.123565,-9326.594869,536.266849
548.849545,-296.082377,-9326.594869,689.485948
548.849873,-148.041188,-9252.574275,689.485948
548.850201,0.000000,-9104.533087,1149.143247
548.850528,222.061783,-9104.533087,766.095498
548.850856,0.000000,-9400.615463,766.095498
548.851183,0.000000,-9474.636058,536.266849
548.851511,-296.082377,-9326.594869,689.485948
548.851839,-370.102971,-9326.594869,459.657299
548.852166,-444.123565,-9252.574275,766.095498
548.852494,-296.082377,-9252.574275,306.438199
548.852821,0.000000,-9104.533087,459.657299
548.853149,0.000000,-8882.471304,306.438199
548.853477,0.000000,-8882.471304,229.828649
548.853804,0.000000,-8734.430116,689.485948
548.854132,-148.041188,-8734.430116,229.828649
548.854459,-222.061783,-8956.491898,306.438199
548.854787,-370.102971,-8956.491898,612.876398
548.855115,-296.082377,-9030.512492,689.485948
548.855442,0.000000,-9178.553681,689.485948
548.855770,148.041188,-8586.388927,612.876398
548.856098,0.000000,-9030.512492,689.485948
548.856425,-296.082377,-9104.533087,689.485948
548.856753,-370.102971,-9178.553681,536.266849
548.857080,-444.123565,-8956.491898,459.657299
548.857408,-370.102971,-8956.491898,1072.533697
548.857736,-518.144159,-9178.553681,536.266849
548.858063,-518.144159,-9178.553681,536.266849
548.858391,-666.185348,-9104.533087,459.657299
548.858718,-666.185348,-8956.491898,536.266849
548.859046,-814.226536,-8660.409521,459.657299
548.859374,-222.061783,-8586.388927,153.219100
548.859701,-370.102971,-8808.450710,459.657299
548.860029,-444.123565,-8882.471304,383.047749
548.860357,-370.102971,-9030.512492,689.485948
548.860684,-444.123565,-8734.430116,536.266849
548.861012,0.000000,-9474.636058,689.485948
548.861339,-296.082377,-9326.594869,459.657299
548.861667,0.000000,-9104.533087,459.657299
548.861995,-222.061783,-8956.491898,383.047749
548.862322,74.020594,-9030.512492,689.485948
548.862650,0.000000,-8808.450710,306.438199
548.862977,-370.102971,-9326.594869,612.876398
548.863305,-370.102971,-9252.574275,536.266849
548.863633,-296.082377,-9178.553681,536.266849
548.863960,-74.020594,-9400.615463,766.095498
548.864288,148.041188,-8956.491898,842.705048
548.864616,0.000000,-9030.512492,383.047749
548.864943,0.000000,-9178.553681,459.657299
548.865271,0.000000,-9326.594869,612.876398
548.865598,0.000000,-9326.594869,383.047749
548.865926,0.000000,-9326.594869,766.095498
548.866254,0.000000,-9548.656652,229.828649
548.866581,-222.061783,-9622.677246,766.095498
548.866909,-296.082377,-9474.636058,919.314598
548.867236,-296.082377,-9252.574275,689.485948
548.867564,-222.061783,-8956.491898,766.095498
548.867892,-444.123565,-8956.491898,229.828649
548.868219,-444.123565,-9178.553681,536.266849
548.868547,-370.102971,-8882.471304,306.438199
548.868875,-592.164754,-8808.450710,383.047749
548.869202,-592.164754,-8808.450710,306.438199
548.869530,0.000000,-9326.594869,689.485948
548.869857,-592.164754,-8882.471304,383.047749
548.870185,-222.061783,-9030.512492,612.876398
548.870513,-296.082377,-9252.574275,536.266849
548.870840,-222.061783,-9178.553681,306.438199
548.871168,222.061783,-9400.615463,1149.143247
548.871495,74.020594,-9252.574275,536.266849
548.871823,148.041188,-9474.636058,842.705048
548.872151,0.000000,-9474.636058,689.485948
548.872478,-370.102971,-9474.636058,612.876398
548.872806,-444.123565,-9252.574275,919.314598
548.873134,-222.061783,-9252.574275,536.266849
548.873461,-222.061783,-9030.512492,383.047749
548.873789,-370.102971,-8882.471304,612.876398
548.874116,-444.123565,-9178.553681,536.266849
548.874444,0.000000,-8734.430116,383.047749
548.874772,0.000000,-8734.430116,459.657299
548.875099,-370.102971,-8882.471304,536.266849
548.875427,-222.061783,-9030.512492,536.266849
548.875754,-222.061783,-8882.471304,536.266849
548.876082,-222.061783,-8882.471304,612.876398
548.876410,0.000000,-8808.450710,536.266849
548.876737,-370.102971,-8956.491898,459.657299
548.877065,-296.082377,-9104.533087,689.485948
548.877393,0.000000,-9400.615463,536.266849
548.877720,-148.041188,-8956.491898,766.095498
548.878048,-296.082377,-8882.471304,612.876398
548.878375,0.000000,-9178.553681,842.705048
548.878703,-222.061783,-8956.491898,689.485948
548.879031,-370.102971,-9030.512492,766.095498
548.879358,-666.185348,-8956.491898,689.485948
548.879686,-444.123565,-8660.409521,306.438199
548.880013,-370.102971,-8882.471304,689.485948
548.880341,-222.061783,-8882.471304,536.266849
548.880669,-296.082377,-8808.450710,459.657299
548.880996,0.000000,-8882.471304,536.266849
548.881324,0.000000,-8882.471304,995.924147
548.881651,0.000000,-8438.347739,612.876398
548.881979,0.000000,-9178.553681,536.266849
548.882307,0.000000,-9400.615463,459.657299
548.882634,-222.061783,-9400.615463,383.047749
548.882962,-296.082377,-9178.553681,1302.362347
548.883290,-148.041188,-9030.512492,689.485948
548.883617,0.000000,-9326.594869,766.095498
548.883945,-370.102971,-9104.533087,612.876398
548.884272,-370.102971,-9252.574275,306.438199
548.884600,-222.061783,-9030.512492,459.657299
548.884928,0.000000,-8808.450710,-76.609550
548.885255,-370.102971,-9178.553681,0.000000
548.885583,-222.061783,-9104.533087,306.438199
548.885910,-296.082377,-9178.553681,536.266849
548.886238,-444.123565,-9326.594869,383.047749
548.886566,-370.102971,-9178.553681,689.485948
548.886893,-148.041188,-9252.574275,459.657299
548.887221,0.000000,-9178.553681,612.876398
548.887549,74.020594,-9326.594869,536.266849
548.887876,-148.041188,-9400.615463,383.047749
548.888204,-74.020594,-9400.615463,459.657299
548.888531,0.000000,-9400.615463,536.266849
548.888859,-296.082377,-9252.574275,766.095498
548.889187,-592.164754,-9474.636058,459.657299
548.889514,-592.164754,-9252.574275,689.485948
548.889842,-444.123565,-9104.533087,612.876398
548.890169,-222.061783,-8808.450710,689.485948
548.890497,0.000000,-8734.430116,536.266849
548.890825,-370.102971,-8882.471304,306.438199
548.891152,-370.102971,-8882.471304,459.657299
548.891480,-370.102971,-8956.491898,459.657299
548.891808,-296.082377,-8290.306550,612.876398
548.892135,-222.061783,-9252.574275,612.876398
548.892463,0.000000,-9252.574275,766.095498
548.892790,-148.041188,-9400.615463,689.485948
548.893118,0.000000,-9548.656652,612.876398
548.893446,0.000000,-9400.615463,1608.800546
548.893773,0.000000,-8882.471304,459.657299
548.894101,0.000000,-8956.491898,536.266849
548.894428,-296.082377,-9252.574275,229.828649
548.894756,-296.082377,-9252.574275,536.266849
548.895084,0.000000,-9474.636058,766.095498
548.895411,0.000000,-8512.368333,612.876398
548.895739,-222.061783,-8882.471304,689.485948
548.896067,-148.041188,-8956.491898,689.485948
548.896394,-148.041188,-8808.450710,536.266849
548.896722,-222.061783,-8364.327145,459.657299
548.897049,0.000000,-8734.430116,689.485948
548.897377,-444.123565,-9178.553681,689.485948
548.897705,-518.144159,-9252.574275,842.705048
548.898032,-518.144159,-9252.574275,995.924147
548.898360,-444.123565,-9400.615463,1149.143247
548.898687,-666.185348,-8808.450710,919.314598
548.899015,-444.123565,-9252.574275,612.876398
548.899343,-296.082377,-9104.533087,689.485948
548.899670,-370.102971,-9104.533087,766.095498
548.899998,-518.144159,-9104.533087,842.705048
548.900326,-370.102971,-8808.450710,612.876398
548.900653,-666.185348,-9104.533087,459.657299
548.900981,-518.144159,-9030.512492,689.485948
548.901308,-296.082377,-9030.512492,842.705048
548.901636,-296.082377,-9104.533087,383.047749
548.901964,0.000000,-9030.512492,383.047749
548.902291,74.020594,-9030.512492,459.657299
548.902619,0.000000,-9178.553681,306.438199
548.902946,148.041188,-9252.574275,612.876398
548.903274,74.020594,-9474.636058,536.266849
548.903602,0.000000,-9548.656652,612.876398
548.903929,0.000000,-9474.636058,306.438199
548.904257,-370.102971,-9474.636058,306.438199
548.904585,-222.061783,-9474.636058,229.828649
548.904912,-296.082377,-9326.594869,153.219100
548.905240,0.000000,-9104.533087,229.828649
548.905567,0.000000,-8734.430116,153.219100
548.905895,-222.061783,-8882.471304,76.609550
548.906223,-296.082377,-9030.512492,0.000000
548.906550,-148.041188,-8956.491898,0.000000
548.906878,-370.102971,-8808.450710,76.609550
548.907205,148.041188,-8808.450710,459.657299
548.907533,-148.041188,-9030.512492,76.609550
548.907861,-296.082377,-9178.553681,536.266849
548.908188,-222.061783,-9030.512492,766.095498
548.908516,-296.082377,-8882.471304,689.485948
548.908843,-296.082377,-8734.430116,842.705048
548.909171,0.000000,-8660.409521,995.924147
548.909499,-370.102971,-8956.491898,919.314598
548.909826,-370.102971,-8956.491898,919.314598
548.910154,-814.226536,-8808.450710,766.095498
548.910482,-740.205942,-8882.471304,1149.143247
548.910809,-888.247130,-8438.347739,766.095498
548.911137,-666.185348,-8734.430116,689.485948
548.911464,-666.185348,-8734.430116,766.095498
548.911792,-592.164754,-8956.491898,689.485948
548.912120,-444.123565,-8808.450710,612.876398
548.912447,-444.123565,-8438.347739,612.876398
548.912775,-296.082377,-9030.512492,612.876398
548.913102,-296.082377,-8956.491898,689.485948
548.913430,-222.061783,-9400.615463,766.095498
548.913758,0.000000,-8956.491898,612.876398
548.914085,74.020594,-9030.512492,229.828649
548.914413,0.000000,-8956.491898,306.438199
