#time,accel_x,accel_y,accel_z
569.211066,0.000000,-9104.533087,689.485948
569.211394,-296.082377,-9178.553681,459.657299
569.211722,0.000000,-9104.533087,536.266849
569.212049,0.000000,-9104.533087,766.095498
569.212377,0.000000,-9030.512492,612.876398
569.212704,-518.144159,-9178.553681,383.047749
569.213032,-222.061783,-9178.553681,459.657299
569.213359,-222.061783,-9104.533087,536.266849
569.213687,-222.061783,-8882.471304,306.438199
569.214015,-148.041188,-8808.450710,536.266849
569.214342,-222.061783,-9400.615463,612.876398
569.214670,-148.041188,-8882.471304,536.266849
569.214997,-370.102971,-9178.553681,612.876398
569.215325,-444.123565,-9252.574275,459.657299
569.215652,0.000000,-8808.450710,612.876398
569.215980,-222.061783,-9178.553681,919.314598
569.216308,-296.082377,-9030.512492,459.657299
569.216635,-370.102971,-9030.512492,536.266849
569.216963,-444.123565,-9104.533087,536.266849
569.217290,-222.061783,-8956.491898,612.876398
569.217618,-296.082377,-8808.450710,766.095498
569.217945,-148.041188,-9030.512492,766.095498
569.218273,-222.061783,-9326.594869,536.266849
569.218601,-370.102971,-9030.512492,689.485948
569.218928,-444.123565,-9030.512492,76.609550
569.219256,-222.061783,-9104.533087,1072.533697
569.219583,-222.061783,-9104.533087,689.485948
569.219911,-370.102971,-9104.533087,459.657299
569.220238,-296.082377,-9326.594869,689.485948
569.220566,-222.061783,-9104.533087,1378.971896
569.220894,74.020594,-9104.533087,536.266849
569.221221,-370.102971,-9104.533087,383.047749
569.221549,-518.144159,-9104.533087,383.047749
569.221876,-222.061783,-9252.574275,459.657299
569.222204,-296.082377,-9400.615463,459.657299
569.222531,-666.185348,-9252.574275,76.609550
569.222859,-1258.350101,-9178.553681,0.000000
569.223187,-1554.432478,-9400.615463,-306.438199
569.223514,-1110.308913,-9178.553681,-383.047749
569.223842,-740.205942,-8956.491898,-689.485948
569.224169,-592.164754,-8734.430116,0.000000
569.224497,-370.102971,-9400.615463,-383.047749
569.224824,-1110.308913,-9400.615463,-842.705048
569.225152,-1406.391290,-9178.553681,-1149.143247
569.225480,-1184.329507,-8956.491898,-1149.143247
569.225807,-814.226536,-8512.368333,-1302.362347
569.226135,-518.144159,-9252.574275,-1378.971896
569.226462,-592.164754,-9178.553681,-1378.971896
569.226790,-148.041188,-9104.533087,-1378.971896
569.227117,0.000000,-8956.491898,-1532.190996
569.227445,-222.061783,-9030.512492,-1532.190996
569.227773,370.102971,-9252.574275,-1838.629195
569.228100,0.000000,-9474.636058,-1532.190996
569.228428,296.082377,-9400.615463,-1685.410096
569.228755,296.082377,-9326.594869,-1838.629195
569.229083,444.123565,-9326.594869,-1762.019645
569.229410,814.226536,-9252.574275,-1302.362347
569.229738,444.123565,-9104.533087,-1608.800546
569.230066,592.164754,-9252.574275,-1685.410096
569.230393,370.102971,-9400.615463,-1608.800546
569.230721,0.000000,-9252.574275,-1532.190996
569.231048,222.061783,-9252.574275,-1838.629195
569.231376,222.061783,-9474.636058,-2145.067394
569.231703,74.020594,-9252.574275,-1685.410096
569.232031,-148.041188,-9252.574275,-1762.019645
569.232359,-518.144159,-9252.574275,-1762.019645
569.232686,-814.226536,-8660.409521,-1838.629195
569.233014,-740.205942,-9400.615463,-2221.676944
569.233341,-1628.453072,-9326.594869,-2145.067394
569.233669,-1998.556043,-9030.512492,-2451.505594
569.233996,-1998.556043,-9104.533087,-2681.334243
569.234324,-1924.535449,-9030.512492,-3140.991542
569.234652,-1776.494261,-8956.491898,-3140.991542
569.234979,-2294.638420,-8882.471304,-3370.820191
569.235307,-1998.556043,-8956.491898,-3524.039291
569.235634,-2072.576638,-8808.450710,-3907.087040
569.235962,-2072.576638,-8882.471304,-4290.134789
569.236289,-2220.617826,-8142.265362,-3983.696590
569.236617,-1332.370696,-8660.409521,-4060.306139
569.236944,-518.144159,-8734.430116,-3983.696590
569.237272,296.082377,-9030.512492,-3447.429741
569.237600,1258.350101,-9104.533087,-3140.991542
569.237927,1554.432478,-8512.368333,-2221.676944
569.238255,2590.720797,-8512.368333,-2681.334243
569.238582,2442.679609,-9178.553681,-2145.067394
569.238910,2220.617826,-9474.636058,-2145.067394
569.239237,1776.494261,-10140.821405,-2068.457845
569.239565,1110.308913,-10140.821405,-2451.505594
569.239893,-370.102971,-10288.862594,-3524.039291
569.240220,-1406.391290,-10584.944971,-4136.915689
569.240548,-1702.473667,-10214.842000,-4443.353888
569.240875,-1850.514855,-9770.718434,-4979.620737
569.241203,-1110.308913,-8808.450710,-4903.011187
569.241530,814.226536,-7624.121203,-4213.525239
569.241858,1998.556043,-7105.977043,-3753.867940
569.242186,3034.844362,-7105.977043,-3140.991542
569.242513,3182.885551,-7476.080014,-2374.896044
569.242841,1776.494261,-8512.368333,-1838.629195
569.243168,74.020594,-9474.636058,-1838.629195
569.243496,-2516.700203,-9992.780217,-2068.457845
569.243823,-4071.132681,-10807.006753,-2451.505594
569.244151,-4145.153275,-11029.068536,-2757.943793
569.244479,-3330.926739,-10436.903782,-2757.943793
569.244806,-1258.350101,-8956.491898,-2451.505594
569.245134,1702.473667,-7402.059420,-1608.800546
569.245461,5847.626942,-5921.647536,153.219100
569.245789,9770.718434,-4959.379811,2221.676944
569.246116,11621.233289,-5329.482782,4136.915689
569.246444,9326.594869,-7254.018232,4673.182538
569.246772,3330.926739,-11103.089130,4366.744339
569.247099,-3849.070898,-13841.851115,2221.676944
569.247427,-9622.677246,-15100.201217,0.000000
569.247754,-11991.336260,-14878.139434,-766.095498
569.248082,-10510.924376,-13101.645173,-2145.067394
569.248409,-9030.512492,-11695.253884,-1838.629195
569.248737,-2072.576638,-8068.244768,-1915.238745
569.249065,-2368.659014,-5551.544565,-842.705048
569.249392,-444.123565,-3923.091493,-2911.162892
569.249720,-3552.988522,-5477.523971,-4903.011187
569.250047,-9030.512492,-6883.915261,-7201.297681
569.250375,-12509.480420,-8660.409521,-9959.241474
569.250702,-14804.118840,-8586.388927,-10725.336972
569.251030,-12213.398043,-8142.265362,-10112.460574
569.251358,-7105.977043,-7846.182985,-7660.954980
569.251685,0.000000,-6217.729913,-6281.983084
569.252013,2812.782580,-6883.915261,-4903.011187
569.252340,6069.688724,-8290.306550,-4213.525239
569.252668,3478.967927,-9622.677246,-6205.373534
569.252995,2368.659014,-10881.027347,-6435.202183
569.253323,3997.112087,-10807.006753,-6741.640382
569.253651,7105.977043,-10955.047942,-5209.449386
569.253978,11177.109724,-10362.883188,-3524.039291
569.254306,12731.542202,-9696.697840,-2528.115143
569.254633,13323.706956,-10214.842000,-1225.752797
569.254961,13249.686362,-9992.780217,-1455.581446
569.255288,13175.665768,-9474.636058,-2374.896044
569.255616,13101.645173,-9622.677246,-3064.381992
569.255944,10584.944971,-11843.295072,-1532.190996
569.256271,6587.832884,-12509.480420,-3600.648841
569.256599,-2516.700203,-15840.407159,-5362.668486
569.256926,-9918.759623,-14952.160028,-7737.564530
569.257254,-9400.615463,-10510.924376,-8273.831378
569.257581,-4441.235652,-5847.626942,-6971.469032
569.257909,1258.350101,-2886.803174,-4136.915689
569.258237,5107.421000,-1628.453072,-1991.848295
569.258564,3404.947333,-2294.638420,-383.047749
569.258892,222.061783,-3701.029710,0.000000
569.259219,-3775.050304,-4589.276840,-1685.410096
569.259547,-6883.915261,-7328.038826,-1225.752797
569.259874,-6365.771101,-8290.306550,-1072.533697
569.260202,-7550.100608,-9252.574275,612.876398
569.260530,-6069.688724,-9548.656652,2374.896044
569.260857,-3997.112087,-9104.533087,4903.011187
569.261185,-2442.679609,-7920.203579,4903.011187
569.261512,-1332.370696,-7846.182985,3140.991542
569.261840,-3330.926739,-10214.842000,995.924147
569.262167,-5329.482782,-12139.377449,-612.876398
569.262495,-7698.141797,-10732.986159,-1991.848295
569.262823,-4959.379811,-9104.533087,-1378.971896
569.263150,-1110.308913,-8586.388927,-306.438199
569.263478,666.185348,-8068.244768,689.485948
569.263805,370.102971,-9252.574275,1149.143247
569.264133,-2220.617826,-9474.636058,536.266849
569.264460,-4589.276840,-8956.491898,-229.828649
569.264788,-3775.050304,-10140.821405,-153.219100
569.265116,-3478.967927,-11103.089130,-1302.362347
569.265443,-2960.823768,-12139.377449,-1915.238745
569.265771,-2368.659014,-11991.336260,-1072.533697
569.266098,-1776.494261,-8734.430116,-1915.238745
569.266426,-1924.535449,-6883.915261,-1455.581446
569.266753,2072.576638,-5921.647536,-2681.334243
569.267081,1776.494261,-6735.874072,-3983.696590
569.267408,4293.194464,-8142.265362,-4136.915689
569.267736,5181.441594,-7402.059420,-4443.353888
569.268064,5181.441594,-7994.224174,-4060.306139
569.268391,5033.400406,-10807.006753,-3753.867940
569.268719,4071.132681,-13249.686362,-3140.991542
569.269047,2886.803174,-14434.015869,-4519.963438
569.269374,3330.926739,-14211.954086,-2987.772442
569.269702,1924.535449,-12583.501014,-3907.087040
569.270029,740.205942,-11991.336260,-3983.696590
569.270357,1480.411884,-11843.295072,-2987.772442
569.270685,2442.679609,-10584.944971,-3370.820191
569.271012,1998.556043,-8956.491898,-3140.991542
569.271340,1184.329507,-8660.409521,-3524.039291
569.271668,-814.226536,-8364.327145,-4673.182538
569.271995,-1628.453072,-8290.306550,-5056.230287
569.272323,-2442.679609,-7031.956449,-5592.497135
569.272650,-1776.494261,-6661.853478,-5592.497135
569.272978,-1332.370696,-5847.626942,-4749.792088
569.273306,518.144159,-4737.318029,-3140.991542
569.273633,592.164754,-5033.400406,-1991.848295
569.273961,370.102971,-7254.018232,-1455.581446
569.274289,-1036.288319,-8734.430116,-1915.238745
569.274616,-1628.453072,-9252.574275,-2145.067394
569.274944,-2812.782580,-9770.718434,-2221.676944
569.275271,-3552.988522,-10436.903782,-1991.848295
569.275599,-2738.761985,-9030.512492,-1762.019645
569.275927,-296.082377,-8068.244768,-689.485948
569.276254,1702.473667,-7550.100608,-459.657299
569.276582,1110.308913,-7994.224174,-766.095498
569.276910,0.000000,-9030.512492,-689.485948
569.277237,-444.123565,-8956.491898,-1455.581446
569.277565,-888.247130,-9770.718434,-1455.581446
569.277892,-444.123565,-10140.821405,-1455.581446
569.278220,740.205942,-9178.553681,-842.705048
569.278548,2886.803174,-6439.791695,153.219100
569.278875,4293.194464,-6587.832884,1608.800546
569.279203,3552.988522,-8068.244768,2604.724693
569.279531,814.226536,-7772.162391,1532.190996
569.279858,-666.185348,-8956.491898,1149.143247
569.280186,-2368.659014,-9400.615463,842.705048
569.280513,-4293.194464,-9622.677246,229.828649
569.280841,-3034.844362,-9030.512492,766.095498
569.281169,-222.061783,-7994.224174,1302.362347
569.281496,74.020594,-8364.327145,612.876398
569.281824,-962.267725,-8438.347739,229.828649
569.282152,-1776.494261,-8142.265362,-1072.533697
569.282479,-3849.070898,-8660.409521,-1838.629195
569.282807,-4293.194464,-9770.718434,-1685.410096
569.283134,-4589.276840,-10288.862594,-2298.286494
569.283462,-2072.576638,-10066.800811,-995.924147
569.283790,1036.288319,-10510.924376,1149.143247
569.284117,888.247130,-10140.821405,1455.581446
569.284445,888.247130,-10436.903782,1532.190996
569.284773,-666.185348,-10732.986159,1072.533697
569.285100,-1184.329507,-10881.027347,1302.362347
569.285428,-1776.494261,-10510.924376,1149.143247
569.285755,0.000000,-9400.615463,1455.581446
569.286083,888.247130,-8956.491898,1838.629195
569.286411,2146.597232,-10140.821405,3294.210641
569.286738,740.205942,-9400.615463,1991.848295
569.287066,370.102971,-9030.512492,1455.581446
569.287394,1036.288319,-8734.430116,842.705048
569.287721,814.226536,-9178.553681,689.485948
569.288049,1924.535449,-9104.533087,995.924147
569.288376,2590.720797,-8512.368333,1532.190996
569.288704,2738.761985,-9918.759623,1915.238745
569.289032,666.185348,-11843.295072,1838.629195
569.289359,-2294.638420,-11769.274478,1225.752797
569.289687,-3552.988522,-11399.171507,612.876398
569.290015,-3775.050304,-11399.171507,0.000000
569.290342,-3923.091493,-10881.027347,-919.314598
569.290670,-3478.967927,-9622.677246,-842.705048
569.290997,-1998.556043,-8882.471304,-842.705048
569.291325,-2590.720797,-8734.430116,-995.924147
569.291653,-2516.700203,-7920.203579,-1762.019645
569.291980,-2590.720797,-7402.059420,-2681.334243
569.292308,-2368.659014,-7772.162391,-2757.943793
569.292636,-1998.556043,-7994.224174,-2911.162892
569.292963,-740.205942,-7105.977043,-2145.067394
569.293291,1036.288319,-6439.791695,-1685.410096
569.293618,2294.638420,-7476.080014,-306.438199
569.293946,2812.782580,-8068.244768,76.609550
569.294274,2664.741391,-7846.182985,229.828649
569.294601,3256.906145,-9252.574275,995.924147
569.294929,3701.029710,-9548.656652,1072.533697
569.295256,3923.091493,-9474.636058,1915.238745
569.295584,3478.967927,-9992.780217,2068.457845
569.295912,3552.988522,-10510.924376,2681.334243
569.296239,2368.659014,-10436.903782,2451.505594
569.296567,1110.308913,-9622.677246,1532.190996
569.296895,1184.329507,-9178.553681,1762.019645
569.297222,2294.638420,-9030.512492,1532.190996
569.297550,1702.473667,-8438.347739,1455.581446
569.297877,1998.556043,-7772.162391,1532.190996
569.298205,740.205942,-7846.182985,1838.629195
569.298533,-1332.370696,-8290.306550,1991.848295
569.298860,-4219.173869,-8364.327145,689.485948
569.299188,-5625.565159,-8512.368333,766.095498
569.299516,-5995.668130,-8512.368333,383.047749
569.299843,-5403.503377,-8068.244768,689.485948
569.300171,-4885.359217,-6809.894666,1302.362347
569.300498,-4071.132681,-6069.688724,1072.533697
569.300826,-3997.112087,-6809.894666,919.314598
569.301154,-3997.112087,-6513.812290,383.047749
569.301481,-3997.112087,-6587.832884,-459.657299
569.301809,-2738.761985,-7698.141797,-153.219100
569.302137,-1110.308913,-8438.347739,383.047749
569.302464,148.041188,-8734.430116,919.314598
569.302792,962.267725,-8808.450710,1302.362347
569.303119,1258.350101,-10584.944971,1991.848295
569.303447,222.061783,-11695.253884,1378.971896
569.303775,-444.123565,-10881.027347,766.095498
569.304102,-222.061783,-11917.315666,459.657299
569.304430,1184.329507,-11843.295072,536.266849
569.304758,2368.659014,-10955.047942,689.485948
569.305085,3849.070898,-10732.986159,1302.362347
569.305413,4367.215058,-10140.821405,1762.019645
569.305740,3256.906145,-10140.821405,1762.019645
569.306068,1776.494261,-10066.800811,229.828649
569.306396,-666.185348,-10658.965565,0.000000
569.306723,444.123565,-10955.047942,-153.219100
569.307051,1184.329507,-9844.739029,306.438199
569.307379,2220.617826,-8586.388927,383.047749
569.307706,2886.803174,-9548.656652,1149.143247
569.308034,1480.411884,-10362.883188,1225.752797
569.308361,-1110.308913,-10584.944971,0.000000
569.308689,-1924.535449,-9696.697840,-919.314598
569.309017,-2368.659014,-10584.944971,-1378.971896
569.309344,-2442.679609,-11103.089130,-919.314598
569.309672,-1998.556043,-9918.759623,-766.095498
569.310000,-1036.288319,-9104.533087,-306.438199
569.310327,-296.082377,-9474.636058,229.828649
569.310655,-1036.288319,-8882.471304,0.000000
569.310982,-2220.617826,-8734.430116,-766.095498
569.311310,-1998.556043,-9696.697840,-1072.533697
569.311638,-1702.473667,-9548.656652,-766.095498
569.311965,-740.205942,-8660.409521,0.000000
569.312293,148.041188,-8586.388927,536.266849
569.312621,222.061783,-9474.636058,1915.238745
569.312948,-1036.288319,-9474.636058,1915.238745
569.313276,-1850.514855,-9252.574275,1225.752797
569.313603,-2220.617826,-8512.368333,383.047749
569.313931,-1036.288319,-8290.306550,153.219100
569.314259,74.020594,-8068.244768,383.047749
569.314586,1850.514855,-6809.894666,919.314598
569.314914,3330.926739,-7031.956449,2221.676944
569.315242,2590.720797,-7476.080014,2451.505594
569.315569,370.102971,-7994.224174,2145.067394
569.315897,-222.061783,-9178.553681,1608.800546
569.316224,370.102971,-8660.409521,1072.533697
569.316552,370.102971,-8956.491898,2068.457845
569.316880,1850.514855,-8512.368333,1838.629195
569.317207,1998.556043,-9252.574275,2987.772442
569.317535,-222.061783,-9474.636058,2834.553343
569.317863,-1110.308913,-9178.553681,2451.505594
569.318190,-3330.926739,-8512.368333,229.828649
569.318518,-2960.823768,-9104.533087,0.000000
569.318845,-2960.823768,-8364.327145,-459.657299
569.319173,-1998.556043,-6735.874072,-689.485948
569.319501,-1332.370696,-6217.729913,-383.047749
569.319828,-814.226536,-6439.791695,0.000000
569.320156,-1554.432478,-6513.812290,0.000000
569.320484,-2220.617826,-5921.647536,-919.314598
569.320811,-1850.514855,-7328.038826,-306.438199
569.321139,-1924.535449,-8068.244768,-1072.533697
569.321466,-444.123565,-8512.368333,306.438199
569.321794,0.000000,-8586.388927,995.924147
569.322122,0.000000,-9918.759623,1685.410096
569.322449,-1332.370696,-11177.109724,1915.238745
569.322777,-2220.617826,-10510.924376,919.314598
569.323105,-2072.576638,-10584.944971,-306.438199
569.323432,-518.144159,-10436.903782,-689.485948
569.323760,1406.391290,-9548.656652,-689.485948
569.324087,3034.844362,-8882.471304,0.000000
569.324415,4293.194464,-8956.491898,306.438199
569.324743,3404.947333,-9844.739029,1072.533697
569.325070,2072.576638,-9918.759623,995.924147
569.325398,1036.288319,-10066.800811,0.000000
569.325725,1184.329507,-11251.130318,689.485948
569.326053,2812.782580,-10436.903782,1302.362347
569.326381,2072.576638,-10955.047942,2145.067394
569.326708,1110.308913,-11695.253884,2681.334243
569.327036,-296.082377,-12731.542202,2681.334243
569.327364,-2886.803174,-11843.295072,1608.800546
569.327691,-3627.009116,-11103.089130,76.609550
569.328019,-3997.112087,-10881.027347,-459.657299
569.328346,-2738.761985,-9622.677246,-1378.971896
569.328674,-1628.453072,-7920.203579,-1608.800546
569.329002,0.000000,-6883.915261,-1532.190996
569.329329,518.144159,-7105.977043,-766.095498
569.329657,0.000000,-7402.059420,-612.876398
569.329985,-1036.288319,-7179.997637,-1378.971896
569.330312,-740.205942,-8586.388927,-1072.533697
569.330640,-518.144159,-9474.636058,0.000000
569.330967,518.144159,-9918.759623,1378.971896
569.331295,666.185348,-9622.677246,1762.019645
569.331623,1480.411884,-10881.027347,3830.477490
569.331950,-1110.308913,-11621.233289,3830.477490
569.332278,-2664.741391,-11029.068536,2604.724693
569.332606,-3404.947333,-10436.903782,919.314598
569.332933,-1924.535449,-9622.677246,306.438199
569.333261,-518.144159,-8068.244768,229.828649
569.333588,1184.329507,-6143.709319,0.000000
569.333916,2590.720797,-5921.647536,842.705048
569.334244,1258.350101,-5921.647536,536.266849
569.334571,148.041188,-6069.688724,689.485948
569.334899,-148.041188,-5625.565159,0.000000
569.335227,-444.123565,-7179.997637,0.000000
569.335554,666.185348,-7402.059420,689.485948
569.335882,518.144159,-7550.100608,1302.362347
569.336209,518.144159,-8586.388927,2604.724693
569.336537,-962.267725,-9992.780217,3217.601092
569.336865,-2368.659014,-9918.759623,2681.334243
569.337192,-4293.194464,-9400.615463,1072.533697
569.337520,-4145.153275,-9992.780217,0.000000
569.337848,-3330.926739,-8808.450710,-766.095498
569.338175,-2294.638420,-7254.018232,-1302.362347
569.338503,-296.082377,-7105.977043,-995.924147
569.338830,148.041188,-6883.915261,-459.657299
569.339158,74.020594,-7402.059420,-689.485948
569.339486,-444.123565,-7179.997637,-1532.190996
569.339813,666.185348,-7624.121203,-1608.800546
569.340141,740.205942,-9400.615463,-612.876398
569.340469,1998.556043,-9992.780217,0.000000
569.340796,2368.659014,-10066.800811,1149.143247
569.341124,2368.659014,-11399.171507,2451.505594
569.341451,518.144159,-12805.562797,2604.724693
569.341779,-1110.308913,-12509.480420,2298.286494
569.342107,-2294.638420,-12213.398043,612.876398
569.342434,-1406.391290,-12213.398043,153.219100
569.342762,0.000000,-11029.068536,0.000000
569.343090,1110.308913,-9548.656652,-612.876398
569.343417,2368.659014,-9474.636058,-76.609550
569.343745,2368.659014,-9252.574275,0.000000
569.344072,1332.370696,-9030.512492,-689.485948
569.344400,518.144159,-8586.388927,-1225.752797
569.344728,666.185348,-9844.739029,-1072.533697
569.345055,1628.453072,-9696.697840,459.657299
569.345383,2220.617826,-9400.615463,459.657299
569.345711,2368.659014,-9474.636058,1838.629195
569.346038,1480.411884,-10881.027347,2834.553343
569.346366,-962.267725,-11769.274478,2834.553343
569.346693,-3701.029710,-10214.842000,1532.190996
569.347021,-4219.173869,-10955.047942,612.876398
569.347349,-3627.009116,-10362.883188,0.000000
569.347676,-2368.659014,-9030.512492,-229.828649
569.348004,-1480.411884,-7772.162391,0.000000
569.348332,-740.205942,-7624.121203,536.266849
569.348659,-1036.288319,-7476.080014,383.047749
569.348987,-1776.494261,-6809.894666,-612.876398
569.349314,-1258.350101,-7105.977043,-1072.533697
569.349642,0.000000,-7624.121203,-383.047749
569.349970,666.185348,-7624.121203,306.438199
569.350297,1036.288319,-8142.265362,1072.533697
569.350625,1184.329507,-9548.656652,2987.772442
569.350953,0.000000,-10658.965565,3677.258390
569.351280,-1702.473667,-10140.821405,3064.381992
569.351608,-2738.761985,-10066.800811,1991.848295
569.351935,-1776.494261,-10510.924376,1149.143247
569.352263,-1332.370696,-9104.533087,1378.971896
569.352591,0.000000,-7254.018232,612.876398
569.352918,814.226536,-6957.935855,995.924147
569.353246,1036.288319,-7476.080014,919.314598
569.353573,740.205942,-6809.894666,0.000000
569.353901,74.020594,-6291.750507,-306.438199
569.354229,1184.329507,-7105.977043,-229.828649
569.354556,2072.576638,-7846.182985,0.000000
569.354884,2812.782580,-7402.059420,919.314598
569.355212,2812.782580,-8956.491898,2374.896044
569.355539,1332.370696,-10214.842000,3677.258390
569.355867,-1110.308913,-10955.047942,2834.553343
569.356194,-3552.988522,-10732.986159,1991.848295
569.356522,-4145.153275,-11547.212695,1072.533697
569.356850,-3627.009116,-11325.150913,459.657299
569.357177,-2072.576638,-9326.594869,0.000000
569.357505,-962.267725,-7772.162391,-383.047749
569.357833,-222.061783,-7920.203579,0.000000
569.358160,-814.226536,-7254.018232,-689.485948
569.358488,-1628.453072,-6957.935855,-1991.848295
569.358815,-1258.350101,-7254.018232,-1762.019645
569.359143,0.000000,-8142.265362,-1991.848295
569.359471,888.247130,-8660.409521,-1072.533697
569.359798,1702.473667,-8882.471304,0.000000
569.360126,1628.453072,-10288.862594,1149.143247
569.360454,1036.288319,-10955.047942,2298.286494
569.360781,-888.247130,-10881.027347,1762.019645
569.361109,-2072.576638,-10658.965565,229.828649
569.361436,-1628.453072,-11621.233289,0.000000
569.361764,-1554.432478,-10510.924376,-612.876398
569.362092,-148.041188,-9030.512492,-612.876398
569.362419,1258.350101,-8364.327145,-153.219100
569.362747,814.226536,-8586.388927,-842.705048
569.363075,222.061783,-7846.182985,-1225.752797
569.363402,0.000000,-7772.162391,-2068.457845
569.363730,1258.350101,-8290.306550,-2145.067394
569.364057,1776.494261,-8882.471304,-689.485948
569.364385,3108.864956,-8956.491898,-766.095498
569.364713,3997.112087,-9474.636058,1149.143247
569.365040,3478.967927,-11251.130318,2834.553343
569.365368,1628.453072,-11547.212695,3370.820191
569.365696,-1554.432478,-10807.006753,2681.334243
569.366023,-2368.659014,-12065.356855,1991.848295
569.366351,-2738.761985,-11399.171507,1149.143247
569.366678,-2294.638420,-9400.615463,766.095498
569.367006,-1628.453072,-7846.182985,229.828649
569.367334,0.000000,-8364.327145,689.485948
569.367661,-666.185348,-7550.100608,689.485948
569.367989,-1480.411884,-6439.791695,0.000000
569.368317,-814.226536,-6069.688724,-689.485948
569.368644,0.000000,-6439.791695,-536.266849
569.368972,1036.288319,-7402.059420,536.266849
569.369299,1628.453072,-7105.977043,1838.629195
569.369627,1702.473667,-8956.491898,3217.601092
569.369954,296.082377,-10140.821405,4443.353888
569.370282,-1998.556043,-10584.944971,3677.258390
569.370610,-4367.215058,-11547.212695,3140.991542
569.370937,-4515.256246,-11769.274478,2834.553343
569.371265,-4441.235652,-10584.944971,1608.800546
569.371592,-2960.823768,-8734.430116,1072.533697
569.371920,-1776.494261,-7772.162391,842.705048
569.372247,-1702.473667,-8142.265362,689.485948
569.372575,-2294.638420,-7254.018232,0.000000
569.372903,-1850.514855,-6365.771101,-1762.019645
569.373230,-1258.350101,-6587.832884,-2068.457845
569.373558,1036.288319,-7031.956449,-1455.581446
569.373885,2146.597232,-7402.059420,-612.876398
569.374213,3108.864956,-7920.203579,689.485948
569.374540,2664.741391,-9844.739029,1838.629195
569.374868,1258.350101,-10881.027347,2451.505594
569.375196,-592.164754,-11029.068536,1991.848295
569.375523,-1036.288319,-11843.295072,1302.362347
569.375851,-666.185348,-11991.336260,1149.143247
569.376178,0.000000,-10732.986159,995.924147
569.376506,1332.370696,-9178.553681,536.266849
569.376833,1924.535449,-9178.553681,536.266849
569.377161,1406.391290,-8956.491898,0.000000
569.377488,74.020594,-8586.388927,-1225.752797
569.377816,740.205942,-7920.203579,-2145.067394
569.378144,1480.411884,-8068.244768,-2604.724693
569.378471,2664.741391,-7994.224174,-1762.019645
569.378799,3404.947333,-7772.162391,-995.924147
569.379126,3849.070898,-9400.615463,612.876398
569.379454,1480.411884,-11325.150913,1915.238745
569.379781,148.041188,-11473.192101,2298.286494
569.380109,-2886.803174,-11843.295072,1225.752797
569.380437,-3627.009116,-12879.583391,1072.533697
569.380764,-3997.112087,-12361.439231,689.485948
569.381092,-2516.700203,-10140.821405,919.314598
569.381419,-962.267725,-8216.285956,612.876398
569.381747,-1110.308913,-8660.409521,1302.362347
569.382074,-1924.535449,-7550.100608,0.000000
569.382402,-3256.906145,-6735.874072,-919.314598
569.382729,-1850.514855,-5995.668130,-2145.067394
569.383057,-740.205942,-6513.812290,-1378.971896
569.383385,1332.370696,-6143.709319,-1608.800546
569.383712,2220.617826,-6291.750507,0.000000
569.384040,2886.803174,-8142.265362,1685.410096
569.384367,888.247130,-9474.636058,2451.505594
569.384695,-1924.535449,-9992.780217,2451.505594
569.385022,-2590.720797,-11473.192101,2068.457845
569.385350,-3256.906145,-12139.377449,1532.190996
569.385678,-2146.597232,-10807.006753,1532.190996
569.386005,-962.267725,-8956.491898,995.924147
569.386333,814.226536,-8586.388927,1378.971896
569.386660,148.041188,-8290.306550,1072.533697
569.386988,74.020594,-7402.059420,306.438199
569.387315,-962.267725,-6439.791695,-1225.752797
569.387643,1258.350101,-7105.977043,-612.876398
569.387970,2294.638420,-6957.935855,-536.266849
569.388298,3849.070898,-6735.874072,536.266849
569.388626,4515.256246,-7994.224174,2221.676944
569.388953,2960.823768,-9844.739029,2987.772442
569.389281,814.226536,-10732.986159,3217.601092
569.389608,-2072.576638,-11103.089130,2451.505594
569.389936,-2294.638420,-11843.295072,1991.848295
569.390263,-2072.576638,-11843.295072,1762.019645
569.390591,-1628.453072,-10140.821405,1302.362347
569.390919,-1184.329507,-8882.471304,1378.971896
569.391246,-592.164754,-8586.388927,1532.190996
569.391574,-1258.350101,-7476.080014,842.705048
569.391901,-2442.679609,-6439.791695,-842.705048
569.392229,-2368.659014,-7328.038826,-1685.410096
569.392556,-1554.432478,-7476.080014,-1838.629195
569.392884,0.000000,-7105.977043,-1225.752797
569.393212,814.226536,-7550.100608,-229.828649
569.393539,1702.473667,-9918.759623,1378.971896
569.393867,-666.185348,-11177.109724,2604.724693
569.394194,-2812.782580,-11103.089130,2068.457845
569.394522,-3701.029710,-11769.274478,1149.143247
569.394849,-3182.885551,-12509.480420,1225.752797
569.395177,-2146.597232,-10584.944971,995.924147
569.395504,-666.185348,-9770.718434,1149.143247
569.395832,222.061783,-9474.636058,1072.533697
569.396160,74.020594,-9474.636058,919.314598
569.396487,-592.164754,-8364.327145,0.000000
569.396815,-888.247130,-7624.121203,-766.095498
569.397142,296.082377,-8586.388927,-1915.238745
569.397470,1184.329507,-8142.265362,-2145.067394
569.397797,2960.823768,-7772.162391,-919.314598
569.398125,3775.050304,-8586.388927,153.219100
569.398453,2812.782580,-10807.006753,1991.848295
569.398780,888.247130,-10955.047942,995.924147
569.399108,-1924.535449,-11399.171507,842.705048
569.399435,-1850.514855,-11991.336260,995.924147
569.399763,-1258.350101,-11325.150913,536.266849
569.400090,0.000000,-9844.739029,459.657299
569.400418,592.164754,-9030.512492,383.047749
569.400745,814.226536,-9326.594869,1072.533697
569.401073,0.000000,-8364.327145,459.657299
569.401401,-962.267725,-7031.956449,-612.876398
569.401728,-370.102971,-7476.080014,-1149.143247
569.402056,962.267725,-7920.203579,-919.314598
569.402383,1628.453072,-8068.244768,-919.314598
569.402711,1998.556043,-7772.162391,76.609550
569.403038,2072.576638,-8586.388927,1225.752797
569.403366,592.164754,-9696.697840,2221.676944
569.403694,-1258.350101,-10066.800811,2068.457845
569.404021,-2516.700203,-10214.842000,995.924147
569.404349,-2146.597232,-10584.944971,1302.362347
569.404676,-1258.350101,-8956.491898,995.924147
569.405004,0.000000,-7550.100608,1225.752797
569.405331,592.164754,-7624.121203,1915.238745
569.405659,-370.102971,-7994.224174,1915.238745
569.405986,-1924.535449,-7624.121203,1149.143247
569.406314,-2812.782580,-6883.915261,153.219100
569.406642,-2146.597232,-7846.182985,0.000000
569.406969,-1480.411884,-7772.162391,-306.438199
569.407297,444.123565,-7105.977043,229.828649
569.407624,1258.350101,-7105.977043,1149.143247
569.407952,888.247130,-7920.203579,2298.286494
569.408279,-814.226536,-9030.512492,1838.629195
569.408607,-2738.761985,-8956.491898,689.485948
569.408935,-2590.720797,-9252.574275,1225.752797
569.409262,-888.247130,-9104.533087,612.876398
569.409590,0.000000,-8290.306550,842.705048
569.409917,148.041188,-8438.347739,995.924147
569.410245,148.041188,-9252.574275,1838.629195
569.410572,-814.226536,-9178.553681,1225.752797
569.410900,-1332.370696,-8216.285956,536.266849
569.411227,-1702.473667,-9474.636058,-689.485948
569.411555,-518.144159,-9992.780217,-1072.533697
569.411883,740.205942,-9178.553681,-842.705048
569.412210,2516.700203,-8142.265362,0.000000
569.412538,2516.700203,-9918.759623,842.705048
569.412865,1332.370696,-11399.171507,995.924147
569.413193,-740.205942,-10881.027347,229.828649
569.413520,-1258.350101,-11103.089130,-459.657299
569.413848,-1184.329507,-11843.295072,-306.438199
569.414176,-444.123565,-10732.986159,-229.828649
569.414503,370.102971,-9992.780217,0.000000
569.414831,888.247130,-10362.883188,229.828649
569.415158,1110.308913,-10807.006753,1149.143247
569.415486,0.000000,-9770.718434,536.266849
569.415813,-296.082377,-8512.368333,153.219100
569.416141,74.020594,-9770.718434,-536.266849
569.416469,962.267725,-9844.739029,-306.438199
569.416796,2146.597232,-8956.491898,0.000000
569.417124,2146.597232,-9030.512492,766.095498
569.417451,1628.453072,-11177.109724,1762.019645
569.417779,-962.267725,-11325.150913,1532.190996
569.418106,-2442.679609,-10658.965565,1149.143247
569.418434,-2738.761985,-10732.986159,536.266849
569.418761,-1480.411884,-11029.068536,842.705048
569.419089,-1776.494261,-9548.656652,612.876398
569.419417,-296.082377,-9326.594869,1838.629195
569.419744,-666.185348,-9326.594869,2068.457845
569.420072,-962.267725,-8586.388927,1608.800546
569.420399,-2442.679609,-7846.182985,459.657299
569.420727,-2368.659014,-8216.285956,-229.828649
569.421054,-1332.370696,-8142.265362,153.219100
569.421382,-518.144159,-7105.977043,0.000000
569.421710,0.000000,-6439.791695,153.219100
569.422037,148.041188,-8290.306550,1532.190996
569.422365,-1184.329507,-9030.512492,1762.019645
569.422692,-2368.659014,-8216.285956,1532.190996
569.423020,-2886.803174,-8068.244768,536.266849
569.423347,-2072.576638,-9474.636058,689.485948
569.423675,-888.247130,-8734.430116,689.485948
569.424002,666.185348,-7328.038826,689.485948
569.424330,2146.597232,-7254.018232,1608.800546
569.424658,1924.535449,-7328.038826,1915.238745
569.424985,148.041188,-7402.059420,1455.581446
569.425313,-962.267725,-7179.997637,0.000000
569.425640,-444.123565,-7994.224174,0.000000
569.425968,370.102971,-7624.121203,76.609550
569.426295,2146.597232,-6735.874072,0.000000
569.426623,2664.741391,-7179.997637,919.314598
569.426951,2294.638420,-8882.471304,2145.067394
569.427278,740.205942,-8438.347739,1608.800546
569.427606,-740.205942,-8142.265362,612.876398
569.427933,-1036.288319,-9326.594869,383.047749
569.428261,-1184.329507,-9474.636058,-306.438199
569.428588,-592.164754,-8586.388927,-229.828649
569.428916,-296.082377,-7328.038826,-306.438199
569.429243,962.267725,-8290.306550,612.876398
569.429571,-296.082377,-7698.141797,1149.143247
569.429899,-592.164754,-7476.080014,229.828649
569.430226,-1258.350101,-8068.244768,-612.876398
569.430554,-962.267725,-8290.306550,-766.095498
569.430881,0.000000,-7920.203579,-995.924147
569.431209,592.164754,-8438.347739,-229.828649
569.431536,1036.288319,-10362.883188,536.266849
569.431864,-518.144159,-11251.130318,1378.971896
569.432192,-1924.535449,-11399.171507,1072.533697
569.432519,-3108.864956,-11621.233289,76.609550
569.432847,-2664.741391,-12287.418637,153.219100
569.433174,-2294.638420,-11473.192101,-1762.019645
569.433502,-740.205942,-9992.780217,-995.924147
569.433829,148.041188,-9622.677246,-842.705048
569.434157,518.144159,-10066.800811,76.609550
569.434485,-222.061783,-9252.574275,-229.828649
569.434812,-444.123565,-9030.512492,-459.657299
569.435140,-296.082377,-9992.780217,-612.876398
569.435467,74.020594,-10288.862594,-383.047749
569.435795,1184.329507,-9400.615463,0.000000
569.436122,1924.535449,-9474.636058,1225.752797
569.436450,2442.679609,-11547.212695,2604.724693
569.436777,0.000000,-11103.089130,2298.286494
569.437105,-1036.288319,-11103.089130,1762.019645
569.437433,-1110.308913,-11325.150913,919.314598
569.437760,-222.061783,-10955.047942,842.705048
569.438088,592.164754,-9622.677246,689.485948
569.438415,1998.556043,-8586.388927,1225.752797
569.438743,2368.659014,-9474.636058,1762.019645
569.439070,1998.556043,-9178.553681,2068.457845
569.439398,666.185348,-8068.244768,1608.800546
569.439726,74.020594,-9326.594869,1072.533697
569.440053,148.041188,-10140.821405,1378.971896
569.440381,222.061783,-9844.739029,1762.019645
569.440708,518.144159,-9104.533087,2221.676944
569.441036,296.082377,-9770.718434,3140.991542
569.441363,-1332.370696,-10881.027347,3294.210641
569.441691,-3849.070898,-10140.821405,1762.019645
569.442018,-5181.441594,-9104.533087,1149.143247
569.442346,-5107.421000,-9252.574275,0.000000
569.442674,-4071.132681,-8142.265362,-229.828649
569.443001,-2886.803174,-6735.874072,-229.828649
569.443329,-1332.370696,-6217.729913,306.438199
569.443656,-518.144159,-7031.956449,612.876398
569.443984,-1702.473667,-5921.647536,76.609550
569.444311,-2072.576638,-5625.565159,-536.266849
569.444639,-1702.473667,-7105.977043,-689.485948
569.444967,-222.061783,-6883.915261,-766.095498
569.445294,1184.329507,-6365.771101,766.095498
569.445622,1850.514855,-7624.121203,1685.410096
569.445949,1702.473667,-10214.842000,2681.334243
569.446277,-222.061783,-10510.924376,2145.067394
569.446604,-962.267725,-9918.759623,1455.581446
569.446932,-1184.329507,-9992.780217,76.609550
569.447259,-296.082377,-9918.759623,-689.485948
569.447587,1332.370696,-8290.306550,-1149.143247
569.447915,2072.576638,-6883.915261,-1378.971896
569.448242,3256.906145,-7179.997637,-536.266849
569.448570,2442.679609,-7105.977043,-536.266849
569.448897,2146.597232,-6217.729913,-919.314598
569.449225,666.185348,-7772.162391,-1378.971896
569.449552,962.267725,-9400.615463,-689.485948
569.449880,1332.370696,-9474.636058,0.000000
569.450208,2146.597232,-8882.471304,995.924147
569.450535,2516.700203,-9844.739029,2757.943793
569.450863,370.102971,-11251.130318,2451.505594
569.451190,-1850.514855,-11177.109724,1685.410096
569.451518,-3552.988522,-10510.924376,229.828649
569.451845,-3034.844362,-10658.965565,-306.438199
569.452173,-2960.823768,-9622.677246,-995.924147
569.452501,-1036.288319,-8364.327145,-1532.190996
569.452828,0.000000,-8216.285956,-1225.752797
569.453156,814.226536,-8290.306550,0.000000
569.453483,0.000000,-7920.203579,-383.047749
569.453811,-1554.432478,-8142.265362,-612.876398
569.454138,-1258.350101,-10881.027347,-383.047749
569.454466,-1406.391290,-11325.150913,-229.828649
569.454793,0.000000,-10510.924376,995.924147
569.455121,518.144159,-10658.965565,1838.629195
569.455449,1628.453072,-12435.459826,3294.210641
569.455776,-962.267725,-12213.398043,2834.553343
569.456104,-2220.617826,-11029.068536,2298.286494
569.456431,-2960.823768,-10807.006753,919.314598
569.456759,-1850.514855,-10362.883188,612.876398
569.457086,-592.164754,-8808.450710,76.609550
569.457414,888.247130,-7476.080014,-229.828649
569.457742,2368.659014,-7698.141797,689.485948
569.458069,1628.453072,-7772.162391,995.924147
569.458397,962.267725,-7105.977043,995.924147
569.458724,-148.041188,-7328.038826,306.438199
569.459052,1406.391290,-9104.533087,1302.362347
569.459379,1110.308913,-9326.594869,1072.533697
569.459707,1036.288319,-9474.636058,2298.286494
569.460034,1036.288319,-10955.047942,3140.991542
569.460362,-740.205942,-11695.253884,3524.039291
569.460690,-2590.720797,-11029.068536,2987.772442
569.461017,-4515.256246,-10732.986159,1378.971896
569.461345,-3330.926739,-10140.821405,766.095498
569.461672,-3034.844362,-8290.306550,0.000000
569.462000,-1332.370696,-6661.853478,0.000000
569.462327,-888.247130,-5847.626942,-766.095498
569.462655,222.061783,-6513.812290,0.000000
569.462983,-444.123565,-5625.565159,-459.657299
569.463310,-1332.370696,-5551.544565,-1149.143247
569.463638,-962.267725,-7846.182985,-919.314598
569.463965,0.000000,-8808.450710,229.828649
569.464293,666.185348,-8216.285956,1302.362347
569.464620,1628.453072,-8808.450710,1838.629195
569.464948,1628.453072,-10436.903782,3140.991542
569.465275,-518.144159,-10955.047942,2987.772442
569.465603,-1776.494261,-10955.047942,2145.067394
569.465931,-1924.535449,-10288.862594,383.047749
569.466258,-1332.370696,-10140.821405,76.609550
569.466586,-370.102971,-8142.265362,-919.314598
569.466913,1184.329507,-7254.018232,-1072.533697
569.467241,1628.453072,-7994.224174,-842.705048
569.467568,1406.391290,-7698.141797,-689.485948
569.467896,370.102971,-7105.977043,-1608.800546
569.468224,0.000000,-7328.038826,-2374.896044
569.468551,1332.370696,-8882.471304,-1532.190996
569.468879,1628.453072,-8956.491898,-1149.143247
569.469206,2072.576638,-9252.574275,0.000000
569.469534,2294.638420,-9918.759623,1302.362347
569.469861,1110.308913,-11103.089130,2374.896044
569.470189,-666.185348,-11177.109724,1685.410096
569.470517,-2590.720797,-10955.047942,766.095498
569.470844,-2738.761985,-11621.233289,612.876398
569.471172,-2220.617826,-10140.821405,-153.219100
569.471499,-1258.350101,-8142.265362,-1302.362347
569.471827,0.000000,-8068.244768,-612.876398
569.472155,1036.288319,-8364.327145,-383.047749
569.472482,-148.041188,-8216.285956,-536.266849
569.472810,-592.164754,-7846.182985,-1225.752797
569.473137,-370.102971,-8512.368333,-1455.581446
569.473465,592.164754,-9326.594869,-153.219100
569.473792,1554.432478,-9474.636058,689.485948
569.474120,1776.494261,-9844.739029,2068.457845
569.474448,2368.659014,-11473.192101,4136.915689
569.474775,74.020594,-11843.295072,3907.087040
569.475103,-1406.391290,-11177.109724,3600.648841
569.475430,-2812.782580,-11695.253884,2451.505594
569.475758,-2960.823768,-11399.171507,2068.457845
569.476086,-2812.782580,-9474.636058,1072.533697
569.476413,-1406.391290,-7846.182985,306.438199
569.476741,-148.041188,-6883.915261,306.438199
569.477068,296.082377,-6809.894666,612.876398
569.477396,0.000000,-6143.709319,153.219100
569.477724,-666.185348,-6439.791695,-536.266849
569.478051,444.123565,-7402.059420,306.438199
569.478379,888.247130,-7920.203579,536.266849
569.478706,1702.473667,-8364.327145,1685.410096
569.479034,1554.432478,-9696.697840,2451.505594
569.479362,518.144159,-11103.089130,4060.306139
569.479689,-1480.411884,-10658.965565,3983.696590
569.480017,-3256.906145,-9992.780217,2374.896044
569.480344,-3182.885551,-10807.006753,1532.190996
569.480672,-3404.947333,-10214.842000,459.657299
569.481000,-2368.659014,-8734.430116,0.000000
569.481327,-1332.370696,-7624.121203,76.609550
569.481655,0.000000,-7179.997637,-919.314598
569.481982,-444.123565,-6513.812290,-995.924147
569.482310,-888.247130,-6365.771101,-1762.019645
569.482638,-222.061783,-7105.977043,-1915.238745
569.482965,0.000000,-7994.224174,-1302.362347
569.483293,1554.432478,-7846.182985,-306.438199
569.483620,2072.576638,-8734.430116,459.657299
569.483948,1776.494261,-10066.800811,1838.629195
569.484276,444.123565,-10955.047942,2374.896044
569.484603,-1406.391290,-10881.027347,1915.238745
569.484931,-2516.700203,-10584.944971,766.095498
569.485258,-2146.597232,-10732.986159,383.047749
569.485586,-1036.288319,-9474.636058,-306.438199
569.485914,148.041188,-7624.121203,-689.485948
569.486241,1184.329507,-7846.182985,-995.924147
569.486569,2146.597232,-7550.100608,-383.047749
569.486896,1110.308913,-7328.038826,-1378.971896
569.487224,666.185348,-7328.038826,-1838.629195
569.487552,1332.370696,-9252.574275,-1685.410096
569.487879,1998.556043,-9474.636058,-919.314598
569.488207,3182.885551,-9474.636058,229.828649
569.488534,3034.844362,-10658.965565,1378.971896
569.488862,2072.576638,-12139.377449,2834.553343
569.489190,-592.164754,-12213.398043,2528.115143
569.489517,-2664.741391,-11991.336260,2145.067394
569.489845,-3478.967927,-11991.336260,1532.190996
569.490172,-3182.885551,-11621.233289,306.438199
569.490500,-1776.494261,-9770.718434,612.876398
569.490828,-888.247130,-8808.450710,229.828649
569.491155,0.000000,-9030.512492,612.876398
569.491483,-962.267725,-8512.368333,76.609550
569.491810,-1480.411884,-7402.059420,-1378.971896
569.492138,-1480.411884,-7476.080014,-1608.800546
569.492466,222.061783,-8586.388927,-1302.362347
569.492793,888.247130,-8586.388927,-766.095498
569.493121,2146.597232,-8734.430116,842.705048
569.493448,2516.700203,-10066.800811,2451.505594
569.493776,888.247130,-11695.253884,3447.429741
569.494104,-1332.370696,-11251.130318,3217.601092
569.494431,-3182.885551,-11843.295072,2145.067394
569.494759,-3108.864956,-11917.315666,1608.800546
569.495086,-2590.720797,-10066.800811,1762.019645
569.495414,-592.164754,-8882.471304,1149.143247
569.495742,0.000000,-7772.162391,842.705048
569.496069,1258.350101,-7476.080014,1072.533697
569.496397,222.061783,-6217.729913,-229.828649
569.496724,-296.082377,-5551.544565,-612.876398
569.497052,370.102971,-7031.956449,-1149.143247
569.497380,814.226536,-7550.100608,-919.314598
569.497707,1998.556043,-7179.997637,0.000000
569.498035,2590.720797,-7328.038826,1225.752797
569.498362,2294.638420,-9696.697840,2451.505594
569.498690,74.020594,-9770.718434,3524.039291
569.499018,-2516.700203,-9696.697840,2451.505594
569.499345,-3627.009116,-10584.944971,1685.410096
569.499673,-3108.864956,-9992.780217,1302.362347
569.500000,-2368.659014,-7994.224174,612.876398
569.500328,-444.123565,-6883.915261,919.314598
569.500656,592.164754,-6587.832884,612.876398
569.500983,-148.041188,-6217.729913,612.876398
569.501311,-740.205942,-5625.565159,-766.095498
569.501638,-1110.308913,-5773.606348,-1762.019645
569.501966,-370.102971,-7402.059420,-1762.019645
569.502294,74.020594,-7624.121203,-1149.143247
569.502621,592.164754,-8438.347739,0.000000
569.502949,1258.350101,-9548.656652,1455.581446
569.503276,740.205942,-10140.821405,2298.286494
569.503604,-1258.350101,-10658.965565,2145.067394
569.503932,-2368.659014,-10436.903782,1915.238745
569.504259,-1998.556043,-10658.965565,1072.533697
569.504587,-1924.535449,-9622.677246,0.000000
569.504914,-1036.288319,-8364.327145,0.000000
569.505242,0.000000,-8216.285956,0.000000
569.505570,148.041188,-8512.368333,0.000000
569.505897,-888.247130,-7476.080014,-995.924147
569.506225,-1332.370696,-7105.977043,-2145.067394
569.506552,-296.082377,-8438.347739,-2145.067394
569.506880,888.247130,-8808.450710,-1685.410096
569.507208,2812.782580,-7920.203579,-689.485948
569.507535,3775.050304,-8882.471304,612.876398
569.507863,2960.823768,-11473.192101,2221.676944
569.508190,518.144159,-12731.542202,2374.896044
569.508518,-1258.350101,-11917.315666,1762.019645
569.508846,-2294.638420,-12731.542202,1838.629195
569.509173,-2072.576638,-12805.562797,1225.752797
569.509501,-1406.391290,-11399.171507,995.924147
569.509828,-296.082377,-10066.800811,766.095498
569.510156,814.226536,-9622.677246,1455.581446
569.510484,0.000000,-9030.512492,229.828649
569.510811,-518.144159,-7994.224174,0.000000
569.511139,-1628.453072,-7994.224174,-1838.629195
569.511466,-222.061783,-8586.388927,-1532.190996
569.511794,666.185348,-8068.244768,-1378.971896
569.512122,2146.597232,-7846.182985,766.095498
569.512449,3478.967927,-9252.574275,1532.190996
569.512777,1776.494261,-10510.924376,2604.724693
569.513104,74.020594,-10881.027347,2757.943793
569.513432,-2368.659014,-10955.047942,2068.457845
569.513760,-2368.659014,-11843.295072,1762.019645
569.514087,-2590.720797,-11103.089130,1378.971896
569.514415,-1480.411884,-9548.656652,1685.410096
569.514742,-962.267725,-9030.512492,1455.581446
569.515070,-148.041188,-8882.471304,1915.238745
569.515398,-1776.494261,-7772.162391,459.657299
569.515725,-2368.659014,-7254.018232,-459.657299
569.516053,-1554.432478,-8068.244768,-1378.971896
569.516380,0.000000,-8068.244768,-1532.190996
569.516708,518.144159,-7550.100608,-1225.752797
569.517036,2072.576638,-8142.265362,0.000000
569.517363,2294.638420,-9770.718434,1991.848295
569.517691,296.082377,-10214.842000,1532.190996
569.518018,-962.267725,-9622.677246,1225.752797
569.518346,-2072.576638,-10140.821405,536.266849
569.518674,-1406.391290,-10436.903782,995.924147
569.519001,-1258.350101,-9474.636058,459.657299
569.519329,74.020594,-7476.080014,1072.533697
569.519656,370.102971,-8068.244768,1225.752797
569.519984,74.020594,-7550.100608,995.924147
569.520312,-444.123565,-6587.832884,0.000000
569.520639,-444.123565,-6365.771101,-995.924147
569.520967,740.205942,-7179.997637,-612.876398
569.521294,1332.370696,-6661.853478,-1378.971896
569.521622,2516.700203,-6587.832884,-536.266849
569.521950,3627.009116,-7698.141797,766.095498
569.522277,2960.823768,-9548.656652,1762.019645
569.522605,1110.308913,-9622.677246,1455.581446
569.522932,-1406.391290,-9844.739029,766.095498
569.523260,-1924.535449,-11843.295072,919.314598
569.523588,-1776.494261,-11251.130318,766.095498
569.523915,-814.226536,-10214.842000,995.924147
569.524243,-296.082377,-9030.512492,1225.752797
569.524570,-518.144159,-9918.759623,1302.362347
569.524898,-1406.391290,-8364.327145,689.485948
569.525226,-2812.782580,-7105.977043,-459.657299
569.525553,-1480.411884,-7402.059420,-842.705048
569.525881,-962.267725,-7254.018232,-1225.752797
569.526208,962.267725,-6883.915261,-766.095498
569.526536,666.185348,-7105.977043,0.000000
569.526864,1184.329507,-8808.450710,1149.143247
569.527191,-666.185348,-9770.718434,1532.190996
569.527519,-1998.556043,-9918.759623,1378.971896
569.527846,-2590.720797,-11251.130318,536.266849
569.528174,-2146.597232,-11843.295072,919.314598
569.528502,-1184.329507,-10584.944971,842.705048
569.528829,-444.123565,-9104.533087,1072.533697
569.529157,888.247130,-9474.636058,1608.800546
569.529484,444.123565,-9622.677246,1685.410096
569.529812,-814.226536,-8586.388927,689.485948
569.530140,-1110.308913,-8290.306550,-306.438199
569.530467,0.000000,-9030.512492,-383.047749
569.530795,444.123565,-8586.388927,-459.657299
569.531122,1776.494261,-8068.244768,383.047749
569.531450,2368.659014,-8734.430116,1378.971896
569.531778,1776.494261,-10510.924376,1991.848295
569.532105,-444.123565,-10510.924376,1608.800546
569.532433,-1480.411884,-10658.965565,1302.362347
569.532760,-1554.432478,-11251.130318,1378.971896
569.533088,-666.185348,-10955.047942,612.876398
569.533416,0.000000,-9474.636058,1072.533697
569.533743,0.000000,-8364.327145,536.266849
569.534071,296.082377,-9030.512492,1532.190996
569.534398,-592.164754,-7772.162391,919.314598
569.534726,-1332.370696,-6957.935855,76.609550
569.535054,-1332.370696,-7624.121203,-459.657299
569.535381,-814.226536,-8364.327145,-459.657299
569.535709,0.000000,-7846.182985,-306.438199
569.536036,444.123565,-7698.141797,153.219100
569.536364,888.247130,-9400.615463,1072.533697
569.536692,74.020594,-10510.924376,1838.629195
569.537019,-1776.494261,-10362.883188,1225.752797
569.537347,-2442.679609,-10436.903782,689.485948
569.537674,-1776.494261,-11251.130318,383.047749
569.538002,-1036.288319,-9548.656652,229.828649
569.538330,-148.041188,-8586.388927,229.828649
569.538657,592.164754,-9178.553681,1072.533697
569.538985,0.000000,-8734.430116,1149.143247
569.539312,-444.123565,-8068.244768,689.485948
569.539640,-1110.308913,-7846.182985,-229.828649
569.539968,0.000000,-8734.430116,383.047749
569.540295,592.164754,-8956.491898,-229.828649
569.540623,1406.391290,-8438.347739,536.266849
569.540950,1184.329507,-8660.409521,919.314598
569.541278,888.247130,-10140.821405,1762.019645
569.541606,-666.185348,-9770.718434,1225.752797
569.541933,-1554.432478,-9326.594869,229.828649
569.542261,-1110.308913,-10288.862594,76.609550
569.542588,-1184.329507,-9844.739029,0.000000
569.542916,444.123565,-9178.553681,383.047749
569.543244,370.102971,-8142.265362,0.000000
569.543571,814.226536,-9400.615463,1302.362347
569.543899,0.000000,-9326.594869,919.314598
569.544226,-1036.288319,-8216.285956,153.219100
569.544554,-1110.308913,-9104.533087,-459.657299
569.544882,-740.205942,-9696.697840,-383.047749
569.545209,518.144159,-7920.203579,0.000000
569.545537,1332.370696,-7846.182985,766.095498
569.545864,1776.494261,-8956.491898,1685.410096
569.546192,592.164754,-9696.697840,1532.190996
569.546520,-592.164754,-9474.636058,1532.190996
569.546847,-1998.556043,-9030.512492,689.485948
569.547175,-1554.432478,-10436.903782,383.047749
569.547502,-1406.391290,-9178.553681,0.000000
569.547830,0.000000,-8216.285956,153.219100
569.548157,740.205942,-8882.471304,1072.533697
569.548485,1036.288319,-8364.327145,1915.238745
569.548813,-518.144159,-8586.388927,1072.533697
569.549140,-1628.453072,-9104.533087,459.657299
569.549468,-1184.329507,-9770.718434,459.657299
569.549795,-148.041188,-9474.636058,306.438199
569.550123,518.144159,-8734.430116,995.924147
569.550451,1480.411884,-9548.656652,1608.800546
569.550778,666.185348,-9992.780217,1991.848295
569.551106,-296.082377,-9548.656652,1838.629195
569.551433,-2072.576638,-9474.636058,842.705048
569.551761,-1850.514855,-10362.883188,459.657299
569.552089,-1332.370696,-10436.903782,-383.047749
569.552416,-1110.308913,-9030.512492,-459.657299
569.552744,-222.061783,-8364.327145,76.609550
569.553071,814.226536,-9252.574275,919.314598
569.553399,-222.061783,-8512.368333,919.314598
569.553727,-740.205942,-7402.059420,459.657299
569.554054,-1332.370696,-8216.285956,-229.828649
569.554382,-444.123565,-9252.574275,-153.219100
569.554709,-518.144159,-8586.388927,-459.657299
569.555037,1036.288319,-8068.244768,383.047749
569.555365,1258.350101,-9030.512492,919.314598
569.555692,1036.288319,-9992.780217,1455.581446
569.556020,-814.226536,-9474.636058,766.095498
569.556347,-2072.576638,-9474.636058,0.000000
569.556675,-1702.473667,-10362.883188,-612.876398
569.557003,-962.267725,-9474.636058,-919.314598
569.557330,444.123565,-8882.471304,-153.219100
569.557658,1110.308913,-8882.471304,76.609550
569.557985,1184.329507,-9918.759623,689.485948
569.558313,148.041188,-8956.491898,383.047749
569.558641,-296.082377,-8512.368333,153.219100
569.558968,0.000000,-8438.347739,-229.828649
569.559296,1258.350101,-8512.368333,306.438199
569.559623,1924.535449,-7920.203579,689.485948
569.559951,2220.617826,-8142.265362,1455.581446
569.560279,1776.494261,-9474.636058,2451.505594
569.560606,-518.144159,-9400.615463,2145.067394
569.560934,-2368.659014,-9474.636058,1149.143247
569.561261,-3034.844362,-10584.944971,76.609550
569.561589,-2960.823768,-10066.800811,-536.266849
569.561917,-1776.494261,-8734.430116,0.000000
569.562244,-222.061783,-7698.141797,0.000000
569.562572,666.185348,-8364.327145,306.438199
569.562899,74.020594,-8734.430116,766.095498
569.563227,-740.205942,-7698.141797,76.609550
569.563555,-1184.329507,-8068.244768,-612.876398
569.563882,-518.144159,-9030.512492,-306.438199
569.564210,0.000000,-8512.368333,153.219100
569.564537,740.205942,-8142.265362,995.924147
569.564865,1258.350101,-9474.636058,2068.457845
569.565193,0.000000,-9548.656652,2451.505594
569.565520,-1776.494261,-9548.656652,2068.457845
569.565848,-2812.782580,-10066.800811,459.657299
569.566175,-3330.926739,-10510.924376,153.219100
569.566503,-2516.700203,-9400.615463,-536.266849
569.566831,0.000000,-7772.162391,-383.047749
569.567158,888.247130,-7846.182985,229.828649
569.567486,1554.432478,-8364.327145,536.266849
569.567813,888.247130,-7698.141797,995.924147
569.568141,370.102971,-7476.080014,306.438199
569.568469,814.226536,-8734.430116,459.657299
569.568796,518.144159,-9104.533087,689.485948
569.569124,2072.576638,-9178.553681,1991.848295
569.569451,1258.350101,-9622.677246,1915.238745
569.569779,814.226536,-11473.192101,3370.820191
569.570107,-1406.391290,-10807.006753,2757.943793
569.570434,-2516.700203,-10066.800811,2145.067394
569.570762,-3108.864956,-10584.944971,689.485948
569.571089,-2960.823768,-9992.780217,0.000000
569.571417,-1776.494261,-8512.368333,-459.657299
569.571745,-962.267725,-7328.038826,-766.095498
569.572072,592.164754,-7994.224174,76.609550
569.572400,0.000000,-7772.162391,0.000000
569.572728,-592.164754,-7254.018232,-306.438199
569.573055,-962.267725,-7698.141797,-995.924147
569.573383,-370.102971,-9104.533087,-383.047749
569.573710,592.164754,-8808.450710,383.047749
569.574038,1036.288319,-8882.471304,842.705048
569.574366,962.267725,-9770.718434,2451.505594
569.574693,518.144159,-11029.068536,2604.724693
569.575021,-1406.391290,-10362.883188,2145.067394
569.575349,-2590.720797,-10362.883188,1149.143247
569.575676,-1924.535449,-11621.233289,536.266849
569.576004,-1184.329507,-10510.924376,306.438199
569.576332,814.226536,-9030.512492,612.876398
569.576659,2664.741391,-8216.285956,536.266849
569.576987,2590.720797,-8734.430116,995.924147
569.577315,2220.617826,-8142.265362,1149.143247
569.577642,1924.535449,-8068.244768,383.047749
569.577970,2368.659014,-8956.491898,1225.752797
569.578298,2294.638420,-9104.533087,1378.971896
569.578625,2368.659014,-9252.574275,2298.286494
569.578953,1998.556043,-10066.800811,3064.381992
569.579280,814.226536,-11769.274478,4213.525239
569.579608,-1924.535449,-11103.089130,4443.353888
569.579936,-3478.967927,-10288.862594,2987.772442
569.580263,-4145.153275,-10362.883188,2221.676944
569.580591,-3404.947333,-9918.759623,1762.019645
569.580919,-2960.823768,-7920.203579,1149.143247
569.581246,-962.267725,-5995.668130,1302.362347
569.581574,0.000000,-6587.832884,1762.019645
569.581902,-1924.535449,-7328.038826,919.314598
569.582229,-3627.009116,-7105.977043,76.609550
569.582557,-3108.864956,-7105.977043,-229.828649
569.582885,-1924.535449,-7846.182985,-383.047749
569.583212,-814.226536,-8290.306550,919.314598
569.583540,1702.473667,-8290.306550,2834.553343
569.583868,3478.967927,-8808.450710,4903.011187
569.584195,3552.988522,-9622.677246,6205.373534
569.584523,962.267725,-10288.862594,5975.544884
569.584850,74.020594,-10807.006753,4903.011187
569.585178,-666.185348,-10732.986159,4519.963438
569.585506,-814.226536,-10732.986159,4213.525239
569.585833,-518.144159,-8882.471304,3830.477490
569.586161,2220.617826,-7920.203579,4213.525239
569.586489,4219.173869,-6883.915261,6281.983084
569.586816,3775.050304,-6439.791695,5362.668486
569.587144,1628.453072,-7624.121203,4136.915689
569.587472,592.164754,-8364.327145,3064.381992
569.587799,-592.164754,-8512.368333,2604.724693
569.588127,-1850.514855,-9030.512492,2451.505594
569.588455,-2072.576638,-9252.574275,2681.334243
569.588782,-1110.308913,-9326.594869,4443.353888
569.589110,-740.205942,-8734.430116,5592.497135
569.589438,-1480.411884,-8660.409521,5669.106685
569.589765,-3256.906145,-9400.615463,5362.668486
569.590093,-4663.297435,-9844.739029,3907.087040
569.590421,-5625.565159,-9104.533087,2604.724693
569.590748,-5477.523971,-8808.450710,1532.190996
569.591076,-4515.256246,-8586.388927,1532.190996
569.591403,-3256.906145,-8068.244768,1762.019645
569.591731,-1258.350101,-7402.059420,2451.505594
569.592059,-148.041188,-6883.915261,2451.505594
569.592386,814.226536,-7402.059420,1915.238745
569.592714,222.061783,-9104.533087,1149.143247
569.593042,-1332.370696,-10584.944971,459.657299
569.593369,-1036.288319,-11325.150913,459.657299
569.593697,0.000000,-11547.212695,1762.019645
569.594025,2294.638420,-11251.130318,3217.601092
569.594352,3775.050304,-11621.233289,4443.353888
569.594680,5329.482782,-11621.233289,5515.887586
569.595008,6291.750507,-10214.842000,5822.325785
569.595335,5625.565159,-9696.697840,5592.497135
569.595663,4663.297435,-10214.842000,5056.230287
569.595991,2368.659014,-11251.130318,4443.353888
569.596318,2294.638420,-11177.109724,4290.134789
569.596646,2220.617826,-9548.656652,4596.572988
569.596973,2368.659014,-9030.512492,5286.058936
569.597301,2590.720797,-9696.697840,4673.182538
569.597629,814.226536,-9918.759623,3983.696590
569.597956,-1480.411884,-10436.903782,3064.381992
569.598284,-2368.659014,-9770.718434,2451.505594
569.598612,-3404.947333,-9252.574275,2221.676944
569.598939,-4071.132681,-9178.553681,2451.505594
569.599267,-4737.318029,-9918.759623,2145.067394
569.599595,-6439.791695,-9992.780217,1762.019645
569.599922,-6439.791695,-8956.491898,1455.581446
569.600250,-5995.668130,-7698.141797,1225.752797
569.600578,-4441.235652,-6365.771101,1685.410096
569.600905,-3182.885551,-6661.853478,1302.362347
569.601233,-2590.720797,-6883.915261,1915.238745
569.601561,-2146.597232,-6735.874072,1991.848295
569.601888,222.061783,-6365.771101,2834.553343
569.602216,2738.761985,-6587.832884,4136.915689
569.602543,4811.338623,-8068.244768,4826.401637
569.602871,5033.400406,-9844.739029,5362.668486
569.603199,3552.988522,-11473.192101,5669.106685
569.603526,2294.638420,-11843.295072,5898.935335
569.603854,1924.535449,-11473.192101,6052.154434
569.604182,3256.906145,-10436.903782,6052.154434
569.604509,4367.215058,-10140.821405,5898.935335
569.604837,3034.844362,-10362.883188,4060.306139
569.605165,1702.473667,-10510.924376,4673.182538
569.605492,592.164754,-9252.574275,3294.210641
569.605820,-1776.494261,-8586.388927,3140.991542
569.606148,0.000000,-7698.141797,2528.115143
569.606475,74.020594,-7476.080014,2757.943793
569.606803,-1258.350101,-8068.244768,2911.162892
569.607131,-2590.720797,-7550.100608,2451.505594
569.607458,-5699.585753,-7698.141797,2068.457845
569.607786,-6439.791695,-7550.100608,1302.362347
569.608113,-5107.421000,-8290.306550,842.705048
569.608441,-3627.009116,-7920.203579,1532.190996
569.608769,-1776.494261,-7105.977043,2068.457845
569.609096,-592.164754,-6957.935855,2911.162892
569.609424,-1480.411884,-7105.977043,2911.162892
569.609752,-1554.432478,-7846.182985,2374.896044
569.610079,-1406.391290,-8438.347739,1532.190996
569.610407,-888.247130,-8882.471304,995.924147
569.610735,1406.391290,-8216.285956,2451.505594
569.611062,3478.967927,-8808.450710,3907.087040
569.611390,4811.338623,-9474.636058,5286.058936
569.611718,5403.503377,-10807.006753,5745.716235
569.612045,4145.153275,-11991.336260,4979.620737
569.612373,1850.514855,-12953.603985,5056.230287
569.612701,222.061783,-13101.645173,3140.991542
569.613028,-518.144159,-12509.480420,3370.820191
569.613356,444.123565,-11251.130318,4290.134789
569.613683,2368.659014,-10658.965565,5898.935335
569.614011,3478.967927,-9474.636058,5209.449386
569.614339,1184.329507,-9326.594869,5975.544884
569.614666,-296.082377,-8586.388927,3753.867940
569.614994,-3701.029710,-9178.553681,2911.162892
569.615322,-5255.462188,-8956.491898,1685.410096
569.615649,-4515.256246,-8586.388927,1608.800546
569.615977,-2960.823768,-7920.203579,2528.115143
569.616305,-592.164754,-6957.935855,3447.429741
569.616632,444.123565,-7031.956449,4596.572988
569.616960,-370.102971,-7402.059420,4596.572988
569.617288,-1110.308913,-8734.430116,4136.915689
569.617615,-2960.823768,-9474.636058,2911.162892
569.617943,-4367.215058,-10436.903782,1838.629195
569.618271,-4441.235652,-10732.986159,1762.019645
569.618598,-3256.906145,-10362.883188,2068.457845
569.618926,-888.247130,-9474.636058,2757.943793
569.619254,1628.453072,-8586.388927,3677.258390
569.619581,2812.782580,-8438.347739,4213.525239
569.619909,2368.659014,-8660.409521,3830.477490
569.620236,1554.432478,-9252.574275,3294.210641
569.620564,592.164754,-9696.697840,3140.991542
569.620892,888.247130,-10288.862594,3447.429741
569.621219,1110.308913,-10140.821405,3370.820191
569.621547,888.247130,-10140.821405,4213.525239
569.621875,1184.329507,-9770.718434,4443.353888
569.622202,444.123565,-9178.553681,4290.134789
569.622530,148.041188,-8660.409521,3294.210641
569.622858,-592.164754,-8364.327145,3524.039291
569.623185,592.164754,-7698.141797,2604.724693
569.623513,296.082377,-8216.285956,2145.067394
569.623841,814.226536,-7031.956449,2834.553343
569.624168,1406.391290,-7328.038826,2911.162892
569.624496,1702.473667,-6809.894666,3830.477490
569.624824,1036.288319,-7994.224174,3524.039291
569.625151,962.267725,-8660.409521,3907.087040
569.625479,-888.247130,-9030.512492,3753.867940
569.625806,-1332.370696,-9548.656652,3677.258390
569.626134,-1924.535449,-9696.697840,3830.477490
569.626462,-2590.720797,-9992.780217,3140.991542
569.626789,-1480.411884,-9844.739029,3217.601092
569.627117,-1480.411884,-9474.636058,3370.820191
569.627445,-1554.432478,-8734.430116,3064.381992
569.627772,-1332.370696,-8216.285956,2528.115143
569.628100,-1184.329507,-7920.203579,2374.896044
569.628428,-1184.329507,-7772.162391,2451.505594
569.628755,-1036.288319,-7476.080014,2528.115143
569.629083,-666.185348,-7920.203579,2528.115143
569.629411,-370.102971,-8142.265362,2681.334243
569.629738,0.000000,-8734.430116,3524.039291
569.630066,148.041188,-9474.636058,3677.258390
569.630394,370.102971,-10140.821405,3677.258390
569.630721,222.061783,-10362.883188,4060.306139
569.631049,0.000000,-10436.903782,3983.696590
569.631376,-518.144159,-9844.739029,3370.820191
569.631704,0.000000,-9622.677246,3370.820191
569.632032,592.164754,-9474.636058,3064.381992
569.632359,814.226536,-9326.594869,2528.115143
569.632687,1036.288319,-9400.615463,2911.162892
569.633015,1406.391290,-8882.471304,2374.896044
569.633342,222.061783,-9622.677246,2298.286494
569.633670,0.000000,-9992.780217,2145.067394
569.633998,-444.123565,-9918.759623,1838.629195
569.634325,-740.205942,-10140.821405,1838.629195
569.634653,0.000000,-9696.697840,2374.896044
569.634981,-888.247130,-9622.677246,1762.019645
569.635308,-1184.329507,-9844.739029,1915.238745
569.635636,-1332.370696,-9622.677246,1915.238745
569.635964,-1850.514855,-9252.574275,1532.190996
569.636291,-1184.329507,-8882.471304,1302.362347
569.636619,-740.205942,-7920.203579,1302.362347
569.636946,-148.041188,-7920.203579,1072.533697
569.637274,296.082377,-7994.224174,1149.143247
569.637602,370.102971,-8290.306550,1072.533697
569.637929,148.041188,-8660.409521,1225.752797
569.638257,370.102971,-8808.450710,1532.190996
569.638585,-222.061783,-9474.636058,1378.971896
569.638912,296.082377,-10066.800811,1838.629195
569.639240,592.164754,-10510.924376,2145.067394
569.639568,1184.329507,-10584.944971,2068.457845
569.639895,1480.411884,-10510.924376,2068.457845
569.640223,1258.350101,-9992.780217,2451.505594
569.640551,888.247130,-9992.780217,2068.457845
569.640878,148.041188,-9548.656652,1915.238745
569.641206,-296.082377,-8956.491898,995.924147
569.641534,-1036.288319,-8586.388927,1685.410096
569.641861,0.000000,-7698.141797,995.924147
569.642189,-740.205942,-8216.285956,1225.752797
569.642516,-518.144159,-7994.224174,1149.143247
569.642844,-518.144159,-7994.224174,1072.533697
569.643172,-1184.329507,-8068.244768,919.314598
569.643499,-1036.288319,-8216.285956,612.876398
569.643827,-1036.288319,-8142.265362,383.047749
569.644155,-1258.350101,-8216.285956,306.438199
569.644482,-888.247130,-8142.265362,612.876398
569.644810,-814.226536,-8512.368333,766.095498
569.645138,-1184.329507,-8216.285956,1072.533697
569.645465,-444.123565,-8956.491898,1302.362347
569.645793,-518.144159,-8882.471304,612.876398
569.646121,-370.102971,-8882.471304,536.266849
569.646448,0.000000,-9104.533087,459.657299
569.646776,0.000000,-8882.471304,1072.533697
569.647104,370.102971,-9548.656652,842.705048
569.647431,74.020594,-9474.636058,1072.533697
569.647759,0.000000,-9474.636058,919.314598
569.648086,0.000000,-9770.718434,1378.971896
569.648414,296.082377,-9844.739029,1225.752797
569.648742,74.020594,-9548.656652,689.485948
569.649069,0.000000,-9252.574275,766.095498
569.649397,296.082377,-8956.491898,536.266849
569.649725,0.000000,-8882.471304,612.876398
569.650052,0.000000,-8734.430116,766.095498
569.650380,0.000000,-8142.265362,919.314598
569.650708,-518.144159,-8586.388927,1072.533697
569.651035,-888.247130,-8660.409521,842.705048
569.651363,-1184.329507,-8660.409521,536.266849
569.651691,-1406.391290,-9030.512492,383.047749
569.652018,-666.185348,-9030.512492,919.314598
569.652346,-1184.329507,-9400.615463,536.266849
569.652674,-592.164754,-9326.594869,459.657299
569.653001,-222.061783,-9474.636058,536.266849
569.653329,-222.061783,-9548.656652,306.438199
569.653657,74.020594,-9474.636058,612.876398
569.653984,0.000000,-9770.718434,76.609550
569.654312,-370.102971,-9696.697840,459.657299
569.654639,-296.082377,-9844.739029,766.095498
569.654967,-370.102971,-9844.739029,612.876398
569.655295,0.000000,-9622.677246,766.095498
569.655622,0.000000,-9696.697840,536.266849
569.655950,296.082377,-9474.636058,612.876398
569.656278,296.082377,-9474.636058,766.095498
569.656605,296.082377,-9178.553681,383.047749
569.656933,222.061783,-9252.574275,612.876398
569.657261,592.164754,-9030.512492,612.876398
569.657588,74.020594,-8956.491898,536.266849
569.657916,148.041188,-9030.512492,612.876398
569.658244,0.000000,-9178.553681,612.876398
569.658571,370.102971,-9104.533087,459.657299
569.658899,296.082377,-8438.347739,919.314598
569.659227,0.000000,-8438.347739,766.095498
569.659554,0.000000,-8882.471304,383.047749
569.659882,0.000000,-8808.450710,229.828649
569.660209,-592.164754,-8586.388927,459.657299
569.660537,-592.164754,-8512.368333,459.657299
569.660865,-592.164754,-8808.450710,76.609550
569.661192,-962.267725,-9030.512492,306.438199
569.661520,-962.267725,-9104.533087,536.266849
569.661848,-814.226536,-8734.430116,459.657299
569.662175,-518.144159,-8956.491898,842.705048
569.662503,-518.144159,-8586.388927,383.047749
569.662831,-518.144159,-8512.368333,306.438199
569.663158,-444.123565,-8438.347739,229.828649
569.663486,-444.123565,-8734.430116,689.485948
569.663814,-592.164754,-8808.450710,842.705048
569.664141,-666.185348,-9104.533087,995.924147
569.664469,-592.164754,-9252.574275,995.924147
569.664797,-814.226536,-9178.553681,919.314598
569.665124,-740.205942,-8956.491898,766.095498
569.665452,-444.123565,-8956.491898,842.705048
569.665779,-370.102971,-8586.388927,919.314598
569.666107,0.000000,-8660.409521,383.047749
569.666435,-370.102971,-9030.512492,842.705048
569.666762,-444.123565,-8956.491898,842.705048
569.667090,-666.185348,-9252.574275,612.876398
569.667418,-296.082377,-9400.615463,383.047749
569.667745,-222.061783,-9326.594869,689.485948
569.668073,-370.102971,-9400.615463,383.047749
569.668401,0.000000,-9400.615463,612.876398
569.668728,-148.041188,-9400.615463,383.047749
569.669056,-222.061783,-8734.430116,153.219100
569.669384,0.000000,-9178.553681,689.485948
569.669711,-296.082377,-9252.574275,383.047749
569.670039,-666.185348,-9474.636058,536.266849
569.670367,-296.082377,-9252.574275,459.657299
569.670697,-370.102971,-9252.574275,459.657299
569.671025,0.000000,-9030.512492,153.219100
569.671352,0.000000,-9252.574275,536.266849
569.671680,0.000000,-8956.491898,0.000000
569.672008,0.000000,-9030.512492,306.438199
569.672335,-222.061783,-9252.574275,306.438199
569.672663,-518.144159,-9178.553681,689.485948
569.672991,0.000000,-9622.677246,383.047749
569.673318,-296.082377,-9696.697840,689.485948
569.673646,-148.041188,-9696.697840,766.095498
569.673974,-148.041188,-9622.677246,459.657299
569.674301,-296.082377,-9178.553681,153.219100
569.674629,0.000000,-8586.388927,536.266849
569.674957,-518.144159,-8660.409521,76.609550
569.675284,-1184.329507,-8734.430116,306.438199
569.675612,-1036.288319,-8882.471304,612.876398
569.675940,-1110.308913,-8956.491898,612.876398
569.676267,-888.247130,-8586.388927,1378.971896
569.676595,-370.102971,-8586.388927,995.924147
569.676923,0.000000,-8586.388927,689.485948
569.677250,148.041188,-8512.368333,536.266849
569.677578,444.123565,-8512.368333,536.266849
569.677906,296.082377,-8734.430116,0.000000
569.678233,-148.041188,-8882.471304,612.876398
569.678561,-370.102971,-9844.739029,995.924147
569.678889,-666.185348,-9918.759623,1149.143247
569.679216,-296.082377,-9918.759623,1149.143247
569.679544,0.000000,-9400.615463,1072.533697
569.679872,592.164754,-9030.512492,1072.533697
569.680199,592.164754,-8586.388927,612.876398
569.680527,666.185348,-8142.265362,306.438199
569.680855,370.102971,-7920.203579,153.219100
569.681182,0.000000,-8438.347739,306.438199
569.681510,-592.164754,-8512.368333,919.314598
569.681838,-518.144159,-9400.615463,689.485948
569.682165,-666.185348,-9252.574275,536.266849
569.682493,-666.185348,-9326.594869,842.705048
569.682820,-296.082377,-9252.574275,459.657299
569.683148,0.000000,-8290.306550,536.266849
569.683476,444.123565,-8290.306550,153.219100
569.683803,222.061783,-8364.327145,0.000000
569.684131,0.000000,-8438.347739,306.438199
569.684459,-296.082377,-9104.533087,229.828649
569.684786,-666.185348,-9326.594869,536.266849
569.685114,-814.226536,-9326.594869,76.609550
569.685442,-1110.308913,-9622.677246,459.657299
569.685769,-814.226536,-9622.677246,383.047749
569.686097,-296.082377,-9400.615463,153.219100
569.686425,0.000000,-8956.491898,306.438199
569.686752,592.164754,-8956.491898,536.266849
569.687080,296.082377,-9104.533087,306.438199
569.687408,296.082377,-9474.636058,306.438199
569.687735,-148.041188,-9696.697840,1072.533697
569.688063,-296.082377,-9696.697840,842.705048
569.688391,-666.185348,-9992.780217,1225.752797
569.688718,-592.164754,-9696.697840,612.876398
569.689046,-740.205942,-9400.615463,536.266849
569.689374,-444.123565,-9178.553681,383.047749
569.689701,-370.102971,-9104.533087,229.828649
569.690029,-444.123565,-8512.368333,306.438199
569.690357,-592.164754,-9030.512492,459.657299
569.690684,-888.247130,-9326.594869,612.876398
569.691012,-814.226536,-9474.636058,842.705048
569.691340,-740.205942,-9178.553681,919.314598
569.691667,-814.226536,-9030.512492,766.095498
569.691995,0.000000,-9326.594869,76.609550
569.692323,-518.144159,-9400.615463,536.266849
569.692650,-518.144159,-9326.594869,612.876398
569.692978,-370.102971,-9252.574275,766.095498
569.693306,-222.061783,-9474.636058,689.485948
569.693633,0.000000,-9548.656652,919.314598
569.693961,-444.123565,-9400.615463,766.095498
569.694289,-666.185348,-9326.594869,919.314598
569.694616,-518.144159,-9104.533087,689.485948
569.694944,-666.185348,-9030.512492,612.876398
569.695272,-370.102971,-8438.347739,76.609550
569.695599,-740.205942,-8438.347739,383.047749
569.695927,-148.041188,-8512.368333,306.438199
569.696255,-296.082377,-8734.430116,383.047749
569.696582,-370.102971,-8586.388927,229.828649
569.696910,-592.164754,-8142.265362,1072.533697
569.697238,-222.061783,-8734.430116,536.266849
569.697565,-666.185348,-8660.409521,229.828649
569.697893,-148.041188,-9104.533087,536.266849
569.698221,-370.102971,-9178.553681,459.657299
569.698548,-222.061783,-8660.409521,459.657299
569.698876,-74.020594,-8808.450710,842.705048
569.699203,0.000000,-9178.553681,229.828649
569.699531,-296.082377,-9178.553681,536.266849
569.699859,0.000000,-8956.491898,229.828649
569.700186,-222.061783,-8956.491898,536.266849
569.700514,222.061783,-8364.327145,229.828649
569.700842,0.000000,-8808.450710,383.047749
569.701169,0.000000,-8882.471304,383.047749
569.701497,74.020594,-9030.512492,459.657299
569.701825,222.061783,-9104.533087,612.876398
569.702152,518.144159,-9474.636058,536.266849
569.702480,148.041188,-9252.574275,612.876398
569.702808,0.000000,-9178.553681,842.705048
569.703135,0.000000,-9178.553681,995.924147
569.703463,74.020594,-9178.553681,689.485948
569.703791,-222.061783,-9030.512492,995.924147
569.704118,74.020594,-9178.553681,459.657299
569.704446,0.000000,-9178.553681,536.266849
569.704774,-296.082377,-8882.471304,459.657299
569.705101,-518.144159,-9030.512492,766.095498
569.705429,-518.144159,-8956.491898,536.266849
569.705757,-666.185348,-9030.512492,536.266849
569.706084,-296.082377,-8956.491898,306.438199
569.706412,0.000000,-9030.512492,536.266849
569.706740,-296.082377,-9400.615463,612.876398
569.707067,-296.082377,-9474.636058,842.705048
569.707395,0.000000,-9030.512492,919.314598
569.707723,-444.123565,-9252.574275,536.266849
569.708050,-222.061783,-9474.636058,612.876398
569.708378,-222.061783,-9474.636058,689.485948
569.708706,0.000000,-9474.636058,766.095498
569.709033,-296.082377,-8660.409521,919.314598
569.709361,-148.041188,-9030.512492,766.095498
569.709689,0.000000,-9326.594869,689.485948
569.710016,-148.041188,-8956.491898,383.047749
569.710344,0.000000,-8882.471304,459.657299
569.710672,0.000000,-8882.471304,1072.533697
569.710999,0.000000,-8956.491898,383.047749
569.711327,-370.102971,-9400.615463,536.266849
569.711655,0.000000,-9400.615463,612.876398
569.711982,0.000000,-9474.636058,689.485948
569.712310,296.082377,-9474.636058,766.095498
569.712638,222.061783,-9474.636058,689.485948
569.712965,0.000000,-9252.574275,612.876398
569.713293,0.000000,-9252.574275,612.876398
569.713621,-148.041188,-9178.553681,459.657299
569.713948,-370.102971,-9474.636058,612.876398
569.714276,-296.082377,-9400.615463,306.438199
569.714604,-222.061783,-9326.594869,766.095498
569.714931,-444.123565,-8734.430116,612.876398
569.715259,-518.144159,-8956.491898,383.047749
569.715586,-518.144159,-9104.533087,536.266849
569.715914,-148.041188,-8882.471304,919.314598
569.716242,-222.061783,-9104.533087,306.438199
569.716569,-296.082377,-8956.491898,536.266849
569.716897,-148.041188,-9030.512492,536.266849
569.717225,0.000000,-9252.574275,689.485948
569.717552,0.000000,-9104.533087,383.047749
569.717880,222.061783,-9474.636058,459.657299
569.718208,0.000000,-9400.615463,689.485948
569.718535,-296.082377,-9400.615463,612.876398
569.718863,-222.061783,-9252.574275,536.266849
569.719191,-518.144159,-9030.512492,689.485948
569.719518,0.000000,-8956.491898,1225.752797
569.719846,-444.123565,-8882.471304,536.266849
569.720174,-592.164754,-8956.491898,306.438199
569.720501,-444.123565,-9104.533087,306.438199
569.720829,-296.082377,-9104.533087,459.657299
569.721157,-296.082377,-8882.471304,612.876398
569.721484,0.000000,-8956.491898,229.828649
569.721812,0.000000,-9030.512492,536.266849
569.722140,0.000000,-9252.574275,383.047749
569.722467,-148.041188,-9104.533087,689.485948
569.722795,-296.082377,-9030.512492,919.314598
569.723123,-148.041188,-9252.574275,689.485948
569.723450,-518.144159,-9326.594869,689.485948
569.723778,-444.123565,-9400.615463,842.705048
569.724106,-444.123565,-9178.553681,536.266849
569.724433,-518.144159,-8882.471304,995.924147
569.724761,74.020594,-8660.409521,459.657299
569.725089,-518.144159,-8808.450710,383.047749
569.725416,-592.164754,-8956.491898,306.438199
569.725744,-370.102971,-9030.512492,383.047749
569.726072,-444.123565,-9104.533087,536.266849
569.726399,0.000000,-8956.491898,1149.143247
569.726727,-740.205942,-9178.553681,536.266849
569.727055,-518.144159,-9474.636058,689.485948
569.727382,-296.082377,-9326.594869,689.485948
569.727710,-296.082377,-9104.533087,459.657299
569.728038,-148.041188,-8808.450710,842.705048
569.728365,-370.102971,-8956.491898,842.705048
569.728693,-1110.308913,-9252.574275,536.266849
569.729021,-740.205942,-9030.512492,459.657299
569.729348,-740.205942,-8512.368333,536.266849
569.729676,-592.164754,-8290.306550,459.657299
569.730004,-592.164754,-8808.450710,459.657299
569.730331,-814.226536,-8734.430116,383.047749
569.730659,-370.102971,-8364.327145,383.047749
569.730987,-148.041188,-8438.347739,459.657299
569.731314,-296.082377,-8956.491898,383.047749
569.731642,-148.041188,-9252.574275,459.657299
569.731970,0.000000,-9326.594869,689.485948
569.732297,-222.061783,-9474.636058,919.314598
569.732625,-222.061783,-9326.594869,995.924147
569.732952,-296.082377,-9400.615463,766.095498
569.733280,-296.082377,-8882.471304,459.657299
569.733608,-370.102971,-9178.553681,612.876398
569.733935,-370.102971,-8808.450710,536.266849
569.734263,-666.185348,-8512.368333,306.438199
569.734591,-370.102971,-8660.409521,383.047749
569.734918,-148.041188,-8586.388927,536.266849
569.735246,0.000000,-8882.471304,612.876398
569.735574,-148.041188,-9104.533087,306.438199
569.735901,0.000000,-9030.512492,612.876398
569.736229,0.000000,-9178.553681,689.485948
569.736557,148.041188,-9030.512492,689.485948
569.736884,0.000000,-9030.512492,459.657299
569.737212,0.000000,-9400.615463,612.876398
569.737540,0.000000,-9474.636058,536.266849
569.737867,0.000000,-9622.677246,689.485948
569.738195,148.041188,-9474.636058,1149.143247
569.738523,0.000000,-8956.491898,536.266849
569.738850,0.000000,-9326.594869,459.657299
569.739178,-148.041188,-9104.533087,383.047749
569.739506,-222.061783,-9104.533087,76.609550
569.739833,0.000000,-8882.471304,536.266849
569.740161,0.000000,-9104.533087,383.047749
569.740489,0.000000,-9252.574275,536.266849
569.740816,0.000000,-9474.636058,612.876398
569.741144,148.041188,-9474.636058,689.485948
569.741472,148.041188,-9548.656652,536.266849
569.741799,0.000000,-9178.553681,842.705048
569.742127,0.000000,-9474.636058,536.266849
569.742455,-222.061783,-9474.636058,612.876398
569.742782,-148.041188,-9474.636058,766.095498
569.743110,0.000000,-9326.594869,229.828649
569.743438,222.061783,-9400.615463,306.438199
569.743765,-444.123565,-8808.450710,536.266849
569.744093,-74.020594,-9326.594869,612.876398
569.744421,-370.102971,-9326.594869,383.047749
569.744748,-148.041188,-9178.553681,536.266849
569.745076,-370.102971,-8956.491898,536.266849
569.745404,-296.082377,-9178.553681,1149.143247
569.745731,0.000000,-9326.594869,689.485948
569.746059,0.000000,-9548.656652,536.266849
569.746387,0.000000,-9474.636058,689.485948
569.746714,-148.041188,-9770.718434,1378.971896
569.747042,-518.144159,-9326.594869,842.705048
569.747370,0.000000,-9252.574275,536.266849
569.747697,-148.041188,-9178.553681,612.876398
569.748025,-666.185348,-9178.553681,459.657299
569.748353,-666.185348,-8734.430116,536.266849
569.748680,-962.267725,-8216.285956,689.485948
569.749008,-296.082377,-9030.512492,383.047749
569.749335,-740.205942,-8956.491898,306.438199
569.749663,-518.144159,-8882.471304,153.219100
569.749991,-518.144159,-8882.471304,689.485948
569.750318,0.000000,-8586.388927,536.266849
569.750646,0.000000,-8734.430116,229.828649
569.750974,0.000000,-9252.574275,306.438199
569.751301,0.000000,-9326.594869,459.657299
569.751629,-222.061783,-9400.615463,689.485948
569.751957,0.000000,-9178.553681,1149.143247
569.752284,0.000000,-8882.471304,842.705048
569.752612,-370.102971,-9178.553681,995.924147
569.752940,-592.164754,-8956.491898,383.047749
569.753267,-444.123565,-8882.471304,229.828649
569.753595,-592.164754,-8660.409521,536.266849
569.753923,-518.144159,-8364.327145,1149.143247
569.754250,-592.164754,-8438.347739,306.438199
569.754578,-518.144159,-8586.388927,612.876398
569.754906,-444.123565,-8808.450710,459.657299
569.755233,-370.102971,-9030.512492,919.314598
569.755561,-296.082377,-8734.430116,842.705048
569.755889,-666.185348,-9104.533087,612.876398
569.756216,-666.185348,-9030.512492,612.876398
569.756544,-740.205942,-9104.533087,689.485948
569.756872,-444.123565,-9252.574275,689.485948
569.757199,0.000000,-9474.636058,536.266849
569.757527,-444.123565,-8660.409521,689.485948
569.757855,-814.226536,-9178.553681,536.266849
569.758182,-814.226536,-8734.430116,689.485948
569.758510,-592.164754,-8734.430116,536.266849
569.758838,-592.164754,-8660.409521,383.047749
569.759165,-222.061783,-8660.409521,919.314598
569.759493,-296.082377,-8882.471304,689.485948
569.759821,-296.082377,-8882.471304,306.438199
569.760148,-222.061783,-9104.533087,536.266849
569.760476,-296.082377,-9178.553681,689.485948
569.760804,0.000000,-9252.574275,229.828649
569.761131,0.000000,-9400.615463,459.657299
569.761459,-296.082377,-9178.553681,689.485948
569.761787,-148.041188,-9400.615463,459.657299
569.762114,0.000000,-9474.636058,459.657299
569.762442,-296.082377,-8956.491898,919.314598
569.762770,-148.041188,-8956.491898,306.438199
569.763097,0.000000,-9178.553681,229.828649
569.763425,-148.041188,-9030.512492,153.219100
569.763753,0.000000,-8956.491898,306.438199
569.764080,74.020594,-9104.533087,229.828649
569.764408,518.144159,-9030.512492,612.876398
569.764736,296.082377,-9326.594869,383.047749
569.765063,74.020594,-9252.574275,306.438199
569.765391,296.082377,-9474.636058,536.266849
569.765719,296.082377,-9622.677246,689.485948
569.766046,518.144159,-9326.594869,1072.533697
569.766374,0.000000,-9326.594869,689.485948
569.766701,0.000000,-9252.574275,612.876398
569.767029,-296.082377,-9252.574275,612.876398
569.767357,-222.061783,-9030.512492,536.266849
569.767684,-592.164754,-8586.388927,306.438199
569.768012,-222.061783,-8734.430116,383.047749
569.768340,-518.144159,-8808.450710,459.657299
569.768667,-296.082377,-8734.430116,459.657299
569.768995,-370.102971,-9030.512492,766.095498
569.769323,148.041188,-8808.450710,842.705048
569.769650,0.000000,-9400.615463,842.705048
569.769978,-222.061783,-9326.594869,1072.533697
569.770306,0.000000,-9474.636058,842.705048
569.770633,-222.061783,-9548.656652,766.095498
569.770961,0.000000,-9474.636058,1225.752797
569.771289,0.000000,-9474.636058,459.657299
569.771616,-370.102971,-9178.553681,612.876398
569.771944,-740.205942,-9400.615463,536.266849
569.772272,-740.205942,-9252.574275,612.876398
569.772599,-1110.308913,-8882.471304,536.266849
569.772927,-592.164754,-8512.368333,689.485948
569.773254,-444.123565,-8956.491898,459.657299
569.773582,-296.082377,-9252.574275,612.876398
569.773909,-296.082377,-9030.512492,383.047749
569.774237,-296.082377,-9030.512492,459.657299
569.774564,222.061783,-9178.553681,919.314598
569.774892,-148.041188,-9474.636058,383.047749
569.775219,0.000000,-9474.636058,536.266849
569.775547,0.000000,-9326.594869,536.266849
569.775874,0.000000,-9400.615463,459.657299
569.776202,222.061783,-9030.512492,995.924147
569.776530,74.020594,-9326.594869,459.657299
569.776857,-370.102971,-9252.574275,383.047749
569.777185,-592.164754,-9104.533087,0.000000
569.777512,0.000000,-8882.471304,306.438199
569.777840,-296.082377,-8808.450710,153.219100
569.778167,0.000000,-9030.512492,153.219100
569.778495,-222.061783,-9252.574275,612.876398
569.778822,0.000000,-9252.574275,689.485948
569.779150,-222.061783,-9252.574275,459.657299
569.779477,-296.082377,-9178.553681,766.095498
569.779805,0.000000,-9252.574275,612.876398
569.780132,-148.041188,-9178.553681,612.876398
569.780460,0.000000,-9030.512492,536.266849
569.780787,-222.061783,-9178.553681,842.705048
569.781115,-518.144159,-8956.491898,459.657299
569.781443,-296.082377,-9030.512492,536.266849
569.781770,-666.185348,-8586.388927,612.876398
569.782098,-740.205942,-8808.450710,383.047749
569.782425,-740.205942,-8882.471304,536.266849
569.782753,-814.226536,-8512.368333,842.705048
569.783080,-222.061783,-8216.285956,919.314598
569.783408,-444.123565,-8512.368333,919.314598
569.783735,-444.123565,-8956.491898,689.485948
569.784063,-444.123565,-8956.491898,536.266849
569.784390,-444.123565,-9178.553681,536.266849
569.784718,148.041188,-8882.471304,536.266849
569.785045,-222.061783,-8882.471304,459.657299
569.785373,-222.061783,-9252.574275,842.705048
569.785700,-296.082377,-9326.594869,689.485948
569.786028,-370.102971,-9252.574275,842.705048
569.786356,-370.102971,-8882.471304,536.266849
569.786683,-370.102971,-9178.553681,306.438199
569.787011,-222.061783,-8956.491898,459.657299
569.787338,-444.123565,-9104.533087,383.047749
569.787666,-222.061783,-8882.471304,459.657299
569.787993,-296.082377,-8956.491898,536.266849
569.788321,0.000000,-9252.574275,689.485948
569.788648,-222.061783,-9178.553681,383.047749
569.788976,-148.041188,-9030.512492,383.047749
569.789303,0.000000,-9252.574275,689.485948
569.789631,-148.041188,-9326.594869,459.657299
569.789958,0.000000,-9030.512492,459.657299
569.790286,0.000000,-8882.471304,689.485948
569.790613,-222.061783,-9030.512492,689.485948
569.790941,-296.082377,-8882.471304,612.876398
569.791269,-666.185348,-9030.512492,536.266849
569.791596,-592.164754,-9030.512492,919.314598
569.791924,-370.102971,-8734.430116,383.047749
569.792251,-444.123565,-8882.471304,383.047749
569.792579,-296.082377,-9030.512492,536.266849
569.792906,-148.041188,-9178.553681,612.876398
569.793234,-222.061783,-9326.594869,612.876398
569.793561,0.000000,-9030.512492,919.314598
569.793889,-444.123565,-9252.574275,612.876398
569.794216,-222.061783,-9326.594869,612.876398
569.794544,-296.082377,-9474.636058,689.485948
569.794871,-222.061783,-9474.636058,612.876398
569.795199,-148.041188,-9696.697840,766.095498
569.795526,-296.082377,-9474.636058,536.266849
569.795854,-222.061783,-9178.553681,536.266849
569.796182,-222.061783,-9178.553681,229.828649
569.796509,-296.082377,-9104.533087,383.047749
569.796837,0.000000,-8956.491898,76.609550
569.797164,74.020594,-8956.491898,306.438199
569.797492,-148.041188,-9030.512492,383.047749
569.797819,0.000000,-9326.594869,842.705048
569.798147,0.000000,-9400.615463,383.047749
569.798474,-296.082377,-9252.574275,306.438199
569.798802,222.061783,-9326.594869,689.485948
569.799129,0.000000,-9770.718434,612.876398
569.799457,0.000000,-9844.739029,689.485948
569.799784,-148.041188,-9696.697840,612.876398
569.800112,0.000000,-9474.636058,612.876398
569.800439,0.000000,-9178.553681,1149.143247
569.800767,-148.041188,-8956.491898,689.485948
569.801095,-296.082377,-9030.512492,536.266849
569.801422,-370.102971,-8808.450710,459.657299
569.801750,-370.102971,-8808.450710,153.219100
569.802077,-148.041188,-8808.450710,229.828649
569.802405,-518.144159,-8882.471304,612.876398
569.802732,-592.164754,-9178.553681,612.876398
569.803060,-444.123565,-9178.553681,995.924147
569.803387,0.000000,-9252.574275,842.705048
569.803715,-296.082377,-8660.409521,689.485948
569.804042,-296.082377,-9178.553681,995.924147
569.804370,-740.205942,-9104.533087,766.095498
569.804697,-518.144159,-8956.491898,612.876398
569.805025,-740.205942,-9030.512492,689.485948
569.805352,-666.185348,-8808.450710,459.657299
569.805680,-592.164754,-8512.368333,383.047749
569.806008,-518.144159,-8808.450710,766.095498
569.806335,-222.061783,-8808.450710,383.047749
569.806663,-222.061783,-8808.450710,383.047749
569.806990,-222.061783,-8882.471304,459.657299
569.807318,0.000000,-8660.409521,536.266849
569.807645,0.000000,-8956.491898,612.876398
569.807973,0.000000,-9030.512492,612.876398
569.808300,-370.102971,-9326.594869,612.876398
569.808628,-222.061783,-9474.636058,689.485948
569.808955,-666.185348,-9178.553681,995.924147
569.809283,-296.082377,-9178.553681,383.047749
569.809610,-444.123565,-9326.594869,766.095498
569.809938,-370.102971,-8956.491898,612.876398
569.810265,-444.123565,-8882.471304,76.609550
569.810593,-370.102971,-8734.430116,459.657299
569.810921,-222.061783,-8734.430116,0.000000
569.811248,-444.123565,-8808.450710,306.438199
569.811576,-518.144159,-8882.471304,306.438199
569.811903,-444.123565,-9030.512492,536.266849
569.812231,-444.123565,-9400.615463,306.438199
569.812558,-592.164754,-8882.471304,229.828649
569.812886,-222.061783,-9104.533087,536.266849
569.813213,0.000000,-9178.553681,536.266849
569.813541,0.000000,-9030.512492,383.047749
569.813868,-444.123565,-9252.574275,383.047749
569.814196,0.000000,-9474.636058,536.266849
569.814523,-592.164754,-9104.533087,536.266849
569.814851,-740.205942,-8956.491898,612.876398
569.815178,-592.164754,-8956.491898,536.266849
569.815506,-370.102971,-9030.512492,689.485948
569.815834,0.000000,-8660.409521,919.314598
569.816161,-370.102971,-8512.368333,536.266849
569.816489,-444.123565,-8808.450710,536.266849
569.816816,-296.082377,-8956.491898,612.876398
569.817144,-370.102971,-9178.553681,536.266849
569.817471,-370.102971,-8882.471304,919.314598
569.817799,-296.082377,-8956.491898,995.924147
569.818126,-444.123565,-9400.615463,612.876398
569.818454,-592.164754,-9326.594869,919.314598
569.818781,-444.123565,-9252.574275,689.485948
569.819109,-296.082377,-8882.471304,766.095498
569.819436,-666.185348,-8660.409521,76.609550
569.819764,-592.164754,-8882.471304,536.266849
569.820091,-814.226536,-8660.409521,306.438199
569.820419,-592.164754,-8956.491898,689.485948
569.820747,-444.123565,-9104.533087,536.266849
569.821074,-296.082377,-9030.512492,383.047749
569.821402,-148.041188,-8882.471304,612.876398
569.821729,0.000000,-9104.533087,536.266849
569.822057,0.000000,-9400.615463,383.047749
569.822384,0.000000,-9178.553681,766.095498
569.822712,370.102971,-8956.491898,1225.752797
569.823039,296.082377,-9178.553681,1149.143247
569.823367,74.020594,-9548.656652,842.705048
569.823694,0.000000,-9474.636058,306.438199
569.824022,-148.041188,-9474.636058,689.485948
569.824349,0.000000,-8808.450710,842.705048
569.824677,-444.123565,-9178.553681,766.095498
569.825004,0.000000,-9178.553681,153.219100
569.825332,-370.102971,-9030.512492,459.657299
569.825660,-222.061783,-9104.533087,383.047749
569.825987,-222.061783,-9178.553681,459.657299
569.826315,0.000000,-9030.512492,689.485948
569.826642,222.061783,-9622.677246,383.047749
569.826970,444.123565,-9548.656652,536.266849
569.827297,222.061783,-9400.615463,383.047749
569.827625,148.041188,-9622.677246,459.657299
569.827952,222.061783,-9474.636058,689.485948
569.828280,74.020594,-9326.594869,689.485948
569.828607,0.000000,-9326.594869,536.266849
569.828935,-148.041188,-9326.594869,536.266849
569.829262,-296.082377,-9178.553681,766.095498
569.829590,-370.102971,-9178.553681,612.876398
569.829917,-222.061783,-8734.430116,459.657299
569.830245,-518.144159,-8956.491898,689.485948
569.830573,-518.144159,-8956.491898,383.047749
569.830900,-222.061783,-9178.553681,536.266849
569.831228,-296.082377,-9030.512492,995.924147
569.831555,-370.102971,-9104.533087,919.314598
569.831883,-370.102971,-9178.553681,919.314598
569.832210,-370.102971,-9326.594869,766.095498
569.832538,-518.144159,-9400.615463,689.485948
569.832865,-370.102971,-9326.594869,766.095498
569.833193,0.000000,-9178.553681,1072.533697
569.833520,-444.123565,-8808.450710,612.876398
569.833848,-518.144159,-8956.491898,459.657299
569.834175,-666.185348,-8808.450710,536.266849
569.834503,-592.164754,-8660.409521,229.828649
569.834830,0.000000,-8438.347739,459.657299
569.835158,-370.102971,-8660.409521,459.657299
569.835486,-444.123565,-8734.430116,612.876398
569.835813,-222.061783,-9030.512492,459.657299
569.836141,-296.082377,-9030.512492,459.657299
569.836468,0.000000,-9104.533087,612.876398
569.836796,0.000000,-8512.368333,689.485948
569.837123,0.000000,-9400.615463,459.657299
569.837451,-148.041188,-9252.574275,536.266849
569.837778,-222.061783,-9326.594869,459.657299
569.838106,-296.082377,-8956.491898,229.828649
569.838433,0.000000,-8956.491898,689.485948
569.838761,-370.102971,-8882.471304,153.219100
569.839088,-444.123565,-8882.471304,306.438199
569.839416,-444.123565,-8808.450710,76.609550
569.839743,-222.061783,-8734.430116,995.924147
569.840071,0.000000,-8808.450710,306.438199
569.840399,-444.123565,-8734.430116,536.266849
569.840726,-296.082377,-8882.471304,536.266849
569.841054,-148.041188,-9178.553681,612.876398
569.841381,-296.082377,-9178.553681,689.485948
569.841709,-296.082377,-9030.512492,842.705048
569.842036,-518.144159,-9030.512492,766.095498
569.842364,-592.164754,-9252.574275,919.314598
569.842691,-740.205942,-9030.512492,766.095498
569.843019,-592.164754,-8956.491898,689.485948
569.843346,-592.164754,-8734.430116,1225.752797
569.843674,-518.144159,-9252.574275,842.705048
569.844001,-814.226536,-8882.471304,459.657299
569.844329,-740.205942,-8882.471304,612.876398
569.844656,-444.123565,-8956.491898,459.657299
569.844984,-370.102971,-8808.450710,995.924147
569.845312,-444.123565,-9030.512492,153.219100
569.845639,-148.041188,-9252.574275,766.095498
569.845967,-148.041188,-9178.553681,612.876398
569.846294,-148.041188,-9474.636058,919.314598
569.846622,-296.082377,-9696.697840,766.095498
569.846949,74.020594,-9400.615463,919.314598
569.847277,-222.061783,-9400.615463,689.485948
569.847604,-148.041188,-9400.615463,842.705048
569.847932,0.000000,-9474.636058,689.485948
569.848259,-296.082377,-9104.533087,459.657299
569.848587,74.020594,-9030.512492,612.876398
569.848914,-370.102971,-8586.388927,306.438199
569.849242,-296.082377,-9030.512492,536.266849
569.849569,0.000000,-9400.615463,459.657299
569.849897,0.000000,-9252.574275,76.609550
569.850225,74.020594,-9030.512492,229.828649
569.850552,370.102971,-9326.594869,536.266849
569.850880,222.061783,-9474.636058,383.047749
569.851207,148.041188,-9548.656652,306.438199
569.851535,0.000000,-9548.656652,383.047749
569.851862,0.000000,-9400.615463,306.438199
569.852190,74.020594,-9400.615463,919.314598
569.852517,-222.061783,-9474.636058,612.876398
569.852845,-370.102971,-9326.594869,766.095498
569.853172,-444.123565,-9252.574275,536.266849
569.853500,-444.123565,-9030.512492,459.657299
569.853827,0.000000,-8956.491898,612.876398
569.854155,-518.144159,-8808.450710,612.876398
569.854482,-370.102971,-8956.491898,689.485948
569.854810,-296.082377,-9030.512492,536.266849
569.855138,-296.082377,-9030.512492,459.657299
569.855465,-222.061783,-9252.574275,306.438199
569.855793,0.000000,-9178.553681,842.705048
569.856120,-370.102971,-9252.574275,766.095498
569.856448,-444.123565,-9178.553681,766.095498
569.856775,-444.123565,-9030.512492,919.314598
569.857103,-444.123565,-9030.512492,306.438199
569.857430,-370.102971,-8956.491898,766.095498
569.857758,-444.123565,-8882.471304,306.438199
569.858085,-592.164754,-8882.471304,383.047749
569.858413,-666.185348,-8882.471304,536.266849
569.858740,-592.164754,-8660.409521,842.705048
569.859068,-518.144159,-8882.471304,689.485948
569.859395,0.000000,-9104.533087,612.876398
569.859723,0.000000,-9178.553681,536.266849
569.860051,0.000000,-9178.553681,536.266849
569.860378,0.000000,-9474.636058,229.828649
569.860706,-74.020594,-8956.491898,766.095498
569.861033,148.041188,-9178.553681,459.657299
569.861361,74.020594,-9252.574275,459.657299
569.861688,74.020594,-9252.574275,383.047749
569.862016,-148.041188,-9474.636058,536.266849
569.862343,-222.061783,-8956.491898,306.438199
569.862671,0.000000,-8586.388927,306.438199
569.862998,-296.082377,-8734.430116,229.828649
569.863326,-148.041188,-8660.409521,229.828649
569.863653,-222.061783,-8808.450710,76.609550
569.863981,0.000000,-8586.388927,153.219100
569.864308,74.020594,-8808.450710,689.485948
569.864636,74.020594,-9178.553681,459.657299
569.864963,0.000000,-9400.615463,459.657299
569.865291,0.000000,-9400.615463,689.485948
569.865619,0.000000,-9326.594869,612.876398
569.865946,-222.061783,-9178.553681,919.314598
569.866274,-444.123565,-9178.553681,689.485948
569.866601,-370.102971,-9252.574275,612.876398
569.866929,-222.061783,-9178.553681,536.266849
569.867256,-592.164754,-9030.512492,919.314598
569.867584,-888.247130,-8734.430116,612.876398
569.867911,-592.164754,-8956.491898,612.876398
569.868239,-740.205942,-8882.471304,459.657299
569.868566,-962.267725,-8956.491898,689.485948
569.868894,-666.185348,-9104.533087,689.485948
569.869221,-370.102971,-8734.430116,1455.581446
569.869549,-148.041188,-8956.491898,919.314598
569.869876,-370.102971,-9104.533087,842.705048
569.870204,-296.082377,-9326.594869,995.924147
569.870532,-518.144159,-9178.553681,842.705048
569.870859,-370.102971,-9030.512492,766.095498
569.871187,-222.061783,-9178.553681,842.705048
569.871514,-592.164754,-9178.553681,766.095498
569.871842,-666.185348,-9326.594869,612.876398
569.872169,-518.144159,-9030.512492,459.657299
569.872497,-592.164754,-9030.512492,612.876398
569.872824,-74.020594,-8586.388927,383.047749
569.873152,-666.185348,-8956.491898,153.219100
569.873479,-444.123565,-8956.491898,76.609550
569.873807,-148.041188,-8956.491898,383.047749
569.874135,0.000000,-9104.533087,306.438199
569.874462,74.020594,-9104.533087,536.266849
569.874790,148.041188,-9030.512492,306.438199
569.875117,0.000000,-9400.615463,383.047749
569.875445,0.000000,-9178.553681,383.047749
569.875773,0.000000,-9178.553681,383.047749
569.876100,0.000000,-8808.450710,306.438199
569.876428,-222.061783,-8660.409521,459.657299
569.876755,-222.061783,-8956.491898,306.438199
569.877083,-296.082377,-8882.471304,153.219100
569.877411,-370.102971,-8882.471304,76.609550
569.877738,-222.061783,-8882.471304,153.219100
569.878066,-370.102971,-8734.430116,536.266849
569.878393,-222.061783,-9030.512492,459.657299
569.878721,0.000000,-9030.512492,306.438199
569.879049,0.000000,-9252.574275,306.438199
569.879376,-296.082377,-9252.574275,383.047749
569.879704,-222.061783,-9030.512492,842.705048
569.880031,-222.061783,-9326.594869,689.485948
569.880359,-222.061783,-9400.615463,612.876398
569.880686,-296.082377,-9400.615463,766.095498
569.881014,-444.123565,-9326.594869,766.095498
569.881342,-222.061783,-9104.533087,995.924147
569.881669,-666.185348,-9030.512492,536.266849
569.881997,-518.144159,-9030.512492,919.314598
569.882324,-444.123565,-8956.491898,459.657299
569.882652,-296.082377,-8882.471304,766.095498
569.882980,-148.041188,-8882.471304,995.924147
569.883307,-148.041188,-8808.450710,766.095498
569.883635,-444.123565,-9252.574275,612.876398
569.883962,-296.082377,-9326.594869,689.485948
569.884290,-148.041188,-9474.636058,919.314598
569.884618,-222.061783,-9400.615463,995.924147
569.884945,-148.041188,-9400.615463,689.485948
569.885273,-296.082377,-9548.656652,536.266849
569.885600,0.000000,-9474.636058,612.876398
569.885928,0.000000,-9400.615463,612.876398
569.886256,-222.061783,-9474.636058,612.876398
569.886583,-222.061783,-8882.471304,306.438199
569.886911,-296.082377,-9178.553681,766.095498
569.887238,-444.123565,-9326.594869,459.657299
569.887566,-666.185348,-8882.471304,459.657299
569.887894,-222.061783,-9104.533087,459.657299
569.888221,0.000000,-9104.533087,459.657299
569.888549,0.000000,-9030.512492,536.266849
569.888876,74.020594,-9252.574275,459.657299
569.889204,0.000000,-9252.574275,383.047749
569.889532,74.020594,-9178.553681,766.095498
569.889859,0.000000,-9400.615463,0.000000
569.890187,0.000000,-8882.471304,919.314598
569.890514,-222.061783,-9030.512492,536.266849
569.890842,-296.082377,-9178.553681,536.266849
569.891170,-518.144159,-8808.450710,459.657299
569.891497,-370.102971,-8882.471304,612.876398
569.891825,-962.267725,-8512.368333,306.438199
569.892152,-296.082377,-8808.450710,459.657299
569.892480,-444.123565,-8956.491898,306.438199
569.892808,-444.123565,-8808.450710,536.266849
569.893135,-370.102971,-8808.450710,612.876398
569.893463,-148.041188,-8438.347739,995.924147
569.893790,-370.102971,-8660.409521,689.485948
569.894118,-370.102971,-9326.594869,612.876398
569.894446,-592.164754,-9326.594869,919.314598
569.894773,-518.144159,-8956.491898,919.314598
569.895101,-518.144159,-8734.430116,536.266849
569.895428,-444.123565,-8586.388927,919.314598
569.895756,-814.226536,-8660.409521,689.485948
569.896084,-740.205942,-8734.430116,689.485948
569.896411,-888.247130,-8512.368333,612.876398
569.896739,-222.061783,-8882.471304,689.485948
569.897066,-518.144159,-8512.368333,229.828649
569.897394,-444.123565,-8882.471304,459.657299
569.897721,-370.102971,-8882.471304,383.047749
569.898049,-222.061783,-8808.450710,536.266849
569.898377,-148.041188,-9104.533087,689.485948
569.898704,-296.082377,-9030.512492,919.314598
569.899032,-148.041188,-9178.553681,383.047749
569.899359,0.000000,-9178.553681,689.485948
569.899687,0.000000,-9252.574275,383.047749
569.900015,0.000000,-9326.594869,612.876398
569.900342,0.000000,-9326.594869,536.266849
569.900670,-148.041188,-9104.533087,612.876398
569.900997,-222.061783,-8956.491898,76.609550
569.901325,0.000000,-8956.491898,229.828649
569.901653,0.000000,-9104.533087,0.000000
569.901980,-222.061783,-8808.450710,306.438199
569.902308,0.000000,-8882.471304,306.438199
569.902635,0.000000,-9030.512492,383.047749
569.902963,0.000000,-9400.615463,459.657299
569.903291,74.020594,-9400.615463,689.485948
569.903618,74.020594,-8882.471304,612.876398
569.903946,222.061783,-9400.615463,689.485948
569.904273,0.000000,-9252.574275,612.876398
569.904601,-296.082377,-9252.574275,612.876398
569.904929,-222.061783,-9252.574275,536.266849
569.905256,-444.123565,-9252.574275,689.485948
569.905584,-370.102971,-8956.491898,919.314598
569.905911,-592.164754,-9326.594869,536.266849
569.906239,-592.164754,-9178.553681,612.876398
569.906567,-592.164754,-9178.553681,842.705048
569.906894,-296.082377,-9030.512492,766.095498
569.907222,-370.102971,-9474.636058,459.657299
569.907549,-518.144159,-9400.615463,766.095498
569.907877,-296.082377,-9622.677246,995.924147
569.908205,-370.102971,-9622.677246,842.705048
569.908532,-222.061783,-9474.636058,689.485948
569.908860,0.000000,-9178.553681,919.314598
569.909187,74.020594,-9474.636058,919.314598
569.909515,-222.061783,-9104.533087,919.314598
569.909843,-370.102971,-9030.512492,612.876398
569.910170,-296.082377,-9252.574275,459.657299
569.910498,-370.102971,-9178.553681,536.266849
569.910825,0.000000,-8734.430116,536.266849
569.911153,-370.102971,-8956.491898,459.657299
569.911481,0.000000,-9252.574275,536.266849
569.911808,0.000000,-9252.574275,536.266849
569.912136,0.000000,-9104.533087,383.047749
569.912463,-518.144159,-9400.615463,689.485948
569.912791,296.082377,-9326.594869,229.828649
569.913119,0.000000,-9252.574275,306.438199
569.913446,222.061783,-9474.636058,459.657299
569.913774,0.000000,-9252.574275,459.657299
569.914101,-222.061783,-8882.471304,919.314598
569.914429,74.020594,-9178.553681,153.219100
569.914757,-148.041188,-8956.491898,76.609550
569.915084,-222.061783,-8956.491898,153.219100
569.915412,-296.082377,-8734.430116,153.219100
569.915739,-370.102971,-8808.450710,536.266849
569.916067,-148.041188,-8512.368333,383.047749
569.916394,-222.061783,-8660.409521,536.266849
569.916722,0.000000,-8956.491898,536.266849
569.917050,-370.102971,-8956.491898,689.485948
569.917377,0.000000,-9252.574275,995.924147
569.917705,-222.061783,-9104.533087,766.095498
569.918032,-370.102971,-8882.471304,766.095498
569.918360,-222.061783,-8956.491898,842.705048
569.918688,-518.144159,-8956.491898,919.314598
569.919015,-740.205942,-8956.491898,842.705048
569.919343,-444.123565,-8734.430116,1225.752797
569.919670,-814.226536,-8882.471304,689.485948
569.919998,-740.205942,-8660.409521,842.705048
569.920326,-814.226536,-8734.430116,459.657299
569.920653,-666.185348,-8808.450710,612.876398
569.920981,-592.164754,-8808.450710,842.705048
569.921308,-518.144159,-9104.533087,995.924147
569.921636,-518.144159,-9030.512492,689.485948
569.921964,-370.102971,-9326.594869,842.705048
569.922291,-222.061783,-9474.636058,612.876398
569.922619,0.000000,-9178.553681,1072.533697
569.922946,0.000000,-9252.574275,612.876398
569.923274,-148.041188,-9326.594869,612.876398
569.923602,0.000000,-9252.574275,689.485948
569.923929,0.000000,-9252.574275,383.047749
569.924257,0.000000,-9030.512492,383.047749
569.924584,222.061783,-8808.450710,153.219100
569.924912,-444.123565,-8956.491898,306.438199
569.925240,-148.041188,-9030.512492,76.609550
569.925567,0.000000,-8956.491898,153.219100
569.925895,74.020594,-9104.533087,153.219100
569.926222,0.000000,-9030.512492,459.657299
569.926550,0.000000,-9252.574275,229.828649
569.926878,0.000000,-9178.553681,229.828649
569.927205,74.020594,-9178.553681,459.657299
569.927533,0.000000,-9252.574275,229.828649
569.927860,0.000000,-9252.574275,612.876398
569.928188,0.000000,-9844.739029,459.657299
569.928516,-222.061783,-9474.636058,842.705048
569.928843,-222.061783,-9178.553681,459.657299
569.929171,-370.102971,-9030.512492,536.266849
569.929498,-296.082377,-9030.512492,1072.533697
569.929826,-296.082377,-8882.471304,689.485948
569.930154,-296.082377,-8956.491898,459.657299
569.930481,-296.082377,-9030.512492,459.657299
569.930809,-444.123565,-9178.553681,689.485948
569.931136,-444.123565,-9178.553681,995.924147
569.931464,0.000000,-8956.491898,842.705048
569.931792,-296.082377,-9030.512492,766.095498
569.932119,0.000000,-9178.553681,766.095498
569.932447,-296.082377,-9326.594869,842.705048
569.932774,-370.102971,-9252.574275,689.485948
569.933102,-296.082377,-9104.533087,1225.752797
569.933429,-740.205942,-8956.491898,995.924147
569.933757,-518.144159,-8882.471304,536.266849
569.934085,-666.185348,-9030.512492,459.657299
569.934412,-518.144159,-9104.533087,306.438199
569.934740,-592.164754,-8808.450710,383.047749
569.935067,0.000000,-9178.553681,229.828649
569.935395,-370.102971,-8956.491898,459.657299
569.935723,-148.041188,-9252.574275,612.876398
569.936050,0.000000,-9252.574275,383.047749
569.936378,148.041188,-9104.533087,766.095498
569.936705,370.102971,-9104.533087,612.876398
569.937033,148.041188,-9326.594869,536.266849
569.937361,74.020594,-9474.636058,766.095498
569.937688,-148.041188,-9252.574275,919.314598
569.938016,0.000000,-9104.533087,536.266849
569.938343,-444.123565,-8734.430116,689.485948
569.938671,-148.041188,-9030.512492,306.438199
569.938999,-296.082377,-8882.471304,306.438199
569.939326,-296.082377,-8734.430116,536.266849
569.939654,-370.102971,-8660.409521,383.047749
569.939981,-518.144159,-8586.388927,383.047749
569.940309,-296.082377,-9104.533087,766.095498
569.940637,-296.082377,-9104.533087,383.047749
569.940964,-148.041188,-9400.615463,612.876398
569.941292,-222.061783,-9400.615463,459.657299
569.941619,148.041188,-9178.553681,766.095498
569.941947,0.000000,-9474.636058,536.266849
569.942275,-370.102971,-9252.574275,536.266849
569.942602,-666.185348,-9326.594869,842.705048
569.942930,-888.247130,-9252.574275,689.485948
569.943257,-444.123565,-9104.533087,1225.752797
569.943585,-592.164754,-8808.450710,689.485948
569.943913,-814.226536,-8808.450710,536.266849
569.944240,-370.102971,-8882.471304,689.485948
569.944568,-222.061783,-8808.450710,612.876398
569.944895,-518.144159,-8882.471304,612.876398
569.945223,-296.082377,-8734.430116,1072.533697
569.945551,-370.102971,-9400.615463,536.266849
569.945878,-222.061783,-9326.594869,536.266849
569.946206,-296.082377,-9326.594869,995.924147
569.946533,0.000000,-9326.594869,689.485948
569.946861,0.000000,-9400.615463,1302.362347
569.947189,-518.144159,-9400.615463,612.876398
569.947516,-370.102971,-9178.553681,612.876398
569.947844,-370.102971,-9030.512492,306.438199
569.948171,-518.144159,-8956.491898,459.657299
569.948499,0.000000,-8660.409521,919.314598
569.948827,-370.102971,-8586.388927,306.438199
569.949154,-296.082377,-8808.450710,536.266849
569.949482,-444.123565,-8734.430116,536.266849
569.949809,-222.061783,-9104.533087,536.266849
569.950137,222.061783,-8882.471304,229.828649
569.950465,0.000000,-9326.594869,306.438199
569.950792,0.000000,-9252.574275,612.876398
569.951120,0.000000,-9474.636058,536.266849
569.951447,0.000000,-9474.636058,536.266849
569.951775,0.000000,-9326.594869,842.705048
569.952102,0.000000,-9104.533087,306.438199
569.952430,-444.123565,-9030.512492,459.657299
569.952758,-296.082377,-9104.533087,306.438199
569.953085,-370.102971,-8734.430116,229.828649
569.953413,-296.082377,-8734.430116,306.438199
569.953740,-444.123565,-8586.388927,536.266849
569.954068,-592.164754,-8290.306550,536.266849
569.954396,-592.164754,-8808.450710,306.438199
569.954723,-370.102971,-8808.450710,612.876398
569.955051,-370.102971,-9030.512492,689.485948
569.955378,0.000000,-9252.574275,842.705048
569.955706,0.000000,-9178.553681,459.657299
569.956034,-148.041188,-9400.615463,689.485948
569.956361,0.000000,-9474.636058,612.876398
569.956689,-444.123565,-9326.594869,536.266849
569.957016,0.000000,-9252.574275,766.095498
569.957344,-370.102971,-9178.553681,1149.143247
569.957672,-296.082377,-9178.553681,383.047749
569.957999,-518.144159,-9030.512492,459.657299
569.958327,-592.164754,-9030.512492,306.438199
569.958654,-370.102971,-9104.533087,536.266849
569.958982,0.000000,-8586.388927,536.266849
569.959310,-370.102971,-8882.471304,689.485948
569.959637,-222.061783,-9030.512492,229.828649
569.959965,-148.041188,-9252.574275,766.095498
569.960292,0.000000,-9474.636058,842.705048
569.960620,0.000000,-9548.656652,766.095498
569.960948,0.000000,-9474.636058,612.876398
569.961275,-296.082377,-9548.656652,766.095498
569.961603,-296.082377,-9474.636058,536.266849
569.961930,-296.082377,-9178.553681,612.876398
569.962258,0.000000,-9030.512492,229.828649
569.962586,-222.061783,-8808.450710,459.657299
569.962913,0.000000,-9030.512492,612.876398
569.963241,-370.102971,-8956.491898,459.657299
569.963568,-222.061783,-9030.512492,459.657299
569.963896,-222.061783,-9104.533087,459.657299
569.964224,0.000000,-9104.533087,612.876398
569.964551,74.020594,-9252.574275,383.047749
569.964879,74.020594,-9326.594869,536.266849
569.965206,0.000000,-9400.615463,306.438199
569.965534,0.000000,-9474.636058,612.876398
569.965862,-370.102971,-9030.512492,689.485948
569.966189,0.000000,-9326.594869,612.876398
569.966517,-296.082377,-9326.594869,766.095498
569.966844,-444.123565,-9252.574275,766.095498
569.967172,-444.123565,-9178.553681,689.485948
569.967500,-370.102971,-8734.430116,766.095498
569.967827,-592.164754,-8734.430116,536.266849
569.968155,-666.185348,-8808.450710,459.657299
569.968482,-518.144159,-9030.512492,612.876398
569.968810,-296.082377,-9030.512492,689.485948
569.969137,0.000000,-8956.491898,612.876398
569.969465,74.020594,-9178.553681,689.485948
569.969793,0.000000,-9474.636058,689.485948
569.970120,-222.061783,-9400.615463,689.485948
569.970448,-444.123565,-9474.636058,919.314598
569.970775,-444.123565,-9548.656652,766.095498
569.971103,-148.041188,-9400.615463,766.095498
569.971431,-370.102971,-9326.594869,689.485948
569.971758,-444.123565,-9326.594869,612.876398
569.972086,-370.102971,-9104.533087,459.657299
569.972413,-444.123565,-8660.409521,459.657299
569.972741,-148.041188,-8438.347739,995.924147
569.973069,-444.123565,-8438.347739,383.047749
569.973396,-296.082377,-8734.430116,536.266849
569.973724,-222.061783,-8808.450710,229.828649
569.974051,0.000000,-8734.430116,383.047749
569.974379,74.020594,-8512.368333,612.876398
569.974707,74.020594,-9326.594869,306.438199
569.975034,0.000000,-9104.533087,612.876398
569.975362,-222.061783,-9252.574275,459.657299
569.975689,0.000000,-9178.553681,383.047749
569.976017,0.000000,-9030.512492,1225.752797
569.976344,-370.102971,-9400.615463,153.219100
569.976672,-444.123565,-9178.553681,0.000000
569.976999,-444.123565,-8956.491898,153.219100
569.977327,-296.082377,-8956.491898,306.438199
569.977655,-444.123565,-8734.430116,76.609550
569.977982,-296.082377,-8734.430116,229.828649
569.978310,-148.041188,-8808.450710,383.047749
569.978637,-296.082377,-8808.450710,536.266849
569.978965,-370.102971,-8882.471304,612.876398
569.979292,-296.082377,-9178.553681,612.876398
569.979620,0.000000,-9178.553681,536.266849
569.979947,0.000000,-9178.553681,229.828649
569.980275,0.000000,-9178.553681,536.266849
569.980602,-518.144159,-9104.533087,383.047749
569.980930,-222.061783,-9104.533087,689.485948
569.981258,-296.082377,-8586.388927,995.924147
569.981585,-296.082377,-8586.388927,383.047749
569.981913,-370.102971,-8586.388927,229.828649
569.982240,-444.123565,-8734.430116,612.876398
569.982568,-666.185348,-9104.533087,459.657299
569.982895,-370.102971,-9104.533087,689.485948
569.983223,0.000000,-8882.471304,689.485948
569.983550,0.000000,-9400.615463,612.876398
569.983878,0.000000,-9474.636058,842.705048
569.984205,0.000000,-9474.636058,919.314598
569.984533,0.000000,-9622.677246,919.314598
569.984861,74.020594,-9474.636058,766.095498
569.985188,-370.102971,-9770.718434,689.485948
569.985516,-222.061783,-9474.636058,536.266849
569.985843,-444.123565,-9252.574275,766.095498
569.986171,-444.123565,-8956.491898,689.485948
569.986498,-666.185348,-8808.450710,1072.533697
569.986826,-740.205942,-8512.368333,689.485948
569.987153,-814.226536,-8734.430116,383.047749
569.987481,-962.267725,-8660.409521,383.047749
569.987808,-444.123565,-9030.512492,306.438199
569.988136,-740.205942,-8882.471304,919.314598
569.988464,222.061783,-9104.533087,766.095498
569.988791,-148.041188,-9252.574275,689.485948
569.989119,-296.082377,-9400.615463,459.657299
569.989446,-370.102971,-9474.636058,612.876398
569.989774,-222.061783,-9474.636058,612.876398
569.990101,-370.102971,-9474.636058,383.047749
569.990429,-148.041188,-9474.636058,536.266849
569.990756,-222.061783,-9326.594869,459.657299
569.991084,-296.082377,-9252.574275,612.876398
569.991411,-518.144159,-9030.512492,612.876398
569.991739,-148.041188,-8956.491898,76.609550
569.992066,-370.102971,-8882.471304,689.485948
569.992394,-148.041188,-8734.430116,383.047749
569.992722,0.000000,-9030.512492,536.266849
569.993049,74.020594,-9030.512492,689.485948
569.993377,222.061783,-9104.533087,612.876398
569.993704,148.041188,-8882.471304,766.095498
569.994032,0.000000,-9030.512492,842.705048
569.994359,-222.061783,-9178.553681,842.705048
569.994687,-370.102971,-9474.636058,766.095498
569.995014,0.000000,-9030.512492,689.485948
569.995342,0.000000,-8734.430116,995.924147
569.995669,0.000000,-8808.450710,536.266849
569.995997,-222.061783,-8808.450710,459.657299
569.996325,-296.082377,-8734.430116,0.000000
569.996652,-666.185348,-8660.409521,229.828649
569.996980,-370.102971,-8364.327145,306.438199
569.997307,-740.205942,-8808.450710,536.266849
569.997635,-592.164754,-9030.512492,536.266849
569.997962,-444.123565,-8882.471304,383.047749
569.998290,0.000000,-9030.512492,536.266849
569.998617,148.041188,-8734.430116,1608.800546
569.998945,74.020594,-8882.471304,383.047749
569.999272,0.000000,-9030.512492,612.876398
569.999600,-222.061783,-9104.533087,536.266849
569.999928,-370.102971,-9178.553681,919.314598
570.000255,-222.061783,-9252.574275,766.095498
570.000583,0.000000,-9474.636058,612.876398
570.000910,-370.102971,-9178.553681,689.485948
570.001238,-444.123565,-9252.574275,536.266849
570.001565,-148.041188,-8882.471304,536.266849
570.001893,-296.082377,-8512.368333,536.266849
570.002220,-148.041188,-8142.265362,153.219100
570.002548,-222.061783,-8660.409521,153.219100
570.002875,-296.082377,-8808.450710,536.266849
570.003203,-370.102971,-9030.512492,306.438199
570.003531,-296.082377,-9400.615463,766.095498
570.003858,-222.061783,-9400.615463,1225.752797
570.004186,-370.102971,-9696.697840,842.705048
570.004513,0.000000,-9548.656652,689.485948
570.004841,0.000000,-9400.615463,612.876398
570.005168,0.000000,-8956.491898,689.485948
570.005496,74.020594,-9326.594869,229.828649
570.005823,0.000000,-9474.636058,612.876398
570.006151,-592.164754,-9104.533087,612.876398
570.006478,-592.164754,-9178.553681,383.047749
570.006806,-592.164754,-9326.594869,766.095498
570.007133,-518.144159,-9178.553681,1225.752797
570.007461,-370.102971,-8808.450710,536.266849
570.007789,-370.102971,-8956.491898,536.266849
570.008116,-296.082377,-8808.450710,229.828649
570.008444,0.000000,-8808.450710,536.266849
570.008771,-222.061783,-8882.471304,612.876398
570.009099,-444.123565,-8734.430116,612.876398
570.009426,-370.102971,-9400.615463,842.705048
570.009754,-444.123565,-9548.656652,612.876398
570.010081,-444.123565,-9548.656652,766.095498
570.010409,-370.102971,-9474.636058,383.047749
570.010736,-222.061783,-8956.491898,1149.143247
570.011064,0.000000,-8956.491898,383.047749
570.011392,0.000000,-9104.533087,229.828649
570.011719,-148.041188,-8956.491898,459.657299
570.012047,0.000000,-9178.553681,459.657299
570.012374,-296.082377,-8808.450710,689.485948
570.012702,0.000000,-9622.677246,689.485948
570.013029,-222.061783,-9400.615463,536.266849
570.013357,0.000000,-9326.594869,459.657299
570.013684,222.061783,-9252.574275,459.657299
570.014012,0.000000,-9030.512492,689.485948
570.014339,-222.061783,-8734.430116,459.657299
570.014667,-296.082377,-9178.553681,229.828649
570.014995,-444.123565,-9252.574275,383.047749
570.015322,-296.082377,-9178.553681,536.266849
570.015650,-296.082377,-9104.533087,383.047749
570.015977,-444.123565,-8882.471304,1072.533697
570.016305,-370.102971,-9104.533087,459.657299
570.016632,-222.061783,-9030.512492,306.438199
570.016960,-148.041188,-9178.553681,383.047749
570.017287,-222.061783,-9178.553681,383.047749
570.017615,0.000000,-8956.491898,1225.752797
570.017942,0.000000,-9326.594869,536.266849
570.018270,0.000000,-9178.553681,842.705048
570.018598,-296.082377,-9326.594869,766.095498
570.018925,0.000000,-9252.574275,919.314598
570.019253,74.020594,-8882.471304,766.095498
570.019580,0.000000,-9104.533087,612.876398
570.019908,-222.061783,-8882.471304,306.438199
570.020235,-370.102971,-9030.512492,536.266849
570.020563,-296.082377,-9104.533087,612.876398
570.020890,-148.041188,-9104.533087,919.314598
570.021218,-296.082377,-9252.574275,919.314598
570.021545,-518.144159,-9252.574275,842.705048
570.021873,-592.164754,-9104.533087,766.095498
570.022200,-518.144159,-9178.553681,612.876398
570.022528,-370.102971,-9030.512492,383.047749
570.022856,74.020594,-9474.636058,0.000000
570.023183,-370.102971,-9104.533087,383.047749
570.023511,-444.123565,-9326.594869,383.047749
570.023838,-444.123565,-9400.615463,612.876398
570.024166,-370.102971,-9252.574275,689.485948
570.024493,0.000000,-9474.636058,383.047749
570.024821,0.000000,-9252.574275,229.828649
570.025148,-370.102971,-9104.533087,383.047749
570.025476,-370.102971,-9252.574275,306.438199
570.025803,-296.082377,-8956.491898,153.219100
570.026131,-592.164754,-8734.430116,383.047749
570.026459,0.000000,-9252.574275,766.095498
570.026786,-296.082377,-9252.574275,383.047749
570.027114,-148.041188,-9326.594869,536.266849
570.027441,0.000000,-9030.512492,383.047749
570.027769,148.041188,-8660.409521,612.876398
570.028096,296.082377,-8808.450710,306.438199
570.028424,74.020594,-8882.471304,766.095498
570.028751,-222.061783,-8882.471304,536.266849
570.029079,-444.123565,-8956.491898,612.876398
570.029406,-370.102971,-9252.574275,459.657299
570.029734,-962.267725,-9104.533087,76.609550
570.030062,-148.041188,-8808.450710,612.876398
570.030389,0.000000,-9104.533087,612.876398
570.030717,0.000000,-8882.471304,689.485948
570.031044,0.000000,-8660.409521,306.438199
570.031372,-370.102971,-8068.244768,612.876398
570.031699,-370.102971,-8882.471304,459.657299
570.032027,-740.205942,-8956.491898,612.876398
570.032354,-666.185348,-9252.574275,612.876398
570.032682,-370.102971,-9326.594869,766.095498
570.033009,0.000000,-9104.533087,612.876398
570.033337,148.041188,-9104.533087,1225.752797
570.033665,0.000000,-8808.450710,536.266849
570.033992,0.000000,-8734.430116,536.266849
570.034320,-296.082377,-8734.430116,536.266849
570.034647,-296.082377,-8660.409521,919.314598
570.034975,-814.226536,-8808.450710,1149.143247
570.035302,-296.082377,-9030.512492,689.485948
570.035630,-370.102971,-9178.553681,766.095498
570.035957,-222.061783,-9104.533087,766.095498
570.036285,-296.082377,-9178.553681,536.266849
570.036612,74.020594,-8586.388927,229.828649
570.036940,0.000000,-8808.450710,612.876398
570.037267,0.000000,-9030.512492,383.047749
570.037595,0.000000,-9474.636058,459.657299
570.037923,0.000000,-9770.718434,919.314598
570.038250,-296.082377,-9474.636058,1072.533697
570.038578,-518.144159,-9770.718434,919.314598
570.038905,-444.123565,-9770.718434,766.095498
570.039233,-370.102971,-9696.697840,689.485948
570.039560,-222.061783,-9474.636058,612.876398
570.039888,-222.061783,-8808.450710,459.657299
570.040215,0.000000,-9104.533087,76.609550
570.040543,-296.082377,-9030.512492,612.876398
570.040870,-148.041188,-9252.574275,842.705048
570.041198,-444.123565,-9326.594869,612.876398
570.041526,-888.247130,-9548.656652,612.876398
570.041853,-518.144159,-9474.636058,766.095498
570.042181,0.000000,-9400.615463,995.924147
570.042508,148.041188,-9178.553681,919.314598
570.042836,814.226536,-8734.430116,1225.752797
570.043163,1332.370696,-8734.430116,1532.190996
570.043491,1036.288319,-8956.491898,1838.629195
570.043818,444.123565,-9400.615463,1838.629195
570.044146,74.020594,-9474.636058,1608.800546
