#time,accel_x,accel_y,accel_z
386.857845,-222.061783,-9178.553681,536.266849
386.858173,0.000000,-9178.553681,459.657299
386.858501,0.000000,-9252.574275,459.657299
386.858829,-148.041188,-9104.533087,459.657299
386.859157,-296.082377,-9104.533087,459.657299
386.859484,-222.061783,-9326.594869,383.047749
386.859812,-444.123565,-9030.512492,536.266849
386.860140,-296.082377,-8808.450710,383.047749
386.860468,-296.082377,-9030.512492,536.266849
386.860796,-148.041188,-9178.553681,383.047749
386.861124,0.000000,-9326.594869,612.876398
386.861451,-222.061783,-9030.512492,383.047749
386.861779,-518.144159,-8586.388927,612.876398
386.862107,-444.123565,-8734.430116,536.266849
386.862435,-518.144159,-9104.533087,536.266849
386.862763,-148.041188,-9400.615463,536.266849
386.863090,0.000000,-9104.533087,689.485948
386.863418,-444.123565,-8808.450710,1149.143247
386.863746,148.041188,-9252.574275,689.485948
386.864074,-222.061783,-9252.574275,459.657299
386.864402,-444.123565,-9178.553681,689.485948
386.864730,-296.082377,-8882.471304,612.876398
386.865057,0.000000,-9178.553681,766.095498
386.865385,0.000000,-8956.491898,919.314598
386.865713,-222.061783,-9326.594869,612.876398
386.866041,-296.082377,-9252.574275,383.047749
386.866369,-296.082377,-8808.450710,536.266849
386.866697,-74.020594,-9178.553681,536.266849
386.867024,-148.041188,-9030.512492,536.266849
386.867352,0.000000,-9252.574275,612.876398
386.867680,0.000000,-9178.553681,612.876398
386.868008,-370.102971,-9030.512492,612.876398
386.868336,-888.247130,-9326.594869,153.219100
386.868664,-1184.329507,-9474.636058,0.000000
386.868991,-1554.432478,-9474.636058,-383.047749
386.869319,-1480.411884,-9252.574275,-689.485948
386.869647,-814.226536,-8882.471304,-766.095498
386.869975,-370.102971,-8882.471304,-306.438199
386.870303,-296.082377,-8808.450710,-766.095498
386.870631,-814.226536,-9104.533087,-612.876398
386.870958,-1184.329507,-9104.533087,-1302.362347
386.871286,-1036.288319,-9178.553681,-1225.752797
386.871614,-962.267725,-9252.574275,-1455.581446
386.871942,-592.164754,-9252.574275,-1608.800546
386.872270,-370.102971,-9030.512492,-1378.971896
386.872598,74.020594,-9252.574275,-1225.752797
386.872925,0.000000,-9030.512492,-1149.143247
386.873253,0.000000,-9178.553681,-1455.581446
386.873581,-148.041188,-9104.533087,-1608.800546
386.873909,-370.102971,-8956.491898,-1149.143247
386.874237,222.061783,-9326.594869,-1838.629195
386.874565,222.061783,-9400.615463,-1608.800546
386.874892,74.020594,-9326.594869,-1608.800546
386.875220,296.082377,-9178.553681,-1532.190996
386.875548,518.144159,-9252.574275,-1378.971896
386.875876,592.164754,-9474.636058,-1915.238745
386.876204,222.061783,-9474.636058,-1685.410096
386.876532,0.000000,-9326.594869,-1762.019645
386.876859,0.000000,-9178.553681,-1685.410096
386.877187,222.061783,-9326.594869,-1532.190996
386.877515,-222.061783,-8956.491898,-1532.190996
386.877843,-296.082377,-9104.533087,-1838.629195
386.878171,-592.164754,-9178.553681,-1838.629195
386.878499,-740.205942,-8956.491898,-2145.067394
386.878826,-1036.288319,-9104.533087,-1915.238745
386.879154,-1406.391290,-8660.409521,-2221.676944
386.879482,-1406.391290,-9030.512492,-2451.505594
386.879810,-1628.453072,-9178.553681,-2528.115143
386.880138,-1924.535449,-9178.553681,-2911.162892
386.880466,-1850.514855,-9104.533087,-3140.991542
386.880793,-1924.535449,-8586.388927,-3140.991542
386.881121,-1998.556043,-8882.471304,-3600.648841
386.881449,-1924.535449,-9252.574275,-3600.648841
386.881777,-1998.556043,-9178.553681,-3830.477490
386.882105,-1850.514855,-8734.430116,-3983.696590
386.882433,-1480.411884,-8660.409521,-4290.134789
386.882760,-1036.288319,-8808.450710,-3524.039291
386.883088,0.000000,-9104.533087,-3524.039291
386.883416,888.247130,-8882.471304,-3140.991542
386.883744,1480.411884,-8808.450710,-2681.334243
386.884072,2294.638420,-8734.430116,-2068.457845
386.884400,2590.720797,-8734.430116,-1302.362347
386.884727,2590.720797,-9400.615463,-1302.362347
386.885055,2368.659014,-9474.636058,-1149.143247
386.885383,1406.391290,-9992.780217,-1378.971896
386.885711,370.102971,-10140.821405,-2298.286494
386.886039,-370.102971,-10288.862594,-1991.848295
386.886367,-1110.308913,-10362.883188,-2987.772442
386.886694,-1998.556043,-9992.780217,-3600.648841
386.887022,-1258.350101,-9400.615463,-3677.258390
386.887350,-370.102971,-8512.368333,-3753.867940
386.887678,888.247130,-7476.080014,-3447.429741
386.888006,1998.556043,-7105.977043,-2604.724693
386.888334,2220.617826,-7328.038826,-1991.848295
386.888661,2220.617826,-7698.141797,-1455.581446
386.888989,1554.432478,-8216.285956,-689.485948
386.889317,0.000000,-8734.430116,-612.876398
386.889645,-1850.514855,-10140.821405,-536.266849
386.889973,-2886.803174,-10807.006753,-766.095498
386.890300,-3701.029710,-10807.006753,-1225.752797
386.890628,-3330.926739,-10288.862594,-1302.362347
386.890956,-2294.638420,-9252.574275,-1302.362347
386.891284,0.000000,-8068.244768,-1072.533697
386.891612,1628.453072,-7179.997637,-766.095498
386.891940,2960.823768,-6587.832884,-229.828649
386.892267,3701.029710,-6883.915261,0.000000
386.892595,2886.803174,-7772.162391,842.705048
386.892923,1110.308913,-9326.594869,459.657299
386.893251,-1332.370696,-10288.862594,306.438199
386.893579,-3330.926739,-11399.171507,0.000000
386.893907,-4737.318029,-11917.315666,-383.047749
386.894234,-4515.256246,-11769.274478,-306.438199
386.894562,-3256.906145,-9992.780217,0.000000
386.894890,-1110.308913,-9252.574275,689.485948
386.895218,1850.514855,-7402.059420,1302.362347
386.895546,3404.947333,-6661.853478,1685.410096
386.895874,3552.988522,-6587.832884,1838.629195
386.896201,2738.761985,-7105.977043,2068.457845
386.896529,-666.185348,-8290.306550,1225.752797
386.896857,-2738.761985,-9400.615463,76.609550
386.897185,-4293.194464,-10214.842000,-229.828649
386.897513,-4589.276840,-10362.883188,-612.876398
386.897841,-2738.761985,-9770.718434,0.000000
386.898168,-814.226536,-8808.450710,612.876398
386.898496,1702.473667,-8512.368333,1149.143247
386.898824,3182.885551,-7994.224174,1532.190996
386.899152,2960.823768,-7994.224174,1532.190996
386.899480,1406.391290,-8808.450710,995.924147
386.899808,-518.144159,-10066.800811,306.438199
386.900135,-3182.885551,-10436.903782,0.000000
386.900463,-4589.276840,-10732.986159,-536.266849
386.900791,-4219.173869,-10510.924376,-919.314598
386.901119,-2368.659014,-9326.594869,-383.047749
386.901447,740.205942,-8216.285956,153.219100
386.901775,2960.823768,-7105.977043,1455.581446
386.902102,4367.215058,-7031.956449,1608.800546
386.902430,4737.318029,-7402.059420,1762.019645
386.902758,2590.720797,-8290.306550,1455.581446
386.903086,740.205942,-9400.615463,689.485948
386.903414,-1628.453072,-9992.780217,1149.143247
386.903742,-2442.679609,-10510.924376,842.705048
386.904069,-2368.659014,-9918.759623,1225.752797
386.904397,-1258.350101,-9548.656652,1455.581446
386.904725,518.144159,-8734.430116,2145.067394
386.905053,1332.370696,-8364.327145,1378.971896
386.905381,1480.411884,-8068.244768,919.314598
386.905709,1480.411884,-8216.285956,1302.362347
386.906036,740.205942,-8660.409521,536.266849
386.906364,-814.226536,-9474.636058,383.047749
386.906692,-2072.576638,-9474.636058,383.047749
386.907020,-3478.967927,-9770.718434,-153.219100
386.907348,-3997.112087,-9548.656652,-229.828649
386.907676,-3182.885551,-8882.471304,-229.828649
386.908003,-1924.535449,-9178.553681,0.000000
386.908331,-592.164754,-8290.306550,0.000000
386.908659,592.164754,-7994.224174,383.047749
386.908987,1406.391290,-8290.306550,919.314598
386.909315,1110.308913,-8438.347739,1072.533697
386.909643,444.123565,-8586.388927,1225.752797
386.909970,-814.226536,-9252.574275,459.657299
386.910298,-2368.659014,-9918.759623,-229.828649
386.910626,-2960.823768,-10288.862594,-383.047749
386.910954,-2960.823768,-10140.821405,-995.924147
386.911282,-1554.432478,-9252.574275,-1072.533697
386.911610,1110.308913,-8882.471304,76.609550
386.911937,2442.679609,-8734.430116,153.219100
386.912265,3256.906145,-8364.327145,229.828649
386.912593,3849.070898,-8808.450710,689.485948
386.912921,2368.659014,-9400.615463,229.828649
386.913249,296.082377,-9770.718434,153.219100
386.913577,-1406.391290,-10584.944971,0.000000
386.913904,-2368.659014,-10807.006753,-919.314598
386.914232,-2294.638420,-10510.924376,-612.876398
386.914560,-666.185348,-9918.759623,0.000000
386.914888,1332.370696,-8956.491898,842.705048
386.915216,3182.885551,-8290.306550,1608.800546
386.915543,3923.091493,-7846.182985,1685.410096
386.915871,3256.906145,-7698.141797,1762.019645
386.916199,1406.391290,-8068.244768,1302.362347
386.916527,-222.061783,-8882.471304,689.485948
386.916855,-1628.453072,-9104.533087,536.266849
386.917182,-2516.700203,-9326.594869,612.876398
386.917510,-2368.659014,-9696.697840,612.876398
386.917838,-1332.370696,-9326.594869,842.705048
386.918166,-444.123565,-8882.471304,1149.143247
386.918493,-222.061783,-8586.388927,1149.143247
386.918821,296.082377,-8882.471304,1991.848295
386.919149,-296.082377,-8660.409521,689.485948
386.919476,-1776.494261,-9030.512492,612.876398
386.919804,-2368.659014,-9400.615463,536.266849
386.920132,-3552.988522,-9622.677246,383.047749
386.920460,-3997.112087,-9326.594869,-153.219100
386.920787,-3775.050304,-9178.553681,229.828649
386.921115,-2368.659014,-8586.388927,383.047749
386.921443,-962.267725,-8068.244768,612.876398
386.921770,666.185348,-7846.182985,842.705048
386.922098,1628.453072,-7179.997637,1532.190996
386.922426,2368.659014,-7920.203579,1685.410096
386.922754,1406.391290,-8586.388927,1991.848295
386.923081,74.020594,-9178.553681,1455.581446
386.923409,-1406.391290,-9844.739029,1302.362347
386.923737,-2294.638420,-9844.739029,383.047749
386.924065,-2072.576638,-9918.759623,76.609550
386.924392,-1110.308913,-9474.636058,0.000000
386.924720,148.041188,-9326.594869,229.828649
386.925048,1628.453072,-8660.409521,459.657299
386.925375,2812.782580,-8882.471304,842.705048
386.925703,2812.782580,-8068.244768,1072.533697
386.926031,2146.597232,-8734.430116,689.485948
386.926359,592.164754,-9474.636058,306.438199
386.926686,-1776.494261,-10214.842000,-383.047749
386.927014,-3034.844362,-10584.944971,-995.924147
386.927342,-3701.029710,-9992.780217,-919.314598
386.927669,-2368.659014,-9474.636058,-919.314598
386.927997,-370.102971,-8882.471304,-459.657299
386.928325,1850.514855,-8216.285956,153.219100
386.928653,2886.803174,-7550.100608,536.266849
386.928980,3478.967927,-7179.997637,1225.752797
386.929308,2368.659014,-7846.182985,1072.533697
386.929636,962.267725,-8438.347739,536.266849
386.929963,-592.164754,-9474.636058,229.828649
386.930291,-2072.576638,-9992.780217,-229.828649
386.930619,-1998.556043,-10066.800811,0.000000
386.930947,-1184.329507,-9622.677246,383.047749
386.931274,222.061783,-9622.677246,919.314598
386.931602,1480.411884,-8956.491898,842.705048
386.931930,2368.659014,-9104.533087,1225.752797
386.932258,2368.659014,-8808.450710,1072.533697
386.932585,1480.411884,-9030.512492,1455.581446
386.932913,0.000000,-9474.636058,842.705048
386.933241,-1998.556043,-9992.780217,689.485948
386.933568,-3108.864956,-10066.800811,459.657299
386.933896,-3701.029710,-9918.759623,0.000000
386.934224,-2738.761985,-9622.677246,0.000000
386.934552,-1702.473667,-8882.471304,612.876398
386.934879,-296.082377,-7994.224174,919.314598
386.935207,740.205942,-7698.141797,1302.362347
386.935535,1554.432478,-7328.038826,1532.190996
386.935862,1184.329507,-7105.977043,1378.971896
386.936190,296.082377,-7698.141797,1762.019645
386.936518,-1332.370696,-8808.450710,995.924147
386.936846,-2738.761985,-9474.636058,689.485948
386.937173,-3108.864956,-10140.821405,689.485948
386.937501,-3182.885551,-9474.636058,153.219100
386.937829,-2146.597232,-9178.553681,612.876398
386.938156,-444.123565,-9326.594869,459.657299
386.938484,1036.288319,-8882.471304,612.876398
386.938812,1702.473667,-8734.430116,766.095498
386.939140,1998.556043,-8808.450710,842.705048
386.939467,1036.288319,-8734.430116,995.924147
386.939795,-444.123565,-9622.677246,383.047749
386.940123,-2368.659014,-10288.862594,-153.219100
386.940450,-3404.947333,-10732.986159,-459.657299
386.940778,-3108.864956,-9992.780217,-612.876398
386.941106,-1850.514855,-9104.533087,-536.266849
386.941434,666.185348,-8290.306550,0.000000
386.941761,2442.679609,-7772.162391,766.095498
386.942089,3775.050304,-7476.080014,1455.581446
386.942417,3552.988522,-7550.100608,1455.581446
386.942745,2590.720797,-7994.224174,1608.800546
386.943072,1036.288319,-8956.491898,1149.143247
386.943400,-962.267725,-9770.718434,536.266849
386.943728,-1998.556043,-10140.821405,306.438199
386.944055,-2146.597232,-10140.821405,229.828649
386.944383,-962.267725,-9548.656652,306.438199
386.944711,592.164754,-9400.615463,919.314598
386.945039,1554.432478,-9030.512492,1072.533697
386.945366,1924.535449,-8882.471304,1072.533697
386.945694,1850.514855,-8882.471304,1149.143247
386.946022,740.205942,-9104.533087,919.314598
386.946349,-740.205942,-9548.656652,459.657299
386.946677,-2664.741391,-9918.759623,229.828649
386.947005,-3701.029710,-10362.883188,-153.219100
386.947333,-3701.029710,-9918.759623,0.000000
386.947660,-2960.823768,-9400.615463,153.219100
386.947988,-1776.494261,-8216.285956,0.000000
386.948316,-370.102971,-8216.285956,612.876398
386.948643,740.205942,-7772.162391,536.266849
386.948971,1406.391290,-7698.141797,1072.533697
386.949299,1332.370696,-7846.182985,1225.752797
386.949627,370.102971,-8512.368333,766.095498
386.949954,-814.226536,-8956.491898,1225.752797
386.950282,-2220.617826,-9622.677246,536.266849
386.950610,-2664.741391,-9622.677246,0.000000
386.950938,-1998.556043,-9770.718434,229.828649
386.951265,-370.102971,-9622.677246,306.438199
386.951593,592.164754,-8882.471304,76.609550
386.951921,1924.535449,-8882.471304,459.657299
386.952248,2664.741391,-8660.409521,689.485948
386.952576,1924.535449,-8882.471304,995.924147
386.952904,1110.308913,-9326.594869,766.095498
386.953232,-740.205942,-9548.656652,229.828649
386.953559,-2442.679609,-10362.883188,-383.047749
386.953887,-3182.885551,-10288.862594,-995.924147
386.954215,-2812.782580,-9918.759623,-842.705048
386.954542,-1258.350101,-9178.553681,-612.876398
386.954870,1036.288319,-8142.265362,-306.438199
386.955198,2516.700203,-7179.997637,842.705048
386.955526,3627.009116,-7179.997637,1378.971896
386.955853,3552.988522,-7550.100608,1608.800546
386.956181,1776.494261,-8142.265362,1225.752797
386.956509,0.000000,-8512.368333,842.705048
386.956836,-1332.370696,-9622.677246,383.047749
386.957164,-2516.700203,-10066.800811,153.219100
386.957492,-2368.659014,-9696.697840,153.219100
386.957820,-888.247130,-9622.677246,766.095498
386.958147,1110.308913,-8956.491898,1225.752797
386.958475,2294.638420,-8734.430116,1072.533697
386.958803,2368.659014,-8364.327145,1225.752797
386.959130,1332.370696,-8808.450710,1149.143247
386.959458,296.082377,-9252.574275,842.705048
386.959786,-1554.432478,-9770.718434,383.047749
386.960114,-3034.844362,-10066.800811,153.219100
386.960441,-3997.112087,-10066.800811,306.438199
386.960769,-3478.967927,-9992.780217,229.828649
386.961097,-2516.700203,-9178.553681,383.047749
386.961425,-1036.288319,-8512.368333,536.266849
386.961752,0.000000,-7624.121203,842.705048
386.962080,1332.370696,-7624.121203,1378.971896
386.962408,1110.308913,-7698.141797,1455.581446
386.962735,666.185348,-8068.244768,1302.362347
386.963063,-518.144159,-8808.450710,1302.362347
386.963391,-1480.411884,-9400.615463,1225.752797
386.963719,-2590.720797,-9548.656652,689.485948
386.964046,-2664.741391,-9696.697840,536.266849
386.964374,-1480.411884,-9474.636058,536.266849
386.964702,-296.082377,-9400.615463,536.266849
386.965029,666.185348,-9252.574275,612.876398
386.965357,1924.535449,-8808.450710,995.924147
386.965685,2220.617826,-9178.553681,1532.190996
386.966013,1406.391290,-9178.553681,1072.533697
386.966340,444.123565,-9844.739029,995.924147
386.966668,-1406.391290,-10214.842000,306.438199
386.966996,-2664.741391,-10288.862594,536.266849
386.967323,-3330.926739,-10214.842000,-766.095498
386.967651,-2960.823768,-9548.656652,-612.876398
386.967979,-1184.329507,-8586.388927,-383.047749
386.968307,740.205942,-7994.224174,229.828649
386.968634,2738.761985,-7920.203579,459.657299
386.968962,3108.864956,-7328.038826,1149.143247
386.969290,2590.720797,-7772.162391,1225.752797
386.969618,1184.329507,-8586.388927,842.705048
386.969945,-666.185348,-9030.512492,612.876398
386.970273,-2072.576638,-9770.718434,1072.533697
386.970601,-2516.700203,-10362.883188,0.000000
386.970928,-2072.576638,-9770.718434,153.219100
386.971256,-518.144159,-9474.636058,306.438199
386.971584,962.267725,-8808.450710,612.876398
386.971912,2146.597232,-8956.491898,995.924147
386.972239,2960.823768,-8512.368333,1072.533697
386.972567,1554.432478,-8956.491898,612.876398
386.972895,740.205942,-9326.594869,459.657299
386.973222,-962.267725,-9548.656652,229.828649
386.973550,-2738.761985,-10214.842000,0.000000
386.973878,-2960.823768,-9992.780217,0.000000
386.974206,-2812.782580,-9400.615463,-383.047749
386.974533,-1628.453072,-9030.512492,76.609550
386.974861,-444.123565,-8290.306550,383.047749
386.975189,888.247130,-7772.162391,842.705048
386.975516,1480.411884,-7105.977043,1149.143247
386.975844,1924.535449,-7920.203579,1149.143247
386.976172,740.205942,-7550.100608,1149.143247
386.976500,-518.144159,-8438.347739,766.095498
386.976827,-1924.535449,-9474.636058,459.657299
386.977155,-2220.617826,-9548.656652,229.828649
386.977483,-2590.720797,-9696.697840,-229.828649
386.977810,-1406.391290,-9474.636058,-306.438199
386.978138,222.061783,-9400.615463,536.266849
386.978466,1036.288319,-8734.430116,306.438199
386.978794,1998.556043,-8882.471304,995.924147
386.979121,2442.679609,-8734.430116,1532.190996
386.979449,1332.370696,-8882.471304,842.705048
386.979777,0.000000,-9770.718434,612.876398
386.980105,-1776.494261,-10658.965565,153.219100
386.980432,-3701.029710,-10658.965565,-383.047749
386.980760,-3404.947333,-10732.986159,-383.047749
386.981088,-2812.782580,-9622.677246,-689.485948
386.981415,-962.267725,-8808.450710,0.000000
386.981743,1332.370696,-7920.203579,306.438199
386.982071,2664.741391,-7179.997637,1072.533697
386.982399,3404.947333,-7328.038826,1455.581446
386.982726,2516.700203,-7476.080014,1149.143247
386.983054,666.185348,-8660.409521,1225.752797
386.983382,-1332.370696,-9474.636058,612.876398
386.983709,-2664.741391,-10288.862594,0.000000
386.984037,-2738.761985,-9992.780217,306.438199
386.984365,-1776.494261,-10214.842000,383.047749
386.984693,-592.164754,-9474.636058,459.657299
386.985020,1332.370696,-9178.553681,995.924147
386.985348,2220.617826,-8734.430116,1455.581446
386.985676,2368.659014,-8808.450710,1455.581446
386.986003,1184.329507,-8660.409521,1149.143247
386.986331,74.020594,-9474.636058,459.657299
386.986659,-1702.473667,-10214.842000,229.828649
386.986987,-2664.741391,-9992.780217,0.000000
386.987314,-2738.761985,-10214.842000,0.000000
386.987642,-1850.514855,-9178.553681,306.438199
386.987970,-1110.308913,-8808.450710,689.485948
386.988298,148.041188,-8290.306550,995.924147
386.988625,1184.329507,-7846.182985,1302.362347
386.988953,1702.473667,-7772.162391,1225.752797
386.989281,1480.411884,-7920.203579,1378.971896
386.989608,296.082377,-8290.306550,995.924147
386.989936,-1184.329507,-9474.636058,842.705048
386.990264,-2442.679609,-9474.636058,459.657299
386.990592,-2590.720797,-9770.718434,383.047749
386.990919,-2368.659014,-9696.697840,306.438199
386.991247,-1332.370696,-8438.347739,383.047749
386.991575,0.000000,-8956.491898,306.438199
386.991902,1258.350101,-8734.430116,536.266849
386.992230,1702.473667,-8586.388927,612.876398
386.992558,1702.473667,-9030.512492,689.485948
386.992886,888.247130,-9326.594869,919.314598
386.993213,-888.247130,-10066.800811,76.609550
386.993541,-2368.659014,-10658.965565,-229.828649
386.993869,-3552.988522,-10658.965565,-689.485948
386.994196,-3775.050304,-10140.821405,-689.485948
386.994524,-1702.473667,-9252.574275,-383.047749
386.994852,74.020594,-8586.388927,-689.485948
386.995180,2072.576638,-7920.203579,383.047749
386.995507,3256.906145,-7402.059420,995.924147
386.995835,3478.967927,-7476.080014,1302.362347
386.996163,2368.659014,-7772.162391,1455.581446
386.996490,888.247130,-8956.491898,383.047749
386.996818,-1036.288319,-9696.697840,306.438199
386.997146,-2072.576638,-10140.821405,153.219100
386.997474,-2294.638420,-10214.842000,-153.219100
386.997801,-1258.350101,-10066.800811,153.219100
386.998129,740.205942,-9844.739029,536.266849
386.998457,1776.494261,-9178.553681,995.924147
386.998785,2664.741391,-8956.491898,1225.752797
386.999112,2368.659014,-9030.512492,1072.533697
386.999440,1036.288319,-9252.574275,919.314598
386.999768,-1036.288319,-9548.656652,306.438199
387.000095,-2294.638420,-9992.780217,229.828649
387.000423,-3182.885551,-10288.862594,0.000000
387.000751,-3404.947333,-9992.780217,0.000000
387.001079,-2294.638420,-9400.615463,153.219100
387.001406,-888.247130,-8364.327145,766.095498
387.001734,296.082377,-7846.182985,1455.581446
387.002062,1480.411884,-7402.059420,1455.581446
387.002389,1924.535449,-7550.100608,1532.190996
387.002717,1184.329507,-7846.182985,1608.800546
387.003045,0.000000,-8290.306550,2298.286494
387.003373,-1480.411884,-8808.450710,1149.143247
387.003700,-2738.761985,-9400.615463,689.485948
387.004028,-2590.720797,-9474.636058,536.266849
387.004356,-2072.576638,-9400.615463,689.485948
387.004683,-814.226536,-9252.574275,919.314598
387.005011,814.226536,-8364.327145,1072.533697
387.005339,1406.391290,-8660.409521,1302.362347
387.005667,1850.514855,-9178.553681,1532.190996
387.005994,1110.308913,-8882.471304,1302.362347
387.006322,0.000000,-9474.636058,1072.533697
387.006650,-1480.411884,-10066.800811,536.266849
387.006978,-3182.885551,-10362.883188,76.609550
387.007305,-3849.070898,-10214.842000,-229.828649
387.007633,-3330.926739,-9548.656652,-383.047749
387.007961,-1702.473667,-8660.409521,0.000000
387.008288,518.144159,-7772.162391,76.609550
387.008616,2072.576638,-7476.080014,689.485948
387.008944,2960.823768,-6957.935855,995.924147
387.009272,2960.823768,-7476.080014,1225.752797
387.009599,1702.473667,-8216.285956,1225.752797
387.009927,-148.041188,-8882.471304,689.485948
387.010255,-2072.576638,-9770.718434,383.047749
387.010582,-2960.823768,-10584.944971,-383.047749
387.010910,-2442.679609,-10066.800811,-229.828649
387.011238,-888.247130,-9992.780217,0.000000
387.011566,888.247130,-9252.574275,383.047749
387.011893,3108.864956,-8290.306550,919.314598
387.012221,3478.967927,-8882.471304,1072.533697
387.012549,2738.761985,-8882.471304,612.876398
387.012876,1554.432478,-9474.636058,459.657299
387.013204,-518.144159,-9992.780217,0.000000
387.013532,-2146.597232,-10510.924376,-383.047749
387.013860,-2886.803174,-10658.965565,-766.095498
387.014187,-2886.803174,-10214.842000,0.000000
387.014515,-1628.453072,-9474.636058,0.000000
387.014843,-222.061783,-8808.450710,536.266849
387.015170,962.267725,-7994.224174,689.485948
387.015498,1702.473667,-7550.100608,1378.971896
387.015826,1702.473667,-7698.141797,1302.362347
387.016154,888.247130,-8216.285956,1149.143247
387.016481,-444.123565,-8438.347739,995.924147
387.016809,-2072.576638,-8882.471304,306.438199
387.017137,-2294.638420,-9474.636058,919.314598
387.017465,-2738.761985,-9326.594869,306.438199
387.017792,-1628.453072,-8956.491898,536.266849
387.018120,-296.082377,-8882.471304,459.657299
387.018448,444.123565,-8660.409521,1072.533697
387.018775,1776.494261,-8364.327145,1302.362347
387.019103,1406.391290,-8660.409521,1302.362347
387.019431,1184.329507,-9178.553681,995.924147
387.019758,-148.041188,-9548.656652,842.705048
387.020086,-1998.556043,-10214.842000,459.657299
387.020414,-3330.926739,-10214.842000,536.266849
387.020741,-3627.009116,-10066.800811,-306.438199
387.021069,-2516.700203,-9474.636058,0.000000
387.021397,-814.226536,-8512.368333,76.609550
387.021724,1110.308913,-7846.182985,842.705048
387.022052,2294.638420,-7105.977043,1838.629195
387.022380,2960.823768,-7402.059420,1532.190996
387.022707,2368.659014,-7772.162391,1762.019645
387.023035,666.185348,-8512.368333,1532.190996
387.023362,-1184.329507,-9400.615463,842.705048
387.023690,-2516.700203,-10066.800811,383.047749
387.024018,-2960.823768,-9918.759623,689.485948
387.024345,-2590.720797,-9622.677246,0.000000
387.024673,-666.185348,-9252.574275,306.438199
387.025001,1110.308913,-8808.450710,766.095498
387.025328,1924.535449,-8586.388927,689.485948
387.025656,2368.659014,-8512.368333,842.705048
387.025984,1850.514855,-9030.512492,612.876398
387.026311,0.000000,-9178.553681,383.047749
387.026639,-1702.473667,-9992.780217,0.000000
387.026967,-2812.782580,-10436.903782,-536.266849
387.027294,-3330.926739,-10362.883188,-612.876398
387.027622,-2664.741391,-9992.780217,-766.095498
387.027950,-1332.370696,-9474.636058,-612.876398
387.028277,0.000000,-8808.450710,0.000000
387.028605,1702.473667,-8438.347739,229.828649
387.028933,2516.700203,-8142.265362,766.095498
387.029260,2886.803174,-8364.327145,919.314598
387.029588,2146.597232,-8660.409521,919.314598
387.029916,518.144159,-9474.636058,459.657299
387.030243,-666.185348,-9992.780217,229.828649
387.030571,-1554.432478,-10214.842000,0.000000
387.030899,-1110.308913,-10288.862594,0.000000
387.031226,0.000000,-10288.862594,306.438199
387.031554,740.205942,-9844.739029,612.876398
387.031882,1776.494261,-9252.574275,689.485948
387.032209,2368.659014,-9178.553681,1225.752797
387.032537,2146.597232,-8364.327145,1072.533697
387.032865,1258.350101,-9178.553681,1072.533697
387.033192,-444.123565,-9622.677246,689.485948
387.033520,-2516.700203,-10288.862594,0.000000
387.033848,-3849.070898,-10658.965565,-459.657299
387.034175,-4293.194464,-9622.677246,-153.219100
387.034503,-3108.864956,-9030.512492,-612.876398
387.034831,-1258.350101,-8290.306550,0.000000
387.035158,666.185348,-7550.100608,766.095498
387.035486,1702.473667,-7105.977043,1225.752797
387.035814,2368.659014,-6883.915261,1685.410096
387.036141,1406.391290,-7328.038826,1302.362347
387.036469,-518.144159,-8512.368333,1225.752797
387.036797,-2368.659014,-9252.574275,689.485948
387.037124,-3552.988522,-9696.697840,0.000000
387.037452,-3330.926739,-9844.739029,0.000000
387.037779,-2146.597232,-9252.574275,229.828649
387.038107,-296.082377,-8882.471304,766.095498
387.038435,1480.411884,-8438.347739,1149.143247
387.038762,2516.700203,-8216.285956,1302.362347
387.039090,2590.720797,-8438.347739,1455.581446
387.039418,1702.473667,-8956.491898,1072.533697
387.039745,296.082377,-9622.677246,995.924147
387.040073,-1628.453072,-9992.780217,536.266849
387.040401,-2590.720797,-10362.883188,229.828649
387.040728,-2886.803174,-10362.883188,153.219100
387.041056,-2146.597232,-9474.636058,612.876398
387.041384,-1036.288319,-8660.409521,536.266849
387.041711,740.205942,-8068.244768,919.314598
387.042039,1776.494261,-7476.080014,1302.362347
387.042367,1998.556043,-7476.080014,1302.362347
387.042694,1850.514855,-7772.162391,1378.971896
387.043022,148.041188,-7920.203579,1838.629195
387.043350,-1480.411884,-8882.471304,689.485948
387.043677,-2368.659014,-9400.615463,459.657299
387.044005,-2516.700203,-9474.636058,459.657299
387.044333,-1776.494261,-9400.615463,153.219100
387.044660,-1184.329507,-8586.388927,76.609550
387.044988,444.123565,-8956.491898,842.705048
387.045316,1036.288319,-8956.491898,689.485948
387.045643,1628.453072,-8808.450710,995.924147
387.045971,1184.329507,-9104.533087,842.705048
387.046299,518.144159,-9252.574275,459.657299
387.046626,-1332.370696,-9844.739029,459.657299
387.046954,-2516.700203,-10658.965565,0.000000
387.047282,-3330.926739,-10288.862594,-383.047749
387.047609,-2738.761985,-9622.677246,-689.485948
387.047937,-1406.391290,-9474.636058,0.000000
387.048265,740.205942,-8586.388927,76.609550
387.048592,2072.576638,-8290.306550,383.047749
387.048920,3256.906145,-8142.265362,919.314598
387.049248,2812.782580,-8216.285956,1072.533697
387.049575,1628.453072,-8364.327145,1072.533697
387.049903,296.082377,-9400.615463,842.705048
387.050231,-1776.494261,-10214.842000,229.828649
387.050558,-2886.803174,-10288.862594,-153.219100
387.050886,-2664.741391,-10362.883188,0.000000
387.051213,-1628.453072,-9992.780217,76.609550
387.051541,0.000000,-9400.615463,536.266849
387.051869,1628.453072,-9178.553681,383.047749
387.052196,2072.576638,-8734.430116,766.095498
387.052524,2220.617826,-8808.450710,919.314598
387.052852,814.226536,-9178.553681,229.828649
387.053179,-740.205942,-9326.594869,612.876398
387.053507,-1998.556043,-10066.800811,-153.219100
387.053835,-3256.906145,-10288.862594,-612.876398
387.054162,-3256.906145,-10214.842000,-383.047749
387.054490,-2368.659014,-9548.656652,-306.438199
387.054818,-666.185348,-9104.533087,689.485948
387.055145,1258.350101,-7994.224174,1072.533697
387.055473,2146.597232,-7550.100608,1378.971896
387.055801,2442.679609,-7402.059420,1838.629195
387.056128,1850.514855,-7550.100608,1608.800546
387.056456,444.123565,-8142.265362,1532.190996
387.056784,-1184.329507,-8956.491898,995.924147
387.057111,-2368.659014,-9474.636058,842.705048
387.057439,-2294.638420,-9548.656652,459.657299
387.057767,-962.267725,-9548.656652,1225.752797
387.058094,0.000000,-8808.450710,919.314598
387.058422,1628.453072,-9030.512492,1838.629195
387.058750,2294.638420,-8438.347739,1455.581446
387.059077,2294.638420,-8808.450710,1532.190996
387.059405,1184.329507,-8808.450710,1072.533697
387.059733,0.000000,-9474.636058,995.924147
387.060060,-2146.597232,-9696.697840,306.438199
387.060388,-3701.029710,-9992.780217,76.609550
387.060716,-3701.029710,-9918.759623,0.000000
387.061043,-3182.885551,-9030.512492,0.000000
387.061371,-1406.391290,-8364.327145,76.609550
387.061699,148.041188,-7920.203579,766.095498
387.062026,1850.514855,-6883.915261,995.924147
387.062354,2368.659014,-7105.977043,1378.971896
387.062682,1850.514855,-7328.038826,1225.752797
387.063009,592.164754,-7994.224174,1072.533697
387.063337,-962.267725,-9178.553681,306.438199
387.063665,-2368.659014,-9326.594869,536.266849
387.063992,-3256.906145,-9992.780217,0.000000
387.064320,-2960.823768,-9992.780217,0.000000
387.064648,-1480.411884,-9696.697840,-153.219100
387.064975,74.020594,-9030.512492,0.000000
387.065303,1702.473667,-8438.347739,536.266849
387.065630,2590.720797,-8290.306550,229.828649
387.065958,2294.638420,-8512.368333,536.266849
387.066286,1184.329507,-9104.533087,153.219100
387.066613,-444.123565,-9770.718434,0.000000
387.066941,-1998.556043,-9918.759623,0.000000
387.067269,-2516.700203,-10658.965565,-766.095498
387.067596,-2368.659014,-10288.862594,-459.657299
387.067924,-1332.370696,-9622.677246,-383.047749
387.068252,222.061783,-9178.553681,383.047749
387.068579,2072.576638,-8142.265362,1072.533697
387.068907,3034.844362,-7624.121203,1225.752797
387.069235,2960.823768,-8068.244768,1302.362347
387.069562,2146.597232,-8142.265362,995.924147
387.069890,444.123565,-8808.450710,766.095498
387.070218,-1258.350101,-9400.615463,536.266849
387.070545,-2220.617826,-9770.718434,153.219100
387.070873,-2368.659014,-9844.739029,0.000000
387.071201,-1110.308913,-9696.697840,153.219100
387.071528,-296.082377,-9178.553681,306.438199
387.071856,592.164754,-8882.471304,536.266849
387.072184,1702.473667,-8956.491898,536.266849
387.072511,1332.370696,-8586.388927,1302.362347
387.072839,666.185348,-9326.594869,766.095498
387.073167,-814.226536,-9844.739029,766.095498
387.073494,-2516.700203,-10362.883188,229.828649
387.073822,-3775.050304,-10436.903782,-229.828649
387.074150,-3849.070898,-10732.986159,76.609550
387.074477,-2738.761985,-9326.594869,0.000000
387.074805,-888.247130,-8660.409521,383.047749
387.075133,1036.288319,-7772.162391,1149.143247
387.075460,2294.638420,-7328.038826,1915.238745
387.075788,2664.741391,-7179.997637,1685.410096
387.076116,2146.597232,-8068.244768,1685.410096
387.076443,370.102971,-8512.368333,1455.581446
387.076771,-1258.350101,-9622.677246,766.095498
387.077099,-2960.823768,-10066.800811,536.266849
387.077426,-2960.823768,-9992.780217,229.828649
387.077754,-2294.638420,-10066.800811,306.438199
387.078082,-666.185348,-9622.677246,612.876398
387.078409,740.205942,-8956.491898,842.705048
387.078737,2072.576638,-8512.368333,842.705048
387.079064,1924.535449,-8068.244768,1072.533697
387.079392,1554.432478,-8586.388927,995.924147
387.079720,74.020594,-9326.594869,383.047749
387.080047,-1628.453072,-9770.718434,0.000000
387.080375,-2516.700203,-10214.842000,0.000000
387.080703,-2738.761985,-10066.800811,-229.828649
387.081030,-2368.659014,-9548.656652,76.609550
387.081358,-1036.288319,-9030.512492,153.219100
387.081686,592.164754,-8290.306550,536.266849
387.082013,1998.556043,-7846.182985,995.924147
387.082341,2442.679609,-7624.121203,1302.362347
387.082669,2738.761985,-7550.100608,1915.238745
387.082996,1184.329507,-8142.265362,995.924147
387.083324,-370.102971,-9252.574275,919.314598
387.083652,-1924.535449,-9696.697840,229.828649
387.083979,-2368.659014,-9918.759623,0.000000
387.084307,-1628.453072,-9622.677246,766.095498
387.084635,-592.164754,-9474.636058,229.828649
387.084962,592.164754,-9474.636058,766.095498
387.085290,1702.473667,-9252.574275,995.924147
387.085618,2220.617826,-9178.553681,766.095498
387.085945,1776.494261,-9030.512492,1149.143247
387.086273,962.267725,-9474.636058,766.095498
387.086601,-814.226536,-9992.780217,306.438199
387.086928,-2442.679609,-10288.862594,0.000000
387.087256,-3182.885551,-10214.842000,0.000000
387.087584,-2886.803174,-9178.553681,306.438199
387.087911,-1184.329507,-8882.471304,153.219100
387.088239,666.185348,-8216.285956,919.314598
387.088567,1702.473667,-7698.141797,1455.581446
387.088894,2146.597232,-7698.141797,1685.410096
387.089222,2146.597232,-7550.100608,1991.848295
387.089550,666.185348,-7846.182985,2145.067394
387.089877,-444.123565,-8956.491898,1378.971896
387.090205,-2072.576638,-9844.739029,766.095498
387.090533,-3256.906145,-10066.800811,306.438199
387.090860,-3330.926739,-9770.718434,0.000000
387.091188,-1924.535449,-9770.718434,76.609550
387.091516,-888.247130,-9252.574275,306.438199
387.091843,148.041188,-8734.430116,306.438199
387.092171,1184.329507,-8734.430116,459.657299
387.092499,1184.329507,-8586.388927,153.219100
387.092826,962.267725,-8512.368333,766.095498
387.093154,-148.041188,-9400.615463,0.000000
387.093481,-1998.556043,-9918.759623,0.000000
387.093809,-2960.823768,-10288.862594,-306.438199
387.094137,-3404.947333,-9918.759623,-766.095498
387.094464,-2738.761985,-9178.553681,-766.095498
387.094792,-444.123565,-8734.430116,-153.219100
387.095120,1110.308913,-8290.306550,153.219100
387.095447,2738.761985,-7550.100608,612.876398
387.095775,3775.050304,-7402.059420,1072.533697
387.096103,3404.947333,-7698.141797,1378.971896
387.096430,2220.617826,-8364.327145,919.314598
387.096758,296.082377,-9474.636058,919.314598
387.097086,-1480.411884,-9918.759623,76.609550
387.097413,-1776.494261,-10288.862594,-153.219100
387.097741,-1332.370696,-9992.780217,0.000000
387.098069,0.000000,-9474.636058,76.609550
387.098396,1184.329507,-9030.512492,536.266849
387.098724,2590.720797,-8808.450710,842.705048
387.099052,2664.741391,-8586.388927,766.095498
387.099379,1924.535449,-8808.450710,1072.533697
387.099707,296.082377,-9474.636058,919.314598
387.100035,-1776.494261,-9992.780217,0.000000
387.100362,-3256.906145,-10288.862594,0.000000
387.100690,-3552.988522,-10288.862594,-153.219100
387.101018,-2886.803174,-9252.574275,0.000000
387.101345,-1110.308913,-8290.306550,612.876398
387.101673,1406.391290,-7624.121203,1532.190996
387.102001,1554.432478,-7179.997637,1608.800546
387.102328,1998.556043,-7254.018232,1762.019645
387.102656,1406.391290,-7550.100608,1838.629195
387.102984,370.102971,-8290.306550,1608.800546
387.103311,-1184.329507,-9104.533087,919.314598
387.103639,-2516.700203,-9770.718434,919.314598
387.103967,-3108.864956,-10066.800811,1072.533697
387.104294,-2738.761985,-9992.780217,995.924147
387.104622,-1702.473667,-9696.697840,919.314598
387.104950,-592.164754,-8956.491898,919.314598
387.105277,518.144159,-8734.430116,1072.533697
387.105605,1406.391290,-8808.450710,1225.752797
387.105933,1110.308913,-8734.430116,919.314598
387.106260,74.020594,-9252.574275,1149.143247
387.106588,-962.267725,-9548.656652,1225.752797
387.106915,-2516.700203,-9918.759623,0.000000
387.107243,-3997.112087,-10362.883188,0.000000
387.107571,-3775.050304,-10066.800811,-306.438199
387.107898,-2960.823768,-9400.615463,-306.438199
387.108226,-1036.288319,-8512.368333,153.219100
387.108554,888.247130,-7550.100608,383.047749
387.108881,2664.741391,-7179.997637,995.924147
387.109209,3256.906145,-7179.997637,1302.362347
387.109537,2738.761985,-7624.121203,1149.143247
387.109864,1036.288319,-8364.327145,842.705048
387.110192,-666.185348,-8956.491898,383.047749
387.110520,-1850.514855,-10066.800811,-229.828649
387.110847,-2072.576638,-10066.800811,-306.438199
387.111175,-1184.329507,-10066.800811,0.000000
387.111503,222.061783,-9622.677246,76.609550
387.111830,1924.535449,-9104.533087,1149.143247
387.112158,2664.741391,-9104.533087,842.705048
387.112486,2886.803174,-8586.388927,995.924147
387.112813,1924.535449,-9474.636058,536.266849
387.113141,518.144159,-9696.697840,229.828649
387.113469,-1184.329507,-9992.780217,0.000000
387.113796,-2590.720797,-9918.759623,-536.266849
387.114124,-3552.988522,-9992.780217,-995.924147
387.114452,-2590.720797,-9326.594869,-612.876398
387.114779,-1036.288319,-8438.347739,-459.657299
387.115107,518.144159,-7698.141797,383.047749
387.115435,2442.679609,-7698.141797,459.657299
387.115762,2368.659014,-7476.080014,689.485948
387.116090,1850.514855,-7476.080014,1149.143247
387.116418,592.164754,-8660.409521,842.705048
387.116745,-1332.370696,-9252.574275,612.876398
387.117072,-2886.803174,-9474.636058,383.047749
387.117400,-2368.659014,-10807.006753,0.000000
387.117727,-2368.659014,-10140.821405,0.000000
387.118055,-1628.453072,-9474.636058,306.438199
387.118382,740.205942,-9622.677246,766.095498
387.118709,1850.514855,-8438.347739,1072.533697
387.119037,2146.597232,-8808.450710,1149.143247
387.119364,1628.453072,-9474.636058,919.314598
387.119692,370.102971,-9474.636058,612.876398
387.120019,-1554.432478,-10436.903782,153.219100
387.120346,-2664.741391,-11103.089130,0.000000
387.120674,-3478.967927,-11103.089130,0.000000
387.121001,-3256.906145,-10510.924376,-306.438199
387.121329,-2072.576638,-9400.615463,-229.828649
387.121656,-148.041188,-8438.347739,536.266849
387.121983,1628.453072,-7994.224174,842.705048
387.122311,2960.823768,-7550.100608,1149.143247
387.122638,2738.761985,-7698.141797,1225.752797
387.122966,1554.432478,-8364.327145,919.314598
387.123293,0.000000,-9252.574275,612.876398
387.123620,-1998.556043,-9918.759623,536.266849
387.123948,-2516.700203,-9918.759623,536.266849
387.124275,-2294.638420,-10140.821405,459.657299
387.124603,-962.267725,-9918.759623,689.485948
387.124930,814.226536,-9474.636058,1072.533697
387.125257,1998.556043,-9030.512492,1149.143247
387.125585,3108.864956,-8512.368333,1455.581446
387.125912,2368.659014,-9326.594869,1762.019645
387.126240,888.247130,-9548.656652,1072.533697
387.126567,-814.226536,-10140.821405,919.314598
387.126894,-2442.679609,-10214.842000,536.266849
387.127222,-2960.823768,-9844.739029,689.485948
387.127549,-2590.720797,-9844.739029,459.657299
387.127877,-1184.329507,-9030.512492,459.657299
387.128204,296.082377,-8364.327145,1378.971896
387.128531,1406.391290,-7920.203579,1608.800546
387.128859,1850.514855,-7624.121203,1915.238745
387.129186,1924.535449,-8068.244768,1838.629195
387.129514,370.102971,-8290.306550,1608.800546
387.129841,-888.247130,-8586.388927,1225.752797
387.130168,-2146.597232,-9326.594869,995.924147
387.130496,-3256.906145,-9474.636058,536.266849
387.130823,-3108.864956,-9326.594869,0.000000
387.131151,-2368.659014,-9104.533087,229.828649
387.131478,-740.205942,-8808.450710,306.438199
387.131805,296.082377,-8290.306550,306.438199
387.132133,1332.370696,-8586.388927,383.047749
387.132460,1776.494261,-8808.450710,76.609550
387.132788,962.267725,-8734.430116,919.314598
387.133115,-222.061783,-9474.636058,536.266849
387.133442,-1702.473667,-10214.842000,153.219100
387.133770,-2960.823768,-10288.862594,-306.438199
387.134097,-2812.782580,-10288.862594,-153.219100
387.134425,-2368.659014,-9622.677246,-689.485948
387.134752,-814.226536,-9104.533087,0.000000
387.135079,1110.308913,-8290.306550,306.438199
387.135407,2220.617826,-7920.203579,536.266849
387.135734,2812.782580,-7476.080014,842.705048
387.136062,2368.659014,-7550.100608,1302.362347
387.136389,1110.308913,-8068.244768,306.438199
387.136716,-592.164754,-8956.491898,153.219100
387.137044,-1776.494261,-9622.677246,-383.047749
387.137371,-2294.638420,-9770.718434,-612.876398
387.137699,-1554.432478,-9622.677246,-612.876398
387.138026,0.000000,-9622.677246,-612.876398
387.138353,888.247130,-9252.574275,0.000000
387.138681,2220.617826,-8808.450710,689.485948
387.139008,2886.803174,-8512.368333,766.095498
387.139336,3182.885551,-8956.491898,919.314598
387.139663,1110.308913,-9326.594869,383.047749
387.139990,-666.185348,-9844.739029,76.609550
387.140318,-2294.638420,-10140.821405,-306.438199
387.140645,-2516.700203,-9992.780217,-153.219100
387.140973,-1850.514855,-9548.656652,306.438199
387.141300,-370.102971,-8660.409521,842.705048
387.141627,1110.308913,-8586.388927,1378.971896
387.141955,2220.617826,-8068.244768,1762.019645
387.142282,2516.700203,-7920.203579,2068.457845
387.142610,1998.556043,-7920.203579,1991.848295
387.142937,814.226536,-8512.368333,2068.457845
387.143264,-814.226536,-9252.574275,1378.971896
387.143592,-2220.617826,-9548.656652,995.924147
387.143919,-3108.864956,-9844.739029,842.705048
387.144247,-3182.885551,-9770.718434,995.924147
387.144574,-1850.514855,-9400.615463,919.314598
387.144901,-518.144159,-9030.512492,536.266849
387.145229,74.020594,-8586.388927,1149.143247
387.145556,666.185348,-8660.409521,919.314598
387.145884,370.102971,-8660.409521,1149.143247
387.146211,-444.123565,-8882.471304,842.705048
387.146538,-1776.494261,-8808.450710,842.705048
387.146866,-2812.782580,-9770.718434,229.828649
387.147193,-3701.029710,-10288.862594,0.000000
387.147521,-3552.988522,-9918.759623,0.000000
387.147848,-2442.679609,-9104.533087,-229.828649
387.148175,-444.123565,-8660.409521,689.485948
387.148503,888.247130,-7994.224174,689.485948
387.148830,2220.617826,-7328.038826,1072.533697
387.149158,2516.700203,-7698.141797,1378.971896
387.149485,1924.535449,-7920.203579,1455.581446
387.149812,962.267725,-8660.409521,995.924147
387.150140,-666.185348,-9474.636058,612.876398
387.150467,-1850.514855,-10362.883188,0.000000
387.150795,-2072.576638,-10214.842000,-383.047749
387.151122,-1480.411884,-10214.842000,-306.438199
387.151449,0.000000,-9548.656652,0.000000
387.151777,962.267725,-9178.553681,306.438199
387.152104,2368.659014,-8512.368333,536.266849
387.152432,2960.823768,-8586.388927,766.095498
387.152759,2516.700203,-8734.430116,459.657299
387.153086,666.185348,-9252.574275,153.219100
387.153414,-962.267725,-9844.739029,0.000000
387.153741,-2442.679609,-10066.800811,-689.485948
387.154069,-2664.741391,-9844.739029,-612.876398
387.154396,-1850.514855,-9474.636058,0.000000
387.154724,-740.205942,-8512.368333,306.438199
387.155051,1702.473667,-8216.285956,995.924147
387.155378,2294.638420,-7476.080014,1378.971896
387.155706,2812.782580,-7550.100608,1532.190996
387.156033,1998.556043,-7846.182985,1608.800546
387.156361,666.185348,-8734.430116,1149.143247
387.156688,-962.267725,-9178.553681,842.705048
387.157015,-2368.659014,-9770.718434,689.485948
387.157343,-2664.741391,-9844.739029,689.485948
387.157670,-2072.576638,-9770.718434,536.266849
387.157998,-1110.308913,-9474.636058,766.095498
387.158325,148.041188,-8808.450710,1378.971896
387.158652,1036.288319,-8660.409521,1225.752797
387.158980,1036.288319,-8882.471304,1378.971896
387.159307,222.061783,-8808.450710,1149.143247
387.159635,-518.144159,-9474.636058,1149.143247
387.159962,-1850.514855,-9548.656652,842.705048
387.160289,-2960.823768,-9992.780217,229.828649
387.160617,-3849.070898,-10214.842000,0.000000
387.160944,-3775.050304,-9474.636058,-229.828649
387.161272,-2516.700203,-9030.512492,-306.438199
387.161599,-592.164754,-8364.327145,76.609550
387.161926,666.185348,-7402.059420,0.000000
387.162254,1998.556043,-7328.038826,689.485948
387.162581,2220.617826,-7550.100608,1072.533697
387.162909,1702.473667,-8290.306550,995.924147
387.163236,370.102971,-9252.574275,766.095498
387.163563,-1406.391290,-9844.739029,383.047749
387.163891,-2664.741391,-10362.883188,0.000000
387.164218,-2516.700203,-10881.027347,-153.219100
387.164546,-1406.391290,-10362.883188,0.000000
387.164873,148.041188,-9548.656652,153.219100
387.165200,2516.700203,-8808.450710,536.266849
387.165528,2738.761985,-8512.368333,919.314598
387.165855,3775.050304,-8808.450710,1149.143247
387.166183,2590.720797,-9030.512492,995.924147
387.166510,888.247130,-9548.656652,689.485948
387.166837,-888.247130,-10362.883188,153.219100
387.167165,-2812.782580,-10288.862594,0.000000
387.167492,-2812.782580,-10658.965565,-229.828649
387.167820,-1998.556043,-9622.677246,0.000000
387.168147,-148.041188,-8882.471304,459.657299
387.168474,1258.350101,-8068.244768,1149.143247
387.168802,2516.700203,-7402.059420,995.924147
387.169129,2664.741391,-7624.121203,1991.848295
387.169457,1702.473667,-7846.182985,1608.800546
387.169784,148.041188,-8438.347739,995.924147
387.170111,-1850.514855,-9400.615463,536.266849
387.170439,-2590.720797,-9770.718434,459.657299
387.170766,-2812.782580,-9770.718434,383.047749
387.171094,-2368.659014,-9400.615463,383.047749
387.171421,-814.226536,-9030.512492,689.485948
387.171748,296.082377,-8734.430116,1225.752797
387.172076,1406.391290,-9178.553681,2068.457845
387.172403,1258.350101,-8882.471304,1302.362347
387.172731,222.061783,-9030.512492,1072.533697
387.173058,-962.267725,-9696.697840,842.705048
387.173385,-2294.638420,-9844.739029,536.266849
387.173713,-3256.906145,-9474.636058,229.828649
387.174040,-3478.967927,-9104.533087,153.219100
387.174368,-2886.803174,-9252.574275,0.000000
387.174695,-1702.473667,-8438.347739,0.000000
387.175022,-370.102971,-7846.182985,229.828649
387.175350,1258.350101,-7476.080014,612.876398
387.175677,2146.597232,-7031.956449,919.314598
387.176005,2368.659014,-7476.080014,1072.533697
387.176332,1406.391290,-8364.327145,919.314598
387.176659,0.000000,-9178.553681,612.876398
387.176987,-1776.494261,-9992.780217,229.828649
387.177314,-2516.700203,-9844.739029,-229.828649
387.177642,-2072.576638,-10288.862594,-612.876398
387.177969,-1110.308913,-9844.739029,-689.485948
387.178296,444.123565,-9326.594869,-153.219100
387.178624,2368.659014,-8586.388927,0.000000
387.178951,3404.947333,-8068.244768,1072.533697
387.179279,3775.050304,-8290.306550,995.924147
387.179606,2368.659014,-8882.471304,689.485948
387.179933,148.041188,-9622.677246,0.000000
387.180261,-1924.535449,-10066.800811,-383.047749
387.180588,-2886.803174,-10288.862594,-689.485948
387.180916,-2590.720797,-9918.759623,-459.657299
387.181243,-1110.308913,-9400.615463,76.609550
387.181570,592.164754,-8660.409521,689.485948
387.181898,1776.494261,-7994.224174,1225.752797
387.182225,2442.679609,-7920.203579,1685.410096
387.182553,2220.617826,-7920.203579,1915.238745
387.182880,1258.350101,-8290.306550,1378.971896
387.183207,-444.123565,-8734.430116,919.314598
387.183535,-2146.597232,-9474.636058,536.266849
387.183862,-2812.782580,-9844.739029,229.828649
387.184190,-2516.700203,-9844.739029,0.000000
387.184517,-2146.597232,-9252.574275,459.657299
387.184844,-592.164754,-9104.533087,1072.533697
387.185172,296.082377,-8734.430116,689.485948
387.185499,1036.288319,-9030.512492,1302.362347
387.185827,814.226536,-8808.450710,689.485948
387.186154,74.020594,-8956.491898,1532.190996
387.186481,-888.247130,-9326.594869,689.485948
387.186809,-2368.659014,-9918.759623,383.047749
387.187136,-3330.926739,-10214.842000,0.000000
387.187464,-3182.885551,-9992.780217,459.657299
387.187791,-2220.617826,-8882.471304,0.000000
387.188118,-962.267725,-8956.491898,383.047749
387.188446,296.082377,-8586.388927,689.485948
387.188773,1776.494261,-8142.265362,1149.143247
387.189101,2516.700203,-8142.265362,1149.143247
387.189428,2294.638420,-7994.224174,995.924147
387.189755,962.267725,-8882.471304,919.314598
387.190083,-814.226536,-9622.677246,383.047749
387.190410,-2220.617826,-10214.842000,0.000000
387.190738,-2664.741391,-10732.986159,-153.219100
387.191065,-2368.659014,-10362.883188,-306.438199
387.191392,-1036.288319,-9548.656652,153.219100
387.191720,814.226536,-9326.594869,76.609550
387.192047,2072.576638,-8734.430116,229.828649
387.192375,2812.782580,-8438.347739,612.876398
387.192702,2886.803174,-9104.533087,536.266849
387.193029,962.267725,-8808.450710,612.876398
387.193357,-1036.288319,-9548.656652,0.000000
387.193684,-2368.659014,-10288.862594,-612.876398
387.194012,-3034.844362,-10140.821405,-766.095498
387.194339,-2294.638420,-9696.697840,-536.266849
387.194666,-740.205942,-8734.430116,153.219100
387.194994,1480.411884,-8512.368333,919.314598
387.195321,2442.679609,-7846.182985,1455.581446
387.195649,3330.926739,-7846.182985,1455.581446
387.195976,2516.700203,-8216.285956,1532.190996
387.196303,1258.350101,-7994.224174,1378.971896
387.196631,-148.041188,-9400.615463,612.876398
387.196958,-1924.535449,-9622.677246,383.047749
387.197286,-2294.638420,-9770.718434,306.438199
387.197613,-1776.494261,-9696.697840,689.485948
387.197940,-888.247130,-9252.574275,995.924147
387.198268,0.000000,-8734.430116,842.705048
387.198595,740.205942,-8660.409521,1225.752797
387.198923,1258.350101,-8660.409521,1302.362347
387.199250,444.123565,-8586.388927,995.924147
387.199577,0.000000,-8808.450710,1378.971896
387.199905,-1258.350101,-9474.636058,919.314598
387.200232,-2886.803174,-9474.636058,459.657299
387.200560,-3701.029710,-9770.718434,306.438199
387.200887,-3552.988522,-9548.656652,229.828649
387.201214,-2664.741391,-9104.533087,459.657299
387.201542,-962.267725,-8142.265362,1072.533697
387.201869,296.082377,-7994.224174,766.095498
387.202197,1258.350101,-7772.162391,1302.362347
387.202524,1332.370696,-7624.121203,1455.581446
387.202851,1110.308913,-8068.244768,1378.971896
387.203179,-370.102971,-8734.430116,1072.533697
387.203506,-1776.494261,-9770.718434,842.705048
387.203834,-2812.782580,-10214.842000,0.000000
387.204161,-2886.803174,-10140.821405,0.000000
387.204488,-2368.659014,-9696.697840,-459.657299
387.204816,-296.082377,-9474.636058,76.609550
387.205143,1332.370696,-8734.430116,-306.438199
387.205471,2368.659014,-8512.368333,536.266849
387.205798,3182.885551,-8660.409521,766.095498
387.206125,2294.638420,-8734.430116,689.485948
387.206453,1406.391290,-8734.430116,612.876398
387.206780,-740.205942,-9992.780217,-229.828649
387.207108,-2294.638420,-10510.924376,-536.266849
387.207435,-2664.741391,-10288.862594,-536.266849
387.207762,-1554.432478,-9918.759623,-306.438199
387.208090,296.082377,-8956.491898,229.828649
387.208417,2442.679609,-8512.368333,1072.533697
387.208745,3552.988522,-8068.244768,1455.581446
387.209072,3552.988522,-7920.203579,1685.410096
387.209399,2812.782580,-8216.285956,1608.800546
387.209727,1110.308913,-8734.430116,1378.971896
387.210054,-444.123565,-9474.636058,383.047749
387.210382,-2220.617826,-9548.656652,536.266849
387.210709,-2664.741391,-9992.780217,0.000000
387.211036,-2220.617826,-9696.697840,383.047749
387.211364,-814.226536,-9548.656652,919.314598
387.211691,74.020594,-8956.491898,1072.533697
387.212019,222.061783,-8512.368333,1302.362347
387.212346,518.144159,-8586.388927,1072.533697
387.212673,-296.082377,-8586.388927,1072.533697
387.213001,-1332.370696,-8882.471304,612.876398
387.213328,-2516.700203,-8956.491898,689.485948
387.213656,-3182.885551,-9030.512492,0.000000
387.213983,-3997.112087,-9252.574275,-153.219100
387.214310,-3182.885551,-8956.491898,0.000000
387.214638,-2072.576638,-8586.388927,229.828649
387.214965,-740.205942,-8068.244768,459.657299
387.215293,518.144159,-7920.203579,229.828649
387.215620,888.247130,-7772.162391,995.924147
387.215947,1628.453072,-7920.203579,1072.533697
387.216275,1184.329507,-8734.430116,1072.533697
387.216602,-296.082377,-9178.553681,995.924147
387.216930,-1480.411884,-9844.739029,1149.143247
387.217257,-2072.576638,-10288.862594,0.000000
387.217584,-1850.514855,-9918.759623,-306.438199
387.217912,-888.247130,-9770.718434,-229.828649
387.218239,296.082377,-9474.636058,-229.828649
387.218567,2368.659014,-8808.450710,536.266849
387.218894,3182.885551,-8586.388927,383.047749
387.219222,2960.823768,-8660.409521,842.705048
387.219549,2146.597232,-9326.594869,842.705048
387.219877,148.041188,-9770.718434,306.438199
387.220204,-1628.453072,-10362.883188,0.000000
387.220531,-1850.514855,-10584.944971,-842.705048
387.220859,-2664.741391,-9622.677246,-842.705048
387.221186,-1332.370696,-9400.615463,-306.438199
387.221514,296.082377,-8290.306550,0.000000
387.221841,1850.514855,-7994.224174,842.705048
387.222169,2960.823768,-7772.162391,1149.143247
387.222496,2886.803174,-7698.141797,1608.800546
387.222824,1702.473667,-8438.347739,1149.143247
387.223151,0.000000,-8956.491898,842.705048
387.223479,-1628.453072,-9844.739029,536.266849
387.223806,-2664.741391,-10436.903782,306.438199
387.224133,-2664.741391,-10436.903782,689.485948
387.224461,-1924.535449,-10066.800811,689.485948
387.224788,-814.226536,-9474.636058,842.705048
387.225116,0.000000,-9400.615463,1149.143247
387.225443,740.205942,-9252.574275,1378.971896
387.225771,814.226536,-8808.450710,1302.362347
387.226098,0.000000,-9030.512492,995.924147
387.226426,-814.226536,-9252.574275,1072.533697
387.226753,-2146.597232,-9548.656652,459.657299
387.227081,-3034.844362,-9696.697840,153.219100
387.227408,-3404.947333,-9696.697840,459.657299
387.227735,-2516.700203,-9326.594869,612.876398
387.228063,-1184.329507,-8586.388927,612.876398
387.228390,296.082377,-8438.347739,1149.143247
387.228718,1406.391290,-8290.306550,995.924147
387.229045,2146.597232,-8142.265362,1915.238745
387.229373,2072.576638,-8142.265362,1762.019645
387.229700,740.205942,-9030.512492,1302.362347
387.230028,-518.144159,-9918.759623,689.485948
387.230355,-1850.514855,-10436.903782,306.438199
387.230683,-2294.638420,-10066.800811,-229.828649
387.231010,-2146.597232,-10362.883188,-459.657299
387.231337,-1258.350101,-9474.636058,-306.438199
387.231665,444.123565,-9400.615463,0.000000
387.231992,1850.514855,-8882.471304,229.828649
387.232320,2516.700203,-8142.265362,229.828649
387.232647,2590.720797,-8438.347739,1149.143247
387.232975,1036.288319,-9104.533087,383.047749
387.233302,-296.082377,-9918.759623,0.000000
387.233630,-2368.659014,-10214.842000,-306.438199
387.233957,-3256.906145,-10214.842000,-766.095498
387.234285,-2738.761985,-9326.594869,0.000000
387.234612,-1110.308913,-9104.533087,0.000000
387.234939,518.144159,-8142.265362,229.828649
387.235267,2738.761985,-7328.038826,1149.143247
387.235594,3627.009116,-7105.977043,1302.362347
387.235922,3552.988522,-7254.018232,1838.629195
387.236249,2220.617826,-8068.244768,1225.752797
387.236577,370.102971,-8882.471304,1072.533697
387.236904,-1332.370696,-9474.636058,459.657299
387.237232,-1998.556043,-9844.739029,306.438199
387.237559,-1554.432478,-9992.780217,919.314598
387.237886,-518.144159,-9252.574275,1225.752797
387.238214,148.041188,-9400.615463,1532.190996
387.238541,1036.288319,-8956.491898,1762.019645
387.238869,740.205942,-8364.327145,1378.971896
387.239196,592.164754,-8660.409521,1225.752797
387.239524,74.020594,-8956.491898,919.314598
387.239851,-1776.494261,-9030.512492,612.876398
387.240179,-2960.823768,-9178.553681,306.438199
387.240506,-3775.050304,-9104.533087,229.828649
387.240834,-4219.173869,-8956.491898,0.000000
387.241161,-3034.844362,-8438.347739,76.609550
387.241488,-1776.494261,-8068.244768,306.438199
387.241816,-370.102971,-7476.080014,842.705048
387.242143,962.267725,-7402.059420,1149.143247
387.242471,1554.432478,-7402.059420,1532.190996
387.242798,1184.329507,-8216.285956,1685.410096
387.243126,222.061783,-8512.368333,1149.143247
387.243453,-1406.391290,-9696.697840,919.314598
387.243781,-2516.700203,-10362.883188,536.266849
387.244108,-2960.823768,-10362.883188,0.000000
387.244436,-1998.556043,-9918.759623,76.609550
387.244763,-518.144159,-9400.615463,76.609550
387.245090,888.247130,-8882.471304,0.000000
387.245418,2442.679609,-8734.430116,612.876398
387.245745,3182.885551,-8734.430116,612.876398
387.246073,2590.720797,-9030.512492,1072.533697
387.246400,1036.288319,-9252.574275,383.047749
387.246728,-666.185348,-10288.862594,0.000000
387.247055,-2516.700203,-10807.006753,-536.266849
387.247383,-3256.906145,-10955.047942,-919.314598
387.247710,-3256.906145,-10288.862594,-995.924147
387.248038,-1332.370696,-9326.594869,-459.657299
387.248365,888.247130,-8586.388927,153.219100
387.248692,2812.782580,-7550.100608,459.657299
387.249020,3775.050304,-7179.997637,1149.143247
387.249347,3701.029710,-7698.141797,1225.752797
387.249675,2220.617826,-7994.224174,1149.143247
387.250002,296.082377,-9178.553681,306.438199
387.250330,-1406.391290,-10140.821405,76.609550
387.250657,-2368.659014,-10510.924376,0.000000
387.250985,-1850.514855,-10510.924376,229.828649
387.251312,-518.144159,-10066.800811,842.705048
387.251640,592.164754,-9400.615463,1302.362347
387.251967,1924.535449,-9252.574275,1608.800546
387.252294,2146.597232,-8956.491898,1378.971896
387.252622,1184.329507,-9252.574275,1455.581446
387.252949,0.000000,-9474.636058,689.485948
387.253277,-1776.494261,-9696.697840,383.047749
387.253604,-2886.803174,-9918.759623,0.000000
387.253932,-3701.029710,-9844.739029,0.000000
387.254259,-3108.864956,-9400.615463,229.828649
387.254587,-2146.597232,-8660.409521,459.657299
387.254914,-518.144159,-7994.224174,612.876398
387.255241,148.041188,-7624.121203,919.314598
387.255569,1258.350101,-7402.059420,1378.971896
387.255896,1184.329507,-7772.162391,1378.971896
387.256224,370.102971,-8142.265362,1455.581446
387.256551,-740.205942,-9030.512492,766.095498
387.256879,-1924.535449,-9326.594869,1072.533697
387.257206,-2812.782580,-9696.697840,0.000000
387.257534,-2886.803174,-9696.697840,0.000000
387.257861,-1998.556043,-9400.615463,0.000000
387.258189,-370.102971,-8808.450710,0.000000
387.258516,1184.329507,-8586.388927,229.828649
387.258843,2368.659014,-8216.285956,383.047749
387.259171,2442.679609,-8364.327145,689.485948
387.259498,2072.576638,-9104.533087,689.485948
387.259826,518.144159,-9770.718434,459.657299
387.260153,-1554.432478,-9770.718434,229.828649
387.260481,-2442.679609,-10807.006753,0.000000
387.260808,-2738.761985,-10140.821405,-536.266849
387.261136,-1702.473667,-9474.636058,-306.438199
387.261463,0.000000,-8512.368333,229.828649
387.261791,2220.617826,-7994.224174,919.314598
387.262118,3923.091493,-7624.121203,1302.362347
387.262445,3849.070898,-7402.059420,1532.190996
387.262773,2812.782580,-7994.224174,1685.410096
387.263100,1110.308913,-8438.347739,1608.800546
387.263428,-592.164754,-9474.636058,1302.362347
387.263755,-1924.535449,-9844.739029,536.266849
387.264083,-2590.720797,-10288.862594,459.657299
387.264410,-2294.638420,-10140.821405,229.828649
387.264738,-740.205942,-9474.636058,919.314598
387.265065,296.082377,-8734.430116,1072.533697
387.265393,1332.370696,-8586.388927,1072.533697
387.265720,1332.370696,-8956.491898,1302.362347
387.266047,444.123565,-9178.553681,1149.143247
387.266375,-1184.329507,-9400.615463,612.876398
387.266702,-2442.679609,-9844.739029,229.828649
387.267030,-3330.926739,-9770.718434,536.266849
387.267357,-3627.009116,-9918.759623,-153.219100
387.267685,-2664.741391,-9474.636058,229.828649
387.268012,-1332.370696,-9104.533087,842.705048
387.268340,222.061783,-8586.388927,1149.143247
387.268667,1184.329507,-8216.285956,1685.410096
387.268995,1776.494261,-8660.409521,1302.362347
387.269322,1480.411884,-8364.327145,1378.971896
387.269649,666.185348,-8882.471304,1225.752797
387.269977,-592.164754,-9326.594869,919.314598
387.270304,-1628.453072,-9696.697840,1072.533697
387.270632,-2220.617826,-9696.697840,76.609550
387.270959,-2072.576638,-10140.821405,0.000000
387.271287,-1406.391290,-9844.739029,-306.438199
387.271614,74.020594,-9474.636058,0.000000
387.271942,1332.370696,-9030.512492,0.000000
387.272269,2368.659014,-9326.594869,76.609550
387.272596,1998.556043,-8956.491898,766.095498
387.272924,1258.350101,-9474.636058,612.876398
387.273251,-814.226536,-10066.800811,383.047749
387.273579,-2368.659014,-10584.944971,-229.828649
387.273906,-3478.967927,-10732.986159,-689.485948
387.274234,-3034.844362,-9918.759623,-766.095498
387.274561,-1776.494261,-9178.553681,-536.266849
387.274889,444.123565,-8364.327145,0.000000
387.275216,2220.617826,-7698.141797,766.095498
387.275544,3330.926739,-7179.997637,1302.362347
387.275871,3627.009116,-7402.059420,1762.019645
387.276198,2368.659014,-8142.265362,1378.971896
387.276526,296.082377,-8808.450710,919.314598
387.276853,-1480.411884,-9548.656652,306.438199
387.277181,-2368.659014,-10288.862594,766.095498
387.277508,-2294.638420,-9992.780217,153.219100
387.277836,-1554.432478,-10140.821405,689.485948
387.278163,0.000000,-9326.594869,766.095498
387.278491,1110.308913,-8734.430116,1225.752797
387.278818,2220.617826,-8734.430116,1532.190996
387.279146,1480.411884,-8290.306550,1455.581446
387.279473,888.247130,-8660.409521,1072.533697
387.279800,-1110.308913,-8956.491898,766.095498
387.280128,-2442.679609,-9400.615463,383.047749
387.280455,-3108.864956,-9622.677246,306.438199
387.280783,-3182.885551,-9178.553681,306.438199
387.281110,-1998.556043,-8734.430116,459.657299
387.281438,-888.247130,-8364.327145,842.705048
387.281765,74.020594,-8068.244768,1378.971896
387.282093,666.185348,-7772.162391,1149.143247
387.282420,1480.411884,-7476.080014,1915.238745
387.282748,814.226536,-7624.121203,1455.581446
387.283075,0.000000,-8512.368333,1302.362347
387.283402,-1332.370696,-9252.574275,459.657299
387.283730,-2220.617826,-9474.636058,459.657299
387.284057,-2516.700203,-9770.718434,76.609550
387.284385,-2368.659014,-9400.615463,-459.657299
387.284712,-1184.329507,-9252.574275,-383.047749
387.285040,222.061783,-8956.491898,-153.219100
387.285367,1406.391290,-8882.471304,229.828649
387.285695,1850.514855,-8882.471304,459.657299
387.286022,1776.494261,-8512.368333,612.876398
387.286349,888.247130,-9622.677246,612.876398
387.286677,-740.205942,-10066.800811,0.000000
387.287004,-2590.720797,-10807.006753,-612.876398
387.287332,-3034.844362,-11177.109724,-1149.143247
387.287659,-3108.864956,-10362.883188,-536.266849
387.287987,-1184.329507,-9474.636058,-1302.362347
387.288314,1332.370696,-8438.347739,-229.828649
387.288642,3182.885551,-7624.121203,766.095498
387.288969,4663.297435,-7254.018232,1225.752797
387.289297,4885.359217,-7772.162391,1991.848295
387.289624,2812.782580,-8068.244768,919.314598
387.289951,740.205942,-9474.636058,842.705048
387.290279,-1480.411884,-10362.883188,306.438199
387.290606,-2294.638420,-10807.006753,76.609550
387.290934,-2220.617826,-10288.862594,229.828649
387.291261,-814.226536,-9770.718434,842.705048
387.291589,592.164754,-9252.574275,1072.533697
387.291916,1776.494261,-9178.553681,1762.019645
387.292244,2368.659014,-8956.491898,1685.410096
387.292571,1110.308913,-8734.430116,1149.143247
387.292899,370.102971,-9400.615463,1072.533697
387.293226,-1776.494261,-9474.636058,306.438199
387.293553,-3182.885551,-9844.739029,76.609550
387.293881,-3849.070898,-9918.759623,76.609550
387.294208,-3627.009116,-9622.677246,76.609550
387.294536,-2368.659014,-8734.430116,689.485948
387.294863,-1406.391290,-8216.285956,1072.533697
387.295191,0.000000,-8142.265362,1225.752797
387.295518,370.102971,-7920.203579,1149.143247
387.295846,518.144159,-7698.141797,1455.581446
387.296173,74.020594,-7698.141797,1455.581446
387.296501,-296.082377,-8364.327145,1455.581446
387.296828,-1776.494261,-8956.491898,919.314598
387.297155,-2072.576638,-9548.656652,612.876398
387.297483,-2368.659014,-9474.636058,229.828649
387.297810,-1480.411884,-9622.677246,612.876398
387.298138,74.020594,-9104.533087,0.000000
387.298465,888.247130,-9178.553681,842.705048
387.298793,2220.617826,-8956.491898,1149.143247
387.299120,2738.761985,-9474.636058,1225.752797
387.299448,2220.617826,-9548.656652,1225.752797
387.299775,962.267725,-9918.759623,919.314598
387.300103,-962.267725,-10066.800811,383.047749
387.300430,-2664.741391,-10658.965565,0.000000
387.300757,-3627.009116,-10140.821405,-612.876398
387.301085,-2812.782580,-9474.636058,-919.314598
387.301412,-1184.329507,-8290.306550,0.000000
387.301740,888.247130,-7550.100608,0.000000
387.302067,2812.782580,-7105.977043,612.876398
387.302395,3627.009116,-7105.977043,1072.533697
387.302722,2812.782580,-7402.059420,1685.410096
387.303050,1258.350101,-8142.265362,1762.019645
387.303377,-1184.329507,-9178.553681,766.095498
387.303704,-2664.741391,-9844.739029,229.828649
387.304032,-3182.885551,-10214.842000,-153.219100
387.304359,-2886.803174,-9548.656652,0.000000
387.304687,-962.267725,-9474.636058,153.219100
387.305014,814.226536,-8438.347739,1072.533697
387.305342,1998.556043,-7994.224174,995.924147
387.305669,1924.535449,-8290.306550,1072.533697
387.305997,1480.411884,-8734.430116,919.314598
387.306324,0.000000,-9104.533087,306.438199
387.306652,-1110.308913,-9770.718434,229.828649
387.306979,-2516.700203,-10066.800811,-229.828649
387.307306,-2812.782580,-10140.821405,306.438199
387.307634,-2294.638420,-9696.697840,306.438199
387.307961,-1110.308913,-9178.553681,766.095498
387.308289,444.123565,-8734.430116,919.314598
387.308616,1554.432478,-7994.224174,1378.971896
387.308944,1702.473667,-7994.224174,1455.581446
387.309271,1480.411884,-7846.182985,1225.752797
387.309599,888.247130,-8290.306550,1225.752797
387.309926,-222.061783,-8734.430116,1378.971896
387.310254,-1628.453072,-9030.512492,995.924147
387.310581,-2368.659014,-9474.636058,459.657299
387.310908,-2072.576638,-9622.677246,536.266849
387.311236,-1406.391290,-9474.636058,306.438199
387.311563,-222.061783,-9474.636058,229.828649
387.311891,1628.453072,-9474.636058,1149.143247
387.312218,1702.473667,-9178.553681,612.876398
387.312546,1924.535449,-9326.594869,1302.362347
387.312873,1332.370696,-9548.656652,1149.143247
387.313201,-444.123565,-10214.842000,689.485948
387.313528,-1776.494261,-10436.903782,153.219100
387.313856,-3330.926739,-10658.965565,-153.219100
387.314183,-3552.988522,-10362.883188,-689.485948
387.314510,-2516.700203,-9474.636058,-229.828649
387.314838,-592.164754,-8438.347739,0.000000
387.315165,1406.391290,-7772.162391,76.609550
387.315493,2738.761985,-6957.935855,1149.143247
387.315820,3182.885551,-6957.935855,1532.190996
387.316148,2220.617826,-7179.997637,1302.362347
387.316475,666.185348,-8438.347739,995.924147
387.316803,-1110.308913,-9030.512492,383.047749
387.317130,-2368.659014,-9696.697840,689.485948
387.317458,-2812.782580,-9770.718434,0.000000
387.317785,-1998.556043,-9844.739029,153.219100
387.318112,-444.123565,-9474.636058,612.876398
387.318440,518.144159,-8734.430116,1762.019645
387.318767,2294.638420,-8438.347739,919.314598
387.319095,2294.638420,-8438.347739,919.314598
387.319422,1332.370696,-8586.388927,766.095498
387.319750,0.000000,-9178.553681,612.876398
387.320077,-1480.411884,-9696.697840,76.609550
387.320404,-2812.782580,-9474.636058,-383.047749
387.320732,-2886.803174,-10066.800811,-459.657299
387.321059,-2368.659014,-9918.759623,-229.828649
387.321387,-1110.308913,-9252.574275,0.000000
387.321714,0.000000,-8586.388927,383.047749
387.322041,1406.391290,-8142.265362,766.095498
387.322369,2146.597232,-7846.182985,842.705048
387.322696,1628.453072,-8068.244768,995.924147
387.323023,888.247130,-8438.347739,766.095498
387.323351,-518.144159,-8660.409521,536.266849
387.323678,-1776.494261,-9474.636058,229.828649
387.324006,-2368.659014,-9770.718434,-306.438199
387.324333,-2072.576638,-9400.615463,-459.657299
387.324660,-962.267725,-9252.574275,0.000000
387.324988,74.020594,-9326.594869,-153.219100
387.325315,1258.350101,-8734.430116,229.828649
387.325642,2368.659014,-9178.553681,766.095498
387.325970,2072.576638,-8882.471304,842.705048
387.326297,1036.288319,-9548.656652,612.876398
387.326625,-666.185348,-10658.965565,0.000000
387.326952,-2590.720797,-11029.068536,0.000000
387.327279,-4145.153275,-10881.027347,-459.657299
387.327607,-3923.091493,-10436.903782,-842.705048
387.327934,-2368.659014,-9918.759623,-919.314598
387.328262,0.000000,-8808.450710,-383.047749
387.328589,1998.556043,-7920.203579,536.266849
387.328916,3108.864956,-7179.997637,842.705048
387.329244,3552.988522,-7254.018232,1685.410096
387.329571,2368.659014,-8142.265362,1072.533697
387.329898,370.102971,-9252.574275,689.485948
387.330226,-1406.391290,-10066.800811,689.485948
387.330553,-2886.803174,-10807.006753,76.609550
387.330881,-2738.761985,-10881.027347,229.828649
387.331208,-1850.514855,-10214.842000,76.609550
387.331535,296.082377,-9770.718434,1149.143247
387.331863,1702.473667,-9104.533087,1378.971896
387.332190,2442.679609,-9104.533087,1685.410096
387.332517,2516.700203,-8586.388927,1532.190996
387.332845,1332.370696,-9548.656652,1225.752797
387.333172,-148.041188,-9622.677246,842.705048
387.333500,-2146.597232,-10362.883188,229.828649
387.333827,-3108.864956,-10510.924376,229.828649
387.334154,-2960.823768,-10140.821405,459.657299
387.334482,-2072.576638,-9252.574275,919.314598
387.334809,-666.185348,-9030.512492,919.314598
387.335136,296.082377,-8364.327145,1302.362347
387.335464,1258.350101,-8290.306550,1915.238745
387.335791,1184.329507,-7772.162391,1455.581446
387.336119,518.144159,-7994.224174,1915.238745
387.336446,-222.061783,-8512.368333,1532.190996
387.336773,-1776.494261,-9252.574275,766.095498
387.337101,-2368.659014,-9474.636058,689.485948
387.337428,-2590.720797,-9178.553681,536.266849
387.337756,-1406.391290,-8586.388927,612.876398
387.338083,222.061783,-9030.512492,919.314598
387.338410,740.205942,-8660.409521,1302.362347
387.338738,1332.370696,-8586.388927,1455.581446
387.339065,2220.617826,-9104.533087,1762.019645
387.339392,1406.391290,-9104.533087,1455.581446
387.339720,0.000000,-9474.636058,1225.752797
387.340047,-1628.453072,-10140.821405,689.485948
387.340375,-3108.864956,-9992.780217,0.000000
387.340702,-3256.906145,-9770.718434,-459.657299
387.341029,-2368.659014,-9326.594869,0.000000
387.341357,-1110.308913,-8290.306550,0.000000
387.341684,444.123565,-7550.100608,76.609550
387.342011,2072.576638,-7254.018232,536.266849
387.342339,2812.782580,-7254.018232,919.314598
387.342666,2442.679609,-7550.100608,1149.143247
387.342994,1480.411884,-8142.265362,1149.143247
387.343321,-666.185348,-9104.533087,383.047749
387.343648,-2664.741391,-9770.718434,0.000000
387.343976,-3034.844362,-9696.697840,-153.219100
387.344303,-2590.720797,-9548.656652,-383.047749
387.344631,-1036.288319,-9622.677246,229.828649
387.344958,148.041188,-8734.430116,76.609550
387.345285,2072.576638,-8364.327145,76.609550
387.345613,2590.720797,-8142.265362,536.266849
387.345940,2294.638420,-8290.306550,612.876398
387.346267,1406.391290,-9030.512492,-229.828649
387.346595,-592.164754,-9326.594869,-383.047749
387.346922,-1924.535449,-9918.759623,-306.438199
387.347250,-2516.700203,-10362.883188,-459.657299
387.347577,-2664.741391,-10140.821405,-459.657299
387.347904,-1480.411884,-9400.615463,459.657299
387.348232,222.061783,-9030.512492,153.219100
387.348559,1480.411884,-8364.327145,919.314598
387.348886,2294.638420,-7846.182985,1149.143247
387.349214,2146.597232,-7994.224174,1378.971896
387.349541,1110.308913,-7846.182985,1072.533697
387.349869,0.000000,-8734.430116,1149.143247
387.350196,-1702.473667,-9104.533087,383.047749
387.350523,-2442.679609,-9474.636058,76.609550
387.350851,-2146.597232,-9622.677246,76.609550
387.351178,-1036.288319,-9252.574275,229.828649
387.351506,0.000000,-9104.533087,306.438199
387.351833,1332.370696,-9030.512492,995.924147
387.352160,1924.535449,-8956.491898,1149.143247
387.352488,1776.494261,-9030.512492,1149.143247
387.352815,592.164754,-9326.594869,1225.752797
387.353142,-814.226536,-9622.677246,1225.752797
387.353470,-2516.700203,-10584.944971,612.876398
387.353797,-3775.050304,-10955.047942,76.609550
387.354125,-4145.153275,-10436.903782,-153.219100
387.354452,-2960.823768,-9548.656652,-383.047749
387.354779,-962.267725,-8364.327145,0.000000
387.355107,1406.391290,-7476.080014,383.047749
387.355434,2368.659014,-7179.997637,995.924147
387.355761,2886.803174,-7402.059420,1532.190996
387.356089,1924.535449,-7772.162391,1608.800546
387.356416,296.082377,-8734.430116,1302.362347
387.356744,-1110.308913,-9844.739029,842.705048
387.357071,-3108.864956,-10362.883188,229.828649
387.357398,-3108.864956,-10436.903782,153.219100
387.357726,-2220.617826,-9992.780217,229.828649
387.358053,-814.226536,-9474.636058,383.047749
387.358381,1702.473667,-8512.368333,1302.362347
387.358708,2368.659014,-8364.327145,1378.971896
387.359035,2960.823768,-8438.347739,1608.800546
387.359363,1850.514855,-8586.388927,1149.143247
387.359690,518.144159,-9326.594869,766.095498
387.360017,-1406.391290,-9992.780217,306.438199
387.360345,-2516.700203,-10214.842000,229.828649
387.360672,-2960.823768,-10066.800811,0.000000
387.361000,-2442.679609,-9770.718434,229.828649
387.361327,-962.267725,-9252.574275,383.047749
387.361654,222.061783,-8438.347739,766.095498
387.361982,1702.473667,-7846.182985,766.095498
387.362309,2146.597232,-7846.182985,1225.752797
387.362636,1628.453072,-7994.224174,1378.971896
387.362964,740.205942,-8290.306550,919.314598
387.363291,-962.267725,-8512.368333,536.266849
387.363619,-1776.494261,-8882.471304,536.266849
387.363946,-1998.556043,-9030.512492,229.828649
387.364273,-1850.514855,-8956.491898,459.657299
387.364601,-740.205942,-8956.491898,459.657299
387.364928,370.102971,-8808.450710,842.705048
387.365256,1110.308913,-8586.388927,1072.533697
387.365583,1554.432478,-8734.430116,1225.752797
387.365910,1480.411884,-9252.574275,995.924147
387.366238,296.082377,-9400.615463,842.705048
387.366565,-1110.308913,-9844.739029,536.266849
387.366892,-2368.659014,-10140.821405,383.047749
387.367220,-3552.988522,-9696.697840,-306.438199
387.367547,-3627.009116,-9622.677246,-689.485948
387.367875,-1998.556043,-8882.471304,-383.047749
387.368202,-296.082377,-8068.244768,-229.828649
387.368529,1480.411884,-7772.162391,383.047749
387.368857,2812.782580,-7550.100608,1149.143247
387.369184,2738.761985,-7550.100608,1302.362347
387.369511,1776.494261,-8290.306550,1072.533697
387.369839,370.102971,-9178.553681,766.095498
387.370166,-1554.432478,-9696.697840,612.876398
387.370494,-2960.823768,-9844.739029,153.219100
387.370821,-2368.659014,-10658.965565,306.438199
387.371148,-1850.514855,-10066.800811,229.828649
387.371476,148.041188,-9178.553681,536.266849
387.371803,1628.453072,-9030.512492,842.705048
387.372131,2886.803174,-8438.347739,842.705048
387.372458,2294.638420,-8734.430116,1072.533697
387.372785,1628.453072,-8956.491898,842.705048
387.373113,0.000000,-9400.615463,536.266849
387.373440,-1628.453072,-10066.800811,0.000000
387.373767,-2590.720797,-10732.986159,0.000000
387.374095,-2960.823768,-10436.903782,-306.438199
387.374422,-2590.720797,-10066.800811,0.000000
387.374750,-888.247130,-9178.553681,383.047749
387.375077,592.164754,-8586.388927,612.876398
387.375404,1480.411884,-8142.265362,1149.143247
387.375732,1924.535449,-7698.141797,995.924147
387.376059,1406.391290,-7920.203579,995.924147
387.376386,148.041188,-8290.306550,995.924147
387.376714,-1110.308913,-9178.553681,536.266849
387.377041,-2294.638420,-9400.615463,153.219100
387.377369,-2664.741391,-9178.553681,306.438199
387.377696,-1924.535449,-9474.636058,459.657299
387.378023,-592.164754,-9252.574275,612.876398
387.378351,666.185348,-9178.553681,995.924147
387.378678,1850.514855,-9030.512492,1149.143247
387.379006,2368.659014,-8956.491898,1302.362347
387.379333,1554.432478,-9178.553681,1455.581446
387.379660,518.144159,-9770.718434,1225.752797
387.379988,-1184.329507,-10214.842000,383.047749
387.380315,-2738.761985,-10510.924376,0.000000
387.380642,-3256.906145,-10140.821405,-229.828649
387.380970,-2442.679609,-9622.677246,-306.438199
387.381297,-1332.370696,-8734.430116,-153.219100
387.381625,592.164754,-8142.265362,536.266849
387.381952,1924.535449,-7476.080014,919.314598
387.382279,2960.823768,-7476.080014,1838.629195
387.382607,2442.679609,-7402.059420,1685.410096
387.382934,1184.329507,-8438.347739,1532.190996
387.383261,-666.185348,-9178.553681,1225.752797
387.383589,-2368.659014,-9918.759623,766.095498
387.383916,-3404.947333,-10140.821405,0.000000
387.384244,-2738.761985,-9844.739029,76.609550
387.384571,-2146.597232,-9548.656652,229.828649
387.384898,0.000000,-9030.512492,842.705048
387.385226,1332.370696,-8438.347739,612.876398
387.385553,2072.576638,-8290.306550,766.095498
387.385881,1776.494261,-8438.347739,612.876398
387.386208,814.226536,-8660.409521,306.438199
387.386535,-814.226536,-9252.574275,0.000000
387.386863,-2220.617826,-9696.697840,-229.828649
387.387190,-3182.885551,-10214.842000,-612.876398
387.387517,-2886.803174,-9844.739029,-842.705048
387.387845,-2072.576638,-9104.533087,76.609550
387.388172,-666.185348,-9030.512492,0.000000
387.388500,962.267725,-8512.368333,459.657299
387.388827,1776.494261,-7920.203579,459.657299
387.389154,1850.514855,-7328.038826,612.876398
387.389482,1628.453072,-7994.224174,0.000000
387.389809,444.123565,-8142.265362,229.828649
387.390136,-592.164754,-9252.574275,76.609550
387.390464,-1480.411884,-9252.574275,-306.438199
387.390791,-1702.473667,-9474.636058,-229.828649
387.391119,-1036.288319,-9252.574275,459.657299
387.391446,222.061783,-9252.574275,0.000000
387.391773,1406.391290,-8808.450710,306.438199
387.392101,1924.535449,-8734.430116,612.876398
387.392428,1776.494261,-9252.574275,842.705048
387.392756,1776.494261,-9992.780217,229.828649
387.393083,296.082377,-10214.842000,76.609550
387.393410,-1554.432478,-10288.862594,-153.219100
387.393738,-2960.823768,-11029.068536,-536.266849
387.394065,-3182.885551,-9992.780217,-459.657299
387.394392,-2220.617826,-9474.636058,-536.266849
387.394720,0.000000,-8660.409521,0.000000
387.395047,1332.370696,-8216.285956,919.314598
387.395375,1998.556043,-8216.285956,1378.971896
387.395702,2516.700203,-7550.100608,1608.800546
387.396029,1776.494261,-7846.182985,1838.629195
387.396357,296.082377,-9104.533087,2145.067394
387.396684,-1628.453072,-9918.759623,1225.752797
387.397011,-2886.803174,-10436.903782,536.266849
387.397339,-3478.967927,-10066.800811,306.438199
387.397666,-2960.823768,-10214.842000,536.266849
387.397994,-1258.350101,-9548.656652,612.876398
387.398321,0.000000,-9030.512492,612.876398
387.398648,1480.411884,-8660.409521,1225.752797
387.398976,1924.535449,-8660.409521,1225.752797
387.399303,1406.391290,-8956.491898,1149.143247
387.399631,370.102971,-9178.553681,1072.533697
387.399958,-1258.350101,-9770.718434,459.657299
387.400285,-2442.679609,-10362.883188,536.266849
387.400613,-2886.803174,-10362.883188,229.828649
387.400940,-2368.659014,-9992.780217,459.657299
387.401267,-1184.329507,-9474.636058,689.485948
387.401595,592.164754,-8734.430116,1149.143247
387.401922,1702.473667,-8438.347739,1072.533697
387.402250,2368.659014,-7846.182985,1532.190996
387.402577,2146.597232,-7920.203579,1762.019645
387.402904,888.247130,-8364.327145,1149.143247
387.403232,0.000000,-8956.491898,1302.362347
387.403559,-1554.432478,-8956.491898,612.876398
387.403886,-1628.453072,-9548.656652,153.219100
387.404214,-1702.473667,-9474.636058,306.438199
387.404541,-370.102971,-9400.615463,306.438199
387.404869,518.144159,-8882.471304,612.876398
387.405196,1628.453072,-8586.388927,842.705048
387.405523,1702.473667,-8586.388927,995.924147
387.405851,1702.473667,-8808.450710,842.705048
387.406178,592.164754,-9030.512492,766.095498
387.406506,-740.205942,-9474.636058,306.438199
387.406833,-2368.659014,-9474.636058,-536.266849
387.407160,-3182.885551,-9844.739029,-383.047749
387.407488,-3034.844362,-9326.594869,-383.047749
387.407815,-1628.453072,-8882.471304,-306.438199
387.408142,-444.123565,-8290.306550,383.047749
387.408470,1702.473667,-7846.182985,919.314598
387.408797,2368.659014,-7698.141797,995.924147
387.409125,2442.679609,-7624.121203,1378.971896
387.409452,1480.411884,-7772.162391,1072.533697
387.409779,0.000000,-8660.409521,1072.533697
387.410107,-1850.514855,-9030.512492,536.266849
387.410434,-2812.782580,-9918.759623,153.219100
387.410761,-2812.782580,-9992.780217,0.000000
387.411089,-2146.597232,-9326.594869,-229.828649
387.411416,-666.185348,-9252.574275,0.000000
387.411744,962.267725,-8586.388927,766.095498
387.412071,1850.514855,-8364.327145,459.657299
387.412398,2072.576638,-8438.347739,536.266849
387.412726,1406.391290,-8512.368333,612.876398
387.413053,-222.061783,-9400.615463,689.485948
387.413381,-1258.350101,-9548.656652,-153.219100
387.413708,-2442.679609,-10214.842000,-383.047749
387.414035,-3108.864956,-10288.862594,-306.438199
387.414363,-2368.659014,-9844.739029,-306.438199
387.414690,-1036.288319,-9252.574275,0.000000
387.415017,296.082377,-8216.285956,229.828649
387.415345,1776.494261,-7550.100608,689.485948
387.415672,2590.720797,-7846.182985,919.314598
387.416000,2368.659014,-7920.203579,1225.752797
387.416327,1036.288319,-8882.471304,1149.143247
387.416654,-518.144159,-9474.636058,689.485948
387.416982,-2220.617826,-9622.677246,0.000000
387.417309,-2368.659014,-10066.800811,0.000000
387.417636,-1924.535449,-9992.780217,0.000000
387.417964,-814.226536,-9548.656652,76.609550
387.418291,370.102971,-9252.574275,536.266849
387.418619,1702.473667,-8882.471304,1302.362347
387.418946,2368.659014,-8660.409521,995.924147
387.419273,1850.514855,-9030.512492,1455.581446
387.419601,370.102971,-9474.636058,1149.143247
387.419928,-1406.391290,-9844.739029,536.266849
387.420256,-3034.844362,-9992.780217,383.047749
387.420583,-3256.906145,-9992.780217,153.219100
387.420910,-2812.782580,-9548.656652,0.000000
387.421238,-1184.329507,-8660.409521,459.657299
387.421565,814.226536,-7920.203579,1072.533697
387.421892,2368.659014,-7550.100608,1685.410096
387.422220,2516.700203,-7328.038826,1991.848295
387.422547,1998.556043,-7920.203579,1838.629195
387.422875,444.123565,-8438.347739,1685.410096
387.423202,-1258.350101,-9474.636058,1302.362347
387.423529,-2812.782580,-10140.821405,766.095498
387.423857,-3552.988522,-9992.780217,1072.533697
387.424184,-2664.741391,-10288.862594,689.485948
387.424511,-1850.514855,-9474.636058,689.485948
387.424839,-444.123565,-9030.512492,919.314598
387.425166,1036.288319,-8586.388927,842.705048
387.425494,1110.308913,-8216.285956,1149.143247
387.425821,1406.391290,-8882.471304,766.095498
387.426148,296.082377,-8956.491898,536.266849
387.426476,-740.205942,-9400.615463,153.219100
387.426803,-2146.597232,-9992.780217,0.000000
387.427130,-2812.782580,-10288.862594,-153.219100
387.427458,-3330.926739,-9696.697840,-383.047749
387.427785,-2368.659014,-9622.677246,-689.485948
387.428113,-888.247130,-8808.450710,-689.485948
387.428440,740.205942,-8216.285956,-383.047749
387.428767,2590.720797,-7772.162391,229.828649
387.429095,3256.906145,-7550.100608,766.095498
387.429422,2738.761985,-7624.121203,842.705048
387.429749,1554.432478,-8660.409521,612.876398
387.430077,0.000000,-9474.636058,306.438199
387.430404,-1554.432478,-9992.780217,-383.047749
387.430732,-1258.350101,-10288.862594,-383.047749
387.431059,-888.247130,-10214.842000,-383.047749
387.431386,222.061783,-9770.718434,0.000000
387.431714,1702.473667,-9548.656652,689.485948
387.432041,2886.803174,-9178.553681,995.924147
387.432369,3182.885551,-9104.533087,1149.143247
387.432696,2294.638420,-9326.594869,1455.581446
387.433023,296.082377,-9918.759623,459.657299
387.433351,-1628.453072,-10436.903782,153.219100
387.433678,-3034.844362,-10732.986159,0.000000
387.434005,-3627.009116,-10066.800811,-383.047749
387.434333,-2368.659014,-9252.574275,-459.657299
387.434660,-962.267725,-8586.388927,536.266849
387.434988,814.226536,-7920.203579,1302.362347
387.435315,2072.576638,-7328.038826,1838.629195
387.435642,2294.638420,-7254.018232,2145.067394
387.435970,1628.453072,-7698.141797,2298.286494
387.436297,74.020594,-8586.388927,1915.238745
387.436624,-1850.514855,-9178.553681,1455.581446
387.436952,-2960.823768,-9548.656652,1149.143247
387.437279,-3478.967927,-9770.718434,919.314598
387.437607,-2590.720797,-9770.718434,842.705048
387.437934,-1480.411884,-9178.553681,1149.143247
387.438261,74.020594,-8734.430116,1149.143247
387.438589,1406.391290,-8216.285956,1762.019645
387.438916,1258.350101,-8290.306550,1378.971896
387.439243,814.226536,-8290.306550,1455.581446
387.439571,-370.102971,-8660.409521,1378.971896
387.439898,-1998.556043,-9548.656652,612.876398
387.440226,-3330.926739,-9992.780217,0.000000
387.440553,-3997.112087,-10140.821405,0.000000
387.440880,-3701.029710,-9844.739029,0.000000
387.441208,-2220.617826,-9030.512492,-306.438199
387.441535,-666.185348,-8438.347739,-229.828649
387.441863,1258.350101,-7772.162391,153.219100
387.442190,2368.659014,-7846.182985,689.485948
387.442517,2812.782580,-7698.141797,766.095498
387.442845,2442.679609,-8438.347739,689.485948
387.443172,962.267725,-8734.430116,536.266849
387.443499,-962.267725,-9474.636058,-153.219100
387.443827,-1628.453072,-9918.759623,0.000000
387.444154,-1628.453072,-10140.821405,-383.047749
387.444482,-296.082377,-9992.780217,-612.876398
387.444809,1110.308913,-9252.574275,0.000000
387.445136,2442.679609,-9104.533087,536.266849
387.445464,3330.926739,-9030.512492,919.314598
387.445791,3182.885551,-9178.553681,1225.752797
387.446118,2146.597232,-9474.636058,1072.533697
387.446446,222.061783,-9474.636058,306.438199
387.446773,-1776.494261,-10436.903782,76.609550
387.447101,-2886.803174,-10436.903782,-229.828649
387.447428,-2960.823768,-10066.800811,-153.219100
387.447755,-1702.473667,-9252.574275,0.000000
387.448083,0.000000,-8660.409521,1302.362347
387.448410,1036.288319,-7920.203579,1302.362347
387.448737,1850.514855,-7698.141797,1532.190996
387.449065,1776.494261,-7772.162391,1915.238745
387.449392,814.226536,-8216.285956,1608.800546
387.449720,-666.185348,-8734.430116,1225.752797
387.450047,-2516.700203,-9474.636058,459.657299
387.450374,-3404.947333,-10066.800811,383.047749
387.450702,-3627.009116,-9770.718434,0.000000
387.451029,-2812.782580,-9622.677246,76.609550
387.451357,-1332.370696,-9326.594869,76.609550
387.451684,0.000000,-8882.471304,536.266849
387.452011,1184.329507,-8882.471304,842.705048
387.452339,1480.411884,-8660.409521,1302.362347
387.452666,814.226536,-9030.512492,459.657299
387.452993,0.000000,-9474.636058,766.095498
387.453321,-1184.329507,-10362.883188,153.219100
387.453648,-2590.720797,-10510.924376,0.000000
387.453976,-2960.823768,-10288.862594,0.000000
387.454303,-2294.638420,-9696.697840,-306.438199
387.454630,-1036.288319,-9178.553681,0.000000
387.454958,740.205942,-8364.327145,459.657299
387.455285,1998.556043,-7920.203579,842.705048
387.455612,2812.782580,-7550.100608,919.314598
387.455940,2738.761985,-7698.141797,1072.533697
387.456267,1628.453072,-8068.244768,995.924147
387.456595,-370.102971,-8882.471304,383.047749
387.456922,-1036.288319,-9548.656652,76.609550
387.457249,-1776.494261,-9844.739029,0.000000
387.457577,-1480.411884,-9844.739029,153.219100
387.457904,-222.061783,-9844.739029,536.266849
387.458231,592.164754,-8808.450710,536.266849
387.458559,2072.576638,-9252.574275,1225.752797
387.458886,2368.659014,-8882.471304,1149.143247
387.459214,1924.535449,-8956.491898,1072.533697
387.459541,444.123565,-9178.553681,536.266849
387.459868,-1184.329507,-9400.615463,766.095498
387.460196,-2516.700203,-9474.636058,0.000000
387.460523,-3330.926739,-9474.636058,-306.438199
387.460851,-2664.741391,-9252.574275,0.000000
387.461178,-1332.370696,-8734.430116,76.609550
387.461505,222.061783,-8216.285956,1532.190996
387.461833,1332.370696,-7402.059420,1532.190996
387.462160,1924.535449,-7624.121203,1991.848295
387.462487,1776.494261,-8142.265362,1915.238745
387.462815,666.185348,-8586.388927,1762.019645
387.463142,-888.247130,-9030.512492,1225.752797
387.463470,-1998.556043,-9770.718434,1072.533697
387.463797,-2812.782580,-9770.718434,536.266849
387.464124,-2368.659014,-9696.697840,766.095498
387.464452,-1554.432478,-9326.594869,459.657299
387.464779,-444.123565,-8808.450710,766.095498
387.465106,962.267725,-8660.409521,1149.143247
387.465434,1184.329507,-8734.430116,919.314598
387.465761,888.247130,-8808.450710,842.705048
387.466089,592.164754,-9178.553681,995.924147
387.466416,-518.144159,-9770.718434,229.828649
387.466743,-1998.556043,-9844.739029,459.657299
387.467071,-2738.761985,-9992.780217,-229.828649
387.467398,-3182.885551,-10140.821405,-536.266849
387.467725,-2516.700203,-9400.615463,-766.095498
387.468053,-1184.329507,-8734.430116,-306.438199
387.468380,592.164754,-7624.121203,0.000000
387.468708,2294.638420,-7105.977043,612.876398
387.469035,2886.803174,-7402.059420,919.314598
387.469362,2368.659014,-7698.141797,766.095498
387.469690,1258.350101,-8438.347739,689.485948
387.470017,-370.102971,-9178.553681,153.219100
387.470344,-1702.473667,-9992.780217,229.828649
387.470672,-2146.597232,-9918.759623,-459.657299
387.470999,-1406.391290,-9992.780217,0.000000
387.471327,0.000000,-9474.636058,0.000000
387.471654,1110.308913,-9252.574275,383.047749
387.471981,2516.700203,-9326.594869,919.314598
387.472309,2812.782580,-8512.368333,842.705048
387.472636,2072.576638,-8882.471304,1225.752797
387.472964,740.205942,-9548.656652,612.876398
387.473291,-1258.350101,-9992.780217,153.219100
387.473618,-2664.741391,-10066.800811,-306.438199
387.473946,-3478.967927,-9696.697840,0.000000
387.474273,-2516.700203,-9548.656652,153.219100
387.474600,-1110.308913,-9030.512492,612.876398
387.474928,666.185348,-8068.244768,1149.143247
387.475255,1998.556043,-7328.038826,1991.848295
387.475583,2368.659014,-7550.100608,2221.676944
387.475910,1628.453072,-7846.182985,1915.238745
387.476237,222.061783,-8586.388927,1378.971896
387.476565,-1554.432478,-9030.512492,995.924147
387.476892,-2664.741391,-9622.677246,612.876398
387.477219,-2368.659014,-9770.718434,536.266849
387.477547,-2516.700203,-9770.718434,766.095498
387.477874,-1406.391290,-9326.594869,842.705048
387.478202,444.123565,-9030.512492,919.314598
387.478529,740.205942,-8660.409521,1149.143247
387.478856,1332.370696,-8364.327145,1149.143247
387.479184,962.267725,-8882.471304,1225.752797
387.479511,0.000000,-9178.553681,919.314598
387.479838,-1628.453072,-9992.780217,842.705048
387.480166,-2738.761985,-10214.842000,153.219100
387.480493,-3404.947333,-10288.862594,0.000000
387.480821,-3552.988522,-9622.677246,-229.828649
387.481148,-2368.659014,-9326.594869,-383.047749
387.481475,-1036.288319,-8660.409521,-459.657299
387.481803,814.226536,-7994.224174,153.219100
387.482130,2072.576638,-7550.100608,306.438199
387.482458,2664.741391,-7179.997637,536.266849
387.482785,1850.514855,-7920.203579,1149.143247
387.483112,666.185348,-8882.471304,689.485948
387.483440,-1036.288319,-9474.636058,153.219100
387.483767,-2072.576638,-10362.883188,-229.828649
387.484094,-2294.638420,-10140.821405,-689.485948
387.484422,-962.267725,-10288.862594,0.000000
387.484749,370.102971,-9918.759623,-229.828649
387.485077,1480.411884,-9178.553681,229.828649
387.485404,3256.906145,-8882.471304,842.705048
387.485731,3478.967927,-8586.388927,1225.752797
387.486059,2664.741391,-8956.491898,919.314598
387.486386,740.205942,-9474.636058,383.047749
387.486713,-962.267725,-10214.842000,-229.828649
387.487041,-2812.782580,-10288.862594,-612.876398
387.487368,-2664.741391,-10066.800811,-536.266849
387.487696,-2146.597232,-9178.553681,-306.438199
387.488023,-370.102971,-8734.430116,536.266849
387.488350,1332.370696,-8216.285956,1072.533697
387.488678,2220.617826,-7698.141797,1455.581446
387.489005,2442.679609,-7698.141797,1915.238745
387.489332,1554.432478,-7920.203579,2145.067394
387.489660,0.000000,-8882.471304,1532.190996
387.489987,-1850.514855,-9474.636058,919.314598
387.490315,-2886.803174,-9770.718434,689.485948
387.490642,-3108.864956,-9770.718434,383.047749
387.490969,-1998.556043,-9252.574275,0.000000
387.491297,-592.164754,-8808.450710,612.876398
387.491624,666.185348,-8660.409521,1378.971896
387.491952,1702.473667,-8438.347739,1608.800546
387.492279,1480.411884,-8364.327145,1378.971896
387.492606,518.144159,-8808.450710,1225.752797
387.492934,0.000000,-9622.677246,1378.971896
387.493261,-2294.638420,-10140.821405,612.876398
387.493588,-3330.926739,-10362.883188,229.828649
387.493916,-3552.988522,-10214.842000,0.000000
387.494243,-3108.864956,-9326.594869,383.047749
387.494571,-1702.473667,-8808.450710,536.266849
387.494898,-296.082377,-8068.244768,306.438199
387.495225,1184.329507,-7476.080014,536.266849
387.495553,1998.556043,-7179.997637,612.876398
387.495880,2294.638420,-7254.018232,689.485948
387.496207,1258.350101,-7179.997637,612.876398
387.496535,0.000000,-8586.388927,383.047749
387.496862,-1332.370696,-9474.636058,0.000000
387.497190,-2220.617826,-9696.697840,0.000000
387.497517,-2072.576638,-9918.759623,0.000000
387.497844,-1258.350101,-9400.615463,-153.219100
387.498172,148.041188,-9400.615463,76.609550
387.498499,1554.432478,-9104.533087,612.876398
387.498826,2664.741391,-8808.450710,919.314598
387.499154,2442.679609,-8364.327145,689.485948
387.499481,1776.494261,-8808.450710,1149.143247
387.499809,296.082377,-9474.636058,842.705048
387.500136,-1480.411884,-9918.759623,-229.828649
387.500463,-2590.720797,-9844.739029,-459.657299
387.500791,-2368.659014,-9844.739029,-459.657299
387.501118,-1332.370696,-9178.553681,0.000000
387.501445,222.061783,-8438.347739,383.047749
387.501773,1776.494261,-8068.244768,1225.752797
387.502100,2368.659014,-7772.162391,1915.238745
387.502428,2368.659014,-7698.141797,1915.238745
387.502755,814.226536,-8364.327145,1685.410096
387.503082,-592.164754,-8882.471304,1378.971896
387.503410,-2442.679609,-9548.656652,842.705048
387.503737,-3330.926739,-9770.718434,76.609550
387.504065,-3108.864956,-9918.759623,306.438199
387.504392,-2294.638420,-9474.636058,306.438199
387.504719,-296.082377,-8586.388927,536.266849
387.505047,1184.329507,-8290.306550,1225.752797
387.505374,1776.494261,-8512.368333,842.705048
387.505701,1776.494261,-8882.471304,1378.971896
387.506029,444.123565,-9326.594869,842.705048
387.506356,-740.205942,-9918.759623,842.705048
387.506684,-2368.659014,-10510.924376,766.095498
387.507011,-3182.885551,-10881.027347,76.609550
387.507338,-3034.844362,-10658.965565,0.000000
387.507666,-2294.638420,-10066.800811,229.828649
387.507993,-962.267725,-9548.656652,383.047749
387.508320,518.144159,-8660.409521,229.828649
387.508648,1628.453072,-8364.327145,766.095498
387.508975,2294.638420,-7994.224174,842.705048
387.509303,2072.576638,-8364.327145,919.314598
387.509630,888.247130,-8660.409521,689.485948
387.509957,-740.205942,-9178.553681,689.485948
387.510285,-1702.473667,-9992.780217,0.000000
387.510612,-2368.659014,-10140.821405,-383.047749
387.510939,-2368.659014,-10214.842000,-229.828649
387.511267,-1258.350101,-9622.677246,-229.828649
387.511594,444.123565,-8734.430116,0.000000
387.511922,2220.617826,-8438.347739,383.047749
387.512249,2516.700203,-8512.368333,766.095498
387.512576,2220.617826,-8438.347739,612.876398
387.512904,1110.308913,-9178.553681,689.485948
387.513231,-666.185348,-9400.615463,0.000000
387.513559,-1924.535449,-9844.739029,153.219100
387.513886,-2664.741391,-10066.800811,-229.828649
387.514213,-2072.576638,-9474.636058,0.000000
387.514541,-370.102971,-9030.512492,459.657299
387.514868,1184.329507,-8364.327145,1302.362347
387.515195,2368.659014,-7402.059420,2528.115143
387.515523,3108.864956,-7550.100608,2145.067394
387.515850,2442.679609,-7846.182985,2145.067394
387.516178,740.205942,-8438.347739,1838.629195
387.516505,-962.267725,-9104.533087,1378.971896
387.516832,-2368.659014,-9474.636058,919.314598
387.517160,-3256.906145,-9252.574275,383.047749
387.517487,-2960.823768,-9104.533087,459.657299
387.517814,-1480.411884,-8660.409521,1072.533697
387.518142,-222.061783,-8290.306550,1378.971896
387.518469,296.082377,-7772.162391,383.047749
387.518797,888.247130,-7402.059420,1072.533697
387.519124,518.144159,-7994.224174,842.705048
387.519447,-592.164754,-8586.388927,459.657299
387.519774,-1850.514855,-9030.512492,459.657299
387.520102,-3034.844362,-9474.636058,459.657299
387.520429,-3552.988522,-9474.636058,76.609550
387.520757,-3330.926739,-9474.636058,-383.047749
387.521084,-2368.659014,-9252.574275,-306.438199
387.521412,-814.226536,-8734.430116,0.000000
387.521739,740.205942,-8364.327145,0.000000
387.522067,1998.556043,-7624.121203,536.266849
387.522394,2664.741391,-7698.141797,612.876398
387.522722,2590.720797,-8290.306550,995.924147
387.523049,1258.350101,-9326.594869,612.876398
387.523377,-370.102971,-9844.739029,0.000000
387.523704,-1184.329507,-10140.821405,-229.828649
387.524032,-1628.453072,-10807.006753,-536.266849
387.524360,-1628.453072,-10732.986159,-766.095498
387.524687,0.000000,-10066.800811,-766.095498
387.525015,1480.411884,-9326.594869,0.000000
387.525342,2664.741391,-8660.409521,383.047749
387.525670,3330.926739,-9030.512492,1072.533697
387.525997,2442.679609,-8882.471304,612.876398
387.526325,814.226536,-9696.697840,383.047749
387.526652,-1406.391290,-10140.821405,0.000000
387.526980,-2960.823768,-10140.821405,-995.924147
387.527307,-3478.967927,-10214.842000,-459.657299
387.527635,-2664.741391,-9992.780217,-229.828649
387.527962,-962.267725,-9178.553681,306.438199
387.528290,1036.288319,-8512.368333,1225.752797
387.528617,2590.720797,-7920.203579,1915.238745
387.528945,3182.885551,-7254.018232,2374.896044
387.529272,2146.597232,-8068.244768,1838.629195
387.529600,0.000000,-9030.512492,1455.581446
387.529927,-1998.556043,-9474.636058,766.095498
387.530255,-2960.823768,-10066.800811,842.705048
387.530583,-3256.906145,-9992.780217,612.876398
387.530910,-2590.720797,-10066.800811,766.095498
387.531238,-1406.391290,-9474.636058,1072.533697
387.531565,222.061783,-8808.450710,1455.581446
387.531893,962.267725,-8660.409521,1302.362347
387.532220,888.247130,-8586.388927,1455.581446
387.532548,666.185348,-8956.491898,1838.629195
387.532875,-592.164754,-9104.533087,919.314598
387.533203,-1924.535449,-9622.677246,612.876398
387.533530,-2738.761985,-9992.780217,306.438199
387.533858,-3182.885551,-9918.759623,153.219100
387.534185,-2442.679609,-9178.553681,0.000000
387.534513,-1554.432478,-8808.450710,153.219100
387.534840,-444.123565,-8290.306550,229.828649
387.535168,1036.288319,-8068.244768,612.876398
387.535495,1776.494261,-7846.182985,536.266849
387.535823,1924.535449,-8068.244768,1225.752797
387.536150,1406.391290,-8364.327145,1072.533697
387.536478,0.000000,-9030.512492,306.438199
387.536806,-1332.370696,-9548.656652,0.000000
387.537133,-1998.556043,-10066.800811,-306.438199
387.537461,-1998.556043,-9696.697840,-612.876398
387.537788,-1110.308913,-9474.636058,-229.828649
387.538116,370.102971,-9474.636058,-229.828649
387.538443,1702.473667,-8956.491898,0.000000
387.538771,2590.720797,-8438.347739,306.438199
387.539098,2664.741391,-8216.285956,536.266849
387.539426,2072.576638,-8956.491898,536.266849
387.539753,0.000000,-9696.697840,306.438199
387.540081,-1406.391290,-10066.800811,0.000000
387.540408,-2516.700203,-10288.862594,0.000000
387.540736,-2442.679609,-9918.759623,-383.047749
387.541063,-888.247130,-9622.677246,0.000000
387.541391,370.102971,-8660.409521,766.095498
387.541718,2072.576638,-8216.285956,1225.752797
387.542046,3108.864956,-7698.141797,1762.019645
387.542373,2812.782580,-8142.265362,1915.238745
387.542701,1924.535449,-8438.347739,1762.019645
387.543029,-148.041188,-9104.533087,1072.533697
387.543356,-1850.514855,-9844.739029,919.314598
387.543684,-2812.782580,-10214.842000,536.266849
387.544011,-2812.782580,-10066.800811,536.266849
387.544339,-2220.617826,-9918.759623,459.657299
387.544666,-888.247130,-8956.491898,1302.362347
387.544994,296.082377,-9252.574275,1302.362347
387.545321,962.267725,-8808.450710,1149.143247
387.545649,814.226536,-8882.471304,1072.533697
387.545976,0.000000,-9178.553681,995.924147
387.546304,-518.144159,-9178.553681,689.485948
387.546631,-2442.679609,-9770.718434,229.828649
387.546959,-3330.926739,-9844.739029,0.000000
387.547286,-2960.823768,-9918.759623,76.609550
387.547614,-2590.720797,-9474.636058,689.485948
387.547941,-1184.329507,-8956.491898,0.000000
387.548269,0.000000,-8512.368333,766.095498
387.548596,1184.329507,-8290.306550,536.266849
387.548924,1776.494261,-8290.306550,995.924147
387.549252,1924.535449,-8512.368333,842.705048
387.549579,1036.288319,-8512.368333,1225.752797
387.549907,-74.020594,-9326.594869,612.876398
387.550234,-1406.391290,-9770.718434,0.000000
387.550562,-1850.514855,-10066.800811,0.000000
387.550889,-1554.432478,-10066.800811,-383.047749
387.551217,-518.144159,-9474.636058,-459.657299
387.551544,666.185348,-9030.512492,0.000000
387.551872,2294.638420,-8808.450710,229.828649
387.552199,2812.782580,-8586.388927,995.924147
387.552527,2738.761985,-8290.306550,766.095498
387.552854,1628.453072,-8808.450710,995.924147
387.553182,-296.082377,-9474.636058,76.609550
387.553509,-2516.700203,-9770.718434,-612.876398
387.553837,-3256.906145,-9992.780217,-766.095498
387.554164,-2812.782580,-9400.615463,-612.876398
387.554492,-1554.432478,-8734.430116,-383.047749
387.554819,962.267725,-7254.018232,306.438199
387.555147,2664.741391,-7402.059420,1378.971896
387.555475,3256.906145,-7179.997637,1838.629195
387.555802,2664.741391,-7402.059420,1838.629195
387.556130,1332.370696,-8216.285956,1302.362347
387.556457,-592.164754,-8808.450710,1762.019645
387.556785,-2368.659014,-9918.759623,766.095498
387.557112,-2664.741391,-9992.780217,229.828649
387.557440,-2146.597232,-9844.739029,612.876398
387.557767,-814.226536,-9474.636058,995.924147
387.558095,592.164754,-9030.512492,1608.800546
387.558422,1184.329507,-8512.368333,1532.190996
387.558750,1258.350101,-8438.347739,1532.190996
387.559077,666.185348,-8660.409521,1149.143247
387.559405,-296.082377,-8882.471304,612.876398
387.559732,-1554.432478,-9178.553681,153.219100
387.560060,-2738.761985,-9918.759623,0.000000
387.560387,-3330.926739,-9770.718434,-229.828649
387.560715,-3404.947333,-9326.594869,153.219100
387.561042,-2368.659014,-8956.491898,0.000000
387.561370,-1110.308913,-8438.347739,0.000000
387.561698,888.247130,-8290.306550,612.876398
387.562025,1184.329507,-7698.141797,919.314598
387.562353,1776.494261,-7698.141797,919.314598
387.562680,1480.411884,-8438.347739,1149.143247
387.563008,444.123565,-9178.553681,1225.752797
387.563335,-962.267725,-9918.759623,459.657299
387.563663,-2072.576638,-10288.862594,459.657299
387.563990,-2220.617826,-10807.006753,76.609550
387.564318,-1924.535449,-10362.883188,-383.047749
387.564645,-592.164754,-9992.780217,229.828649
387.564973,1110.308913,-9326.594869,76.609550
387.565300,2072.576638,-8956.491898,689.485948
387.565628,3108.864956,-8586.388927,995.924147
387.565955,2516.700203,-9030.512492,1072.533697
387.566283,888.247130,-9474.636058,459.657299
387.566610,-1036.288319,-10214.842000,383.047749
387.566938,-2738.761985,-10362.883188,0.000000
387.567265,-3627.009116,-10584.944971,-689.485948
387.567593,-2886.803174,-9992.780217,-689.485948
387.567921,-1258.350101,-9326.594869,-536.266849
387.568248,888.247130,-8586.388927,612.876398
387.568576,2590.720797,-7328.038826,1532.190996
387.568903,3182.885551,-7328.038826,1608.800546
387.569231,2664.741391,-7550.100608,1455.581446
387.569558,1110.308913,-8586.388927,1072.533697
387.569886,-740.205942,-9326.594869,689.485948
387.570213,-2146.597232,-9918.759623,229.828649
387.570541,-2590.720797,-9696.697840,229.828649
387.570868,-1776.494261,-9696.697840,536.266849
387.571196,-296.082377,-9400.615463,995.924147
387.571523,1332.370696,-8956.491898,1455.581446
387.571851,2072.576638,-8512.368333,1378.971896
387.572178,1998.556043,-8364.327145,1455.581446
387.572506,1184.329507,-9030.512492,1378.971896
387.572833,0.000000,-9400.615463,689.485948
387.573161,-1998.556043,-9474.636058,383.047749
387.573488,-2590.720797,-9918.759623,76.609550
387.573816,-3256.906145,-9474.636058,0.000000
387.574144,-2812.782580,-9030.512492,0.000000
387.574471,-1702.473667,-8734.430116,459.657299
387.574799,-592.164754,-8216.285956,536.266849
387.575126,592.164754,-7624.121203,842.705048
387.575454,1406.391290,-7550.100608,842.705048
387.575781,1628.453072,-7550.100608,995.924147
387.576109,814.226536,-8068.244768,995.924147
387.576436,-148.041188,-9030.512492,995.924147
387.576764,-2072.576638,-9474.636058,536.266849
387.577091,-2664.741391,-9918.759623,0.000000
387.577419,-2368.659014,-9474.636058,-153.219100
387.577746,-1850.514855,-9548.656652,0.000000
387.578074,-666.185348,-9252.574275,0.000000
387.578401,1184.329507,-9178.553681,153.219100
387.578729,1776.494261,-8660.409521,459.657299
387.579056,2590.720797,-8438.347739,1149.143247
387.579384,1628.453072,-8956.491898,306.438199
387.579711,296.082377,-9696.697840,229.828649
387.580039,-1480.411884,-10066.800811,-306.438199
387.580367,-2664.741391,-10288.862594,-459.657299
387.580694,-3182.885551,-9844.739029,-919.314598
387.581022,-2368.659014,-9548.656652,-306.438199
387.581349,-148.041188,-9030.512492,0.000000
387.581677,1332.370696,-8142.265362,612.876398
387.582004,2738.761985,-7698.141797,1378.971896
387.582332,2886.803174,-7550.100608,2451.505594
387.582659,2368.659014,-8142.265362,1302.362347
387.582987,740.205942,-8808.450710,1149.143247
387.583314,-1332.370696,-9622.677246,842.705048
387.583642,-2516.700203,-9992.780217,153.219100
387.583969,-2960.823768,-10066.800811,306.438199
387.584297,-1850.514855,-9548.656652,842.705048
387.584624,-222.061783,-9326.594869,842.705048
387.584952,1036.288319,-8660.409521,919.314598
387.585279,1924.535449,-8586.388927,1378.971896
387.585607,1702.473667,-8586.388927,689.485948
387.585934,296.082377,-8660.409521,1225.752797
387.586262,-740.205942,-9474.636058,842.705048
387.586590,-2368.659014,-9696.697840,229.828649
387.586917,-3182.885551,-9844.739029,229.828649
387.587245,-3182.885551,-9548.656652,459.657299
387.587572,-1850.514855,-9178.553681,612.876398
387.587900,-740.205942,-8660.409521,1072.533697
387.588227,370.102971,-8142.265362,1149.143247
387.588555,1258.350101,-7772.162391,1532.190996
387.588882,1184.329507,-7772.162391,1455.581446
387.589210,1258.350101,-7994.224174,1302.362347
387.589537,370.102971,-8438.347739,766.095498
387.589865,-1036.288319,-9252.574275,766.095498
387.590192,-2220.617826,-9622.677246,459.657299
387.590520,-2590.720797,-9844.739029,0.000000
387.590847,-2368.659014,-9474.636058,0.000000
387.591175,-1554.432478,-9474.636058,-383.047749
387.591502,0.000000,-9326.594869,-383.047749
387.591830,814.226536,-8882.471304,0.000000
387.592158,1628.453072,-8734.430116,76.609550
387.592485,1776.494261,-8586.388927,229.828649
387.592813,1332.370696,-9252.574275,0.000000
387.593140,-148.041188,-9696.697840,153.219100
387.593468,-1998.556043,-10436.903782,-306.438199
387.593795,-2812.782580,-10362.883188,-842.705048
387.594123,-2516.700203,-10140.821405,-766.095498
387.594450,-1036.288319,-9252.574275,-306.438199
387.594778,1036.288319,-8660.409521,229.828649
387.595105,2590.720797,-7920.203579,842.705048
387.595433,3775.050304,-7550.100608,1378.971896
387.595760,3775.050304,-7920.203579,1685.410096
387.596088,2072.576638,-8586.388927,2298.286494
387.596415,370.102971,-8956.491898,1378.971896
387.596743,-1406.391290,-10140.821405,612.876398
387.597070,-2442.679609,-10288.862594,0.000000
387.597398,-2072.576638,-10436.903782,229.828649
387.597725,-1184.329507,-9474.636058,766.095498
387.598053,148.041188,-9178.553681,459.657299
387.598381,1184.329507,-9030.512492,1225.752797
387.598708,1776.494261,-8586.388927,1532.190996
387.599036,814.226536,-8512.368333,1149.143247
387.599363,-518.144159,-8512.368333,1072.533697
387.599691,-1406.391290,-8956.491898,0.000000
387.600018,-3108.864956,-9770.718434,153.219100
387.600346,-3627.009116,-9474.636058,459.657299
387.600673,-3404.947333,-9474.636058,459.657299
387.601001,-2220.617826,-8808.450710,612.876398
387.601328,-518.144159,-8586.388927,1608.800546
387.601656,148.041188,-7994.224174,1302.362347
387.601983,1110.308913,-7846.182985,1378.971896
387.602311,1332.370696,-7624.121203,1302.362347
387.602638,888.247130,-8068.244768,1302.362347
387.602966,74.020594,-8734.430116,1225.752797
387.603293,-962.267725,-9252.574275,536.266849
387.603621,-2220.617826,-9696.697840,306.438199
387.603948,-2442.679609,-10288.862594,306.438199
387.604276,-2146.597232,-9918.759623,-229.828649
387.604604,-962.267725,-9622.677246,0.000000
387.604931,666.185348,-8956.491898,0.000000
387.605259,1332.370696,-8808.450710,536.266849
387.605586,2516.700203,-8734.430116,766.095498
387.605914,2368.659014,-8956.491898,766.095498
387.606241,1110.308913,-9178.553681,1072.533697
387.606569,-740.205942,-9548.656652,0.000000
387.606896,-2590.720797,-10288.862594,-689.485948
387.607224,-3034.844362,-10214.842000,-1225.752797
387.607551,-2738.761985,-9696.697840,-1302.362347
387.607879,-740.205942,-8956.491898,-766.095498
387.608206,1258.350101,-7846.182985,229.828649
387.608534,3404.947333,-7550.100608,919.314598
387.608861,3923.091493,-7254.018232,1225.752797
387.609189,3330.926739,-7698.141797,1378.971896
387.609516,1628.453072,-8586.388927,1072.533697
387.609844,0.000000,-9178.553681,689.485948
387.610171,-1776.494261,-9918.759623,0.000000
387.610499,-2294.638420,-10584.944971,153.219100
387.610827,-1924.535449,-10510.924376,306.438199
387.611154,-370.102971,-9844.739029,612.876398
387.611482,1036.288319,-9474.636058,995.924147
387.611809,1776.494261,-8438.347739,1455.581446
387.612137,1850.514855,-8586.388927,1532.190996
387.612464,1406.391290,-8956.491898,1225.752797
387.612792,0.000000,-9252.574275,842.705048
387.613119,-1554.432478,-9622.677246,536.266849
387.613447,-3182.885551,-9770.718434,459.657299
387.613774,-3701.029710,-9844.739029,229.828649
387.614102,-3330.926739,-9622.677246,459.657299
387.614429,-2220.617826,-8512.368333,612.876398
387.614757,-1110.308913,-7994.224174,919.314598
387.615084,370.102971,-7846.182985,536.266849
387.615412,814.226536,-7402.059420,1378.971896
387.615739,1110.308913,-7698.141797,1302.362347
387.616067,592.164754,-7920.203579,1532.190996
387.616394,-518.144159,-8808.450710,1149.143247
387.616722,-1924.535449,-9844.739029,536.266849
387.617050,-2738.761985,-10214.842000,536.266849
387.617377,-2960.823768,-10066.800811,76.609550
387.617705,-1924.535449,-9918.759623,0.000000
387.618032,-518.144159,-9400.615463,153.219100
387.618360,1184.329507,-8956.491898,766.095498
387.618687,1406.391290,-8882.471304,842.705048
387.619015,2368.659014,-8660.409521,995.924147
387.619342,1628.453072,-8956.491898,536.266849
387.619670,0.000000,-9548.656652,306.438199
387.619997,-1554.432478,-10140.821405,-153.219100
387.620325,-3330.926739,-10066.800811,-689.485948
387.620652,-3256.906145,-10214.842000,-766.095498
387.620980,-2368.659014,-9474.636058,-842.705048
387.621307,-444.123565,-8734.430116,-306.438199
387.621635,1406.391290,-8216.285956,612.876398
387.621963,3404.947333,-7698.141797,919.314598
387.622290,4737.318029,-7476.080014,1072.533697
387.622618,3182.885551,-7624.121203,1302.362347
387.622945,1184.329507,-8660.409521,689.485948
387.623273,-740.205942,-9622.677246,459.657299
387.623600,-2072.576638,-9992.780217,459.657299
387.623928,-2294.638420,-10214.842000,0.000000
387.624255,-1480.411884,-10362.883188,229.828649
387.624583,0.000000,-9992.780217,842.705048
387.624910,1554.432478,-9252.574275,1225.752797
387.625238,2516.700203,-8512.368333,1608.800546
387.625565,2368.659014,-8290.306550,1378.971896
387.625893,1258.350101,-8808.450710,995.924147
387.626220,-148.041188,-9400.615463,689.485948
387.626548,-2294.638420,-9622.677246,153.219100
387.626876,-2960.823768,-9770.718434,0.000000
387.627203,-3330.926739,-9400.615463,229.828649
387.627531,-2516.700203,-9252.574275,76.609550
387.627858,-1776.494261,-8660.409521,612.876398
387.628186,-370.102971,-8068.244768,919.314598
387.628513,444.123565,-7772.162391,1302.362347
387.628841,1184.329507,-7994.224174,1225.752797
387.629168,814.226536,-8068.244768,1378.971896
387.629496,0.000000,-8586.388927,1072.533697
387.629823,-1184.329507,-9326.594869,919.314598
387.630151,-2368.659014,-9622.677246,459.657299
387.630478,-2516.700203,-9844.739029,459.657299
387.630806,-2368.659014,-9696.697840,612.876398
387.631133,-962.267725,-9918.759623,229.828649
387.631461,0.000000,-8956.491898,229.828649
387.631789,1036.288319,-8956.491898,689.485948
387.632116,2368.659014,-9326.594869,306.438199
387.632444,2146.597232,-8956.491898,383.047749
387.632771,1110.308913,-9178.553681,842.705048
387.633099,-444.123565,-10066.800811,459.657299
387.633426,-2146.597232,-10510.924376,459.657299
387.633754,-3182.885551,-10510.924376,-229.828649
387.634081,-3182.885551,-9622.677246,-229.828649
387.634409,-1628.453072,-9030.512492,-229.828649
387.634736,148.041188,-8216.285956,229.828649
387.635064,2072.576638,-7772.162391,612.876398
387.635391,2960.823768,-7402.059420,1302.362347
387.635719,3108.864956,-7476.080014,1991.848295
387.636046,2294.638420,-7994.224174,1302.362347
387.636374,222.061783,-8808.450710,995.924147
387.636702,-1702.473667,-9474.636058,536.266849
387.637029,-2590.720797,-10214.842000,229.828649
387.637357,-2368.659014,-10140.821405,536.266849
387.637684,-1258.350101,-9918.759623,919.314598
387.638012,0.000000,-9474.636058,612.876398
387.638339,1480.411884,-8956.491898,1302.362347
387.638667,1776.494261,-8734.430116,1149.143247
387.638994,1628.453072,-8734.430116,1302.362347
387.639322,666.185348,-8660.409521,1072.533697
387.639649,-740.205942,-9474.636058,842.705048
387.639977,-2294.638420,-9770.718434,0.000000
387.640304,-2960.823768,-10066.800811,0.000000
387.640632,-3256.906145,-9770.718434,0.000000
387.640959,-2220.617826,-9030.512492,766.095498
387.641287,-444.123565,-8438.347739,229.828649
387.641615,370.102971,-7920.203579,689.485948
387.641942,1406.391290,-7772.162391,766.095498
387.642270,1776.494261,-7476.080014,1225.752797
387.642597,1850.514855,-7846.182985,1225.752797
387.642925,370.102971,-8438.347739,766.095498
387.643252,-888.247130,-9400.615463,536.266849
387.643580,-1998.556043,-9918.759623,459.657299
387.643907,-2294.638420,-10140.821405,153.219100
387.644235,-1554.432478,-9844.739029,229.828649
387.644562,148.041188,-9400.615463,-153.219100
387.644890,740.205942,-9178.553681,536.266849
387.645217,1924.535449,-8734.430116,612.876398
387.645545,2220.617826,-8586.388927,689.485948
387.645872,1924.535449,-8808.450710,612.876398
387.646200,740.205942,-9104.533087,766.095498
387.646528,-592.164754,-9622.677246,153.219100
387.646855,-2442.679609,-10140.821405,-306.438199
387.647183,-3849.070898,-10288.862594,-612.876398
387.647510,-3404.947333,-9844.739029,-842.705048
387.647838,-1850.514855,-9326.594869,-919.314598
387.648165,74.020594,-8216.285956,153.219100
387.648493,1702.473667,-7698.141797,842.705048
387.648820,2590.720797,-7254.018232,1072.533697
387.649148,2442.679609,-7550.100608,1225.752797
387.649475,1110.308913,-8142.265362,459.657299
387.649803,-370.102971,-8956.491898,766.095498
387.650130,-2294.638420,-9918.759623,76.609550
387.650458,-2960.823768,-9992.780217,-229.828649
387.650785,-2442.679609,-10362.883188,0.000000
387.651113,-1258.350101,-9622.677246,689.485948
387.651441,1110.308913,-8882.471304,536.266849
387.651768,2220.617826,-8734.430116,995.924147
387.652096,2664.741391,-8364.327145,1455.581446
387.652423,2368.659014,-8882.471304,1378.971896
387.652751,1036.288319,-9252.574275,919.314598
387.653078,-666.185348,-9770.718434,459.657299
387.653406,-2146.597232,-10288.862594,229.828649
387.653733,-2516.700203,-10436.903782,306.438199
387.654061,-2368.659014,-10140.821405,459.657299
387.654388,-1406.391290,-9326.594869,766.095498
387.654716,74.020594,-8512.368333,995.924147
387.655043,1480.411884,-8142.265362,1378.971896
387.655371,1628.453072,-7846.182985,1685.410096
387.655698,1406.391290,-7772.162391,1685.410096
387.656026,592.164754,-8216.285956,1302.362347
387.656354,-148.041188,-8364.327145,842.705048
387.656681,-1998.556043,-8956.491898,689.485948
387.657009,-2664.741391,-9474.636058,383.047749
387.657336,-2590.720797,-9622.677246,459.657299
387.657664,-1850.514855,-9474.636058,459.657299
387.657991,-814.226536,-9030.512492,689.485948
387.658319,518.144159,-8512.368333,689.485948
387.658646,888.247130,-9178.553681,1072.533697
387.658974,1110.308913,-8956.491898,1072.533697
387.659301,592.164754,-9400.615463,995.924147
387.659629,-518.144159,-9696.697840,689.485948
387.659956,-1924.535449,-9918.759623,612.876398
387.660284,-3256.906145,-10140.821405,0.000000
387.660611,-3404.947333,-9844.739029,-612.876398
387.660939,-2590.720797,-9252.574275,-536.266849
387.661267,-740.205942,-8660.409521,-306.438199
387.661594,888.247130,-7772.162391,0.000000
387.661922,2590.720797,-7105.977043,842.705048
387.662249,2886.803174,-7328.038826,1149.143247
387.662577,2664.741391,-7994.224174,1225.752797
387.662904,1184.329507,-8734.430116,1072.533697
387.663232,-370.102971,-9696.697840,-383.047749
387.663559,-1924.535449,-9918.759623,689.485948
387.663887,-2516.700203,-10510.924376,76.609550
387.664214,-1776.494261,-10510.924376,0.000000
387.664542,-222.061783,-9844.739029,459.657299
387.664869,1036.288319,-9030.512492,689.485948
387.665197,2590.720797,-8512.368333,919.314598
387.665524,2738.761985,-8512.368333,766.095498
387.665852,1924.535449,-8660.409521,766.095498
387.666180,592.164754,-8808.450710,306.438199
387.666507,-962.267725,-9548.656652,76.609550
387.666835,-2368.659014,-9770.718434,0.000000
387.667162,-3330.926739,-9844.739029,-536.266849
387.667490,-2738.761985,-9918.759623,-153.219100
387.667817,-1702.473667,-9400.615463,0.000000
387.668145,-148.041188,-8438.347739,459.657299
387.668472,1184.329507,-8364.327145,1149.143247
387.668800,2294.638420,-7624.121203,536.266849
387.669127,1850.514855,-8068.244768,1302.362347
387.669455,1036.288319,-8068.244768,995.924147
387.669782,-518.144159,-8808.450710,612.876398
387.670110,-2146.597232,-9400.615463,459.657299
387.670437,-2294.638420,-9696.697840,536.266849
387.670765,-2146.597232,-9770.718434,229.828649
387.671093,-1110.308913,-9252.574275,689.485948
387.671420,296.082377,-9030.512492,842.705048
387.671748,1554.432478,-8734.430116,919.314598
387.672075,2220.617826,-8512.368333,1302.362347
387.672403,2072.576638,-8882.471304,1532.190996
387.672730,814.226536,-9104.533087,995.924147
387.673058,-592.164754,-9770.718434,689.485948
387.673385,-2442.679609,-10362.883188,306.438199
387.673713,-3552.988522,-10214.842000,-229.828649
387.674040,-3775.050304,-9918.759623,-536.266849
387.674368,-2664.741391,-9400.615463,-306.438199
387.674695,-814.226536,-8512.368333,0.000000
387.675023,888.247130,-7920.203579,459.657299
387.675350,2368.659014,-7402.059420,383.047749
387.675678,2886.803174,-6809.894666,1532.190996
387.676006,1776.494261,-7994.224174,1225.752797
387.676333,0.000000,-9178.553681,995.924147
387.676661,-1850.514855,-9696.697840,612.876398
387.676988,-2960.823768,-9770.718434,76.609550
387.677316,-2738.761985,-10066.800811,229.828649
387.677643,-2368.659014,-9992.780217,229.828649
387.677971,-370.102971,-9474.636058,689.485948
387.678298,1850.514855,-8660.409521,1072.533697
387.678626,2664.741391,-8364.327145,1455.581446
387.678953,3404.947333,-8586.388927,919.314598
387.679281,2072.576638,-8956.491898,919.314598
387.679608,222.061783,-9474.636058,612.876398
387.679936,-1406.391290,-10066.800811,0.000000
387.680263,-2738.761985,-10436.903782,0.000000
387.680591,-3182.885551,-10288.862594,0.000000
387.680919,-2146.597232,-9770.718434,153.219100
387.681246,-592.164754,-8956.491898,459.657299
387.681574,444.123565,-8290.306550,689.485948
387.681901,1776.494261,-7920.203579,1302.362347
387.682229,2072.576638,-7846.182985,1225.752797
387.682556,1554.432478,-8068.244768,1149.143247
387.682884,296.082377,-8290.306550,536.266849
387.683211,-1258.350101,-8882.471304,459.657299
387.683539,-2294.638420,-9400.615463,306.438199
387.683866,-2072.576638,-9474.636058,459.657299
387.684194,-1554.432478,-9400.615463,306.438199
387.684521,-592.164754,-8882.471304,689.485948
