#time,accel_x,accel_y,accel_z
359.556820,-148.041188,-9252.574275,689.485948
359.557148,-296.082377,-9252.574275,536.266849
359.557476,-296.082377,-9252.574275,536.266849
359.557803,-370.102971,-9104.533087,383.047749
359.558131,0.000000,-8808.450710,919.314598
359.558459,0.000000,-8882.471304,689.485948
359.558786,0.000000,-9178.553681,383.047749
359.559114,-296.082377,-9104.533087,689.485948
359.559442,-296.082377,-8956.491898,459.657299
359.559769,-74.020594,-9178.553681,383.047749
359.560097,0.000000,-8882.471304,919.314598
359.560425,-222.061783,-9178.553681,689.485948
359.560752,-148.041188,-9252.574275,536.266849
359.561080,-296.082377,-9178.553681,842.705048
359.561408,-296.082377,-9326.594869,459.657299
359.561735,0.000000,-9030.512492,1149.143247
359.562063,0.000000,-9178.553681,459.657299
359.562391,0.000000,-9030.512492,536.266849
359.562719,-370.102971,-9104.533087,383.047749
359.563046,-222.061783,-9178.553681,689.485948
359.563374,-222.061783,-8882.471304,766.095498
359.563702,-296.082377,-8956.491898,612.876398
359.564029,-222.061783,-8956.491898,536.266849
359.564357,-296.082377,-9400.615463,536.266849
359.564685,0.000000,-9326.594869,536.266849
359.565012,-148.041188,-8956.491898,383.047749
359.565340,-518.144159,-9178.553681,459.657299
359.565668,-592.164754,-9326.594869,612.876398
359.565995,-962.267725,-9400.615463,0.000000
359.566323,-1480.411884,-9474.636058,76.609550
359.566651,-1406.391290,-9770.718434,0.000000
359.566978,-1036.288319,-9030.512492,-306.438199
359.567306,-592.164754,-8882.471304,-306.438199
359.567634,-296.082377,-8882.471304,-689.485948
359.567961,-666.185348,-9178.553681,-689.485948
359.568289,-1110.308913,-9178.553681,-995.924147
359.568617,-1258.350101,-8512.368333,-1149.143247
359.568945,-962.267725,-8956.491898,-1302.362347
359.569272,-740.205942,-9178.553681,-1455.581446
359.569600,-518.144159,-9474.636058,-1532.190996
359.569928,-222.061783,-9178.553681,-995.924147
359.570255,0.000000,-8882.471304,-919.314598
359.570583,148.041188,-8808.450710,-1838.629195
359.570911,0.000000,-9252.574275,-1455.581446
359.571238,0.000000,-9474.636058,-1838.629195
359.571566,0.000000,-9400.615463,-1838.629195
359.571894,370.102971,-9474.636058,-1532.190996
359.572221,370.102971,-9252.574275,-1072.533697
359.572549,0.000000,-9178.553681,-1762.019645
359.572877,148.041188,-9178.553681,-1685.410096
359.573204,370.102971,-9178.553681,-1838.629195
359.573532,444.123565,-9474.636058,-1915.238745
359.573860,222.061783,-9326.594869,-1608.800546
359.574187,74.020594,-9474.636058,-2145.067394
359.574515,222.061783,-9252.574275,-1991.848295
359.574843,0.000000,-9252.574275,-1838.629195
359.575170,0.000000,-9326.594869,-1762.019645
359.575498,-222.061783,-9252.574275,-1225.752797
359.575826,-518.144159,-9178.553681,-2145.067394
359.576154,-740.205942,-9178.553681,-2068.457845
359.576481,-962.267725,-9104.533087,-1991.848295
359.576809,-1184.329507,-8882.471304,-2145.067394
359.577137,-1184.329507,-9104.533087,-2681.334243
359.577464,-1184.329507,-8882.471304,-2374.896044
359.577792,-1628.453072,-8956.491898,-2681.334243
359.578120,-2072.576638,-8882.471304,-3370.820191
359.578447,-1702.473667,-8956.491898,-3370.820191
359.578775,-1776.494261,-8882.471304,-3524.039291
359.579103,-1258.350101,-8586.388927,-3064.381992
359.579430,-1184.329507,-8734.430116,-3370.820191
359.579758,-814.226536,-8660.409521,-3140.991542
359.580086,-666.185348,-8734.430116,-3217.601092
359.580413,0.000000,-8956.491898,-2911.162892
359.580741,222.061783,-8734.430116,-2451.505594
359.581069,1258.350101,-9030.512492,-2145.067394
359.581396,1332.370696,-8882.471304,-1685.410096
359.581724,1924.535449,-9030.512492,-1378.971896
359.582052,2220.617826,-9252.574275,-766.095498
359.582379,1924.535449,-8808.450710,0.000000
359.582707,2146.597232,-9474.636058,-766.095498
359.583035,666.185348,-9696.697840,-1072.533697
359.583363,74.020594,-10362.883188,-1072.533697
359.583690,-592.164754,-10140.821405,-1838.629195
359.584018,-1628.453072,-9992.780217,-2145.067394
359.584346,-1184.329507,-9548.656652,-2757.943793
359.584673,-1998.556043,-9400.615463,-2757.943793
359.585001,-1554.432478,-8956.491898,-2757.943793
359.585329,-666.185348,-7994.224174,-2604.724693
359.585656,296.082377,-7624.121203,-1991.848295
359.585984,1628.453072,-7550.100608,-1378.971896
359.586312,1628.453072,-7402.059420,-536.266849
359.586639,1406.391290,-7624.121203,76.609550
359.586967,814.226536,-8660.409521,536.266849
359.587295,0.000000,-9474.636058,995.924147
359.587622,-1036.288319,-10140.821405,766.095498
359.587950,-1628.453072,-10066.800811,766.095498
359.588278,-1924.535449,-10140.821405,766.095498
359.588605,-1406.391290,-9992.780217,842.705048
359.588933,-814.226536,-9400.615463,459.657299
359.589261,0.000000,-8586.388927,306.438199
359.589589,518.144159,-8142.265362,383.047749
359.589916,1258.350101,-7772.162391,306.438199
359.590244,1776.494261,-7624.121203,766.095498
359.590572,1628.453072,-7920.203579,842.705048
359.590899,1184.329507,-8660.409521,1608.800546
359.591227,0.000000,-9474.636058,1762.019645
359.591555,-1628.453072,-10584.944971,1532.190996
359.591882,-3256.906145,-11103.089130,1455.581446
359.592210,-4219.173869,-11399.171507,1149.143247
359.592538,-4367.215058,-10658.965565,612.876398
359.592865,-3849.070898,-9474.636058,1072.533697
359.593193,-2368.659014,-8586.388927,842.705048
359.593521,-1110.308913,-7772.162391,383.047749
359.593848,0.000000,-7105.977043,536.266849
359.594176,370.102971,-6661.853478,153.219100
359.594504,666.185348,-6365.771101,536.266849
359.594831,1480.411884,-7254.018232,612.876398
359.595159,1258.350101,-8068.244768,1072.533697
359.595487,444.123565,-9252.574275,1072.533697
359.595814,0.000000,-10436.903782,1225.752797
359.596142,-1110.308913,-11621.233289,306.438199
359.596470,-2072.576638,-11399.171507,995.924147
359.596798,-2368.659014,-11325.150913,0.000000
359.597125,-1776.494261,-10807.006753,-229.828649
359.597453,-518.144159,-10066.800811,0.000000
359.597781,740.205942,-8808.450710,-995.924147
359.598108,1184.329507,-8142.265362,0.000000
359.598436,2146.597232,-7550.100608,76.609550
359.598764,2294.638420,-7698.141797,153.219100
359.599091,2294.638420,-7994.224174,229.828649
359.599419,1110.308913,-8512.368333,459.657299
359.599747,0.000000,-9400.615463,229.828649
359.600074,-962.267725,-10140.821405,0.000000
359.600402,-1628.453072,-10658.965565,0.000000
359.600730,-1702.473667,-10510.924376,-153.219100
359.601057,-1184.329507,-9770.718434,0.000000
359.601385,0.000000,-8438.347739,76.609550
359.601713,814.226536,-8216.285956,0.000000
359.602040,1406.391290,-7476.080014,153.219100
359.602368,2072.576638,-7105.977043,76.609550
359.602696,2442.679609,-7179.997637,383.047749
359.603024,2072.576638,-7550.100608,919.314598
359.603351,1036.288319,-8216.285956,766.095498
359.603679,0.000000,-9400.615463,995.924147
359.604007,-962.267725,-10214.842000,689.485948
359.604334,-1480.411884,-10584.944971,919.314598
359.604662,-1480.411884,-10584.944971,612.876398
359.604990,-1110.308913,-10140.821405,842.705048
359.605317,-1184.329507,-9696.697840,689.485948
359.605645,-1110.308913,-9104.533087,766.095498
359.605973,-666.185348,-8438.347739,612.876398
359.606300,-592.164754,-7994.224174,459.657299
359.606628,0.000000,-7402.059420,1149.143247
359.606956,0.000000,-7402.059420,689.485948
359.607283,-296.082377,-7476.080014,842.705048
359.607611,-1184.329507,-7994.224174,766.095498
359.607939,-1998.556043,-8660.409521,383.047749
359.608266,-2368.659014,-9400.615463,383.047749
359.608594,-3182.885551,-9400.615463,0.000000
359.608922,-2442.679609,-9548.656652,0.000000
359.609249,-1554.432478,-9400.615463,0.000000
359.609577,-444.123565,-9178.553681,153.219100
359.609905,592.164754,-8438.347739,1149.143247
359.610233,1406.391290,-8290.306550,766.095498
359.610560,1702.473667,-8734.430116,1072.533697
359.610888,1776.494261,-8882.471304,1302.362347
359.611216,1480.411884,-9400.615463,1149.143247
359.611543,592.164754,-9992.780217,995.924147
359.611871,-222.061783,-9992.780217,1455.581446
359.612199,-888.247130,-10955.047942,689.485948
359.612526,-1258.350101,-10955.047942,459.657299
359.612854,-888.247130,-10510.924376,459.657299
359.613181,-444.123565,-10066.800811,0.000000
359.613509,-888.247130,-8882.471304,0.000000
359.613837,74.020594,-9030.512492,0.000000
359.614164,370.102971,-8364.327145,0.000000
359.614492,296.082377,-8290.306550,0.000000
359.614820,814.226536,-7994.224174,229.828649
359.615147,592.164754,-7994.224174,306.438199
359.615475,-370.102971,-8808.450710,0.000000
359.615802,-962.267725,-9622.677246,76.609550
359.616130,-2146.597232,-10066.800811,306.438199
359.616458,-2590.720797,-10214.842000,-459.657299
359.616785,-2146.597232,-10140.821405,-612.876398
359.617113,-1332.370696,-9548.656652,-229.828649
359.617441,-518.144159,-9252.574275,0.000000
359.617768,666.185348,-8734.430116,306.438199
359.618096,1628.453072,-8290.306550,919.314598
359.618424,2368.659014,-8142.265362,995.924147
359.618751,2738.761985,-8364.327145,1149.143247
359.619079,1924.535449,-8808.450710,1302.362347
359.619406,1110.308913,-9474.636058,1225.752797
359.619734,-148.041188,-9992.780217,1225.752797
359.620062,-962.267725,-10214.842000,1302.362347
359.620389,-1480.411884,-9918.759623,1685.410096
359.620717,-1258.350101,-9844.739029,1149.143247
359.621045,-666.185348,-9548.656652,842.705048
359.621372,-444.123565,-9030.512492,919.314598
359.621700,-592.164754,-8216.285956,766.095498
359.622028,0.000000,-7772.162391,995.924147
359.622355,74.020594,-7476.080014,536.266849
359.622683,0.000000,-7476.080014,766.095498
359.623010,148.041188,-7402.059420,919.314598
359.623338,-296.082377,-8216.285956,1149.143247
359.623666,-1332.370696,-8586.388927,1149.143247
359.623993,-2368.659014,-9252.574275,153.219100
359.624321,-2886.803174,-9992.780217,306.438199
359.624649,-2738.761985,-9770.718434,0.000000
359.624976,-1924.535449,-9622.677246,0.000000
359.625304,-1110.308913,-9252.574275,459.657299
359.625631,0.000000,-8364.327145,612.876398
359.625959,1036.288319,-8364.327145,919.314598
359.626287,1258.350101,-8216.285956,766.095498
359.626614,1554.432478,-8216.285956,1225.752797
359.626942,1480.411884,-8512.368333,995.924147
359.627270,1036.288319,-9326.594869,1149.143247
359.627597,370.102971,-9622.677246,1225.752797
359.627925,0.000000,-10214.842000,919.314598
359.628253,-740.205942,-10436.903782,536.266849
359.628580,-1184.329507,-10288.862594,459.657299
359.628908,-814.226536,-9622.677246,0.000000
359.629235,-370.102971,-9622.677246,-229.828649
359.629563,-370.102971,-9252.574275,0.000000
359.629891,0.000000,-8586.388927,-306.438199
359.630218,518.144159,-8364.327145,0.000000
359.630546,1184.329507,-7772.162391,0.000000
359.630874,1184.329507,-7920.203579,0.000000
359.631201,962.267725,-8586.388927,383.047749
359.631529,-222.061783,-9400.615463,229.828649
359.631856,-1258.350101,-10288.862594,76.609550
359.632184,-2368.659014,-10658.965565,-689.485948
359.632512,-2812.782580,-10362.883188,-612.876398
359.632839,-2368.659014,-10288.862594,-383.047749
359.633167,-1036.288319,-9474.636058,-306.438199
359.633495,296.082377,-8882.471304,0.000000
359.633822,1258.350101,-8290.306550,153.219100
359.634150,2146.597232,-7846.182985,842.705048
359.634478,2442.679609,-7920.203579,766.095498
359.634805,2294.638420,-8438.347739,919.314598
359.635133,1554.432478,-8956.491898,919.314598
359.635460,740.205942,-9474.636058,1072.533697
359.635788,0.000000,-9918.759623,1608.800546
359.636116,-962.267725,-10584.944971,842.705048
359.636443,-1332.370696,-10658.965565,1302.362347
359.636771,-1184.329507,-10436.903782,995.924147
359.637099,-740.205942,-9770.718434,612.876398
359.637426,-962.267725,-9326.594869,536.266849
359.637754,0.000000,-7994.224174,689.485948
359.638082,0.000000,-7994.224174,689.485948
359.638409,444.123565,-7550.100608,919.314598
359.638737,518.144159,-7402.059420,995.924147
359.639064,222.061783,-7402.059420,1378.971896
359.639392,-592.164754,-8216.285956,1532.190996
359.639720,-1924.535449,-9104.533087,1072.533697
359.640047,-2960.823768,-9548.656652,612.876398
359.640375,-3552.988522,-9992.780217,306.438199
359.640703,-2960.823768,-9770.718434,536.266849
359.641030,-1998.556043,-9104.533087,612.876398
359.641358,-666.185348,-8808.450710,842.705048
359.641685,0.000000,-8216.285956,1225.752797
359.642013,370.102971,-7772.162391,1149.143247
359.642341,888.247130,-7698.141797,1072.533697
359.642668,1110.308913,-7550.100608,919.314598
359.642996,1110.308913,-8142.265362,1302.362347
359.643324,666.185348,-8808.450710,1072.533697
359.643651,0.000000,-9474.636058,1378.971896
359.643979,-888.247130,-10066.800811,1149.143247
359.644307,-1554.432478,-10510.924376,1072.533697
359.644634,-1702.473667,-10140.821405,919.314598
359.644962,-1702.473667,-10140.821405,0.000000
359.645289,-1554.432478,-9548.656652,0.000000
359.645617,-444.123565,-9030.512492,0.000000
359.645945,0.000000,-8216.285956,-306.438199
359.646272,444.123565,-7698.141797,0.000000
359.646600,1406.391290,-7624.121203,0.000000
359.646928,1332.370696,-7994.224174,459.657299
359.647255,814.226536,-8734.430116,229.828649
359.647583,-444.123565,-9252.574275,153.219100
359.647911,-1554.432478,-9844.739029,0.000000
359.648238,-2146.597232,-10436.903782,-612.876398
359.648566,-2294.638420,-10288.862594,-689.485948
359.648893,-1406.391290,-10214.842000,-536.266849
359.649221,0.000000,-9326.594869,-612.876398
359.649549,1628.453072,-8956.491898,76.609550
359.649876,2368.659014,-8438.347739,-153.219100
359.650204,2664.741391,-8364.327145,306.438199
359.650532,2738.761985,-8438.347739,536.266849
359.650859,2516.700203,-8512.368333,842.705048
359.651187,1702.473667,-9326.594869,1225.752797
359.651514,296.082377,-9326.594869,1378.971896
359.651842,-222.061783,-10140.821405,1455.581446
359.652170,-814.226536,-10955.047942,1378.971896
359.652497,-1628.453072,-10732.986159,919.314598
359.652825,-1258.350101,-10584.944971,995.924147
359.653153,-1036.288319,-9400.615463,919.314598
359.653480,-814.226536,-9252.574275,536.266849
359.653808,-370.102971,-8438.347739,612.876398
359.654136,0.000000,-7920.203579,459.657299
359.654463,0.000000,-7550.100608,612.876398
359.654791,0.000000,-7550.100608,1149.143247
359.655118,-518.144159,-7550.100608,1149.143247
359.655446,-1406.391290,-8216.285956,995.924147
359.655774,-2442.679609,-9326.594869,1072.533697
359.656101,-3330.926739,-9622.677246,612.876398
359.656429,-3108.864956,-9770.718434,919.314598
359.656757,-3034.844362,-9474.636058,0.000000
359.657084,-2220.617826,-9252.574275,612.876398
359.657412,-962.267725,-8882.471304,842.705048
359.657739,0.000000,-8364.327145,842.705048
359.658067,814.226536,-8068.244768,766.095498
359.658395,1110.308913,-8068.244768,1149.143247
359.658722,1258.350101,-7920.203579,1225.752797
359.659050,1480.411884,-8290.306550,1225.752797
359.659378,1258.350101,-8956.491898,1378.971896
359.659705,370.102971,-9770.718434,1378.971896
359.660033,-296.082377,-9992.780217,919.314598
359.660361,-1258.350101,-10436.903782,689.485948
359.660688,-1258.350101,-10288.862594,612.876398
359.661016,-1184.329507,-9992.780217,306.438199
359.661343,-444.123565,-9400.615463,153.219100
359.661671,-370.102971,-8660.409521,0.000000
359.661999,296.082377,-7846.182985,0.000000
359.662326,814.226536,-8068.244768,0.000000
359.662654,888.247130,-7698.141797,0.000000
359.662982,962.267725,-7994.224174,0.000000
359.663309,296.082377,-8512.368333,0.000000
359.663637,-592.164754,-9030.512492,229.828649
359.663965,-1702.473667,-9770.718434,-153.219100
359.664292,-2220.617826,-10140.821405,-612.876398
359.664620,-2220.617826,-10214.842000,-536.266849
359.664947,-1184.329507,-9844.739029,0.000000
359.665275,-296.082377,-9474.636058,-306.438199
359.665603,740.205942,-9178.553681,-76.609550
359.665930,1406.391290,-8586.388927,0.000000
359.666258,1850.514855,-8068.244768,153.219100
359.666586,2220.617826,-8438.347739,689.485948
359.666913,1998.556043,-7920.203579,1149.143247
359.667241,1850.514855,-8808.450710,919.314598
359.667568,888.247130,-9474.636058,1225.752797
359.667896,-370.102971,-10140.821405,995.924147
359.668224,-962.267725,-10510.924376,842.705048
359.668551,-962.267725,-10732.986159,459.657299
359.668879,-1998.556043,-9622.677246,383.047749
359.669207,-962.267725,-9474.636058,229.828649
359.669534,-666.185348,-9252.574275,229.828649
359.669862,0.000000,-8512.368333,306.438199
359.670190,592.164754,-8364.327145,383.047749
359.670517,814.226536,-7105.977043,612.876398
359.670845,296.082377,-7846.182985,842.705048
359.671172,0.000000,-8512.368333,1149.143247
359.671500,-1184.329507,-8882.471304,842.705048
359.671828,-2220.617826,-9400.615463,612.876398
359.672155,-2368.659014,-9918.759623,766.095498
359.672483,-2960.823768,-10288.862594,229.828649
359.672811,-2146.597232,-9992.780217,153.219100
359.673138,-1258.350101,-9548.656652,536.266849
359.673466,0.000000,-8808.450710,612.876398
359.673794,222.061783,-8142.265362,1302.362347
359.674121,592.164754,-8142.265362,919.314598
359.674449,1036.288319,-8216.285956,1225.752797
359.674776,1258.350101,-8216.285956,1149.143247
359.675104,1110.308913,-8586.388927,1378.971896
359.675432,814.226536,-9104.533087,1149.143247
359.675759,-296.082377,-9696.697840,1149.143247
359.676087,-962.267725,-10510.924376,1149.143247
359.676415,-1776.494261,-10288.862594,689.485948
359.676742,-1850.514855,-10362.883188,459.657299
359.677070,-1332.370696,-10066.800811,76.609550
359.677397,-962.267725,-8956.491898,153.219100
359.677725,-740.205942,-8734.430116,76.609550
359.678053,370.102971,-8290.306550,0.000000
359.678380,888.247130,-7772.162391,536.266849
359.678708,962.267725,-7698.141797,459.657299
359.679036,666.185348,-7698.141797,1225.752797
359.679363,0.000000,-8734.430116,842.705048
359.679691,-888.247130,-9326.594869,383.047749
359.680019,-2072.576638,-9992.780217,229.828649
359.680346,-2590.720797,-10066.800811,0.000000
359.680674,-2368.659014,-9992.780217,383.047749
359.681001,-1258.350101,-9770.718434,-229.828649
359.681329,-296.082377,-9030.512492,-229.828649
359.681657,592.164754,-8660.409521,-153.219100
359.681984,1332.370696,-8216.285956,76.609550
359.682312,1924.535449,-7920.203579,76.609550
359.682640,2368.659014,-7772.162391,842.705048
359.682967,2072.576638,-8586.388927,1149.143247
359.683295,1406.391290,-8956.491898,766.095498
359.683622,370.102971,-9770.718434,1149.143247
359.683950,-222.061783,-10288.862594,1072.533697
359.684278,-1036.288319,-10436.903782,995.924147
359.684605,-1406.391290,-10584.944971,612.876398
359.684933,-1332.370696,-9992.780217,383.047749
359.685261,-518.144159,-9622.677246,306.438199
359.685588,-370.102971,-8660.409521,229.828649
359.685916,74.020594,-8068.244768,383.047749
359.686244,74.020594,-7624.121203,459.657299
359.686571,740.205942,-7772.162391,459.657299
359.686899,370.102971,-7846.182985,612.876398
359.687226,148.041188,-8142.265362,612.876398
359.687554,-296.082377,-9030.512492,76.609550
359.687882,-1702.473667,-9474.636058,459.657299
359.688209,-2738.761985,-9918.759623,229.828649
359.688537,-2738.761985,-10066.800811,229.828649
359.688865,-2220.617826,-9918.759623,76.609550
359.689192,-1036.288319,-9104.533087,536.266849
359.689520,0.000000,-9178.553681,0.000000
359.689848,592.164754,-8438.347739,459.657299
359.690175,888.247130,-7994.224174,842.705048
359.690503,1628.453072,-8068.244768,919.314598
359.690830,1554.432478,-7402.059420,1302.362347
359.691158,1332.370696,-8364.327145,1302.362347
359.691486,740.205942,-9548.656652,1378.971896
359.691813,-222.061783,-9844.739029,919.314598
359.692141,-1036.288319,-10732.986159,995.924147
359.692469,-1110.308913,-10732.986159,919.314598
359.692796,-1406.391290,-10362.883188,919.314598
359.693124,-962.267725,-10214.842000,612.876398
359.693451,0.000000,-9252.574275,153.219100
359.693779,0.000000,-9326.594869,306.438199
359.694107,296.082377,-8290.306550,153.219100
359.694434,1184.329507,-8216.285956,306.438199
359.694762,666.185348,-7550.100608,919.314598
359.695090,222.061783,-8216.285956,612.876398
359.695417,222.061783,-8956.491898,1072.533697
359.695745,-1332.370696,-9178.553681,306.438199
359.696073,-1850.514855,-10288.862594,153.219100
359.696400,-2294.638420,-10436.903782,0.000000
359.696728,-2442.679609,-9918.759623,0.000000
359.697055,-1332.370696,-9770.718434,0.000000
359.697383,-148.041188,-9178.553681,76.609550
359.697711,666.185348,-8290.306550,612.876398
359.698038,1258.350101,-8068.244768,766.095498
359.698366,1628.453072,-7846.182985,842.705048
359.698694,1554.432478,-8216.285956,1072.533697
359.699021,1480.411884,-8290.306550,919.314598
359.699349,592.164754,-9104.533087,842.705048
359.699676,0.000000,-9696.697840,1378.971896
359.700004,-962.267725,-10288.862594,1072.533697
359.700332,-1702.473667,-10732.986159,842.705048
359.700659,-1850.514855,-10436.903782,459.657299
359.700987,-1702.473667,-10066.800811,153.219100
359.701315,-888.247130,-9474.636058,229.828649
359.701642,-1184.329507,-8660.409521,0.000000
359.701970,222.061783,-8290.306550,0.000000
359.702298,666.185348,-7994.224174,0.000000
359.702625,1110.308913,-7624.121203,536.266849
359.702953,962.267725,-7772.162391,612.876398
359.703280,888.247130,-8364.327145,766.095498
359.703608,-444.123565,-9326.594869,612.876398
359.703936,-1406.391290,-9918.759623,383.047749
359.704263,-2220.617826,-10140.821405,76.609550
359.704591,-1850.514855,-9918.759623,689.485948
359.704919,-740.205942,-9326.594869,0.000000
359.705246,-222.061783,-9252.574275,383.047749
359.705574,592.164754,-8808.450710,536.266849
359.705902,962.267725,-8142.265362,842.705048
359.706229,1480.411884,-8068.244768,766.095498
359.706557,1554.432478,-7624.121203,766.095498
359.706884,1332.370696,-8068.244768,1149.143247
359.707212,1036.288319,-8808.450710,1149.143247
359.707540,222.061783,-9474.636058,1378.971896
359.707867,-962.267725,-9844.739029,1225.752797
359.708195,-1628.453072,-10066.800811,1072.533697
359.708523,-2072.576638,-10288.862594,995.924147
359.708850,-2368.659014,-10066.800811,306.438199
359.709178,-2146.597232,-10066.800811,0.000000
359.709505,-1480.411884,-9104.533087,-306.438199
359.709833,-888.247130,-8438.347739,0.000000
359.710161,0.000000,-7772.162391,0.000000
359.710488,592.164754,-7328.038826,536.266849
359.710816,888.247130,-7550.100608,383.047749
359.711144,814.226536,-7920.203579,842.705048
359.711471,444.123565,-9104.533087,689.485948
359.711799,-962.267725,-9400.615463,0.000000
359.712127,-2146.597232,-10288.862594,76.609550
359.712454,-2294.638420,-10732.986159,0.000000
359.712782,-1924.535449,-10510.924376,0.000000
359.713109,-740.205942,-10066.800811,0.000000
359.713437,148.041188,-9178.553681,229.828649
359.713765,1332.370696,-8734.430116,306.438199
359.714092,1998.556043,-8364.327145,612.876398
359.714420,2220.617826,-8068.244768,766.095498
359.714747,2146.597232,-8364.327145,689.485948
359.715075,1776.494261,-8660.409521,995.924147
359.715403,1850.514855,-9548.656652,612.876398
359.715730,148.041188,-9918.759623,1149.143247
359.716058,-666.185348,-10436.903782,689.485948
359.716385,-1332.370696,-10658.965565,919.314598
359.716713,-1184.329507,-10436.903782,842.705048
359.717041,-1184.329507,-10214.842000,536.266849
359.717368,-1036.288319,-9474.636058,383.047749
359.717696,-592.164754,-8808.450710,229.828649
359.718024,0.000000,-8068.244768,229.828649
359.718351,370.102971,-7624.121203,842.705048
359.718679,444.123565,-7105.977043,689.485948
359.719006,222.061783,-7550.100608,842.705048
359.719334,-370.102971,-8290.306550,459.657299
359.719662,-1554.432478,-8882.471304,766.095498
359.719989,-2368.659014,-9548.656652,306.438199
359.720317,-2442.679609,-9992.780217,306.438199
359.720644,-2960.823768,-9844.739029,0.000000
359.720972,-1776.494261,-9918.759623,76.609550
359.721300,-740.205942,-9400.615463,536.266849
359.721627,222.061783,-8734.430116,689.485948
359.721955,1036.288319,-8290.306550,1762.019645
359.722282,1332.370696,-8438.347739,1378.971896
359.722610,1628.453072,-8364.327145,1225.752797
359.722938,1628.453072,-8364.327145,1608.800546
359.723265,1332.370696,-8660.409521,1838.629195
359.723593,296.082377,-9474.636058,1838.629195
359.723920,-296.082377,-9844.739029,1532.190996
359.724248,-1184.329507,-10140.821405,1378.971896
359.724576,-1332.370696,-9844.739029,995.924147
359.724903,-1406.391290,-9474.636058,919.314598
359.725231,-888.247130,-9252.574275,689.485948
359.725558,-296.082377,-8512.368333,-76.609550
359.725886,0.000000,-8290.306550,612.876398
359.726214,0.000000,-7994.224174,536.266849
359.726541,296.082377,-7698.141797,612.876398
359.726869,74.020594,-7994.224174,919.314598
359.727196,370.102971,-8734.430116,1149.143247
359.727524,-1036.288319,-8734.430116,612.876398
359.727852,-1776.494261,-9474.636058,229.828649
359.728179,-2442.679609,-9918.759623,0.000000
359.728507,-2664.741391,-9844.739029,-153.219100
359.728834,-2368.659014,-9918.759623,153.219100
359.729162,-740.205942,-9104.533087,-306.438199
359.729490,-148.041188,-8734.430116,0.000000
359.729817,740.205942,-8142.265362,0.000000
359.730145,1332.370696,-8142.265362,383.047749
359.730473,1998.556043,-7698.141797,459.657299
359.730800,2072.576638,-8364.327145,766.095498
359.731128,1998.556043,-8660.409521,995.924147
359.731455,962.267725,-9252.574275,842.705048
359.731783,0.000000,-9918.759623,1149.143247
359.732111,-814.226536,-10510.924376,919.314598
359.732438,-1554.432478,-10584.944971,229.828649
359.732766,-1110.308913,-10436.903782,0.000000
359.733093,-1036.288319,-10066.800811,0.000000
359.733421,0.000000,-9548.656652,-229.828649
359.733749,370.102971,-8956.491898,0.000000
359.734076,814.226536,-8142.265362,-536.266849
359.734404,1406.391290,-7920.203579,76.609550
359.734731,1332.370696,-8068.244768,306.438199
359.735059,592.164754,-8438.347739,229.828649
359.735387,0.000000,-9104.533087,536.266849
359.735714,-1110.308913,-9770.718434,536.266849
359.736042,-2294.638420,-9918.759623,689.485948
359.736369,-2516.700203,-10510.924376,229.828649
359.736697,-2590.720797,-10362.883188,153.219100
359.737025,-1628.453072,-9696.697840,153.219100
359.737352,-444.123565,-8808.450710,689.485948
359.737680,-296.082377,-8290.306550,612.876398
359.738007,444.123565,-8068.244768,536.266849
359.738335,1036.288319,-8216.285956,612.876398
359.738663,1184.329507,-7772.162391,689.485948
359.738990,1332.370696,-7920.203579,1072.533697
359.739318,740.205942,-8068.244768,1532.190996
359.739645,296.082377,-9696.697840,1532.190996
359.739973,-1110.308913,-9844.739029,1302.362347
359.740301,-1776.494261,-10436.903782,1225.752797
359.740628,-1924.535449,-10362.883188,766.095498
359.740956,-1406.391290,-10214.842000,536.266849
359.741283,-1554.432478,-9326.594869,536.266849
359.741611,-444.123565,-8808.450710,689.485948
359.741939,-74.020594,-8216.285956,1072.533697
359.742266,518.144159,-7772.162391,459.657299
359.742594,740.205942,-7772.162391,1302.362347
359.742921,1036.288319,-7254.018232,689.485948
359.743249,222.061783,-8216.285956,919.314598
359.743577,-592.164754,-8660.409521,995.924147
359.743904,-1554.432478,-9548.656652,919.314598
359.744232,-2294.638420,-9622.677246,612.876398
359.744560,-2146.597232,-9770.718434,612.876398
359.744887,-1850.514855,-9622.677246,0.000000
359.745215,-518.144159,-9548.656652,229.828649
359.745542,370.102971,-9030.512492,383.047749
359.745870,962.267725,-8216.285956,536.266849
359.746198,1702.473667,-7846.182985,919.314598
359.746525,1554.432478,-7994.224174,842.705048
359.746853,1776.494261,-8512.368333,995.924147
359.747180,1036.288319,-8808.450710,1149.143247
359.747508,296.082377,-9400.615463,1225.752797
359.747836,-814.226536,-9696.697840,1072.533697
359.748163,-1406.391290,-10658.965565,612.876398
359.748491,-2220.617826,-10807.006753,383.047749
359.748818,-2072.576638,-10510.924376,0.000000
359.749146,-1480.411884,-9918.759623,-383.047749
359.749474,-1184.329507,-9252.574275,0.000000
359.749801,0.000000,-8660.409521,-306.438199
359.750129,222.061783,-8068.244768,-229.828649
359.750456,444.123565,-7698.141797,0.000000
359.750784,962.267725,-7920.203579,0.000000
359.751112,666.185348,-8290.306550,306.438199
359.751439,444.123565,-8882.471304,76.609550
359.751767,-962.267725,-9622.677246,0.000000
359.752094,-1850.514855,-10214.842000,0.000000
359.752422,-2072.576638,-10732.986159,-306.438199
359.752750,-1628.453072,-10510.924376,-383.047749
359.753077,-592.164754,-9992.780217,0.000000
359.753405,370.102971,-9400.615463,0.000000
359.753732,1184.329507,-9474.636058,76.609550
359.754060,1850.514855,-8882.471304,229.828649
359.754388,2146.597232,-8364.327145,153.219100
359.754715,2590.720797,-8364.327145,919.314598
359.755043,2368.659014,-8586.388927,1072.533697
359.755370,1480.411884,-9326.594869,1302.362347
359.755698,444.123565,-10140.821405,1302.362347
359.756026,-666.185348,-10288.862594,1072.533697
359.756353,-1406.391290,-10584.944971,1149.143247
359.756681,-1850.514855,-10288.862594,1149.143247
359.757008,-1702.473667,-9918.759623,536.266849
359.757336,-1110.308913,-9622.677246,383.047749
359.757664,-592.164754,-8438.347739,536.266849
359.757991,-222.061783,-7624.121203,459.657299
359.758319,370.102971,-7105.977043,689.485948
359.758647,296.082377,-7550.100608,766.095498
359.758974,0.000000,-7698.141797,1378.971896
359.759302,-518.144159,-7920.203579,1378.971896
359.759629,-1702.473667,-8660.409521,1302.362347
359.759957,-2368.659014,-9770.718434,1072.533697
359.760285,-3404.947333,-10066.800811,766.095498
359.760612,-3256.906145,-9622.677246,383.047749
359.760940,-2442.679609,-9622.677246,536.266849
359.761267,-1406.391290,-9178.553681,766.095498
359.761595,-74.020594,-8734.430116,995.924147
359.761923,814.226536,-7698.141797,1762.019645
359.762250,1258.350101,-7846.182985,1608.800546
359.762578,1702.473667,-7846.182985,1455.581446
359.762905,1332.370696,-8142.265362,1838.629195
359.763233,1110.308913,-8512.368333,1838.629195
359.763561,222.061783,-8808.450710,1838.629195
359.763888,-222.061783,-9992.780217,1455.581446
359.764216,-1036.288319,-10362.883188,1302.362347
359.764543,-1480.411884,-10436.903782,919.314598
359.764871,-1776.494261,-10140.821405,689.485948
359.765199,-888.247130,-9030.512492,-306.438199
359.765526,-370.102971,-9030.512492,153.219100
359.765854,-222.061783,-8512.368333,0.000000
359.766181,666.185348,-8364.327145,306.438199
359.766509,740.205942,-7846.182985,0.000000
359.766837,1258.350101,-7846.182985,459.657299
359.767164,592.164754,-8438.347739,76.609550
359.767492,-148.041188,-9030.512492,153.219100
359.767819,-1332.370696,-9770.718434,0.000000
359.768147,-1998.556043,-10140.821405,0.000000
359.768475,-1850.514855,-10510.924376,0.000000
359.768802,-962.267725,-10362.883188,-766.095498
359.769130,-592.164754,-9918.759623,-689.485948
359.769457,148.041188,-9400.615463,-383.047749
359.769785,1036.288319,-9104.533087,-383.047749
359.770113,1554.432478,-8438.347739,0.000000
359.770440,1998.556043,-7994.224174,0.000000
359.770768,1924.535449,-7994.224174,383.047749
359.771095,1776.494261,-8512.368333,766.095498
359.771423,1258.350101,-9030.512492,766.095498
359.771751,296.082377,-9992.780217,612.876398
359.772078,-592.164754,-10066.800811,766.095498
359.772406,-1110.308913,-10436.903782,459.657299
359.772734,-1480.411884,-10436.903782,229.828649
359.773061,-1036.288319,-9844.739029,0.000000
359.773389,-814.226536,-9326.594869,0.000000
359.773716,-370.102971,-8808.450710,-76.609550
359.774044,222.061783,-8068.244768,0.000000
359.774372,592.164754,-7846.182985,76.609550
359.774699,518.144159,-7698.141797,459.657299
359.775027,518.144159,-7550.100608,689.485948
359.775354,74.020594,-8586.388927,536.266849
359.775682,-666.185348,-8956.491898,995.924147
359.776010,-2368.659014,-9844.739029,306.438199
359.776337,-2886.803174,-9918.759623,153.219100
359.776665,-2886.803174,-9770.718434,153.219100
359.776992,-1702.473667,-9474.636058,76.609550
359.777320,-814.226536,-8734.430116,842.705048
359.777648,148.041188,-8438.347739,766.095498
359.777975,740.205942,-8142.265362,919.314598
359.778303,1110.308913,-7846.182985,995.924147
359.778630,1480.411884,-7846.182985,1149.143247
359.778958,814.226536,-7994.224174,1225.752797
359.779286,814.226536,-8808.450710,1455.581446
359.779613,0.000000,-9326.594869,1532.190996
359.779941,-888.247130,-10066.800811,1685.410096
359.780268,-1554.432478,-10584.944971,1608.800546
359.780596,-1924.535449,-10214.842000,919.314598
359.780924,-1554.432478,-10362.883188,1149.143247
359.781251,-1036.288319,-9622.677246,612.876398
359.781579,-1036.288319,-9104.533087,536.266849
359.781906,-222.061783,-8512.368333,459.657299
359.782234,148.041188,-8290.306550,842.705048
359.782562,222.061783,-7698.141797,459.657299
359.782889,444.123565,-7920.203579,536.266849
359.783217,148.041188,-8512.368333,1072.533697
359.783544,-592.164754,-9104.533087,842.705048
359.783872,-1554.432478,-9548.656652,919.314598
359.784200,-2146.597232,-9918.759623,229.828649
359.784527,-2812.782580,-10436.903782,0.000000
359.784855,-2368.659014,-9992.780217,-229.828649
359.785182,-1332.370696,-9696.697840,0.000000
359.785510,-222.061783,-9030.512492,0.000000
359.785838,1036.288319,-8512.368333,383.047749
359.786165,1332.370696,-8290.306550,459.657299
359.786493,2146.597232,-8216.285956,612.876398
359.786821,1924.535449,-8216.285956,1149.143247
359.787148,1702.473667,-8882.471304,995.924147
359.787476,666.185348,-9400.615463,766.095498
359.787803,518.144159,-10510.924376,919.314598
359.788131,-592.164754,-10732.986159,842.705048
359.788459,-888.247130,-10807.006753,689.485948
359.788786,-740.205942,-10436.903782,766.095498
359.789114,0.000000,-9622.677246,1072.533697
359.789441,222.061783,-9474.636058,612.876398
359.789769,296.082377,-8586.388927,459.657299
359.790097,148.041188,-8364.327145,306.438199
359.790424,592.164754,-8068.244768,536.266849
359.790752,888.247130,-7846.182985,536.266849
359.791079,666.185348,-7994.224174,919.314598
359.791407,0.000000,-8512.368333,766.095498
359.791735,-1258.350101,-9178.553681,536.266849
359.792062,-2220.617826,-9696.697840,459.657299
359.792390,-2960.823768,-9844.739029,76.609550
359.792717,-2590.720797,-9252.574275,0.000000
359.793045,-2146.597232,-9252.574275,76.609550
359.793373,-962.267725,-8882.471304,0.000000
359.793700,-296.082377,-8216.285956,229.828649
359.794028,592.164754,-7994.224174,612.876398
359.794355,1258.350101,-7772.162391,1302.362347
359.794683,1110.308913,-7550.100608,919.314598
359.795011,1258.350101,-7920.203579,1378.971896
359.795338,666.185348,-8512.368333,1378.971896
359.795666,0.000000,-9326.594869,1225.752797
359.795993,-1036.288319,-9622.677246,1225.752797
359.796321,-1184.329507,-10140.821405,1225.752797
359.796649,-1332.370696,-10066.800811,689.485948
359.796976,-740.205942,-9844.739029,842.705048
359.797304,-370.102971,-9252.574275,383.047749
359.797631,0.000000,-8808.450710,153.219100
359.797959,592.164754,-8068.244768,153.219100
359.798287,740.205942,-7846.182985,153.219100
359.798614,592.164754,-7772.162391,153.219100
359.798942,666.185348,-7994.224174,383.047749
359.799270,296.082377,-8216.285956,536.266849
359.799597,-296.082377,-9030.512492,306.438199
359.799925,-1480.411884,-9474.636058,76.609550
359.800252,-2442.679609,-10066.800811,0.000000
359.800580,-2590.720797,-10288.862594,-459.657299
359.800908,-2368.659014,-9918.759623,-536.266849
359.801235,-1406.391290,-9104.533087,-536.266849
359.801563,-740.205942,-8734.430116,0.000000
359.801890,444.123565,-8216.285956,0.000000
359.802218,1480.411884,-8068.244768,229.828649
359.802546,2368.659014,-7920.203579,612.876398
359.802873,2368.659014,-8142.265362,1072.533697
359.803201,1554.432478,-8512.368333,689.485948
359.803528,814.226536,-9474.636058,842.705048
359.803856,-370.102971,-10362.883188,842.705048
359.804184,-888.247130,-10584.944971,842.705048
359.804511,-1110.308913,-10732.986159,766.095498
359.804839,-740.205942,-9918.759623,383.047749
359.805166,-296.082377,-10140.821405,842.705048
359.805494,-148.041188,-9400.615463,459.657299
359.805822,74.020594,-8660.409521,459.657299
359.806149,296.082377,-8438.347739,536.266849
359.806477,592.164754,-8364.327145,383.047749
359.806804,814.226536,-8142.265362,766.095498
359.807132,296.082377,-8290.306550,995.924147
359.807460,-740.205942,-8956.491898,919.314598
359.807787,-1628.453072,-9474.636058,612.876398
359.808115,-2442.679609,-10510.924376,1072.533697
359.808442,-3034.844362,-10066.800811,383.047749
359.808770,-2960.823768,-10140.821405,0.000000
359.809098,-2072.576638,-9844.739029,0.000000
359.809425,-1110.308913,-9030.512492,229.828649
359.809753,0.000000,-8068.244768,612.876398
359.810080,1036.288319,-8438.347739,1225.752797
359.810408,1628.453072,-7846.182985,1072.533697
359.810736,1554.432478,-7994.224174,1225.752797
359.811063,1110.308913,-8512.368333,1532.190996
359.811391,666.185348,-8956.491898,1302.362347
359.811718,0.000000,-9400.615463,1608.800546
359.812046,-962.267725,-10510.924376,1455.581446
359.812374,-1480.411884,-10658.965565,1149.143247
359.812701,-1406.391290,-10362.883188,842.705048
359.813029,-740.205942,-9992.780217,459.657299
359.813357,-518.144159,-9474.636058,995.924147
359.813684,0.000000,-8808.450710,229.828649
359.814012,0.000000,-8512.368333,229.828649
359.814339,296.082377,-7846.182985,306.438199
359.814667,592.164754,-7920.203579,229.828649
359.814995,666.185348,-7698.141797,842.705048
359.815322,0.000000,-8068.244768,459.657299
359.815650,-444.123565,-9178.553681,459.657299
359.815977,-1776.494261,-9400.615463,153.219100
359.816305,-2368.659014,-10140.821405,76.609550
359.816633,-2442.679609,-10140.821405,0.000000
359.816960,-1924.535449,-9474.636058,0.000000
359.817288,-1184.329507,-9178.553681,-612.876398
359.817615,0.000000,-8660.409521,-153.219100
359.817943,1332.370696,-8438.347739,-229.828649
359.818271,2072.576638,-7698.141797,229.828649
359.818598,2664.741391,-7328.038826,306.438199
359.818926,2590.720797,-8216.285956,842.705048
359.819254,1776.494261,-8882.471304,842.705048
359.819581,666.185348,-9696.697840,766.095498
359.819909,-222.061783,-10510.924376,689.485948
359.820236,-888.247130,-10732.986159,536.266849
359.820564,-518.144159,-10436.903782,1149.143247
359.820892,-740.205942,-10436.903782,612.876398
359.821219,-222.061783,-9844.739029,612.876398
359.821547,444.123565,-9178.553681,459.657299
359.821875,666.185348,-8808.450710,153.219100
359.822202,296.082377,-7846.182985,0.000000
359.822530,518.144159,-8142.265362,306.438199
359.822857,814.226536,-7920.203579,766.095498
359.823185,148.041188,-7772.162391,766.095498
359.823513,-444.123565,-8512.368333,689.485948
359.823840,-1702.473667,-9474.636058,536.266849
359.824168,-2886.803174,-9770.718434,536.266849
359.824495,-3330.926739,-9918.759623,0.000000
359.824823,-2738.761985,-9548.656652,229.828649
359.825151,-1924.535449,-9400.615463,76.609550
359.825478,-666.185348,-8068.244768,766.095498
359.825806,370.102971,-8290.306550,995.924147
359.826134,1110.308913,-7920.203579,1149.143247
359.826461,1184.329507,-7772.162391,1225.752797
359.826789,1184.329507,-8438.347739,1532.190996
359.827116,814.226536,-8586.388927,1762.019645
359.827444,0.000000,-9178.553681,1149.143247
359.827772,-666.185348,-9770.718434,1532.190996
359.828099,-1332.370696,-10436.903782,1149.143247
359.828427,-1554.432478,-10584.944971,995.924147
359.828754,-1628.453072,-10362.883188,1225.752797
359.829082,-1036.288319,-9474.636058,612.876398
359.829410,-814.226536,-9252.574275,306.438199
359.829737,-148.041188,-8586.388927,383.047749
359.830065,0.000000,-8438.347739,0.000000
359.830393,296.082377,-7994.224174,0.000000
359.830720,518.144159,-7772.162391,0.000000
359.831048,518.144159,-7920.203579,689.485948
359.831375,0.000000,-8290.306550,919.314598
359.831703,-888.247130,-9326.594869,612.876398
359.832031,-2072.576638,-9770.718434,153.219100
359.832358,-2442.679609,-10214.842000,153.219100
359.832686,-2886.803174,-10140.821405,-459.657299
359.833014,-2294.638420,-9770.718434,-919.314598
359.833341,-814.226536,-9400.615463,-689.485948
359.833669,222.061783,-8512.368333,-766.095498
359.833996,1406.391290,-8068.244768,306.438199
359.834324,2664.741391,-7772.162391,306.438199
359.834652,2590.720797,-8068.244768,153.219100
359.834979,2516.700203,-8364.327145,536.266849
359.835307,2072.576638,-9030.512492,766.095498
359.835634,1036.288319,-9474.636058,766.095498
359.835962,0.000000,-10066.800811,459.657299
359.836290,-518.144159,-10955.047942,536.266849
359.836617,-666.185348,-10658.965565,689.485948
359.836945,-296.082377,-10140.821405,689.485948
359.837273,0.000000,-9622.677246,229.828649
359.837600,148.041188,-8882.471304,306.438199
359.837928,740.205942,-8438.347739,383.047749
359.838255,518.144159,-7846.182985,76.609550
359.838583,1036.288319,-7550.100608,229.828649
359.838911,1036.288319,-7698.141797,612.876398
359.839238,370.102971,-8068.244768,766.095498
359.839566,-740.205942,-8734.430116,536.266849
359.839894,-1850.514855,-9548.656652,689.485948
359.840221,-2886.803174,-10066.800811,383.047749
359.840549,-3108.864956,-9992.780217,229.828649
359.840876,-2368.659014,-10066.800811,153.219100
359.841204,-1702.473667,-8956.491898,842.705048
359.841532,-518.144159,-8734.430116,842.705048
359.841859,222.061783,-8216.285956,1072.533697
359.842187,1036.288319,-7772.162391,1302.362347
359.842514,1332.370696,-7402.059420,1685.410096
359.842842,888.247130,-7846.182985,1455.581446
359.843170,740.205942,-8438.347739,1455.581446
359.843497,0.000000,-9030.512492,1685.410096
359.843825,-740.205942,-9622.677246,1685.410096
359.844153,-1110.308913,-10288.862594,1915.238745
359.844480,-1850.514855,-10140.821405,1685.410096
359.844808,-1554.432478,-10214.842000,1149.143247
359.845135,-1258.350101,-9992.780217,1072.533697
359.845463,-962.267725,-9326.594869,919.314598
359.845791,-296.082377,-8734.430116,842.705048
359.846118,0.000000,-8068.244768,919.314598
359.846446,148.041188,-7994.224174,536.266849
359.846773,444.123565,-7920.203579,612.876398
359.847101,148.041188,-7994.224174,1072.533697
359.847429,-518.144159,-8512.368333,995.924147
359.847756,-1332.370696,-9326.594869,1072.533697
359.848084,-2442.679609,-9474.636058,383.047749
359.848412,-2960.823768,-10510.924376,0.000000
359.848739,-2664.741391,-10288.862594,-306.438199
359.849067,-2146.597232,-9696.697840,-459.657299
359.849394,-740.205942,-9326.594869,0.000000
359.849722,222.061783,-8512.368333,-153.219100
359.850050,1110.308913,-8290.306550,0.000000
359.850377,1776.494261,-7846.182985,0.000000
359.850705,1998.556043,-7920.203579,229.828649
359.851033,1998.556043,-8290.306550,536.266849
359.851360,1184.329507,-8586.388927,766.095498
359.851688,666.185348,-9474.636058,536.266849
359.852015,0.000000,-10066.800811,459.657299
359.852343,-666.185348,-10510.924376,153.219100
359.852671,-962.267725,-10584.944971,76.609550
359.852998,-518.144159,-10066.800811,0.000000
359.853326,148.041188,-9474.636058,0.000000
359.853653,370.102971,-8956.491898,-229.828649
359.853981,592.164754,-8734.430116,-229.828649
359.854309,888.247130,-8290.306550,0.000000
359.854636,1628.453072,-7550.100608,0.000000
359.854964,1480.411884,-7624.121203,383.047749
359.855292,814.226536,-8364.327145,383.047749
359.855619,-148.041188,-8956.491898,459.657299
359.855947,-1406.391290,-9474.636058,0.000000
359.856274,-2368.659014,-9918.759623,0.000000
359.856602,-2442.679609,-9696.697840,-383.047749
359.856930,-2442.679609,-9696.697840,0.000000
359.857257,-1406.391290,-9400.615463,0.000000
359.857585,-370.102971,-8734.430116,153.219100
359.857913,518.144159,-8364.327145,459.657299
359.858240,1036.288319,-7994.224174,459.657299
359.858568,1406.391290,-7624.121203,766.095498
359.858895,1406.391290,-8142.265362,1072.533697
359.859223,962.267725,-8660.409521,1302.362347
359.859551,148.041188,-9178.553681,1685.410096
359.859878,0.000000,-9622.677246,1762.019645
359.860206,-1480.411884,-10436.903782,1532.190996
359.860533,-1924.535449,-10510.924376,842.705048
359.860861,-1924.535449,-10510.924376,842.705048
359.861189,-1702.473667,-9696.697840,842.705048
359.861516,-1036.288319,-9400.615463,1072.533697
359.861844,-518.144159,-8586.388927,536.266849
359.862172,0.000000,-8364.327145,612.876398
359.862499,296.082377,-8068.244768,689.485948
359.862827,148.041188,-8068.244768,536.266849
359.863154,0.000000,-8438.347739,919.314598
359.863482,-444.123565,-9030.512492,1225.752797
359.863810,-1332.370696,-9844.739029,766.095498
359.864137,-2294.638420,-10658.965565,459.657299
359.864465,-2738.761985,-10658.965565,0.000000
359.864792,-2442.679609,-10436.903782,-153.219100
359.865120,-1776.494261,-10214.842000,-306.438199
359.865448,-592.164754,-9400.615463,0.000000
359.865775,296.082377,-8956.491898,153.219100
359.866103,1406.391290,-8512.368333,383.047749
359.866431,1924.535449,-8068.244768,536.266849
359.866758,2220.617826,-8660.409521,536.266849
359.867086,2220.617826,-8290.306550,1149.143247
359.867413,1184.329507,-9252.574275,842.705048
359.867741,444.123565,-10140.821405,1225.752797
359.868069,-296.082377,-10658.965565,842.705048
359.868396,-666.185348,-11103.089130,306.438199
359.868724,-592.164754,-10584.944971,1072.533697
359.869052,-592.164754,-10214.842000,459.657299
359.869379,0.000000,-9474.636058,536.266849
359.869707,370.102971,-9030.512492,229.828649
359.870034,592.164754,-8734.430116,612.876398
359.870362,296.082377,-7920.203579,995.924147
359.870690,592.164754,-7920.203579,612.876398
359.871017,296.082377,-7994.224174,842.705048
359.871345,0.000000,-8512.368333,919.314598
359.871672,-1258.350101,-9104.533087,689.485948
359.872000,-2368.659014,-9474.636058,229.828649
359.872328,-2960.823768,-9696.697840,306.438199
359.872655,-2738.761985,-9844.739029,229.828649
359.872983,-1924.535449,-9326.594869,0.000000
359.873311,-1036.288319,-8734.430116,229.828649
359.873638,0.000000,-8068.244768,689.485948
359.873966,740.205942,-8142.265362,612.876398
359.874293,1036.288319,-7846.182985,766.095498
359.874621,1406.391290,-7920.203579,842.705048
359.874949,1480.411884,-8142.265362,1455.581446
359.875276,1036.288319,-8438.347739,919.314598
359.875604,296.082377,-9104.533087,1991.848295
359.875931,-592.164754,-9992.780217,1455.581446
359.876259,-1110.308913,-10214.842000,1072.533697
359.876587,-1110.308913,-10288.862594,919.314598
359.876914,-962.267725,-9770.718434,689.485948
359.877242,-296.082377,-9178.553681,1302.362347
359.877570,296.082377,-8808.450710,536.266849
359.877897,0.000000,-8142.265362,536.266849
359.878225,518.144159,-7772.162391,536.266849
359.878552,518.144159,-7994.224174,689.485948
359.878880,518.144159,-7772.162391,612.876398
359.879208,222.061783,-8364.327145,612.876398
359.879535,-666.185348,-9030.512492,766.095498
359.879863,-1850.514855,-9622.677246,612.876398
359.880191,-2590.720797,-9918.759623,459.657299
359.880518,-2960.823768,-10214.842000,-536.266849
359.880846,-2738.761985,-9474.636058,0.000000
359.881173,-1776.494261,-9474.636058,-612.876398
359.881501,-814.226536,-8882.471304,-612.876398
359.881829,222.061783,-8512.368333,-383.047749
359.882156,814.226536,-7846.182985,383.047749
359.882484,1776.494261,-7698.141797,306.438199
359.882811,1850.514855,-8142.265362,459.657299
359.883139,1554.432478,-8660.409521,536.266849
359.883467,888.247130,-9474.636058,612.876398
359.883794,0.000000,-10066.800811,536.266849
359.884122,-370.102971,-11029.068536,919.314598
359.884450,-1036.288319,-10881.027347,689.485948
359.884777,-814.226536,-10658.965565,459.657299
359.885105,-296.082377,-10140.821405,306.438199
359.885432,148.041188,-9622.677246,229.828649
359.885760,1036.288319,-8364.327145,0.000000
359.886088,888.247130,-8068.244768,76.609550
359.886415,1628.453072,-7772.162391,153.219100
359.886743,1554.432478,-7846.182985,612.876398
359.887071,1406.391290,-8290.306550,919.314598
359.887398,740.205942,-8660.409521,1225.752797
359.887726,-148.041188,-9400.615463,766.095498
359.888053,-1702.473667,-9770.718434,306.438199
359.888381,-2590.720797,-10288.862594,383.047749
359.888709,-2516.700203,-10140.821405,153.219100
359.889036,-1850.514855,-9622.677246,229.828649
359.889364,-962.267725,-8512.368333,459.657299
359.889691,0.000000,-8586.388927,689.485948
359.890019,592.164754,-8142.265362,995.924147
359.890347,888.247130,-7846.182985,919.314598
359.890674,1110.308913,-7846.182985,1302.362347
359.891002,1110.308913,-8216.285956,1991.848295
359.891330,148.041188,-8586.388927,1455.581446
359.891657,-666.185348,-9400.615463,1608.800546
359.891985,-1406.391290,-9918.759623,1608.800546
359.892312,-2072.576638,-9918.759623,1225.752797
359.892640,-1776.494261,-9918.759623,1302.362347
359.892968,-1628.453072,-9474.636058,919.314598
359.893295,-1184.329507,-9474.636058,766.095498
359.893623,-888.247130,-8882.471304,689.485948
359.893950,0.000000,-8364.327145,459.657299
359.894278,296.082377,-7994.224174,995.924147
359.894606,666.185348,-7772.162391,1072.533697
359.894933,444.123565,-7994.224174,766.095498
359.895261,0.000000,-8290.306550,1455.581446
359.895589,-814.226536,-8956.491898,995.924147
359.895916,-1924.535449,-9400.615463,842.705048
359.896244,-1776.494261,-10140.821405,0.000000
359.896571,-2516.700203,-10140.821405,76.609550
359.896899,-2146.597232,-9918.759623,0.000000
359.897227,-888.247130,-9400.615463,0.000000
359.897554,0.000000,-8808.450710,76.609550
359.897882,1036.288319,-8290.306550,76.609550
359.898210,1406.391290,-7920.203579,459.657299
359.898537,1702.473667,-7994.224174,383.047749
359.898865,1850.514855,-8290.306550,536.266849
359.899192,1406.391290,-8586.388927,766.095498
359.899520,666.185348,-9178.553681,459.657299
359.899848,-370.102971,-10214.842000,995.924147
359.900175,-962.267725,-10510.924376,536.266849
359.900503,-1258.350101,-10584.944971,229.828649
359.900830,-1332.370696,-10288.862594,0.000000
359.901158,-962.267725,-9918.759623,383.047749
359.901486,-370.102971,-9400.615463,-229.828649
359.901813,0.000000,-8660.409521,-842.705048
359.902141,592.164754,-7920.203579,-306.438199
359.902469,1110.308913,-7772.162391,-229.828649
359.902796,1628.453072,-7698.141797,76.609550
359.903124,888.247130,-7920.203579,383.047749
359.903451,296.082377,-8660.409521,383.047749
359.903779,-888.247130,-9474.636058,383.047749
359.904107,-1924.535449,-9992.780217,0.000000
359.904434,-2516.700203,-10362.883188,229.828649
359.904762,-2220.617826,-10140.821405,0.000000
359.905089,-888.247130,-9474.636058,76.609550
359.905417,0.000000,-9104.533087,459.657299
359.905745,592.164754,-8438.347739,459.657299
359.906072,1480.411884,-8216.285956,842.705048
359.906400,1628.453072,-7624.121203,1302.362347
359.906728,1702.473667,-7698.141797,1149.143247
359.907055,1406.391290,-8438.347739,1532.190996
359.907383,666.185348,-8882.471304,1532.190996
359.907710,-296.082377,-9474.636058,1455.581446
359.908038,-1184.329507,-9696.697840,1685.410096
359.908366,-1702.473667,-10140.821405,1608.800546
359.908693,-1924.535449,-10214.842000,1072.533697
359.909021,-1850.514855,-9844.739029,1072.533697
359.909349,-1480.411884,-9474.636058,612.876398
359.909676,-814.226536,-8882.471304,919.314598
359.910004,-296.082377,-7846.182985,1225.752797
359.910331,0.000000,-7846.182985,1378.971896
359.910659,148.041188,-7772.162391,995.924147
359.910987,148.041188,-8068.244768,1072.533697
359.911314,0.000000,-8586.388927,1455.581446
359.911642,-1406.391290,-8808.450710,1225.752797
359.911969,-2146.597232,-9548.656652,1072.533697
359.912297,-2812.782580,-10140.821405,306.438199
359.912625,-2886.803174,-10214.842000,0.000000
359.912952,-2368.659014,-9844.739029,0.000000
359.913280,-1184.329507,-9474.636058,0.000000
359.913608,0.000000,-8956.491898,-153.219100
359.913935,666.185348,-8586.388927,306.438199
359.914263,1406.391290,-8216.285956,383.047749
359.914590,1702.473667,-8438.347739,459.657299
359.914918,1628.453072,-8438.347739,459.657299
359.915246,1480.411884,-8882.471304,459.657299
359.915573,740.205942,-9696.697840,995.924147
359.915901,-222.061783,-10214.842000,919.314598
359.916229,-592.164754,-10881.027347,612.876398
359.916556,-1036.288319,-10881.027347,229.828649
359.916884,-1036.288319,-10362.883188,76.609550
359.917211,-592.164754,-9844.739029,-229.828649
359.917539,148.041188,-9326.594869,-536.266849
359.917866,444.123565,-8586.388927,-306.438199
359.918194,962.267725,-8216.285956,0.000000
359.918521,1776.494261,-7772.162391,0.000000
359.918849,1480.411884,-7254.018232,536.266849
359.919176,1184.329507,-8290.306550,153.219100
359.919504,370.102971,-9178.553681,306.438199
359.919832,-814.226536,-9918.759623,306.438199
359.920159,-1850.514855,-10288.862594,536.266849
359.920487,-2220.617826,-9770.718434,0.000000
359.920814,-1924.535449,-10140.821405,76.609550
359.921142,-1036.288319,-9844.739029,306.438199
359.921469,-148.041188,-9030.512492,383.047749
359.921797,592.164754,-8512.368333,689.485948
359.922124,1406.391290,-8068.244768,689.485948
359.922452,1850.514855,-7772.162391,995.924147
359.922780,1628.453072,-7846.182985,1149.143247
359.923107,1110.308913,-8438.347739,1149.143247
359.923435,370.102971,-9104.533087,1378.971896
359.923762,-222.061783,-9548.656652,1532.190996
359.924090,-1184.329507,-9770.718434,1072.533697
359.924417,-1776.494261,-10214.842000,1455.581446
359.924745,-1702.473667,-10066.800811,1455.581446
359.925072,-1406.391290,-9770.718434,1149.143247
359.925400,-888.247130,-8586.388927,1378.971896
359.925728,-222.061783,-8216.285956,995.924147
359.926055,-296.082377,-8216.285956,1072.533697
359.926383,0.000000,-7846.182985,919.314598
359.926710,-222.061783,-7624.121203,995.924147
359.927038,-296.082377,-7994.224174,1378.971896
359.927365,-592.164754,-8216.285956,1072.533697
359.927693,-1480.411884,-8882.471304,1072.533697
359.928020,-2368.659014,-9474.636058,842.705048
359.928348,-2886.803174,-9844.739029,383.047749
359.928676,-2886.803174,-9992.780217,0.000000
359.929003,-2220.617826,-9696.697840,-459.657299
359.929331,-1628.453072,-9252.574275,0.000000
359.929658,-296.082377,-8660.409521,-229.828649
359.929986,666.185348,-8364.327145,229.828649
359.930313,1554.432478,-7772.162391,306.438199
359.930641,1776.494261,-7624.121203,995.924147
359.930968,2146.597232,-7994.224174,1302.362347
359.931296,1406.391290,-9030.512492,842.705048
359.931623,814.226536,-9622.677246,1149.143247
359.931951,-222.061783,-10362.883188,689.485948
359.932279,-666.185348,-10732.986159,842.705048
359.932606,-1036.288319,-11177.109724,689.485948
359.932934,-888.247130,-10658.965565,0.000000
359.933261,0.000000,-9844.739029,0.000000
359.933589,222.061783,-9326.594869,0.000000
359.933916,1110.308913,-8734.430116,0.000000
359.934244,1480.411884,-7698.141797,-306.438199
359.934571,1554.432478,-7994.224174,0.000000
359.934899,1628.453072,-7994.224174,153.219100
359.935227,962.267725,-8438.347739,459.657299
359.935554,-222.061783,-9178.553681,383.047749
359.935882,-1406.391290,-9474.636058,153.219100
359.936209,-2368.659014,-10436.903782,306.438199
359.936537,-2960.823768,-10066.800811,0.000000
359.936864,-2368.659014,-10066.800811,0.000000
359.937192,-1998.556043,-9474.636058,0.000000
359.937519,-444.123565,-8734.430116,306.438199
359.937847,296.082377,-8142.265362,459.657299
359.938175,1036.288319,-7624.121203,459.657299
359.938502,1406.391290,-7550.100608,689.485948
359.938830,1480.411884,-7698.141797,1072.533697
359.939157,1036.288319,-8068.244768,1991.848295
359.939485,296.082377,-8660.409521,1302.362347
359.939812,-518.144159,-9696.697840,1302.362347
359.940140,-1480.411884,-10362.883188,1378.971896
359.940467,-1628.453072,-10436.903782,1302.362347
359.940795,-1406.391290,-10214.842000,1149.143247
359.941123,-1184.329507,-9548.656652,1378.971896
359.941450,-444.123565,-9400.615463,842.705048
359.941778,0.000000,-8586.388927,919.314598
359.942105,370.102971,-7920.203579,995.924147
359.942433,296.082377,-7476.080014,919.314598
359.942760,740.205942,-7105.977043,383.047749
359.943088,444.123565,-7624.121203,1072.533697
359.943415,-148.041188,-8290.306550,1072.533697
359.943743,-1184.329507,-8882.471304,995.924147
359.944070,-2072.576638,-9622.677246,1072.533697
359.944398,-2738.761985,-9844.739029,383.047749
359.944726,-2664.741391,-10288.862594,459.657299
359.945053,-1924.535449,-9918.759623,0.000000
359.945381,-962.267725,-9104.533087,0.000000
359.945708,0.000000,-8808.450710,306.438199
359.946036,666.185348,-8882.471304,612.876398
359.946363,1258.350101,-8142.265362,459.657299
359.946691,1702.473667,-8290.306550,842.705048
359.947018,1480.411884,-8364.327145,612.876398
359.947346,1110.308913,-8882.471304,1072.533697
359.947674,0.000000,-9622.677246,842.705048
359.948001,-592.164754,-10807.006753,76.609550
359.948329,-1406.391290,-10510.924376,229.828649
359.948656,-1332.370696,-10584.944971,0.000000
359.948984,-1110.308913,-10510.924376,-153.219100
359.949311,-740.205942,-9844.739029,-536.266849
359.949639,148.041188,-9474.636058,-689.485948
359.949966,444.123565,-8882.471304,0.000000
359.950294,888.247130,-8216.285956,0.000000
359.950622,1184.329507,-8142.265362,0.000000
359.950949,1628.453072,-8142.265362,306.438199
359.951277,888.247130,-8290.306550,229.828649
359.951604,444.123565,-9030.512492,306.438199
359.951932,-962.267725,-9918.759623,229.828649
359.952259,-1998.556043,-10732.986159,0.000000
359.952587,-2146.597232,-10214.842000,-153.219100
359.952914,-1702.473667,-10362.883188,-153.219100
359.953242,-592.164754,-9474.636058,0.000000
359.953570,0.000000,-8882.471304,306.438199
359.953897,1184.329507,-8586.388927,153.219100
359.954225,1628.453072,-8364.327145,689.485948
359.954552,2072.576638,-7846.182985,689.485948
359.954880,2146.597232,-8438.347739,919.314598
359.955207,1554.432478,-8882.471304,1378.971896
359.955535,222.061783,-9252.574275,1225.752797
359.955862,-444.123565,-10066.800811,1455.581446
359.956190,-1110.308913,-10362.883188,1225.752797
359.956517,-1702.473667,-9992.780217,1685.410096
359.956845,-1332.370696,-9918.759623,842.705048
359.957173,-1184.329507,-9548.656652,689.485948
359.957500,-740.205942,-9030.512492,1072.533697
359.957828,-370.102971,-8438.347739,689.485948
359.958155,0.000000,-7772.162391,1225.752797
359.958483,0.000000,-7846.182985,1455.581446
359.958810,222.061783,-7698.141797,919.314598
359.959138,0.000000,-7476.080014,1302.362347
359.959465,-666.185348,-8364.327145,1532.190996
359.959793,-1628.453072,-9178.553681,1072.533697
359.960121,-2294.638420,-9474.636058,766.095498
359.960448,-2664.741391,-10066.800811,842.705048
359.960776,-2812.782580,-9918.759623,459.657299
359.961103,-1998.556043,-9548.656652,536.266849
359.961431,-666.185348,-9178.553681,383.047749
359.961758,592.164754,-8956.491898,459.657299
359.962086,888.247130,-8142.265362,842.705048
359.962413,1184.329507,-8216.285956,919.314598
359.962741,1184.329507,-8290.306550,1072.533697
359.963069,1110.308913,-8734.430116,919.314598
359.963396,888.247130,-8956.491898,1072.533697
359.963724,0.000000,-9474.636058,919.314598
359.964051,-962.267725,-10214.842000,536.266849
359.964379,-1480.411884,-10436.903782,306.438199
359.964706,-1480.411884,-10214.842000,383.047749
359.965034,-1184.329507,-9548.656652,229.828649
359.965361,-666.185348,-9326.594869,-229.828649
359.965689,-370.102971,-8734.430116,-383.047749
359.966017,222.061783,-8586.388927,-459.657299
359.966344,666.185348,-7994.224174,-229.828649
359.966672,1036.288319,-7624.121203,0.000000
359.966999,1332.370696,-8142.265362,229.828649
359.967327,888.247130,-8438.347739,229.828649
359.967654,74.020594,-9252.574275,383.047749
359.967982,-1184.329507,-9992.780217,306.438199
359.968309,-1628.453072,-10436.903782,-459.657299
359.968637,-1850.514855,-10510.924376,-459.657299
359.968964,-1258.350101,-10214.842000,-153.219100
359.969292,-444.123565,-9622.677246,-153.219100
359.969620,518.144159,-9252.574275,0.000000
359.969947,1702.473667,-8586.388927,76.609550
359.970275,2220.617826,-8068.244768,153.219100
359.970602,2368.659014,-7846.182985,1072.533697
359.970930,1924.535449,-8364.327145,1149.143247
359.971257,1406.391290,-8808.450710,1532.190996
359.971585,222.061783,-9474.636058,1302.362347
359.971912,0.000000,-9992.780217,1455.581446
359.972240,-1258.350101,-10066.800811,1762.019645
359.972568,-1480.411884,-10214.842000,1072.533697
359.972895,-1332.370696,-10066.800811,995.924147
359.973223,-1332.370696,-9474.636058,1072.533697
359.973550,-814.226536,-9178.553681,919.314598
359.973878,-740.205942,-8290.306550,1302.362347
359.974205,-444.123565,-7772.162391,612.876398
359.974533,-518.144159,-7772.162391,919.314598
359.974860,-222.061783,-7624.121203,689.485948
359.975188,-444.123565,-7994.224174,1072.533697
359.975516,-1184.329507,-7994.224174,1302.362347
359.975843,-1776.494261,-8734.430116,919.314598
359.976171,-2886.803174,-9696.697840,766.095498
359.976498,-3330.926739,-9992.780217,76.609550
359.976826,-3034.844362,-9696.697840,153.219100
359.977153,-1554.432478,-8956.491898,229.828649
359.977481,-518.144159,-8438.347739,536.266849
359.977808,296.082377,-8660.409521,612.876398
359.978136,814.226536,-8216.285956,842.705048
359.978464,1258.350101,-8216.285956,919.314598
359.978791,1702.473667,-8438.347739,1378.971896
359.979119,1332.370696,-8438.347739,766.095498
359.979446,592.164754,-9252.574275,1149.143247
359.979774,222.061783,-9918.759623,995.924147
359.980101,-444.123565,-10140.821405,383.047749
359.980429,-1258.350101,-10140.821405,612.876398
359.980756,-962.267725,-10066.800811,1072.533697
359.981084,-592.164754,-9844.739029,0.000000
359.981411,-518.144159,-9548.656652,0.000000
359.981739,370.102971,-8956.491898,-229.828649
359.982067,518.144159,-8438.347739,0.000000
359.982394,740.205942,-7920.203579,306.438199
359.982722,1480.411884,-7920.203579,153.219100
359.983049,1184.329507,-8586.388927,306.438199
359.983377,518.144159,-9030.512492,459.657299
359.983704,-370.102971,-9770.718434,306.438199
359.984032,-1702.473667,-10140.821405,0.000000
359.984359,-2146.597232,-10362.883188,153.219100
359.984687,-2368.659014,-9992.780217,-383.047749
359.985015,-1702.473667,-9474.636058,-689.485948
359.985342,-592.164754,-9252.574275,-536.266849
359.985670,518.144159,-8734.430116,76.609550
359.985997,1110.308913,-8438.347739,383.047749
359.986325,1924.535449,-8068.244768,153.219100
359.986652,1776.494261,-8290.306550,536.266849
359.986980,1776.494261,-8882.471304,995.924147
359.987307,1036.288319,-9400.615463,1225.752797
359.987635,148.041188,-9474.636058,1455.581446
359.987963,-518.144159,-10436.903782,1762.019645
359.988290,-1406.391290,-10732.986159,1302.362347
359.988618,-1332.370696,-10732.986159,995.924147
359.988945,-1184.329507,-10214.842000,919.314598
359.989273,-592.164754,-9474.636058,842.705048
359.989600,-444.123565,-9104.533087,536.266849
359.989928,-518.144159,-8290.306550,689.485948
359.990255,74.020594,-8142.265362,459.657299
359.990583,370.102971,-7550.100608,919.314598
359.990911,370.102971,-7846.182985,1378.971896
359.991238,148.041188,-8216.285956,1455.581446
359.991566,-1184.329507,-8734.430116,1302.362347
359.991893,-2146.597232,-9474.636058,842.705048
359.992221,-2738.761985,-10214.842000,612.876398
359.992548,-3108.864956,-9696.697840,689.485948
359.992876,-2738.761985,-9474.636058,306.438199
359.993203,-1554.432478,-9400.615463,536.266849
359.993531,-592.164754,-8586.388927,536.266849
359.993858,0.000000,-8216.285956,459.657299
359.994186,962.267725,-7846.182985,766.095498
359.994514,1554.432478,-7698.141797,1685.410096
359.994841,1332.370696,-8290.306550,842.705048
359.995169,962.267725,-8734.430116,1302.362347
359.995496,740.205942,-9326.594869,1225.752797
359.995824,0.000000,-9992.780217,995.924147
359.996151,-518.144159,-10362.883188,842.705048
359.996479,-1036.288319,-10140.821405,459.657299
359.996806,-1184.329507,-10288.862594,76.609550
359.997134,-666.185348,-10214.842000,76.609550
359.997462,0.000000,-9326.594869,0.000000
359.997789,518.144159,-9104.533087,0.000000
359.998117,1332.370696,-8734.430116,0.000000
359.998444,1110.308913,-7994.224174,0.000000
359.998772,1258.350101,-8068.244768,536.266849
359.999099,888.247130,-8364.327145,536.266849
359.999427,222.061783,-8808.450710,383.047749
359.999754,-888.247130,-9252.574275,612.876398
360.000082,-1850.514855,-10214.842000,76.609550
360.000410,-2294.638420,-10140.821405,0.000000
360.000737,-2294.638420,-10066.800811,-689.485948
360.001065,-1480.411884,-9548.656652,-383.047749
360.001392,-444.123565,-8512.368333,0.000000
360.001720,740.205942,-8660.409521,76.609550
360.002047,1480.411884,-8068.244768,153.219100
360.002375,1776.494261,-7772.162391,306.438199
360.002702,2294.638420,-7994.224174,612.876398
360.003030,1554.432478,-8142.265362,1225.752797
360.003358,962.267725,-8660.409521,1225.752797
360.003685,74.020594,-9770.718434,1225.752797
360.004013,-740.205942,-10436.903782,1225.752797
360.004340,-1480.411884,-10288.862594,1149.143247
360.004668,-1480.411884,-10214.842000,995.924147
360.004995,-962.267725,-9548.656652,842.705048
360.005323,-740.205942,-9030.512492,919.314598
360.005650,-888.247130,-8956.491898,612.876398
360.005978,-222.061783,-8068.244768,536.266849
360.006305,0.000000,-7624.121203,612.876398
360.006633,592.164754,-7179.997637,919.314598
360.006961,0.000000,-7402.059420,842.705048
360.007288,-296.082377,-8068.244768,1225.752797
360.007616,-1332.370696,-8586.388927,1072.533697
360.007943,-2146.597232,-9400.615463,919.314598
360.008271,-2442.679609,-9918.759623,842.705048
360.008598,-2590.720797,-9770.718434,229.828649
360.008926,-2146.597232,-9696.697840,306.438199
360.009253,-1258.350101,-9104.533087,612.876398
360.009581,-222.061783,-8734.430116,689.485948
360.009909,222.061783,-8364.327145,1149.143247
360.010236,1110.308913,-8068.244768,1149.143247
360.010564,1480.411884,-7846.182985,1149.143247
360.010891,1480.411884,-8586.388927,1302.362347
360.011219,962.267725,-9030.512492,1455.581446
360.011546,444.123565,-9400.615463,1991.848295
360.011874,-222.061783,-10214.842000,919.314598
360.012201,-1332.370696,-10510.924376,1072.533697
360.012529,-1480.411884,-10732.986159,612.876398
360.012857,-1628.453072,-10436.903782,153.219100
360.013184,-1258.350101,-9770.718434,0.000000
360.013512,-1258.350101,-9030.512492,76.609550
360.013839,-296.082377,-8586.388927,-306.438199
360.014167,0.000000,-8512.368333,0.000000
360.014494,518.144159,-7846.182985,0.000000
360.014822,740.205942,-7920.203579,0.000000
360.015149,888.247130,-7994.224174,459.657299
360.015477,74.020594,-8956.491898,76.609550
360.015805,-1036.288319,-9474.636058,229.828649
360.016132,-1850.514855,-10140.821405,0.000000
360.016460,-2220.617826,-10584.944971,-306.438199
360.016787,-1998.556043,-10214.842000,-842.705048
360.017115,-1184.329507,-9918.759623,-536.266849
360.017442,-296.082377,-9326.594869,-536.266849
360.017770,962.267725,-8660.409521,-229.828649
360.018097,1998.556043,-8216.285956,0.000000
360.018425,2516.700203,-8068.244768,689.485948
360.018753,3034.844362,-7698.141797,766.095498
360.019080,2368.659014,-8734.430116,919.314598
360.019408,1628.453072,-9326.594869,1149.143247
360.019736,518.144159,-9918.759623,995.924147
360.020063,-370.102971,-10510.924376,1225.752797
360.020391,-592.164754,-10658.965565,1302.362347
360.020719,-1184.329507,-10510.924376,689.485948
360.021046,-888.247130,-10140.821405,459.657299
360.021374,-592.164754,-9474.636058,536.266849
360.021701,-370.102971,-8882.471304,536.266849
360.022029,0.000000,-7920.203579,459.657299
360.022357,0.000000,-7624.121203,153.219100
360.022684,222.061783,-7402.059420,383.047749
360.023012,74.020594,-7550.100608,229.828649
360.023340,-222.061783,-8068.244768,766.095498
360.023667,-1036.288319,-8512.368333,995.924147
360.023995,-2220.617826,-9252.574275,766.095498
360.024323,-3034.844362,-9770.718434,612.876398
360.024650,-2738.761985,-9992.780217,153.219100
360.024978,-2368.659014,-9622.677246,306.438199
360.025305,-1110.308913,-9178.553681,536.266849
360.025633,0.000000,-8882.471304,766.095498
360.025961,518.144159,-8216.285956,1072.533697
360.026288,1036.288319,-8142.265362,1072.533697
360.026616,1480.411884,-7920.203579,1149.143247
360.026944,1406.391290,-8290.306550,1455.581446
360.027271,888.247130,-8290.306550,1149.143247
360.027599,0.000000,-9400.615463,1455.581446
360.027927,-518.144159,-9992.780217,1225.752797
360.028254,-1258.350101,-10214.842000,1225.752797
360.028582,-1480.411884,-10362.883188,536.266849
360.028909,-1554.432478,-9770.718434,1072.533697
360.029237,-1036.288319,-9474.636058,-306.438199
360.029565,-1258.350101,-9178.553681,0.000000
360.029892,-444.123565,-8660.409521,-153.219100
360.030220,0.000000,-8068.244768,0.000000
360.030548,518.144159,-7402.059420,383.047749
360.030875,962.267725,-7846.182985,383.047749
360.031203,444.123565,-8216.285956,612.876398
360.031531,0.000000,-9030.512492,612.876398
360.031858,-1258.350101,-9770.718434,306.438199
360.032186,-2294.638420,-10214.842000,0.000000
360.032513,-2368.659014,-10066.800811,-459.657299
360.032841,-1924.535449,-10140.821405,-459.657299
360.033169,-1036.288319,-9548.656652,-919.314598
360.033496,370.102971,-9030.512492,-153.219100
360.033824,1406.391290,-8438.347739,0.000000
360.034152,3108.864956,-8364.327145,842.705048
360.034479,2664.741391,-7846.182985,689.485948
360.034807,2886.803174,-8142.265362,842.705048
360.035134,2294.638420,-8808.450710,995.924147
360.035462,1258.350101,-9622.677246,1149.143247
360.035790,222.061783,-10140.821405,1685.410096
360.036117,-518.144159,-10140.821405,1302.362347
360.036445,-1110.308913,-10584.944971,1149.143247
360.036773,-1554.432478,-10288.862594,995.924147
360.037100,-740.205942,-9992.780217,919.314598
360.037428,-888.247130,-9252.574275,689.485948
360.037756,-814.226536,-8438.347739,995.924147
360.038083,-518.144159,-8290.306550,383.047749
360.038411,0.000000,-7772.162391,229.828649
360.038738,-148.041188,-7772.162391,536.266849
360.039066,0.000000,-7846.182985,842.705048
360.039394,-888.247130,-7846.182985,766.095498
360.039721,-1850.514855,-8956.491898,842.705048
360.040049,-2812.782580,-9770.718434,842.705048
360.040377,-3478.967927,-9992.780217,306.438199
360.040704,-3108.864956,-9918.759623,536.266849
360.041032,-1628.453072,-9770.718434,0.000000
360.041360,-1184.329507,-9030.512492,612.876398
360.041687,0.000000,-8734.430116,689.485948
360.042015,814.226536,-8512.368333,1149.143247
360.042342,1332.370696,-8290.306550,995.924147
360.042670,1628.453072,-8290.306550,689.485948
360.042998,1406.391290,-8142.265362,1762.019645
360.043325,1110.308913,-8956.491898,1072.533697
360.043653,592.164754,-9548.656652,1149.143247
360.043981,0.000000,-10140.821405,995.924147
360.044308,-592.164754,-10807.006753,1072.533697
360.044636,-1406.391290,-10436.903782,1072.533697
360.044964,-1258.350101,-10436.903782,536.266849
360.045291,-814.226536,-9918.759623,0.000000
360.045619,-888.247130,-9548.656652,0.000000
360.045946,0.000000,-8512.368333,0.000000
360.046274,518.144159,-8142.265362,-153.219100
360.046602,666.185348,-7772.162391,306.438199
360.046929,1036.288319,-7994.224174,459.657299
360.047257,444.123565,-8290.306550,459.657299
360.047585,-296.082377,-9030.512492,383.047749
360.047912,-1554.432478,-9474.636058,459.657299
360.048240,-2442.679609,-10214.842000,-229.828649
360.048568,-2590.720797,-10140.821405,-689.485948
360.048895,-2220.617826,-9992.780217,-766.095498
360.049223,-1258.350101,-9474.636058,-766.095498
360.049550,148.041188,-8956.491898,0.000000
360.049878,1258.350101,-8586.388927,76.609550
360.050206,1998.556043,-8068.244768,76.609550
360.050533,2220.617826,-7920.203579,536.266849
360.050861,2368.659014,-8364.327145,842.705048
360.051189,1924.535449,-8660.409521,919.314598
360.051516,962.267725,-9474.636058,1838.629195
360.051844,-148.041188,-9992.780217,1225.752797
360.052172,-666.185348,-10658.965565,1302.362347
360.052499,-1480.411884,-10658.965565,995.924147
360.052827,-1406.391290,-10214.842000,766.095498
360.053154,-1184.329507,-9178.553681,229.828649
360.053482,-296.082377,-8882.471304,536.266849
360.053810,0.000000,-8512.368333,536.266849
360.054137,296.082377,-7698.141797,536.266849
360.054465,370.102971,-7254.018232,229.828649
360.054793,592.164754,-7179.997637,1302.362347
360.055120,518.144159,-7772.162391,459.657299
360.055448,-296.082377,-8364.327145,1072.533697
360.055775,-1702.473667,-8956.491898,919.314598
360.056103,-2516.700203,-9548.656652,919.314598
360.056431,-3034.844362,-9844.739029,1072.533697
360.056758,-2738.761985,-9400.615463,153.219100
360.057086,-1776.494261,-9474.636058,612.876398
360.057414,-592.164754,-9030.512492,842.705048
360.057741,-148.041188,-8364.327145,842.705048
360.058069,444.123565,-8142.265362,842.705048
360.058397,518.144159,-7624.121203,919.314598
360.058724,1036.288319,-7846.182985,995.924147
360.059052,814.226536,-8216.285956,1302.362347
360.059379,370.102971,-8882.471304,1072.533697
360.059707,-148.041188,-9474.636058,1302.362347
360.060035,-222.061783,-10214.842000,1532.190996
360.060362,-1406.391290,-10510.924376,919.314598
360.060690,-1850.514855,-10362.883188,612.876398
360.061018,-1850.514855,-10214.842000,0.000000
360.061345,-1332.370696,-9770.718434,0.000000
360.061673,-370.102971,-8660.409521,-306.438199
360.062001,222.061783,-8216.285956,-153.219100
360.062328,666.185348,-7920.203579,0.000000
360.062656,1110.308913,-7846.182985,76.609550
360.062983,1110.308913,-7772.162391,153.219100
360.063311,592.164754,-8142.265362,306.438199
360.063639,-148.041188,-9400.615463,536.266849
360.063966,-1332.370696,-9992.780217,76.609550
360.064294,-1998.556043,-10362.883188,-229.828649
360.064622,-1924.535449,-10584.944971,-306.438199
360.064949,-1554.432478,-10214.842000,0.000000
360.065277,0.000000,-9918.759623,-612.876398
360.065605,740.205942,-9030.512492,-229.828649
360.065932,1924.535449,-8438.347739,0.000000
360.066260,2590.720797,-8290.306550,306.438199
360.066587,2738.761985,-8142.265362,306.438199
360.066915,2368.659014,-8142.265362,459.657299
360.067243,2220.617826,-9104.533087,1072.533697
360.067570,1110.308913,-9548.656652,995.924147
360.067898,0.000000,-10214.842000,1072.533697
360.068226,-1110.308913,-10510.924376,1225.752797
360.068553,-1258.350101,-10584.944971,766.095498
360.068881,-1628.453072,-9992.780217,612.876398
360.069209,-1332.370696,-9844.739029,459.657299
360.069536,-962.267725,-9178.553681,76.609550
360.069864,-444.123565,-8734.430116,229.828649
360.070191,0.000000,-8142.265362,229.828649
360.070519,-296.082377,-7476.080014,306.438199
360.070847,0.000000,-7254.018232,842.705048
360.071174,74.020594,-8068.244768,919.314598
360.071502,-962.267725,-8512.368333,995.924147
360.071830,-2146.597232,-9326.594869,842.705048
360.072157,-3256.906145,-9696.697840,766.095498
360.072485,-2960.823768,-9918.759623,383.047749
360.072813,-2960.823768,-10066.800811,306.438199
360.073140,-1702.473667,-9548.656652,689.485948
360.073468,-962.267725,-9400.615463,689.485948
360.073795,0.000000,-8512.368333,1149.143247
360.074123,962.267725,-7994.224174,1072.533697
360.074451,1406.391290,-7772.162391,1225.752797
360.074778,1406.391290,-7846.182985,1302.362347
360.075106,1702.473667,-8216.285956,1455.581446
360.075434,888.247130,-8882.471304,1455.581446
360.075761,370.102971,-9400.615463,1072.533697
360.076089,-444.123565,-9844.739029,1455.581446
360.076417,-1036.288319,-10066.800811,842.705048
360.076744,-1258.350101,-10288.862594,612.876398
360.077072,-962.267725,-9992.780217,842.705048
360.077399,-296.082377,-9400.615463,229.828649
360.077727,-148.041188,-8808.450710,383.047749
360.078055,222.061783,-8512.368333,306.438199
360.078382,666.185348,-8364.327145,612.876398
360.078710,740.205942,-7994.224174,459.657299
360.079038,444.123565,-8290.306550,766.095498
360.079365,666.185348,-8660.409521,689.485948
360.079693,-592.164754,-9252.574275,995.924147
360.080020,-1776.494261,-9918.759623,0.000000
360.080348,-2368.659014,-10214.842000,-153.219100
360.080676,-2368.659014,-9548.656652,153.219100
360.081003,-1332.370696,-9548.656652,-459.657299
360.081331,-740.205942,-9104.533087,-229.828649
360.081659,518.144159,-8808.450710,0.000000
360.081986,1258.350101,-8438.347739,383.047749
360.082314,1776.494261,-8290.306550,153.219100
360.082642,1998.556043,-8068.244768,1302.362347
360.082969,1776.494261,-8586.388927,919.314598
360.083297,1110.308913,-9104.533087,995.924147
360.083624,222.061783,-9696.697840,1072.533697
360.083952,0.000000,-10436.903782,1608.800546
360.084280,-1184.329507,-10510.924376,1378.971896
360.084607,-1850.514855,-10362.883188,459.657299
360.084935,-1702.473667,-10066.800811,229.828649
360.085263,-1110.308913,-9474.636058,229.828649
360.085590,-814.226536,-9104.533087,0.000000
360.085918,-222.061783,-8512.368333,-306.438199
360.086246,74.020594,-7772.162391,0.000000
360.086573,370.102971,-7624.121203,153.219100
360.086901,444.123565,-7624.121203,383.047749
360.087228,296.082377,-8068.244768,689.485948
360.087556,-666.185348,-8290.306550,1072.533697
360.087884,-1628.453072,-9326.594869,842.705048
360.088211,-2442.679609,-9844.739029,689.485948
360.088539,-2590.720797,-10140.821405,383.047749
360.088867,-1998.556043,-9770.718434,306.438199
360.089194,-1184.329507,-9030.512492,76.609550
360.089522,74.020594,-9104.533087,383.047749
360.089850,962.267725,-8586.388927,919.314598
360.090177,1332.370696,-7920.203579,766.095498
360.090505,1480.411884,-7698.141797,1225.752797
360.090832,1332.370696,-7846.182985,689.485948
360.091160,1554.432478,-8290.306550,995.924147
360.091488,814.226536,-9030.512492,1225.752797
360.091815,0.000000,-9622.677246,1455.581446
360.092143,-1258.350101,-10140.821405,1302.362347
360.092471,-1702.473667,-10436.903782,1072.533697
360.092798,-1628.453072,-10140.821405,1072.533697
360.093126,-1554.432478,-9992.780217,383.047749
360.093454,-1480.411884,-9474.636058,229.828649
360.093781,-814.226536,-8956.491898,153.219100
360.094109,-444.123565,-8216.285956,306.438199
360.094436,518.144159,-7328.038826,536.266849
360.094764,592.164754,-7254.018232,842.705048
360.095092,814.226536,-7772.162391,1072.533697
360.095419,222.061783,-8438.347739,995.924147
360.095747,-1110.308913,-9474.636058,1072.533697
360.096075,-2146.597232,-9770.718434,766.095498
360.096402,-2368.659014,-10066.800811,76.609550
360.096730,-2220.617826,-10066.800811,0.000000
360.097058,-1924.535449,-9992.780217,0.000000
360.097385,-444.123565,-9400.615463,153.219100
360.097713,444.123565,-8586.388927,689.485948
360.098040,1554.432478,-7698.141797,306.438199
360.098368,1702.473667,-8290.306550,536.266849
360.098696,1776.494261,-8438.347739,612.876398
360.099023,1702.473667,-8290.306550,919.314598
360.099351,1406.391290,-9178.553681,919.314598
360.099679,518.144159,-9548.656652,995.924147
360.100006,-666.185348,-10066.800811,1149.143247
360.100334,-962.267725,-10807.006753,1149.143247
360.100661,-1776.494261,-10066.800811,536.266849
360.100989,-1036.288319,-10140.821405,229.828649
360.101317,-1258.350101,-9326.594869,0.000000
360.101644,-592.164754,-8734.430116,-306.438199
360.101972,-296.082377,-8290.306550,-153.219100
360.102300,222.061783,-7994.224174,-306.438199
360.102627,814.226536,-7476.080014,0.000000
360.102955,518.144159,-7328.038826,0.000000
360.103283,370.102971,-7846.182985,383.047749
360.103610,0.000000,-9178.553681,306.438199
360.103938,-1480.411884,-9548.656652,153.219100
360.104265,-1850.514855,-10288.862594,0.000000
360.104593,-2368.659014,-10288.862594,-306.438199
360.104921,-2368.659014,-9918.759623,153.219100
360.105248,-888.247130,-9992.780217,-229.828649
360.105576,0.000000,-9474.636058,0.000000
360.105904,444.123565,-9030.512492,153.219100
360.106231,1406.391290,-8364.327145,229.828649
360.106559,1332.370696,-8068.244768,842.705048
360.106887,1998.556043,-8438.347739,919.314598
360.107214,1480.411884,-8438.347739,919.314598
360.107542,814.226536,-8956.491898,995.924147
360.107869,0.000000,-9992.780217,1225.752797
360.108197,-1036.288319,-9770.718434,1302.362347
360.108525,-1702.473667,-10510.924376,536.266849
360.108852,-1258.350101,-10510.924376,459.657299
360.109180,-1110.308913,-9770.718434,306.438199
360.109508,-888.247130,-9178.553681,383.047749
360.109835,-296.082377,-8956.491898,536.266849
360.110163,148.041188,-8068.244768,766.095498
360.110491,518.144159,-7550.100608,612.876398
360.110818,888.247130,-7698.141797,689.485948
360.111146,518.144159,-8364.327145,1149.143247
360.111473,-296.082377,-8956.491898,689.485948
360.111801,-1258.350101,-9474.636058,842.705048
360.112129,-2220.617826,-9992.780217,383.047749
360.112456,-2590.720797,-10658.965565,306.438199
360.112784,-3182.885551,-10362.883188,76.609550
360.113112,-2146.597232,-10066.800811,76.609550
360.113439,-592.164754,-9474.636058,-689.485948
360.113767,148.041188,-8438.347739,229.828649
360.114095,1332.370696,-8438.347739,612.876398
360.114422,1406.391290,-8512.368333,459.657299
360.114750,1998.556043,-8290.306550,995.924147
360.115077,1332.370696,-7846.182985,919.314598
360.115405,1332.370696,-9326.594869,995.924147
360.115733,222.061783,-10288.862594,1532.190996
360.116060,-814.226536,-10066.800811,1225.752797
360.116388,-1184.329507,-11325.150913,1225.752797
360.116715,-1184.329507,-10066.800811,919.314598
360.117043,-1258.350101,-10288.862594,229.828649
360.117370,-592.164754,-9918.759623,0.000000
360.117698,-740.205942,-9326.594869,0.000000
360.118025,518.144159,-8438.347739,229.828649
360.118353,592.164754,-7772.162391,0.000000
360.118680,1406.391290,-8142.265362,306.438199
360.119008,1110.308913,-7994.224174,766.095498
360.119335,74.020594,-8438.347739,766.095498
360.119663,-740.205942,-9474.636058,842.705048
360.119990,-1628.453072,-10436.903782,383.047749
360.120318,-2220.617826,-10140.821405,459.657299
360.120645,-2516.700203,-10362.883188,536.266849
360.120973,-1924.535449,-9918.759623,383.047749
360.121300,-518.144159,-9474.636058,766.095498
360.121628,0.000000,-8586.388927,536.266849
360.121955,888.247130,-8808.450710,612.876398
360.122283,814.226536,-8068.244768,459.657299
360.122610,1480.411884,-8142.265362,919.314598
360.122938,1184.329507,-7994.224174,995.924147
360.123265,740.205942,-8808.450710,1225.752797
360.123593,222.061783,-9104.533087,1455.581446
360.123920,-296.082377,-9844.739029,1302.362347
360.124248,-1036.288319,-9844.739029,1072.533697
360.124575,-1702.473667,-10066.800811,612.876398
360.124903,-1628.453072,-10214.842000,919.314598
360.125230,-962.267725,-9622.677246,536.266849
360.125558,-888.247130,-8438.347739,919.314598
360.125885,222.061783,-8364.327145,766.095498
360.126213,222.061783,-8438.347739,689.485948
360.126540,814.226536,-8068.244768,1149.143247
360.126868,888.247130,-7624.121203,919.314598
360.127195,740.205942,-7994.224174,1149.143247
360.127523,0.000000,-8142.265362,1378.971896
360.127850,-1332.370696,-9178.553681,919.314598
360.128178,-2368.659014,-9770.718434,612.876398
360.128505,-2368.659014,-9548.656652,153.219100
360.128833,-1998.556043,-9326.594869,76.609550
360.129160,-888.247130,-8882.471304,-536.266849
360.129488,-222.061783,-8512.368333,76.609550
360.129815,592.164754,-8216.285956,153.219100
360.130143,1184.329507,-7846.182985,229.828649
360.130470,1554.432478,-7698.141797,842.705048
360.130798,1480.411884,-7846.182985,1149.143247
360.131125,1332.370696,-8512.368333,842.705048
360.131453,518.144159,-9326.594869,766.095498
360.131780,-148.041188,-9622.677246,1149.143247
360.132108,-1036.288319,-10362.883188,995.924147
360.132435,-1628.453072,-10288.862594,766.095498
360.132763,-1480.411884,-9992.780217,0.000000
360.133090,-1332.370696,-9622.677246,0.000000
360.133418,-296.082377,-9400.615463,153.219100
360.133745,0.000000,-8586.388927,-153.219100
360.134073,444.123565,-7920.203579,-306.438199
360.134401,888.247130,-7550.100608,-306.438199
360.134728,962.267725,-7698.141797,153.219100
360.135056,666.185348,-8364.327145,306.438199
360.135383,148.041188,-8808.450710,536.266849
360.135711,-666.185348,-9326.594869,383.047749
360.136038,-1998.556043,-9918.759623,536.266849
360.136366,-2368.659014,-10214.842000,153.219100
360.136693,-2442.679609,-9992.780217,0.000000
360.137021,-1554.432478,-9548.656652,0.000000
360.137348,-518.144159,-9696.697840,306.438199
360.137676,370.102971,-8512.368333,0.000000
360.138003,1036.288319,-8142.265362,229.828649
360.138331,1554.432478,-7994.224174,383.047749
360.138658,1628.453072,-7772.162391,689.485948
360.138986,1702.473667,-8290.306550,919.314598
360.139313,1036.288319,-8660.409521,1532.190996
360.139641,296.082377,-9696.697840,1149.143247
360.139968,-888.247130,-10362.883188,919.314598
360.140296,-1480.411884,-10732.986159,919.314598
360.140623,-1850.514855,-10732.986159,1072.533697
360.140951,-1332.370696,-10066.800811,1072.533697
360.141278,-592.164754,-9400.615463,919.314598
360.141606,-370.102971,-8956.491898,689.485948
360.141933,0.000000,-8438.347739,612.876398
360.142261,222.061783,-7920.203579,536.266849
360.142588,666.185348,-7772.162391,842.705048
360.142916,592.164754,-7698.141797,1072.533697
360.143243,0.000000,-8290.306550,1225.752797
360.143571,-666.185348,-8882.471304,1072.533697
360.143898,-1776.494261,-9474.636058,689.485948
360.144226,-2368.659014,-10140.821405,612.876398
360.144553,-3256.906145,-10140.821405,383.047749
360.144881,-2442.679609,-9622.677246,-153.219100
360.145208,-1628.453072,-9548.656652,0.000000
360.145536,-444.123565,-9030.512492,76.609550
360.145863,444.123565,-8290.306550,0.000000
360.146191,1110.308913,-7402.059420,766.095498
360.146518,1998.556043,-7994.224174,689.485948
360.146846,1776.494261,-8068.244768,919.314598
360.147173,1258.350101,-8734.430116,1302.362347
360.147501,444.123565,-9474.636058,1225.752797
360.147828,-370.102971,-10510.924376,1072.533697
360.148156,-1332.370696,-10584.944971,1302.362347
360.148483,-1628.453072,-10584.944971,536.266849
360.148811,-1480.411884,-10584.944971,383.047749
360.149138,-814.226536,-9770.718434,306.438199
360.149466,-444.123565,-9252.574275,536.266849
360.149793,0.000000,-8734.430116,153.219100
360.150121,666.185348,-8068.244768,0.000000
360.150448,666.185348,-7698.141797,76.609550
360.150776,1036.288319,-7698.141797,229.828649
360.151103,666.185348,-8216.285956,612.876398
360.151431,222.061783,-8512.368333,459.657299
360.151758,-814.226536,-9326.594869,766.095498
360.152086,-1998.556043,-9992.780217,0.000000
360.152413,-2368.659014,-10288.862594,229.828649
360.152741,-2516.700203,-10140.821405,0.000000
360.153068,-1924.535449,-9104.533087,-306.438199
360.153396,-740.205942,-8660.409521,0.000000
360.153723,148.041188,-8660.409521,0.000000
360.154051,814.226536,-8068.244768,153.219100
360.154378,1554.432478,-7772.162391,459.657299
360.154706,1998.556043,-7920.203579,919.314598
360.155033,1924.535449,-8290.306550,842.705048
360.155361,888.247130,-8882.471304,1072.533697
360.155688,74.020594,-9474.636058,1149.143247
360.156016,-666.185348,-9992.780217,1149.143247
360.156343,-1628.453072,-10288.862594,1149.143247
360.156671,-1110.308913,-10288.862594,1225.752797
360.156998,-962.267725,-9918.759623,842.705048
360.157326,-592.164754,-9252.574275,919.314598
360.157653,0.000000,-8882.471304,612.876398
360.157981,0.000000,-8290.306550,383.047749
360.158308,592.164754,-7994.224174,995.924147
360.158636,370.102971,-7550.100608,689.485948
360.158963,444.123565,-7772.162391,1072.533697
360.159291,0.000000,-8068.244768,1225.752797
360.159618,-740.205942,-9030.512492,1072.533697
360.159946,-1702.473667,-9400.615463,766.095498
360.160273,-3034.844362,-9844.739029,383.047749
360.160601,-3108.864956,-9992.780217,0.000000
360.160928,-2442.679609,-9770.718434,-153.219100
360.161256,-1628.453072,-9178.553681,0.000000
360.161583,-444.123565,-8660.409521,0.000000
360.161911,444.123565,-7920.203579,536.266849
360.162238,1184.329507,-7772.162391,536.266849
360.162566,1776.494261,-7846.182985,842.705048
360.162893,1554.432478,-8216.285956,995.924147
360.163221,1184.329507,-8808.450710,1225.752797
360.163548,444.123565,-9326.594869,1225.752797
360.163876,-370.102971,-10288.862594,995.924147
360.164203,-1036.288319,-11029.068536,919.314598
360.164531,-1332.370696,-10436.903782,919.314598
360.164858,-1110.308913,-10214.842000,459.657299
360.165186,-740.205942,-9548.656652,306.438199
360.165513,74.020594,-9326.594869,383.047749
360.165841,296.082377,-9104.533087,76.609550
360.166168,370.102971,-8364.327145,0.000000
360.166496,592.164754,-7994.224174,153.219100
360.166823,962.267725,-8290.306550,306.438199
360.167151,370.102971,-8586.388927,536.266849
360.167478,0.000000,-9178.553681,766.095498
360.167806,-962.267725,-9622.677246,612.876398
360.168133,-2294.638420,-9844.739029,153.219100
360.168461,-2442.679609,-10436.903782,-306.438199
360.168788,-2368.659014,-10140.821405,-842.705048
360.169116,-1924.535449,-9770.718434,0.000000
360.169443,-666.185348,-9326.594869,0.000000
360.169771,222.061783,-8660.409521,0.000000
360.170098,1406.391290,-8068.244768,306.438199
360.170426,1628.453072,-7550.100608,612.876398
360.170753,1924.535449,-7846.182985,612.876398
360.171081,1628.453072,-8438.347739,766.095498
360.171408,1036.288319,-8956.491898,919.314598
360.171736,0.000000,-9622.677246,842.705048
360.172063,-962.267725,-9992.780217,1455.581446
360.172391,-1332.370696,-10362.883188,919.314598
360.172718,-1110.308913,-10584.944971,536.266849
360.173046,-962.267725,-9992.780217,612.876398
360.173373,-370.102971,-9326.594869,612.876398
360.173701,-222.061783,-9030.512492,459.657299
360.174028,148.041188,-7698.141797,306.438199
360.174356,444.123565,-7920.203579,536.266849
360.174683,518.144159,-7846.182985,842.705048
360.175011,888.247130,-8068.244768,842.705048
360.175338,518.144159,-8290.306550,1149.143247
360.175666,-518.144159,-8882.471304,1225.752797
360.175993,-1776.494261,-9622.677246,766.095498
360.176321,-2516.700203,-9992.780217,536.266849
360.176648,-2738.761985,-9992.780217,76.609550
360.176976,-1924.535449,-9770.718434,153.219100
360.177303,-1110.308913,-8956.491898,229.828649
360.177631,-148.041188,-8586.388927,383.047749
360.177958,814.226536,-8142.265362,536.266849
360.178286,1332.370696,-7846.182985,842.705048
360.178613,1702.473667,-7698.141797,1149.143247
360.178941,1628.453072,-8216.285956,995.924147
360.179268,518.144159,-8660.409521,1302.362347
360.179596,0.000000,-9326.594869,1455.581446
360.179923,-592.164754,-10362.883188,1532.190996
360.180251,-1480.411884,-10436.903782,1302.362347
360.180578,-1332.370696,-10288.862594,919.314598
360.180906,-1110.308913,-10362.883188,306.438199
360.181233,-888.247130,-9844.739029,306.438199
360.181561,-296.082377,-9326.594869,612.876398
360.181888,-148.041188,-8586.388927,0.000000
360.182216,296.082377,-8216.285956,0.000000
360.182543,592.164754,-8290.306550,229.828649
360.182871,666.185348,-7920.203579,229.828649
360.183198,148.041188,-8290.306550,459.657299
360.183526,-296.082377,-8882.471304,536.266849
360.183853,-1406.391290,-9770.718434,383.047749
360.184181,-1998.556043,-10214.842000,76.609550
360.184508,-2442.679609,-10362.883188,-153.219100
360.184836,-2442.679609,-9622.677246,-383.047749
360.185163,-1480.411884,-9622.677246,-766.095498
360.185491,-1036.288319,-8956.491898,-459.657299
360.185818,592.164754,-8216.285956,-383.047749
360.186146,814.226536,-7698.141797,0.000000
360.186473,1776.494261,-7846.182985,0.000000
360.186801,2220.617826,-8068.244768,76.609550
360.187128,2072.576638,-8438.347739,459.657299
360.187456,1406.391290,-9622.677246,76.609550
360.187783,74.020594,-9326.594869,536.266849
360.188111,-444.123565,-10362.883188,459.657299
360.188438,-962.267725,-10807.006753,306.438199
360.188766,-1036.288319,-10140.821405,153.219100
360.189093,-518.144159,-9770.718434,229.828649
360.189421,222.061783,-9030.512492,229.828649
360.189749,666.185348,-8956.491898,0.000000
360.190076,1036.288319,-8808.450710,306.438199
360.190404,740.205942,-7476.080014,383.047749
360.190731,814.226536,-7920.203579,459.657299
360.191059,296.082377,-7698.141797,612.876398
360.191386,518.144159,-8438.347739,1302.362347
360.191714,-592.164754,-9696.697840,919.314598
360.192041,-1850.514855,-9622.677246,995.924147
360.192369,-2886.803174,-9548.656652,689.485948
360.192696,-2368.659014,-9770.718434,153.219100
360.193024,-2146.597232,-9474.636058,0.000000
360.193351,-814.226536,-9326.594869,306.438199
360.193679,-222.061783,-8660.409521,76.609550
360.194006,1258.350101,-8290.306550,1149.143247
360.194334,1184.329507,-7254.018232,919.314598
360.194661,1998.556043,-8438.347739,1685.410096
360.194989,1554.432478,-8290.306550,1915.238745
360.195316,0.000000,-9030.512492,1915.238745
360.195644,0.000000,-10066.800811,1915.238745
360.195971,-1554.432478,-10288.862594,1685.410096
360.196299,-1998.556043,-10362.883188,1455.581446
360.196626,-1850.514855,-11177.109724,1302.362347
360.196954,-1258.350101,-9548.656652,919.314598
360.197281,-1332.370696,-9770.718434,459.657299
360.197609,518.144159,-9622.677246,1072.533697
360.197936,0.000000,-7254.018232,459.657299
360.198264,148.041188,-8216.285956,689.485948
360.198591,148.041188,-8438.347739,306.438199
360.198919,296.082377,-8216.285956,1149.143247
360.199246,0.000000,-8956.491898,919.314598
360.199574,-888.247130,-8438.347739,1608.800546
360.199901,-1332.370696,-9770.718434,842.705048
360.200229,-2294.638420,-10140.821405,612.876398
360.200556,-2590.720797,-10140.821405,76.609550
360.200884,-2368.659014,-10140.821405,-383.047749
360.201211,-962.267725,-9400.615463,0.000000
360.201539,148.041188,-9030.512492,0.000000
360.201866,888.247130,-8438.347739,76.609550
360.202194,1554.432478,-7920.203579,76.609550
360.202521,1924.535449,-7846.182985,459.657299
360.202849,2146.597232,-8290.306550,229.828649
360.203176,1554.432478,-8290.306550,1378.971896
360.203504,888.247130,-9474.636058,612.876398
360.203831,0.000000,-9992.780217,612.876398
360.204159,-518.144159,-10584.944971,689.485948
360.204486,-888.247130,-10510.924376,383.047749
360.204814,-148.041188,-10436.903782,383.047749
360.205141,0.000000,-9474.636058,306.438199
360.205469,222.061783,-9178.553681,306.438199
360.205796,740.205942,-8512.368333,383.047749
360.206124,740.205942,-8216.285956,306.438199
360.206451,1036.288319,-7846.182985,306.438199
360.206779,1554.432478,-7550.100608,842.705048
360.207106,444.123565,-7846.182985,536.266849
360.207434,0.000000,-8660.409521,995.924147
360.207761,-1110.308913,-9400.615463,766.095498
360.208089,-2294.638420,-9474.636058,842.705048
360.208416,-2738.761985,-9844.739029,76.609550
360.208744,-2664.741391,-9844.739029,-229.828649
360.209071,-2072.576638,-9474.636058,-306.438199
360.209399,-1184.329507,-8956.491898,-229.828649
360.209726,0.000000,-8364.327145,76.609550
360.210054,1036.288319,-7179.997637,689.485948
360.210381,1776.494261,-7624.121203,689.485948
360.210709,1850.514855,-7846.182985,1072.533697
360.211036,1480.411884,-8364.327145,1302.362347
360.211364,592.164754,-9030.512492,1532.190996
360.211691,-296.082377,-9992.780217,1608.800546
360.212019,-1184.329507,-10140.821405,1225.752797
360.212346,-1850.514855,-10436.903782,842.705048
360.212674,-1628.453072,-10140.821405,689.485948
360.213001,-1110.308913,-9770.718434,612.876398
360.213329,-740.205942,-9474.636058,536.266849
360.213656,0.000000,-8808.450710,153.219100
360.213984,74.020594,-8364.327145,383.047749
360.214311,74.020594,-8142.265362,383.047749
360.214639,296.082377,-7920.203579,229.828649
360.214966,592.164754,-8068.244768,995.924147
360.215294,222.061783,-8660.409521,1149.143247
360.215621,-740.205942,-9178.553681,995.924147
360.215949,-1850.514855,-9844.739029,689.485948
360.216276,-2368.659014,-10288.862594,383.047749
360.216604,-2590.720797,-10214.842000,0.000000
360.216931,-2146.597232,-9622.677246,-536.266849
360.217259,-1628.453072,-9696.697840,-536.266849
360.217586,-296.082377,-9030.512492,-383.047749
360.217914,666.185348,-8364.327145,-306.438199
360.218241,1554.432478,-7846.182985,0.000000
360.218569,2146.597232,-7624.121203,842.705048
360.218897,2220.617826,-8364.327145,842.705048
360.219224,1702.473667,-8808.450710,995.924147
360.219552,740.205942,-9474.636058,842.705048
360.219879,0.000000,-10140.821405,995.924147
360.220207,-1110.308913,-10362.883188,919.314598
360.220534,-666.185348,-10584.944971,536.266849
360.220862,-666.185348,-10214.842000,536.266849
360.221190,-518.144159,-9770.718434,229.828649
360.221517,-148.041188,-9400.615463,459.657299
360.221845,74.020594,-8660.409521,306.438199
360.222172,444.123565,-7846.182985,229.828649
360.222500,962.267725,-7698.141797,306.438199
360.222827,814.226536,-7846.182985,459.657299
360.223155,518.144159,-8290.306550,689.485948
360.223483,0.000000,-8512.368333,995.924147
360.223810,-962.267725,-8734.430116,995.924147
360.224138,-2146.597232,-9622.677246,766.095498
360.224465,-2664.741391,-9918.759623,153.219100
360.224793,-2664.741391,-9770.718434,76.609550
360.225120,-1924.535449,-9400.615463,0.000000
360.225448,-518.144159,-8364.327145,612.876398
360.225776,592.164754,-8142.265362,995.924147
360.226103,1480.411884,-7920.203579,1149.143247
360.226431,1480.411884,-7698.141797,1225.752797
360.226758,1554.432478,-7994.224174,1149.143247
360.227086,1258.350101,-8290.306550,1915.238745
360.227413,296.082377,-9178.553681,1685.410096
360.227741,-518.144159,-9696.697840,1378.971896
360.228069,-1258.350101,-10140.821405,1149.143247
360.228396,-1776.494261,-10288.862594,919.314598
360.228724,-1850.514855,-10214.842000,919.314598
360.229051,-1332.370696,-9770.718434,766.095498
360.229379,-666.185348,-9474.636058,383.047749
360.229706,-666.185348,-9178.553681,229.828649
360.230034,0.000000,-8660.409521,306.438199
360.230362,0.000000,-8216.285956,306.438199
360.230689,518.144159,-7846.182985,459.657299
360.231017,222.061783,-8142.265362,842.705048
360.231344,0.000000,-8586.388927,689.485948
360.231672,-1110.308913,-9104.533087,842.705048
360.231999,-1776.494261,-9770.718434,459.657299
360.232327,-2516.700203,-9992.780217,0.000000
360.232655,-2368.659014,-10436.903782,0.000000
360.232982,-1924.535449,-10066.800811,-536.266849
360.233310,-1110.308913,-9548.656652,-612.876398
360.233637,0.000000,-8808.450710,-536.266849
360.233965,1258.350101,-8660.409521,0.000000
360.234292,1924.535449,-7624.121203,306.438199
360.234620,2368.659014,-8068.244768,229.828649
360.234948,2368.659014,-8290.306550,612.876398
360.235275,1850.514855,-9178.553681,536.266849
360.235603,814.226536,-9770.718434,689.485948
360.235930,0.000000,-10658.965565,995.924147
360.236258,-444.123565,-11029.068536,383.047749
360.236585,-814.226536,-10658.965565,306.438199
360.236913,-814.226536,-10362.883188,229.828649
360.237241,74.020594,-10066.800811,229.828649
360.237568,222.061783,-9030.512492,383.047749
360.237896,740.205942,-8808.450710,76.609550
360.238223,814.226536,-8290.306550,0.000000
360.238551,1036.288319,-7772.162391,459.657299
360.238878,1184.329507,-8216.285956,383.047749
360.239206,814.226536,-8216.285956,919.314598
360.239534,-296.082377,-8586.388927,919.314598
360.239861,-1332.370696,-9474.636058,842.705048
360.240189,-2516.700203,-9992.780217,689.485948
360.240516,-3182.885551,-10288.862594,229.828649
360.240844,-2738.761985,-9844.739029,306.438199
360.241172,-1628.453072,-9252.574275,76.609550
360.241499,-592.164754,-8364.327145,995.924147
360.241827,296.082377,-7846.182985,842.705048
360.242154,740.205942,-7846.182985,1149.143247
360.242482,1628.453072,-7846.182985,1608.800546
360.242809,1480.411884,-7550.100608,1991.848295
360.243137,1184.329507,-8068.244768,1762.019645
360.243465,148.041188,-9030.512492,2068.457845
360.243792,-814.226536,-9770.718434,1915.238745
360.244120,-1554.432478,-10140.821405,1608.800546
360.244447,-2220.617826,-9622.677246,1991.848295
360.244775,-1628.453072,-9992.780217,1149.143247
360.245102,-1480.411884,-9622.677246,1149.143247
360.245430,-740.205942,-9178.553681,612.876398
360.245758,-888.247130,-8438.347739,536.266849
360.246085,0.000000,-7624.121203,229.828649
360.246413,0.000000,-7624.121203,689.485948
360.246740,0.000000,-7476.080014,1225.752797
360.247068,148.041188,-7846.182985,766.095498
360.247395,-518.144159,-8364.327145,1072.533697
360.247723,-1406.391290,-9474.636058,1072.533697
360.248051,-2590.720797,-10066.800811,536.266849
360.248378,-2516.700203,-10362.883188,0.000000
360.248706,-2590.720797,-10436.903782,-383.047749
360.249033,-2072.576638,-9992.780217,-919.314598
360.249361,-962.267725,-9622.677246,-536.266849
360.249688,0.000000,-8734.430116,-383.047749
360.250016,1406.391290,-8216.285956,-383.047749
360.250344,2072.576638,-7994.224174,-229.828649
360.250671,2442.679609,-8216.285956,0.000000
360.250999,2368.659014,-8586.388927,229.828649
360.251326,1850.514855,-8956.491898,536.266849
360.251654,1332.370696,-9770.718434,0.000000
360.251981,74.020594,-10658.965565,229.828649
360.252309,-518.144159,-10807.006753,229.828649
360.252637,-888.247130,-10732.986159,0.000000
360.252964,-296.082377,-10584.944971,0.000000
360.253292,296.082377,-9770.718434,-153.219100
360.253619,370.102971,-9178.553681,0.000000
360.253947,666.185348,-8734.430116,76.609550
360.254274,1036.288319,-8290.306550,0.000000
360.254602,1184.329507,-7994.224174,229.828649
360.254930,1258.350101,-7994.224174,612.876398
360.255257,518.144159,-8142.265362,1072.533697
360.255585,-666.185348,-8956.491898,842.705048
360.255912,-1702.473667,-9474.636058,842.705048
360.256240,-2738.761985,-10214.842000,459.657299
360.256567,-3108.864956,-9770.718434,1072.533697
360.256895,-2368.659014,-9992.780217,0.000000
360.257223,-1480.411884,-9400.615463,459.657299
360.257550,-518.144159,-8586.388927,612.876398
360.257878,370.102971,-8068.244768,919.314598
360.258205,666.185348,-7402.059420,995.924147
360.258533,1406.391290,-7772.162391,1762.019645
360.258860,1110.308913,-7920.203579,1225.752797
360.259188,592.164754,-8364.327145,1685.410096
360.259516,0.000000,-9252.574275,1532.190996
360.259843,-740.205942,-9474.636058,1915.238745
360.260171,-1702.473667,-10288.862594,1455.581446
360.260498,-2146.597232,-10362.883188,1302.362347
360.260826,-1924.535449,-10140.821405,842.705048
360.261153,-1628.453072,-9770.718434,1072.533697
360.261481,-1110.308913,-9104.533087,229.828649
360.261809,-444.123565,-9104.533087,766.095498
360.262136,0.000000,-7624.121203,536.266849
360.262464,444.123565,-7994.224174,612.876398
360.262791,296.082377,-7994.224174,612.876398
360.263119,444.123565,-8290.306550,689.485948
360.263446,-148.041188,-8808.450710,536.266849
360.263774,-962.267725,-9178.553681,459.657299
360.264102,-2368.659014,-9992.780217,383.047749
360.264429,-2294.638420,-10436.903782,76.609550
360.264757,-1924.535449,-10140.821405,0.000000
360.265084,-1332.370696,-9104.533087,0.000000
360.265412,-148.041188,-9326.594869,229.828649
360.265739,814.226536,-8734.430116,76.609550
360.266067,1110.308913,-8586.388927,76.609550
360.266395,1702.473667,-8068.244768,459.657299
360.266722,2294.638420,-7920.203579,919.314598
360.267050,1998.556043,-8660.409521,536.266849
360.267377,1110.308913,-9104.533087,919.314598
360.267705,148.041188,-9696.697840,689.485948
360.268032,-666.185348,-10436.903782,842.705048
360.268360,-1406.391290,-10658.965565,383.047749
360.268688,-1702.473667,-10436.903782,-229.828649
360.269015,-1184.329507,-10362.883188,0.000000
360.269343,-1184.329507,-9770.718434,-153.219100
360.269670,-222.061783,-9326.594869,0.000000
360.269998,370.102971,-8364.327145,0.000000
360.270325,888.247130,-7550.100608,229.828649
360.270653,1184.329507,-7698.141797,306.438199
360.270981,1258.350101,-7698.141797,612.876398
360.271308,666.185348,-8290.306550,689.485948
360.271636,-666.185348,-8956.491898,689.485948
360.271963,-1554.432478,-9844.739029,459.657299
360.272291,-2368.659014,-9844.739029,459.657299
360.272619,-1998.556043,-9918.759623,306.438199
360.272946,-1258.350101,-9770.718434,153.219100
360.273274,-296.082377,-9178.553681,766.095498
360.273601,518.144159,-8882.471304,1072.533697
360.273929,814.226536,-8364.327145,1762.019645
360.274256,1332.370696,-8364.327145,1455.581446
360.274584,1258.350101,-8216.285956,1149.143247
360.274912,888.247130,-8438.347739,1378.971896
360.275239,370.102971,-8660.409521,1762.019645
360.275567,222.061783,-9474.636058,1455.581446
360.275894,-1258.350101,-9474.636058,1685.410096
360.276222,-1998.556043,-9770.718434,1378.971896
360.276549,-2146.597232,-9918.759623,1302.362347
360.276877,-2220.617826,-9844.739029,766.095498
360.277205,-1850.514855,-9104.533087,383.047749
360.277532,-1554.432478,-9326.594869,153.219100
360.277860,-1110.308913,-8364.327145,306.438199
360.278187,-370.102971,-7846.182985,459.657299
360.278515,222.061783,-7476.080014,536.266849
360.278842,296.082377,-7476.080014,919.314598
360.279170,74.020594,-7846.182985,1149.143247
360.279498,-296.082377,-9030.512492,766.095498
360.279825,-1332.370696,-9400.615463,536.266849
360.280153,-2072.576638,-9844.739029,229.828649
360.280480,-2072.576638,-9992.780217,0.000000
360.280808,-1480.411884,-10140.821405,0.000000
360.281135,-518.144159,-9622.677246,229.828649
360.281463,222.061783,-9030.512492,153.219100
360.281791,1036.288319,-8734.430116,383.047749
360.282118,1924.535449,-8290.306550,76.609550
360.282446,2368.659014,-8290.306550,229.828649
360.282773,1998.556043,-8216.285956,536.266849
360.283101,1924.535449,-8734.430116,842.705048
360.283428,1110.308913,-9326.594869,766.095498
360.283756,148.041188,-10066.800811,919.314598
360.284084,-814.226536,-10214.842000,1072.533697
360.284411,-1406.391290,-10288.862594,689.485948
360.284739,-1850.514855,-10362.883188,153.219100
360.285066,-1776.494261,-9918.759623,-229.828649
360.285394,-1332.370696,-9400.615463,-306.438199
360.285721,-740.205942,-8586.388927,-459.657299
360.286049,0.000000,-8364.327145,0.000000
360.286377,592.164754,-7624.121203,76.609550
360.286704,1110.308913,-7772.162391,76.609550
360.287032,888.247130,-7994.224174,536.266849
360.287359,222.061783,-8660.409521,536.266849
360.287687,-518.144159,-9252.574275,229.828649
360.288014,-1776.494261,-9992.780217,459.657299
360.288342,-2590.720797,-10436.903782,229.828649
360.288670,-2146.597232,-10066.800811,383.047749
360.288997,-1110.308913,-10066.800811,459.657299
360.289325,222.061783,-9474.636058,536.266849
360.289652,740.205942,-9030.512492,1149.143247
360.289980,1554.432478,-8808.450710,995.924147
360.290307,1554.432478,-8364.327145,1149.143247
360.290635,1776.494261,-8142.265362,1302.362347
360.290963,1554.432478,-8216.285956,1532.190996
360.291290,1258.350101,-8660.409521,1838.629195
360.291618,0.000000,-9400.615463,1608.800546
360.291945,-962.267725,-9918.759623,1838.629195
360.292273,-1628.453072,-10066.800811,1455.581446
360.292600,-1998.556043,-10066.800811,1225.752797
360.292928,-2368.659014,-9696.697840,1225.752797
360.293256,-1850.514855,-9696.697840,536.266849
360.293583,-1554.432478,-8956.491898,536.266849
360.293911,-962.267725,-8438.347739,383.047749
360.294238,-296.082377,-7994.224174,536.266849
360.294566,0.000000,-7402.059420,1302.362347
360.294893,370.102971,-7698.141797,842.705048
360.295221,0.000000,-7994.224174,995.924147
360.295549,-814.226536,-8956.491898,1149.143247
360.295876,-1776.494261,-9474.636058,919.314598
360.296204,-2738.761985,-9992.780217,612.876398
360.296531,-2368.659014,-10140.821405,306.438199
360.296859,-1924.535449,-10140.821405,0.000000
360.297186,-1036.288319,-9844.739029,0.000000
360.297514,0.000000,-9252.574275,0.000000
360.297842,1036.288319,-9030.512492,-229.828649
360.298169,1850.514855,-8512.368333,0.000000
360.298497,1850.514855,-8290.306550,0.000000
360.298824,2146.597232,-8290.306550,76.609550
360.299152,1850.514855,-8660.409521,459.657299
360.299479,1406.391290,-9178.553681,919.314598
360.299807,666.185348,-9992.780217,1455.581446
360.300135,-444.123565,-10288.862594,842.705048
360.300462,-1332.370696,-10510.924376,229.828649
360.300790,-1332.370696,-10436.903782,0.000000
360.301117,-1184.329507,-10140.821405,-383.047749
360.301445,-592.164754,-9844.739029,-766.095498
360.301773,0.000000,-8734.430116,-689.485948
360.302100,740.205942,-8068.244768,-306.438199
360.302428,1184.329507,-7550.100608,-229.828649
360.302755,1850.514855,-7624.121203,383.047749
360.303083,1036.288319,-7328.038826,536.266849
360.303410,444.123565,-8586.388927,459.657299
360.303738,-888.247130,-9400.615463,306.438199
360.304066,-1850.514855,-9918.759623,383.047749
360.304393,-2072.576638,-10288.862594,229.828649
360.304721,-1998.556043,-9992.780217,383.047749
360.305048,-444.123565,-9474.636058,995.924147
360.305376,0.000000,-9326.594869,995.924147
360.305703,740.205942,-8734.430116,1225.752797
360.306031,1184.329507,-8438.347739,1225.752797
360.306359,1184.329507,-7920.203579,1149.143247
360.306686,740.205942,-8142.265362,1762.019645
360.307014,888.247130,-8438.347739,1455.581446
360.307341,518.144159,-8808.450710,1685.410096
360.307669,-296.082377,-9548.656652,1685.410096
360.307996,-1036.288319,-9992.780217,1762.019645
360.308324,-1628.453072,-9622.677246,1378.971896
360.308652,-2146.597232,-9918.759623,995.924147
360.308979,-2072.576638,-9844.739029,842.705048
360.309307,-1776.494261,-9474.636058,766.095498
360.309634,-1332.370696,-8956.491898,459.657299
360.309962,-518.144159,-8142.265362,306.438199
360.310289,0.000000,-7698.141797,459.657299
360.310617,444.123565,-7624.121203,1149.143247
360.310945,370.102971,-7846.182985,1378.971896
360.311272,0.000000,-8290.306550,1378.971896
360.311600,-1332.370696,-9104.533087,689.485948
360.311927,-1850.514855,-9844.739029,919.314598
360.312255,-2516.700203,-10288.862594,383.047749
360.312582,-2368.659014,-10214.842000,0.000000
360.312910,-1554.432478,-9696.697840,153.219100
360.313238,-592.164754,-9474.636058,76.609550
360.313565,666.185348,-9252.574275,459.657299
360.313893,1036.288319,-8586.388927,153.219100
360.314220,1184.329507,-8290.306550,76.609550
360.314548,1628.453072,-8364.327145,76.609550
360.314875,1924.535449,-8438.347739,153.219100
360.315203,1554.432478,-8660.409521,612.876398
360.315531,1110.308913,-9178.553681,536.266849
360.315858,370.102971,-9918.759623,919.314598
360.316186,-444.123565,-10140.821405,612.876398
360.316513,-1480.411884,-10510.924376,229.828649
360.316841,-1332.370696,-9992.780217,76.609550
360.317168,-1110.308913,-9622.677246,-536.266849
360.317496,-1184.329507,-8956.491898,-766.095498
360.317824,0.000000,-8586.388927,-766.095498
360.318151,666.185348,-7772.162391,-153.219100
360.318479,1332.370696,-7698.141797,153.219100
360.318806,1924.535449,-7402.059420,76.609550
360.319134,1110.308913,-7624.121203,229.828649
360.319461,148.041188,-8586.388927,459.657299
360.319789,-1184.329507,-9400.615463,306.438199
360.320116,-2072.576638,-9844.739029,76.609550
360.320444,-2072.576638,-9844.739029,76.609550
360.320771,-1850.514855,-9918.759623,0.000000
360.321099,-740.205942,-9474.636058,459.657299
360.321426,222.061783,-9104.533087,612.876398
360.321754,814.226536,-8512.368333,842.705048
360.322081,1406.391290,-8216.285956,306.438199
360.322409,1406.391290,-7846.182985,842.705048
360.322736,1332.370696,-8068.244768,919.314598
360.323064,814.226536,-8438.347739,1378.971896
360.323391,370.102971,-9030.512492,1608.800546
360.323719,0.000000,-9474.636058,1762.019645
360.324046,-1184.329507,-9548.656652,1225.752797
360.324374,-2072.576638,-10362.883188,1608.800546
360.324701,-2220.617826,-10288.862594,842.705048
360.325028,-2220.617826,-10066.800811,842.705048
360.325356,-1998.556043,-9548.656652,919.314598
360.325683,-1406.391290,-9252.574275,612.876398
360.326011,-370.102971,-8438.347739,459.657299
360.326338,222.061783,-7994.224174,612.876398
360.326666,444.123565,-7920.203579,995.924147
360.326993,296.082377,-8290.306550,1149.143247
360.327321,0.000000,-8586.388927,1072.533697
360.327648,-740.205942,-9400.615463,1072.533697
360.327976,-2072.576638,-9992.780217,536.266849
360.328303,-2442.679609,-10510.924376,229.828649
360.328631,-1998.556043,-10658.965565,229.828649
360.328958,-1480.411884,-9696.697840,153.219100
360.329286,-592.164754,-9696.697840,306.438199
360.329613,296.082377,-9474.636058,229.828649
360.329941,888.247130,-8956.491898,229.828649
360.330268,1406.391290,-8512.368333,153.219100
360.330596,1702.473667,-8142.265362,459.657299
360.330923,1998.556043,-8512.368333,459.657299
360.331251,1480.411884,-9104.533087,766.095498
360.331578,962.267725,-9548.656652,766.095498
360.331905,148.041188,-10214.842000,919.314598
360.332233,-1036.288319,-10362.883188,612.876398
360.332560,-1702.473667,-10436.903782,306.438199
360.332888,-1776.494261,-10288.862594,-229.828649
360.333215,-1554.432478,-9992.780217,-229.828649
360.333543,-814.226536,-9252.574275,-459.657299
360.333870,0.000000,-8512.368333,-383.047749
360.334198,1036.288319,-7698.141797,459.657299
360.334525,1406.391290,-7698.141797,0.000000
360.334853,1702.473667,-7476.080014,153.219100
360.335180,1036.288319,-7994.224174,306.438199
360.335508,0.000000,-8660.409521,306.438199
360.335835,-1406.391290,-9252.574275,229.828649
360.336163,-1850.514855,-10066.800811,383.047749
360.336490,-2146.597232,-9844.739029,153.219100
360.336818,-1554.432478,-9548.656652,153.219100
360.337145,-444.123565,-9474.636058,459.657299
360.337473,518.144159,-8882.471304,0.000000
360.337800,1480.411884,-8364.327145,919.314598
360.338128,1554.432478,-7772.162391,766.095498
360.338455,1850.514855,-7846.182985,1072.533697
360.338782,1332.370696,-7920.203579,1302.362347
360.339110,1110.308913,-8364.327145,1532.190996
360.339437,444.123565,-8660.409521,1225.752797
360.339765,-370.102971,-9474.636058,1608.800546
360.340092,-1554.432478,-9844.739029,1532.190996
360.340420,-1850.514855,-10214.842000,1225.752797
360.340747,-2368.659014,-10066.800811,766.095498
360.341075,-1850.514855,-9770.718434,229.828649
360.341402,-1702.473667,-9030.512492,612.876398
360.341730,-1184.329507,-8586.388927,842.705048
360.342057,-592.164754,-7846.182985,459.657299
360.342385,0.000000,-7476.080014,919.314598
360.342712,-148.041188,-6957.935855,1455.581446
360.343040,-148.041188,-7402.059420,995.924147
360.343367,-518.144159,-8216.285956,842.705048
360.343695,-1702.473667,-9030.512492,842.705048
360.344022,-2294.638420,-9696.697840,612.876398
360.344350,-2590.720797,-9696.697840,383.047749
360.344677,-2368.659014,-10214.842000,229.828649
360.345005,-1702.473667,-10140.821405,76.609550
360.345332,-444.123565,-9696.697840,229.828649
360.345660,296.082377,-9178.553681,229.828649
360.345987,1332.370696,-8734.430116,306.438199
360.346314,2220.617826,-8512.368333,842.705048
360.346642,2220.617826,-8512.368333,536.266849
360.346969,2294.638420,-8586.388927,689.485948
360.347297,1924.535449,-9178.553681,689.485948
360.347624,888.247130,-9844.739029,995.924147
360.347952,0.000000,-10658.965565,306.438199
360.348279,-814.226536,-10955.047942,536.266849
360.348607,-1184.329507,-10881.027347,-153.219100
360.348934,-1554.432478,-10732.986159,-153.219100
360.349262,-1184.329507,-10362.883188,-766.095498
360.349589,-1110.308913,-9030.512492,-383.047749
360.349917,0.000000,-8734.430116,-459.657299
360.350244,740.205942,-8216.285956,-306.438199
360.350572,1036.288319,-7624.121203,-306.438199
360.350899,1110.308913,-7920.203579,153.219100
360.351227,888.247130,-8068.244768,306.438199
360.351554,-370.102971,-8956.491898,383.047749
360.351882,-1480.411884,-9622.677246,229.828649
360.352209,-2442.679609,-10066.800811,229.828649
360.352537,-2442.679609,-10288.862594,76.609550
360.352864,-1850.514855,-10140.821405,153.219100
360.353191,-592.164754,-9474.636058,153.219100
360.353519,0.000000,-8956.491898,459.657299
360.353846,1110.308913,-8660.409521,459.657299
360.354174,1776.494261,-8216.285956,1072.533697
360.354501,1998.556043,-7920.203579,1149.143247
360.354829,1998.556043,-7920.203579,919.314598
360.355156,1406.391290,-8364.327145,1762.019645
360.355484,370.102971,-8882.471304,1608.800546
360.355811,-222.061783,-9474.636058,1762.019645
360.356139,-1554.432478,-10214.842000,1532.190996
360.356466,-2072.576638,-10214.842000,1455.581446
360.356794,-1850.514855,-9770.718434,1378.971896
360.357121,-1628.453072,-9696.697840,842.705048
360.357449,-1554.432478,-8956.491898,536.266849
360.357776,-1110.308913,-8660.409521,612.876398
360.358104,-592.164754,-7920.203579,459.657299
360.358431,-148.041188,-7402.059420,995.924147
360.358759,296.082377,-7476.080014,842.705048
360.359086,74.020594,-7698.141797,842.705048
360.359414,-666.185348,-8290.306550,919.314598
360.359741,-1480.411884,-9030.512492,842.705048
360.360068,-2220.617826,-9992.780217,766.095498
360.360396,-2146.597232,-10066.800811,153.219100
360.360723,-2146.597232,-10066.800811,153.219100
360.361051,-1406.391290,-9770.718434,0.000000
360.361378,-444.123565,-9548.656652,0.000000
360.361706,444.123565,-8956.491898,0.000000
360.362033,1110.308913,-8216.285956,383.047749
360.362361,1554.432478,-8290.306550,383.047749
360.362688,1924.535449,-8438.347739,459.657299
360.363016,1702.473667,-8808.450710,766.095498
360.363343,1258.350101,-9474.636058,1225.752797
360.363671,814.226536,-9770.718434,995.924147
360.363998,-296.082377,-10288.862594,842.705048
360.364326,-1258.350101,-10658.965565,306.438199
360.364653,-1036.288319,-10881.027347,383.047749
360.364981,-1184.329507,-10066.800811,-306.438199
360.365308,-666.185348,-9918.759623,0.000000
360.365636,-148.041188,-9474.636058,-383.047749
360.365963,222.061783,-8808.450710,-306.438199
360.366291,888.247130,-8290.306550,0.000000
360.366618,1258.350101,-8068.244768,153.219100
360.366946,962.267725,-7846.182985,306.438199
360.367273,518.144159,-8586.388927,689.485948
360.367600,-296.082377,-9622.677246,612.876398
360.367928,-1480.411884,-9844.739029,306.438199
360.368255,-2368.659014,-10436.903782,0.000000
360.368583,-2146.597232,-10436.903782,76.609550
360.368910,-1776.494261,-9844.739029,0.000000
360.369238,-370.102971,-9474.636058,306.438199
360.369565,666.185348,-9326.594869,612.876398
360.369893,1258.350101,-8808.450710,919.314598
360.370220,1628.453072,-8438.347739,1072.533697
360.370548,1924.535449,-8364.327145,1072.533697
360.370875,1628.453072,-8438.347739,1378.971896
360.371203,962.267725,-8882.471304,1378.971896
360.371530,222.061783,-9474.636058,1685.410096
360.371858,-888.247130,-10066.800811,1455.581446
360.372185,-1110.308913,-10584.944971,1225.752797
360.372513,-2146.597232,-10140.821405,1149.143247
360.372840,-1998.556043,-9770.718434,766.095498
360.373168,-1554.432478,-9696.697840,612.876398
360.373495,-962.267725,-9178.553681,306.438199
360.373823,-592.164754,-8290.306550,229.828649
360.374150,-296.082377,-7846.182985,536.266849
360.374477,0.000000,-7624.121203,612.876398
360.374805,148.041188,-7698.141797,919.314598
360.375132,0.000000,-8068.244768,1225.752797
360.375460,-592.164754,-8438.347739,1149.143247
360.375787,-1998.556043,-9030.512492,689.485948
360.376115,-2368.659014,-9844.739029,689.485948
360.376442,-2368.659014,-9918.759623,612.876398
360.376770,-2368.659014,-9474.636058,0.000000
360.377097,-1184.329507,-9030.512492,153.219100
360.377425,-222.061783,-8660.409521,306.438199
360.377752,666.185348,-8290.306550,383.047749
360.378080,1258.350101,-8142.265362,612.876398
360.378407,1406.391290,-8068.244768,229.828649
360.378735,1628.453072,-8142.265362,689.485948
360.379062,1998.556043,-8290.306550,766.095498
360.379390,1258.350101,-8956.491898,766.095498
360.379717,370.102971,-9474.636058,766.095498
360.380045,-370.102971,-10140.821405,766.095498
360.380372,-962.267725,-10362.883188,76.609550
360.380700,-962.267725,-10140.821405,153.219100
360.381027,-962.267725,-9622.677246,-612.876398
360.381354,-814.226536,-9696.697840,-536.266849
360.381682,-370.102971,-8956.491898,-919.314598
360.382009,370.102971,-8512.368333,-383.047749
360.382337,888.247130,-7698.141797,0.000000
360.382664,1554.432478,-7624.121203,-229.828649
360.382992,1184.329507,-7846.182985,229.828649
360.383319,296.082377,-8512.368333,153.219100
360.383647,-518.144159,-9474.636058,153.219100
360.383974,-1480.411884,-10066.800811,459.657299
360.384302,-2368.659014,-9474.636058,-306.438199
360.384629,-1702.473667,-9918.759623,-229.828649
360.384957,-740.205942,-9622.677246,-153.219100
360.385284,222.061783,-9252.574275,0.000000
360.385612,1110.308913,-8882.471304,536.266849
360.385939,1184.329507,-8068.244768,919.314598
360.386267,1850.514855,-8216.285956,995.924147
360.386594,1702.473667,-8290.306550,1072.533697
360.386922,1332.370696,-8586.388927,1225.752797
360.387249,814.226536,-9030.512492,1532.190996
360.387577,222.061783,-9252.574275,1608.800546
360.387904,-1036.288319,-10288.862594,1378.971896
360.388232,-1554.432478,-10436.903782,1302.362347
360.388559,-1850.514855,-10362.883188,1225.752797
360.388886,-2146.597232,-10066.800811,689.485948
360.389214,-1406.391290,-9474.636058,919.314598
360.389541,-1554.432478,-9178.553681,919.314598
360.389869,-814.226536,-8512.368333,689.485948
360.390196,-370.102971,-7698.141797,842.705048
