#time,accel_x,accel_y,accel_z
492.560786,0.000000,-9326.594869,842.705048
492.561114,-296.082377,-8956.491898,689.485948
492.561442,-370.102971,-9030.512492,383.047749
492.561770,-370.102971,-9104.533087,612.876398
492.562098,0.000000,-8882.471304,383.047749
492.562426,0.000000,-9030.512492,612.876398
492.562754,-370.102971,-8956.491898,383.047749
492.563082,-370.102971,-9252.574275,536.266849
492.563410,0.000000,-9252.574275,459.657299
492.563738,-148.041188,-9104.533087,383.047749
492.564066,0.000000,-8808.450710,383.047749
492.564394,-222.061783,-9104.533087,689.485948
492.564722,-222.061783,-9178.553681,536.266849
492.565050,0.000000,-9326.594869,306.438199
492.565378,-296.082377,-9252.574275,306.438199
492.565706,-370.102971,-8586.388927,612.876398
492.566035,74.020594,-9030.512492,536.266849
492.566363,0.000000,-9326.594869,459.657299
492.566691,-296.082377,-9252.574275,612.876398
492.567019,-222.061783,-9030.512492,459.657299
492.567347,0.000000,-8956.491898,536.266849
492.567675,0.000000,-8956.491898,459.657299
492.568003,0.000000,-9326.594869,459.657299
492.568331,-148.041188,-9252.574275,536.266849
492.568659,-74.020594,-8956.491898,459.657299
492.568987,0.000000,-9326.594869,919.314598
492.569315,-222.061783,-9030.512492,919.314598
492.569643,-370.102971,-9104.533087,459.657299
492.569971,-222.061783,-9030.512492,612.876398
492.570299,0.000000,-9104.533087,612.876398
492.570627,-296.082377,-9104.533087,459.657299
492.570955,0.000000,-9178.553681,919.314598
492.571283,-814.226536,-9104.533087,229.828649
492.571611,-1406.391290,-9326.594869,0.000000
492.571939,-1554.432478,-9474.636058,-536.266849
492.572268,-1258.350101,-9474.636058,-536.266849
492.572596,-444.123565,-8734.430116,0.000000
492.572924,-296.082377,-8660.409521,-459.657299
492.573252,-592.164754,-9030.512492,-612.876398
492.573580,-1184.329507,-9178.553681,-842.705048
492.573908,-1258.350101,-9030.512492,-1072.533697
492.574236,-814.226536,-8734.430116,-1532.190996
492.574564,-740.205942,-8660.409521,-1608.800546
492.574892,-592.164754,-9178.553681,-1149.143247
492.575220,-518.144159,-9400.615463,-1302.362347
492.575548,-370.102971,-9252.574275,-1149.143247
492.575876,0.000000,-9252.574275,-919.314598
492.576204,0.000000,-9252.574275,-1762.019645
492.576532,0.000000,-9326.594869,-1532.190996
492.576860,74.020594,-9178.553681,-1762.019645
492.577188,296.082377,-9252.574275,-1762.019645
492.577516,444.123565,-9326.594869,-1608.800546
492.577844,0.000000,-9178.553681,-1608.800546
492.578172,222.061783,-9252.574275,-1685.410096
492.578501,444.123565,-9252.574275,-1608.800546
492.578829,222.061783,-9474.636058,-1915.238745
492.579157,222.061783,-9326.594869,-1838.629195
492.579485,74.020594,-8808.450710,-1072.533697
492.579813,518.144159,-9326.594869,-2145.067394
492.580141,74.020594,-9252.574275,-1838.629195
492.580469,0.000000,-9326.594869,-1915.238745
492.580797,0.000000,-9326.594869,-1991.848295
492.581125,-148.041188,-9400.615463,-1608.800546
492.581453,-518.144159,-9030.512492,-1915.238745
492.581781,-1258.350101,-9178.553681,-2221.676944
492.582109,-1184.329507,-9252.574275,-2374.896044
492.582437,-1480.411884,-9252.574275,-2757.943793
492.582765,-1702.473667,-9104.533087,-2987.772442
492.583093,-1776.494261,-8734.430116,-3064.381992
492.583421,-1850.514855,-9252.574275,-3294.210641
492.583749,-2146.597232,-9030.512492,-3677.258390
492.584077,-1776.494261,-9030.512492,-3524.039291
492.584405,-1776.494261,-9030.512492,-4213.525239
492.584733,-1776.494261,-8882.471304,-3983.696590
492.585062,-1628.453072,-8734.430116,-4136.915689
492.585390,-1036.288319,-9030.512492,-4060.306139
492.585718,-592.164754,-8882.471304,-3524.039291
492.586046,296.082377,-8882.471304,-3140.991542
492.586374,1036.288319,-8438.347739,-2757.943793
492.586702,1776.494261,-8882.471304,-2528.115143
492.587030,2146.597232,-9030.512492,-2374.896044
492.587358,2442.679609,-9104.533087,-1915.238745
492.587686,2294.638420,-9548.656652,-1915.238745
492.588014,1554.432478,-10140.821405,-2451.505594
492.588342,518.144159,-10362.883188,-2145.067394
492.588670,-888.247130,-10362.883188,-3294.210641
492.588998,-1554.432478,-10510.924376,-3830.477490
492.589326,-1924.535449,-9992.780217,-4519.963438
492.589654,-1850.514855,-9770.718434,-4903.011187
492.589982,-740.205942,-8586.388927,-4903.011187
492.590310,444.123565,-7994.224174,-4136.915689
492.590638,1850.514855,-7179.997637,-3677.258390
492.590966,2590.720797,-7031.956449,-2911.162892
492.591295,2664.741391,-7402.059420,-2374.896044
492.591623,1406.391290,-8216.285956,-1532.190996
492.591951,0.000000,-9474.636058,-1991.848295
492.592279,-2368.659014,-10362.883188,-2068.457845
492.592607,-3701.029710,-11029.068536,-2528.115143
492.592935,-4071.132681,-11029.068536,-2757.943793
492.593263,-2220.617826,-9622.677246,-1991.848295
492.593591,2294.638420,-7920.203579,-536.266849
492.593919,7254.018232,-5773.606348,1838.629195
492.594247,10510.924376,-5181.441594,3830.477490
492.594575,9844.739029,-6217.729913,4519.963438
492.594903,5995.668130,-8808.450710,4136.915689
492.595231,-370.102971,-11473.192101,2911.162892
492.595559,-6365.771101,-12953.603985,306.438199
492.595887,-10140.821405,-14211.954086,-1608.800546
492.596215,-12361.439231,-14137.933492,-3600.648841
492.596543,-11325.150913,-12509.480420,-3677.258390
492.596871,-8068.244768,-9400.615463,-4136.915689
492.597199,-3849.070898,-7254.018232,-2834.553343
492.597528,-1480.411884,-4441.235652,-4213.525239
492.597856,1184.329507,-4293.194464,-4060.306139
492.598184,-2146.597232,-5255.462188,-5515.887586
492.598512,-4737.318029,-7105.977043,-6281.983084
492.598840,-10288.862594,-8882.471304,-8273.831378
492.599168,-11917.315666,-9548.656652,-9499.584175
492.599496,-9548.656652,-9844.739029,-8044.002729
492.599824,-6291.750507,-8660.409521,-6971.469032
492.600152,1406.391290,-7624.121203,-4903.011187
492.600480,5921.647536,-6883.915261,-2757.943793
492.600808,8290.306550,-6883.915261,-3600.648841
492.601136,8512.368333,-9474.636058,-3677.258390
492.601464,5255.462188,-10732.986159,-5439.278036
492.601792,3775.050304,-11547.212695,-5822.325785
492.602120,5921.647536,-11399.171507,-5669.106685
492.602448,9474.636058,-9548.656652,-3677.258390
492.602776,11991.336260,-9252.574275,-1532.190996
492.603104,12287.418637,-9918.759623,76.609550
492.603432,10510.924376,-10214.842000,0.000000
492.603761,8882.471304,-11103.089130,0.000000
492.604089,6217.729913,-11029.068536,-2298.286494
492.604417,4737.318029,-10658.965565,-1378.971896
492.604745,4441.235652,-10436.903782,-1915.238745
492.605073,-1332.370696,-12287.418637,-1991.848295
492.605401,-6883.915261,-12731.542202,-3983.696590
492.605729,-11843.295072,-11251.130318,-6741.640382
492.606057,-11621.233289,-7179.997637,-6588.421283
492.606385,-7550.100608,-3552.988522,-6205.373534
492.606713,-518.144159,-1258.350101,-4749.792088
492.607041,1998.556043,-1554.432478,-2374.896044
492.607369,2664.741391,-2294.638420,-1608.800546
492.607697,0.000000,-4515.256246,0.000000
492.608025,-2664.741391,-5773.606348,-459.657299
492.608353,-2738.761985,-7846.182985,842.705048
492.608681,-3404.947333,-9696.697840,1762.019645
492.609009,-3923.091493,-10955.047942,3140.991542
492.609337,-3478.967927,-11917.315666,4519.963438
492.609665,-2220.617826,-11769.274478,5975.544884
492.609994,0.000000,-10214.842000,6128.763984
492.610322,2146.597232,-9844.739029,5669.106685
492.610650,1924.535449,-9992.780217,2681.334243
492.610978,-296.082377,-11991.336260,2145.067394
492.611306,-2886.803174,-11473.192101,842.705048
492.611634,-3034.844362,-9104.533087,459.657299
492.611962,0.000000,-7550.100608,1685.410096
492.612290,1554.432478,-7328.038826,1455.581446
492.612618,-888.247130,-8882.471304,1838.629195
492.612946,-3849.070898,-10140.821405,2298.286494
492.613274,-6735.874072,-9474.636058,536.266849
492.613602,-7179.997637,-9844.739029,995.924147
492.613930,-3849.070898,-9548.656652,995.924147
492.614258,-1998.556043,-9326.594869,1302.362347
492.614586,-2516.700203,-10510.924376,689.485948
492.614914,-3701.029710,-9252.574275,0.000000
492.615242,-5403.503377,-7994.224174,-842.705048
492.615570,-2442.679609,-5551.544565,-536.266849
492.615898,1036.288319,-6069.688724,-995.924147
492.616227,2368.659014,-8364.327145,-2221.676944
492.616555,2294.638420,-9918.759623,-2757.943793
492.616883,2072.576638,-10732.986159,-2298.286494
492.617211,3034.844362,-9770.718434,-1149.143247
492.617539,5551.544565,-9622.677246,0.000000
492.617867,7402.059420,-11843.295072,459.657299
492.618195,5625.565159,-14211.954086,383.047749
492.618523,1702.473667,-14656.077652,-229.828649
492.618851,-1110.308913,-12657.521608,-459.657299
492.619179,-666.185348,-11103.089130,76.609550
492.619509,1554.432478,-10658.965565,76.609550
492.619837,2368.659014,-10807.006753,76.609550
492.620164,1924.535449,-10362.883188,-229.828649
492.620492,1110.308913,-7772.162391,-383.047749
492.620820,1924.535449,-5181.441594,-153.219100
492.621148,1776.494261,-4737.318029,0.000000
492.621476,2294.638420,-5403.503377,-919.314598
492.621804,-296.082377,-7698.141797,-1455.581446
492.622131,-4219.173869,-8364.327145,-1378.971896
492.622459,-5181.441594,-7846.182985,-1225.752797
492.622787,-3552.988522,-7105.977043,-459.657299
492.623115,-2368.659014,-8660.409521,-459.657299
492.623443,-1480.411884,-10140.821405,-306.438199
492.623770,-2960.823768,-10362.883188,-1072.533697
492.624098,-2368.659014,-8660.409521,-536.266849
492.624426,-740.205942,-6365.771101,612.876398
492.624754,74.020594,-6291.750507,842.705048
492.625082,740.205942,-8364.327145,1225.752797
492.625409,-222.061783,-9992.780217,612.876398
492.625737,-814.226536,-9696.697840,612.876398
492.626065,-148.041188,-7846.182985,1532.190996
492.626393,1628.453072,-7179.997637,2221.676944
492.626721,2738.761985,-8586.388927,2451.505594
492.627048,2442.679609,-10510.924376,2374.896044
492.627376,1480.411884,-10214.842000,2451.505594
492.627704,1480.411884,-7772.162391,2604.724693
492.628032,1998.556043,-7179.997637,3907.087040
492.628360,1184.329507,-7994.224174,3447.429741
492.628687,-888.247130,-9992.780217,1991.848295
492.629015,-3182.885551,-11029.068536,612.876398
492.629343,-3997.112087,-9030.512492,153.219100
492.629671,-3182.885551,-6587.832884,612.876398
492.629999,-1480.411884,-6291.750507,0.000000
492.630326,-1184.329507,-7920.203579,383.047749
492.630654,-444.123565,-8808.450710,-689.485948
492.630982,-1332.370696,-9326.594869,229.828649
492.631310,-1628.453072,-8142.265362,0.000000
492.631638,-1184.329507,-7698.141797,1225.752797
492.631965,-1554.432478,-10214.842000,1455.581446
492.632293,-1702.473667,-11843.295072,459.657299
492.632621,-2664.741391,-12139.377449,0.000000
492.632949,-2294.638420,-10362.883188,459.657299
492.633277,-296.082377,-8438.347739,1072.533697
492.633604,1036.288319,-8734.430116,1378.971896
492.633932,1776.494261,-9770.718434,1149.143247
492.634260,1480.411884,-10288.862594,612.876398
492.634588,1258.350101,-9326.594869,689.485948
492.634916,2220.617826,-7328.038826,995.924147
492.635243,2442.679609,-7328.038826,1225.752797
492.635571,1850.514855,-9474.636058,1072.533697
492.635899,222.061783,-12287.418637,153.219100
492.636227,-1776.494261,-12139.377449,0.000000
492.636555,-2146.597232,-9622.677246,0.000000
492.636882,-888.247130,-9252.574275,153.219100
492.637210,148.041188,-9622.677246,76.609550
492.637538,-444.123565,-11251.130318,0.000000
492.637866,-814.226536,-11177.109724,-383.047749
492.638194,-1036.288319,-9474.636058,0.000000
492.638521,0.000000,-7698.141797,0.000000
492.638849,148.041188,-8290.306550,612.876398
492.639177,-444.123565,-10066.800811,153.219100
492.639505,-2516.700203,-11251.130318,-459.657299
492.639833,-2590.720797,-10362.883188,-689.485948
492.640160,-2368.659014,-8586.388927,-153.219100
492.640488,-296.082377,-7476.080014,536.266849
492.640816,1110.308913,-8364.327145,919.314598
492.641144,1406.391290,-9252.574275,612.876398
492.641472,1110.308913,-9252.574275,383.047749
492.641800,1554.432478,-7328.038826,919.314598
492.642127,1924.535449,-6883.915261,1302.362347
492.642455,1924.535449,-7550.100608,1378.971896
492.642783,222.061783,-9548.656652,766.095498
492.643111,-1258.350101,-11177.109724,612.876398
492.643439,-1850.514855,-9622.677246,306.438199
492.643766,-740.205942,-7920.203579,1149.143247
492.644094,666.185348,-7846.182985,1378.971896
492.644422,1258.350101,-9104.533087,1225.752797
492.644750,370.102971,-9992.780217,689.485948
492.645078,74.020594,-8882.471304,306.438199
492.645405,518.144159,-7402.059420,536.266849
492.645733,740.205942,-6809.894666,1455.581446
492.646061,518.144159,-7994.224174,1608.800546
492.646389,-1258.350101,-9548.656652,995.924147
492.646717,-2442.679609,-10362.883188,842.705048
492.647044,-3108.864956,-8586.388927,76.609550
492.647372,-2072.576638,-7105.977043,766.095498
492.647700,-1480.411884,-7402.059420,842.705048
492.648028,-740.205942,-8586.388927,919.314598
492.648356,-1702.473667,-9326.594869,153.219100
492.648683,-1184.329507,-7772.162391,229.828649
492.649011,444.123565,-6587.832884,766.095498
492.649339,1184.329507,-6957.935855,1378.971896
492.649667,888.247130,-8290.306550,995.924147
492.649995,-518.144159,-10510.924376,383.047749
492.650322,-1702.473667,-10955.047942,0.000000
492.650650,-1184.329507,-9474.636058,76.609550
492.650978,-222.061783,-8660.409521,383.047749
492.651306,74.020594,-9474.636058,536.266849
492.651634,-296.082377,-11177.109724,153.219100
492.651961,-962.267725,-11029.068536,0.000000
492.652289,74.020594,-8808.450710,-459.657299
492.652617,1406.391290,-7550.100608,229.828649
492.652945,2294.638420,-8142.265362,612.876398
492.653273,962.267725,-9918.759623,0.000000
492.653600,-666.185348,-11177.109724,0.000000
492.653928,-1702.473667,-9770.718434,-689.485948
492.654256,-1036.288319,-8808.450710,-459.657299
492.654584,666.185348,-8882.471304,229.828649
492.654912,1406.391290,-9918.759623,306.438199
492.655239,518.144159,-11473.192101,766.095498
492.655567,666.185348,-10658.965565,1149.143247
492.655895,666.185348,-9252.574275,1072.533697
492.656223,1480.411884,-8586.388927,1302.362347
492.656551,1702.473667,-9400.615463,1455.581446
492.656878,444.123565,-11177.109724,1149.143247
492.657206,-1258.350101,-11399.171507,689.485948
492.657534,-2072.576638,-10362.883188,306.438199
492.657862,-1332.370696,-9104.533087,1149.143247
492.658190,-148.041188,-9252.574275,1149.143247
492.658517,-444.123565,-9992.780217,919.314598
492.658845,-1110.308913,-10288.862594,306.438199
492.659173,-1184.329507,-9030.512492,1072.533697
492.659501,-296.082377,-7105.977043,689.485948
492.659829,518.144159,-6809.894666,1225.752797
492.660156,518.144159,-8364.327145,1378.971896
492.660484,-1184.329507,-10214.842000,1302.362347
492.660812,-3256.906145,-9918.759623,536.266849
492.661140,-3849.070898,-8512.368333,383.047749
492.661468,-2738.761985,-7179.997637,919.314598
492.661796,-1628.453072,-7994.224174,1225.752797
492.662123,-1258.350101,-9252.574275,1072.533697
492.662451,-1184.329507,-9178.553681,1072.533697
492.662779,-1036.288319,-7624.121203,995.924147
492.663107,592.164754,-6513.812290,1455.581446
492.663435,1702.473667,-6883.915261,1455.581446
492.663762,1184.329507,-8956.491898,1072.533697
492.664090,-296.082377,-10288.862594,612.876398
492.664418,-1332.370696,-9696.697840,153.219100
492.664746,-370.102971,-7994.224174,536.266849
492.665074,222.061783,-8068.244768,919.314598
492.665401,1776.494261,-9548.656652,1455.581446
492.665729,1184.329507,-10584.944971,1302.362347
492.666057,370.102971,-9474.636058,766.095498
492.666385,592.164754,-8882.471304,842.705048
492.666713,1776.494261,-7550.100608,1378.971896
492.667040,1554.432478,-8364.327145,1149.143247
492.667368,370.102971,-9770.718434,536.266849
492.667696,-2146.597232,-9770.718434,-306.438199
492.668024,-2442.679609,-8660.409521,-766.095498
492.668352,-1184.329507,-6883.915261,-306.438199
492.668679,370.102971,-6661.853478,0.000000
492.669007,1036.288319,-8068.244768,-153.219100
492.669335,74.020594,-9178.553681,-612.876398
492.669663,-518.144159,-9178.553681,-612.876398
492.669991,-296.082377,-7772.162391,0.000000
492.670318,592.164754,-7920.203579,459.657299
492.670646,592.164754,-9622.677246,536.266849
492.670974,0.000000,-11991.336260,229.828649
492.671302,-1702.473667,-12583.501014,-153.219100
492.671630,-2220.617826,-11177.109724,153.219100
492.671957,-666.185348,-9696.697840,459.657299
492.672285,444.123565,-9770.718434,459.657299
492.672613,592.164754,-11029.068536,306.438199
492.672941,74.020594,-11621.233289,229.828649
492.673269,148.041188,-9770.718434,76.609550
492.673596,1406.391290,-7920.203579,766.095498
492.673924,2590.720797,-7624.121203,1149.143247
492.674252,1998.556043,-9474.636058,1225.752797
492.674580,222.061783,-10807.006753,842.705048
492.674908,-1628.453072,-10807.006753,229.828649
492.675235,-1850.514855,-9252.574275,612.876398
492.675563,-1110.308913,-8512.368333,919.314598
492.675891,-518.144159,-9252.574275,1072.533697
492.676219,-740.205942,-10362.883188,306.438199
492.676547,-1258.350101,-10066.800811,459.657299
492.676874,-962.267725,-8438.347739,612.876398
492.677202,-222.061783,-7031.956449,995.924147
492.677530,148.041188,-7698.141797,1225.752797
492.677858,-370.102971,-9474.636058,383.047749
492.678186,-2146.597232,-10436.903782,306.438199
492.678513,-2738.761985,-9918.759623,0.000000
492.678841,-1776.494261,-8216.285956,0.000000
492.679169,-296.082377,-7402.059420,689.485948
492.679497,1036.288319,-8660.409521,1455.581446
492.679825,814.226536,-9918.759623,1455.581446
492.680152,0.000000,-9622.677246,1302.362347
492.680480,370.102971,-7846.182985,1532.190996
492.680808,740.205942,-7402.059420,1685.410096
492.681136,444.123565,-8660.409521,1685.410096
492.681464,-1332.370696,-10066.800811,1149.143247
492.681792,-2368.659014,-10807.006753,536.266849
492.682119,-2294.638420,-8734.430116,536.266849
492.682447,-740.205942,-6957.935855,689.485948
492.682775,666.185348,-6809.894666,842.705048
492.683103,1554.432478,-8438.347739,689.485948
492.683431,148.041188,-8586.388927,0.000000
492.683758,-222.061783,-7846.182985,-153.219100
492.684086,888.247130,-6735.874072,229.828649
492.684414,1480.411884,-6809.894666,766.095498
492.684742,888.247130,-8956.491898,1149.143247
492.685070,-148.041188,-10510.924376,306.438199
492.685397,-2368.659014,-11399.171507,459.657299
492.685725,-2146.597232,-9548.656652,383.047749
492.686053,-1036.288319,-8734.430116,1149.143247
492.686381,0.000000,-9030.512492,919.314598
492.686709,444.123565,-10362.883188,919.314598
492.687036,0.000000,-10214.842000,383.047749
492.687364,592.164754,-8364.327145,842.705048
492.687692,1628.453072,-7179.997637,1378.971896
492.688020,1998.556043,-7179.997637,1532.190996
492.688348,888.247130,-9400.615463,1225.752797
492.688675,-1332.370696,-11029.068536,-153.219100
492.689003,-3034.844362,-10362.883188,-689.485948
492.689331,-2812.782580,-8808.450710,-536.266849
492.689659,-1332.370696,-8068.244768,153.219100
492.689987,-222.061783,-8956.491898,306.438199
492.690314,-222.061783,-10140.821405,-306.438199
492.690642,-1036.288319,-9992.780217,-153.219100
492.690970,-740.205942,-8068.244768,0.000000
492.691298,148.041188,-7105.977043,153.219100
492.691626,740.205942,-7698.141797,153.219100
492.691953,0.000000,-9696.697840,229.828649
492.692281,-1406.391290,-10584.944971,-536.266849
492.692609,-2146.597232,-9622.677246,-612.876398
492.692937,-888.247130,-8216.285956,76.609550
492.693265,592.164754,-8364.327145,229.828649
492.693592,1184.329507,-9696.697840,-153.219100
492.693920,814.226536,-10955.047942,0.000000
492.694248,740.205942,-9770.718434,76.609550
492.694576,1702.473667,-8068.244768,919.314598
492.694904,2590.720797,-7254.018232,1608.800546
492.695231,2886.803174,-8438.347739,1532.190996
492.695559,666.185348,-10732.986159,919.314598
492.695887,-1036.288319,-11399.171507,612.876398
492.696215,-2072.576638,-10140.821405,383.047749
492.696543,-1110.308913,-8438.347739,612.876398
492.696870,0.000000,-8956.491898,766.095498
492.697198,0.000000,-10807.006753,995.924147
492.697526,-1036.288319,-10955.047942,-153.219100
492.697854,-814.226536,-9104.533087,76.609550
492.698182,0.000000,-7105.977043,383.047749
492.698509,1110.308913,-6883.915261,2298.286494
492.698837,518.144159,-8660.409521,1225.752797
492.699165,-1554.432478,-10807.006753,842.705048
492.699493,-2960.823768,-10658.965565,76.609550
492.699821,-2886.803174,-8734.430116,383.047749
492.700148,-1110.308913,-7846.182985,1455.581446
492.700476,0.000000,-8438.347739,1991.848295
492.700804,370.102971,-10214.842000,1532.190996
492.701132,74.020594,-10140.821405,1608.800546
492.701460,740.205942,-8586.388927,1762.019645
492.701788,1702.473667,-7550.100608,2451.505594
492.702115,1480.411884,-8438.347739,2757.943793
492.702443,-222.061783,-10955.047942,1685.410096
492.702771,-2294.638420,-12361.439231,766.095498
492.703099,-3478.967927,-10807.006753,0.000000
492.703427,-2664.741391,-9326.594869,689.485948
492.703754,-592.164754,-8956.491898,919.314598
492.704082,-444.123565,-9400.615463,383.047749
492.704410,-1184.329507,-10362.883188,0.000000
492.704738,-1480.411884,-9548.656652,-306.438199
492.705066,-1258.350101,-7254.018232,-612.876398
492.705393,0.000000,-6143.709319,-153.219100
492.705721,444.123565,-6957.935855,0.000000
492.706049,-814.226536,-9030.512492,-536.266849
492.706377,-2220.617826,-9770.718434,-919.314598
492.706705,-2368.659014,-8068.244768,-689.485948
492.707032,-888.247130,-6883.915261,-229.828649
492.707360,1258.350101,-6735.874072,1072.533697
492.707688,2146.597232,-8216.285956,459.657299
492.708016,2220.617826,-9474.636058,612.876398
492.708344,2368.659014,-8512.368333,1072.533697
492.708671,3108.864956,-7105.977043,1685.410096
492.708999,3552.988522,-7402.059420,1838.629195
492.709327,2960.823768,-8956.491898,1608.800546
492.709655,814.226536,-11325.150913,919.314598
492.709983,-1628.453072,-11325.150913,229.828649
492.710310,-1776.494261,-9326.594869,306.438199
492.710638,-592.164754,-7920.203579,612.876398
492.710966,-370.102971,-8956.491898,689.485948
492.711294,-592.164754,-10288.862594,-153.219100
492.711622,-1850.514855,-10288.862594,-689.485948
492.711949,-2146.597232,-8364.327145,-459.657299
492.712277,-888.247130,-6809.894666,0.000000
492.712605,-444.123565,-6513.812290,153.219100
492.712933,-1332.370696,-8216.285956,-229.828649
492.713261,-3108.864956,-9770.718434,-689.485948
492.713588,-4219.173869,-8882.471304,-919.314598
492.713916,-3997.112087,-7105.977043,-536.266849
492.714244,-1924.535449,-6661.853478,229.828649
492.714572,740.205942,-7402.059420,689.485948
492.714900,1332.370696,-9474.636058,842.705048
492.715227,888.247130,-9252.574275,612.876398
492.715555,1998.556043,-8142.265362,1378.971896
492.715883,3404.947333,-8142.265362,2374.896044
492.716211,3034.844362,-8660.409521,2374.896044
492.716539,1924.535449,-10510.924376,1378.971896
492.716866,-1480.411884,-12731.542202,0.000000
492.717194,74.020594,-11991.336260,1225.752797
492.717522,-222.061783,-10732.986159,919.314598
492.717850,1406.391290,-9844.739029,995.924147
492.718177,1628.453072,-10807.006753,1378.971896
492.718505,1110.308913,-12953.603985,612.876398
492.718833,-1258.350101,-11251.130318,229.828649
492.719160,-592.164754,-9400.615463,612.876398
492.719488,-518.144159,-7179.997637,842.705048
492.719815,0.000000,-9178.553681,689.485948
492.720143,-2368.659014,-11103.089130,0.000000
492.720471,-3552.988522,-10955.047942,-306.438199
492.720798,-3997.112087,-8956.491898,-689.485948
492.721126,-2072.576638,-6809.894666,76.609550
492.721454,-962.267725,-7476.080014,536.266849
492.721781,0.000000,-9770.718434,0.000000
492.722109,-592.164754,-10362.883188,229.828649
492.722436,74.020594,-8734.430116,612.876398
492.722764,1628.453072,-7624.121203,1149.143247
492.723092,1924.535449,-8364.327145,1991.848295
492.723419,1258.350101,-10881.027347,2298.286494
492.723747,74.020594,-12361.439231,1149.143247
492.724075,-962.267725,-11843.295072,1149.143247
492.724402,-888.247130,-9918.759623,1685.410096
492.724730,0.000000,-9252.574275,1072.533697
492.725057,0.000000,-10066.800811,1378.971896
492.725385,-666.185348,-11251.130318,612.876398
492.725713,-1776.494261,-10658.965565,306.438199
492.726040,-592.164754,-8586.388927,306.438199
492.726368,444.123565,-7105.977043,229.828649
492.726696,222.061783,-7179.997637,842.705048
492.727023,-740.205942,-8660.409521,153.219100
492.727351,-2368.659014,-9918.759623,-306.438199
492.727679,-3478.967927,-8364.327145,-842.705048
492.728006,-1924.535449,-6883.915261,-306.438199
492.728334,-444.123565,-6217.729913,306.438199
492.728661,370.102971,-7105.977043,383.047749
492.728989,518.144159,-8438.347739,306.438199
492.729317,962.267725,-8068.244768,612.876398
492.729644,1406.391290,-6661.853478,995.924147
492.729972,2738.761985,-6365.771101,1762.019645
492.730300,2368.659014,-7994.224174,1378.971896
492.730627,962.267725,-10510.924376,995.924147
492.730955,-518.144159,-11251.130318,229.828649
492.731282,-370.102971,-9770.718434,229.828649
492.731610,740.205942,-7846.182985,1608.800546
492.731938,1850.514855,-8068.244768,1072.533697
492.732265,1850.514855,-9622.677246,842.705048
492.732593,0.000000,-10436.903782,229.828649
492.732921,-444.123565,-8956.491898,-306.438199
492.733248,-370.102971,-6883.915261,76.609550
492.733576,74.020594,-7031.956449,459.657299
492.733903,-814.226536,-8808.450710,0.000000
492.734231,-2886.803174,-10214.842000,-612.876398
492.734559,-4515.256246,-9400.615463,-1302.362347
492.734886,-3775.050304,-7402.059420,-1225.752797
492.735214,-1850.514855,-6143.709319,-536.266849
492.735542,-148.041188,-6809.894666,0.000000
492.735869,74.020594,-8438.347739,0.000000
492.736197,0.000000,-9030.512492,0.000000
492.736524,370.102971,-7476.080014,0.000000
492.736852,1332.370696,-7105.977043,1149.143247
492.737180,1850.514855,-8290.306550,1378.971896
492.737507,1480.411884,-10807.006753,1225.752797
492.737835,0.000000,-12879.583391,995.924147
492.738163,-592.164754,-12435.459826,1762.019645
492.738490,370.102971,-10732.986159,1915.238745
492.738818,1998.556043,-10140.821405,2145.067394
492.739145,2146.597232,-11251.130318,2068.457845
492.739473,1332.370696,-12435.459826,1225.752797
492.739801,-370.102971,-11843.295072,919.314598
492.740128,0.000000,-9178.553681,229.828649
492.740456,148.041188,-8216.285956,919.314598
492.740784,0.000000,-8438.347739,766.095498
492.741111,-1702.473667,-10510.924376,229.828649
492.741439,-3849.070898,-11029.068536,-459.657299
492.741766,-3627.009116,-9696.697840,-153.219100
492.742094,-3478.967927,-7772.162391,0.000000
492.742422,-1998.556043,-7698.141797,229.828649
492.742749,-1258.350101,-9326.594869,306.438199
492.743077,-888.247130,-10362.883188,612.876398
492.743405,-814.226536,-9474.636058,919.314598
492.743732,518.144159,-7550.100608,1455.581446
492.744060,888.247130,-7402.059420,1915.238745
492.744387,1184.329507,-9252.574275,1915.238745
492.744715,296.082377,-11325.150913,1685.410096
492.745043,-740.205942,-11251.130318,1225.752797
492.745370,-222.061783,-10436.903782,1685.410096
492.745698,222.061783,-9474.636058,1762.019645
492.746026,888.247130,-10214.842000,1991.848295
492.746353,740.205942,-11473.192101,1455.581446
492.746681,0.000000,-11399.171507,919.314598
492.747009,-148.041188,-9844.739029,459.657299
492.747336,296.082377,-7994.224174,1225.752797
492.747664,666.185348,-7624.121203,1072.533697
492.747991,74.020594,-8882.471304,842.705048
492.748319,-2072.576638,-9918.759623,0.000000
492.748647,-3627.009116,-8808.450710,-995.924147
492.748974,-3108.864956,-6661.853478,-842.705048
492.749302,-1702.473667,-5551.544565,-459.657299
492.749630,-888.247130,-6217.729913,0.000000
492.749957,-1110.308913,-7846.182985,-306.438199
492.750285,-1184.329507,-7772.162391,-306.438199
492.750612,0.000000,-5921.647536,-383.047749
492.750940,1036.288319,-5403.503377,689.485948
492.751268,2220.617826,-6587.832884,1302.362347
492.751595,1998.556043,-9030.512492,1225.752797
492.751923,888.247130,-10807.006753,1149.143247
492.752251,74.020594,-9400.615463,919.314598
492.752578,592.164754,-8512.368333,689.485948
492.752906,1332.370696,-8290.306550,612.876398
492.753233,1332.370696,-9770.718434,612.876398
492.753561,592.164754,-11029.068536,0.000000
492.753889,0.000000,-9918.759623,0.000000
492.754216,370.102971,-8068.244768,-383.047749
492.754544,814.226536,-7179.997637,0.000000
492.754872,814.226536,-8438.347739,-153.219100
492.755199,-1702.473667,-10732.986159,-1302.362347
492.755527,-3701.029710,-10732.986159,-2068.457845
492.755854,-4441.235652,-8808.450710,-2145.067394
492.756182,-2368.659014,-6957.935855,-1532.190996
492.756510,0.000000,-7105.977043,-919.314598
492.756837,592.164754,-8290.306550,-536.266849
492.757165,444.123565,-9400.615463,-153.219100
492.757493,592.164754,-8586.388927,-229.828649
492.757820,1406.391290,-7476.080014,612.876398
492.758148,2220.617826,-7402.059420,919.314598
492.758475,2516.700203,-9770.718434,1302.362347
492.758803,1258.350101,-11917.315666,1455.581446
492.759131,296.082377,-11843.295072,1378.971896
492.759458,0.000000,-10732.986159,1532.190996
492.759786,1258.350101,-10066.800811,2221.676944
492.760114,1702.473667,-11029.068536,2221.676944
492.760441,1480.411884,-12287.418637,1915.238745
492.760769,-370.102971,-12805.562797,1149.143247
492.761096,74.020594,-10658.965565,1149.143247
492.761424,-148.041188,-9326.594869,1608.800546
492.761752,0.000000,-9400.615463,1991.848295
492.762079,-1406.391290,-10955.047942,1455.581446
492.762407,-3256.906145,-11695.253884,842.705048
492.762735,-5181.441594,-10288.862594,0.000000
492.763062,-4589.276840,-7920.203579,0.000000
492.763390,-3108.864956,-7105.977043,612.876398
492.763717,-2072.576638,-7994.224174,459.657299
492.764045,-1998.556043,-9326.594869,0.000000
492.764373,-1850.514855,-8586.388927,1302.362347
492.764700,-740.205942,-6735.874072,1072.533697
492.765028,666.185348,-6143.709319,2068.457845
492.765356,1406.391290,-7402.059420,2298.286494
492.765683,592.164754,-9918.759623,2298.286494
492.766011,-666.185348,-10732.986159,1532.190996
492.766339,-962.267725,-10066.800811,1762.019645
492.766666,-370.102971,-8808.450710,1915.238745
492.766994,592.164754,-9104.533087,1991.848295
492.767321,740.205942,-10436.903782,1532.190996
492.767649,222.061783,-10881.027347,842.705048
492.767977,-296.082377,-9696.697840,612.876398
492.768304,0.000000,-7254.018232,229.828649
492.768632,962.267725,-6661.853478,842.705048
492.768960,814.226536,-8290.306550,536.266849
492.769287,-1702.473667,-9844.739029,-383.047749
492.769615,-3256.906145,-9844.739029,-1072.533697
492.769942,-3627.009116,-8216.285956,-1302.362347
492.770270,-2664.741391,-6661.853478,-1149.143247
492.770598,-1184.329507,-7105.977043,-612.876398
492.770925,-740.205942,-8290.306550,-1149.143247
492.771253,-962.267725,-8734.430116,-1072.533697
492.771581,74.020594,-6809.894666,-1225.752797
492.771908,1554.432478,-5551.544565,0.000000
492.772236,3034.844362,-5773.606348,383.047749
492.772563,3108.864956,-8142.265362,229.828649
492.772891,1998.556043,-9918.759623,-383.047749
492.773219,888.247130,-10140.821405,153.219100
492.773546,814.226536,-9104.533087,383.047749
492.773874,1554.432478,-8956.491898,536.266849
492.774202,2368.659014,-10288.862594,612.876398
492.774529,2368.659014,-11769.274478,766.095498
492.774857,1628.453072,-11843.295072,229.828649
492.775184,1332.370696,-9770.718434,612.876398
492.775512,1998.556043,-8956.491898,919.314598
492.775840,1924.535449,-9252.574275,766.095498
492.776167,0.000000,-11621.233289,306.438199
492.776495,-2368.659014,-11843.295072,-766.095498
492.776823,-4071.132681,-10584.944971,-1225.752797
492.777150,-3775.050304,-8512.368333,-842.705048
492.777478,-2442.679609,-7994.224174,-689.485948
492.777805,-1110.308913,-8438.347739,-76.609550
492.778133,-1776.494261,-9400.615463,-536.266849
492.778461,-1628.453072,-8808.450710,-536.266849
492.778788,-518.144159,-6883.915261,0.000000
492.779116,962.267725,-6661.853478,919.314598
492.779444,1628.453072,-7994.224174,1302.362347
492.779771,592.164754,-10066.800811,1225.752797
492.780099,-592.164754,-11473.192101,1225.752797
492.780426,-1332.370696,-10362.883188,1608.800546
492.780754,-370.102971,-9622.677246,2145.067394
492.781082,370.102971,-10066.800811,2528.115143
492.781409,1184.329507,-11325.150913,2374.896044
492.781737,962.267725,-11917.315666,2451.505594
492.782065,666.185348,-10436.903782,2374.896044
492.782392,1406.391290,-8734.430116,2528.115143
492.782720,1184.329507,-8364.327145,2681.334243
492.783047,592.164754,-9770.718434,2451.505594
492.783375,-2294.638420,-10510.924376,995.924147
492.783703,-4145.153275,-10288.862594,0.000000
492.784030,-4219.173869,-7920.203579,153.219100
492.784358,-3182.885551,-6513.812290,229.828649
492.784686,-1998.556043,-6587.832884,229.828649
492.785013,-2072.576638,-7698.141797,536.266849
492.785341,-2516.700203,-7846.182985,229.828649
492.785669,-2442.679609,-6143.709319,0.000000
492.785996,-592.164754,-4885.359217,766.095498
492.786324,370.102971,-5625.565159,995.924147
492.786651,962.267725,-7105.977043,1072.533697
492.786979,-1406.391290,-9474.636058,689.485948
492.787307,-1924.535449,-9178.553681,459.657299
492.787634,-1332.370696,-7920.203579,612.876398
492.787962,296.082377,-8068.244768,1072.533697
492.788290,1480.411884,-9400.615463,919.314598
492.788617,1776.494261,-10955.047942,536.266849
492.788945,1554.432478,-10807.006753,306.438199
492.789272,2072.576638,-9178.553681,459.657299
492.789600,2812.782580,-8438.347739,995.924147
492.789928,2664.741391,-8956.491898,766.095498
492.790255,962.267725,-11103.089130,153.219100
492.790583,-1702.473667,-11695.253884,-919.314598
492.790911,-2220.617826,-9992.780217,-1225.752797
492.791238,-1554.432478,-8586.388927,-1225.752797
492.791566,-592.164754,-7846.182985,-459.657299
492.791893,444.123565,-9104.533087,-995.924147
492.792221,-370.102971,-9696.697840,-842.705048
492.792549,-518.144159,-8216.285956,-1149.143247
492.792876,370.102971,-6587.832884,0.000000
492.793204,2072.576638,-6661.853478,383.047749
492.793532,2442.679609,-8142.265362,459.657299
492.793859,888.247130,-10066.800811,383.047749
492.794187,-888.247130,-10658.965565,76.609550
492.794514,-1480.411884,-9696.697840,306.438199
492.794842,-518.144159,-9104.533087,612.876398
492.795170,888.247130,-9696.697840,1072.533697
492.795497,1554.432478,-11177.109724,612.876398
492.795825,962.267725,-11843.295072,766.095498
492.796153,888.247130,-10362.883188,766.095498
492.796480,1406.391290,-8734.430116,1225.752797
492.796808,1332.370696,-8956.491898,1762.019645
492.797135,814.226536,-10807.006753,1685.410096
492.797463,-2146.597232,-11843.295072,229.828649
492.797791,-3775.050304,-11325.150913,-153.219100
492.798118,-3849.070898,-9178.553681,306.438199
492.798446,-2812.782580,-8142.265362,306.438199
492.798774,-1480.411884,-8438.347739,842.705048
492.799101,-2294.638420,-9622.677246,153.219100
492.799429,-2516.700203,-9104.533087,-229.828649
492.799756,-1702.473667,-6883.915261,229.828649
492.800084,-148.041188,-5625.565159,842.705048
492.800412,1184.329507,-6513.812290,1762.019645
492.800739,444.123565,-8882.471304,842.705048
492.801067,-1258.350101,-10510.924376,1072.533697
492.801395,-2146.597232,-9770.718434,919.314598
492.801722,-1332.370696,-8660.409521,1302.362347
492.802050,0.000000,-8290.306550,2145.067394
492.802377,1702.473667,-9696.697840,2528.115143
492.802705,1776.494261,-11399.171507,2068.457845
492.803033,1628.453072,-10658.965565,2221.676944
492.803360,1850.514855,-8956.491898,2145.067394
492.803688,1924.535449,-8290.306550,1838.629195
492.804016,1258.350101,-9622.677246,1915.238745
492.804343,-962.267725,-11621.233289,995.924147
492.804671,-3108.864956,-11473.192101,0.000000
492.804999,-3330.926739,-9252.574275,-229.828649
492.805326,-2220.617826,-7328.038826,0.000000
492.805654,-1036.288319,-6883.915261,536.266849
492.805981,-592.164754,-8290.306550,0.000000
492.806309,-1258.350101,-8956.491898,-612.876398
492.806637,-1406.391290,-7179.997637,-536.266849
492.806964,-222.061783,-5995.668130,-153.219100
492.807292,740.205942,-5995.668130,383.047749
492.807620,1036.288319,-7920.203579,76.609550
492.807947,-518.144159,-9696.697840,0.000000
492.808275,-1998.556043,-10214.842000,-459.657299
492.808602,-1998.556043,-8808.450710,0.000000
492.808930,-148.041188,-7920.203579,689.485948
492.809258,1554.432478,-8734.430116,459.657299
492.809585,2220.617826,-10584.944971,306.438199
492.809913,1776.494261,-11029.068536,229.828649
492.810241,1924.535449,-9548.656652,306.438199
492.810568,2738.761985,-7994.224174,689.485948
492.810896,2516.700203,-8734.430116,536.266849
492.811223,1184.329507,-10732.986159,153.219100
492.811551,-444.123565,-12213.398043,0.000000
492.811879,-1776.494261,-11103.089130,-612.876398
492.812206,-1480.411884,-9252.574275,0.000000
492.812534,-148.041188,-7624.121203,842.705048
492.812862,740.205942,-9326.594869,536.266849
492.813189,148.041188,-10288.862594,76.609550
492.813517,-592.164754,-9770.718434,153.219100
492.813844,-444.123565,-7254.018232,306.438199
492.814172,592.164754,-6439.791695,1072.533697
492.814500,666.185348,-7550.100608,995.924147
492.814827,-814.226536,-9474.636058,383.047749
492.815155,-2368.659014,-10214.842000,0.000000
492.815483,-2590.720797,-8882.471304,0.000000
492.815810,-1998.556043,-7772.162391,383.047749
492.816138,296.082377,-8068.244768,1378.971896
492.816465,888.247130,-9178.553681,1225.752797
492.816793,962.267725,-10658.965565,1072.533697
492.817121,444.123565,-9696.697840,995.924147
492.817448,518.144159,-8512.368333,1762.019645
492.817776,518.144159,-8068.244768,1915.238745
492.818104,-148.041188,-9844.739029,1685.410096
492.818431,-1702.473667,-11695.253884,1149.143247
492.818759,-3108.864956,-11325.150913,459.657299
492.819086,-2664.741391,-9326.594869,612.876398
492.819414,-1776.494261,-7328.038826,1302.362347
492.819742,-222.061783,-7624.121203,1378.971896
492.820070,0.000000,-9030.512492,1072.533697
492.820397,-1850.514855,-9474.636058,612.876398
492.820725,-1332.370696,-7994.224174,383.047749
492.821053,0.000000,-5921.647536,766.095498
492.821380,1184.329507,-5847.626942,1302.362347
492.821708,592.164754,-8068.244768,1225.752797
492.822036,-740.205942,-10214.842000,919.314598
492.822363,-2664.741391,-9844.739029,0.000000
492.822691,-1702.473667,-8438.347739,306.438199
492.823019,-444.123565,-7994.224174,919.314598
492.823346,444.123565,-8882.471304,536.266849
492.823674,888.247130,-10584.944971,612.876398
492.824002,296.082377,-10732.986159,76.609550
492.824329,666.185348,-8438.347739,612.876398
492.824657,1332.370696,-7994.224174,919.314598
492.824985,1850.514855,-8364.327145,842.705048
492.825312,370.102971,-10436.903782,459.657299
492.825640,-1110.308913,-11103.089130,-459.657299
492.825968,-1850.514855,-10066.800811,-306.438199
492.826295,-888.247130,-7698.141797,153.219100
492.826623,370.102971,-8364.327145,153.219100
492.826951,148.041188,-9474.636058,0.000000
492.827278,-666.185348,-10732.986159,-842.705048
492.827606,-1184.329507,-9548.656652,-1302.362347
492.827934,-222.061783,-7698.141797,-1225.752797
492.828262,1406.391290,-7105.977043,-306.438199
492.828589,1998.556043,-8216.285956,153.219100
492.828917,666.185348,-10066.800811,-306.438199
492.829245,-1184.329507,-11177.109724,-689.485948
492.829572,-1924.535449,-10066.800811,-383.047749
492.829900,-1258.350101,-9400.615463,0.000000
492.830228,444.123565,-9326.594869,306.438199
492.830555,1406.391290,-10807.006753,383.047749
492.830883,1184.329507,-11917.315666,536.266849
492.831211,1110.308913,-10584.944971,842.705048
492.831538,1776.494261,-8882.471304,1532.190996
492.831866,1776.494261,-8956.491898,1685.410096
492.832194,1406.391290,-10436.903782,1685.410096
492.832521,-222.061783,-11843.295072,995.924147
492.832849,-1258.350101,-11251.130318,995.924147
492.833177,-1332.370696,-9326.594869,1455.581446
492.833504,0.000000,-8290.306550,1608.800546
492.833832,0.000000,-8512.368333,1762.019645
492.834160,-444.123565,-9992.780217,1149.143247
492.834487,-1554.432478,-9696.697840,689.485948
492.834815,-1480.411884,-7698.141797,766.095498
492.835143,-222.061783,-6587.832884,2145.067394
492.835471,222.061783,-7105.977043,2145.067394
492.835798,-814.226536,-9104.533087,1378.971896
492.836126,-3034.844362,-10658.965565,995.924147
492.836454,-4367.215058,-9474.636058,-229.828649
492.836781,-3701.029710,-7920.203579,995.924147
492.837109,-1998.556043,-7402.059420,1302.362347
492.837437,-740.205942,-8586.388927,1455.581446
492.837764,-592.164754,-9770.718434,1149.143247
492.838092,-740.205942,-9474.636058,766.095498
492.838420,0.000000,-7994.224174,1149.143247
492.838747,296.082377,-7105.977043,1378.971896
492.839075,222.061783,-8290.306550,1225.752797
492.839403,-740.205942,-10214.842000,459.657299
492.839730,-1998.556043,-10881.027347,-153.219100
492.840058,-1332.370696,-8734.430116,-153.219100
492.840386,296.082377,-7254.018232,459.657299
492.840713,1406.391290,-7476.080014,689.485948
492.841041,1258.350101,-8734.430116,612.876398
492.841369,740.205942,-9622.677246,0.000000
492.841696,740.205942,-7698.141797,-383.047749
492.842024,1850.514855,-6439.791695,153.219100
492.842352,2368.659014,-6809.894666,919.314598
492.842680,1924.535449,-8586.388927,842.705048
492.843007,-444.123565,-10288.862594,76.609550
492.843335,-2072.576638,-10732.986159,-536.266849
492.843663,-1998.556043,-9178.553681,-1072.533697
492.843990,-740.205942,-7994.224174,-229.828649
492.844318,592.164754,-8438.347739,0.000000
492.844646,666.185348,-9770.718434,-306.438199
492.844973,0.000000,-10510.924376,-689.485948
492.845301,0.000000,-8438.347739,-766.095498
492.845629,740.205942,-7476.080014,-383.047749
492.845956,1702.473667,-7402.059420,383.047749
492.846284,1332.370696,-9252.574275,153.219100
492.846612,-518.144159,-10881.027347,-229.828649
492.846939,-2220.617826,-10510.924376,0.000000
492.847267,-1628.453072,-9104.533087,0.000000
492.847595,-296.082377,-8512.368333,1072.533697
492.847922,222.061783,-9474.636058,919.314598
492.848250,-444.123565,-11029.068536,612.876398
492.848578,-962.267725,-10436.903782,612.876398
492.848905,222.061783,-8438.347739,1225.752797
492.849233,1406.391290,-7105.977043,1685.410096
492.849561,1776.494261,-7698.141797,1685.410096
492.849888,296.082377,-9696.697840,1072.533697
492.850216,-1628.453072,-10955.047942,153.219100
492.850544,-2590.720797,-9844.739029,-229.828649
492.850872,-1998.556043,-8586.388927,536.266849
492.851199,-814.226536,-8438.347739,1225.752797
492.851527,0.000000,-9844.739029,1302.362347
492.851855,-444.123565,-10658.965565,689.485948
492.852182,-1184.329507,-9696.697840,459.657299
492.852510,-370.102971,-7994.224174,766.095498
492.852838,296.082377,-7550.100608,1455.581446
492.853165,74.020594,-8512.368333,1608.800546
492.853493,-1110.308913,-10140.821405,1072.533697
492.853821,-1998.556043,-10214.842000,612.876398
492.854148,-1776.494261,-9030.512492,842.705048
492.854476,-666.185348,-7846.182985,1608.800546
492.854804,222.061783,-8216.285956,1302.362347
492.855131,296.082377,-9474.636058,1072.533697
492.855459,-370.102971,-9844.739029,612.876398
492.855787,0.000000,-8660.409521,459.657299
492.856114,1110.308913,-7476.080014,1378.971896
492.856442,1998.556043,-7772.162391,1915.238745
492.856770,592.164754,-9622.677246,1762.019645
492.857097,-1406.391290,-11917.315666,612.876398
492.857425,-3256.906145,-11325.150913,-306.438199
492.857753,-3108.864956,-9696.697840,0.000000
492.858081,-1332.370696,-8512.368333,383.047749
492.858408,-148.041188,-8734.430116,536.266849
492.858736,0.000000,-9844.739029,76.609550
492.859064,-592.164754,-9622.677246,-383.047749
492.859391,-518.144159,-7994.224174,-383.047749
492.859719,0.000000,-6957.935855,0.000000
492.860047,518.144159,-7550.100608,0.000000
492.860374,-666.185348,-9252.574275,-612.876398
492.860702,-2072.576638,-10066.800811,-995.924147
492.861030,-2072.576638,-9474.636058,-1072.533697
492.861357,-1332.370696,-8290.306550,-689.485948
492.861685,370.102971,-7698.141797,459.657299
492.862013,1406.391290,-8660.409521,306.438199
492.862340,1480.411884,-10140.821405,0.000000
492.862668,888.247130,-9548.656652,0.000000
492.862996,1480.411884,-7846.182985,306.438199
492.863323,2590.720797,-7476.080014,1149.143247
492.863651,2590.720797,-8734.430116,995.924147
492.863979,888.247130,-10732.986159,919.314598
492.864306,-1332.370696,-11547.212695,76.609550
492.864634,-1702.473667,-10066.800811,0.000000
492.864962,-444.123565,-8734.430116,306.438199
492.865290,1036.288319,-8808.450710,919.314598
492.865617,1184.329507,-9696.697840,1072.533697
492.865945,666.185348,-10807.006753,306.438199
492.866273,-148.041188,-9474.636058,536.266849
492.866600,-296.082377,-8142.265362,842.705048
492.866928,148.041188,-7698.141797,1378.971896
492.867256,74.020594,-8956.491898,1302.362347
492.867583,-1110.308913,-10066.800811,459.657299
492.867911,-2220.617826,-9992.780217,766.095498
492.868239,-1850.514855,-7994.224174,612.876398
492.868566,-814.226536,-7254.018232,1378.971896
492.868894,0.000000,-7846.182985,1532.190996
492.869222,-444.123565,-9400.615463,1838.629195
492.869549,-888.247130,-10140.821405,1149.143247
492.869877,-222.061783,-8660.409521,1378.971896
492.870205,1036.288319,-7550.100608,2068.457845
492.870532,1332.370696,-8290.306550,2528.115143
492.870860,148.041188,-10140.821405,2221.676944
492.871188,-1554.432478,-11695.253884,1149.143247
492.871515,-3034.844362,-10584.944971,229.828649
492.871843,-2442.679609,-9104.533087,153.219100
492.872171,-740.205942,-8734.430116,919.314598
492.872498,370.102971,-9400.615463,1072.533697
492.872826,0.000000,-10584.944971,0.000000
492.873154,-740.205942,-9844.739029,383.047749
492.873482,-814.226536,-8364.327145,229.828649
492.873809,-296.082377,-7920.203579,766.095498
492.874137,0.000000,-8068.244768,919.314598
492.874465,-814.226536,-9622.677246,-229.828649
492.874792,-2146.597232,-10510.924376,0.000000
492.875120,-2146.597232,-9400.615463,0.000000
492.875448,-592.164754,-7920.203579,229.828649
492.875775,592.164754,-7105.977043,536.266849
492.876103,1406.391290,-8068.244768,689.485948
492.876431,740.205942,-9178.553681,0.000000
492.876758,962.267725,-8438.347739,-306.438199
492.877086,2294.638420,-6809.894666,459.657299
492.877414,3182.885551,-6735.874072,1149.143247
492.877741,2516.700203,-8512.368333,1608.800546
492.878069,518.144159,-10881.027347,995.924147
492.878397,-2146.597232,-11991.336260,383.047749
492.878724,-2442.679609,-10510.924376,0.000000
492.879052,-1258.350101,-9474.636058,383.047749
492.879380,0.000000,-9400.615463,689.485948
492.879707,222.061783,-10214.842000,459.657299
492.880035,-740.205942,-9770.718434,-459.657299
492.880363,-1258.350101,-7772.162391,-1302.362347
492.880691,-74.020594,-6217.729913,-536.266849
492.881018,296.082377,-6217.729913,-153.219100
492.881346,0.000000,-7550.100608,-459.657299
492.881674,-2072.576638,-9474.636058,-1225.752797
492.882001,-3330.926739,-9400.615463,-1378.971896
492.882329,-2738.761985,-7994.224174,-689.485948
492.882657,-1184.329507,-7550.100608,0.000000
492.882984,0.000000,-8586.388927,612.876398
492.883312,370.102971,-10066.800811,842.705048
492.883640,74.020594,-10584.944971,689.485948
492.883967,1258.350101,-8956.491898,1225.752797
492.884295,3182.885551,-8068.244768,2374.896044
492.884623,3330.926739,-8734.430116,2451.505594
492.884950,2960.823768,-10955.047942,2298.286494
492.885278,-222.061783,-11991.336260,995.924147
492.885606,-1110.308913,-10807.006753,842.705048
492.885933,0.000000,-9474.636058,1302.362347
492.886261,814.226536,-9178.553681,1225.752797
492.886589,444.123565,-9918.759623,1302.362347
492.886916,0.000000,-11325.150913,1149.143247
492.887244,-1998.556043,-10584.944971,766.095498
492.887572,-1480.411884,-8956.491898,842.705048
492.887899,-1110.308913,-7846.182985,1225.752797
492.888227,-1258.350101,-8512.368333,766.095498
492.888555,-2220.617826,-9474.636058,536.266849
492.888883,-4145.153275,-10140.821405,-153.219100
492.889210,-3627.009116,-8068.244768,-229.828649
492.889538,-2072.576638,-6513.812290,383.047749
492.889866,-444.123565,-6291.750507,1455.581446
492.890193,0.000000,-8142.265362,1072.533697
492.890521,-148.041188,-9474.636058,919.314598
492.890849,0.000000,-8586.388927,842.705048
492.891176,1406.391290,-7476.080014,1762.019645
492.891504,1924.535449,-7772.162391,2374.896044
492.891832,1406.391290,-10066.800811,1685.410096
492.892159,-740.205942,-11843.295072,1378.971896
492.892487,-1850.514855,-11843.295072,383.047749
492.892815,-1406.391290,-10140.821405,306.438199
492.893142,222.061783,-9252.574275,842.705048
492.893470,1184.329507,-8808.450710,995.924147
492.893798,1702.473667,-10658.965565,229.828649
492.894125,0.000000,-10362.883188,-229.828649
492.894453,-888.247130,-8586.388927,-612.876398
492.894781,74.020594,-7254.018232,229.828649
492.895108,518.144159,-7254.018232,153.219100
492.895436,222.061783,-8734.430116,-306.438199
492.895764,-1924.535449,-10066.800811,-766.095498
492.896092,-2590.720797,-9104.533087,-842.705048
492.896419,-1776.494261,-7624.121203,-536.266849
492.896747,0.000000,-6809.894666,383.047749
492.897075,370.102971,-7254.018232,459.657299
492.897402,444.123565,-8956.491898,-153.219100
492.897730,888.247130,-8808.450710,0.000000
492.898058,1850.514855,-7476.080014,689.485948
492.898385,2738.761985,-7105.977043,1455.581446
492.898713,2960.823768,-8216.285956,2221.676944
492.899041,1554.432478,-10807.006753,1455.581446
492.899368,-1036.288319,-12361.439231,459.657299
492.899696,-2220.617826,-11399.171507,306.438199
492.900024,-1184.329507,-10214.842000,689.485948
492.900351,-148.041188,-9770.718434,1455.581446
492.900679,0.000000,-10510.924376,612.876398
492.901007,-1628.453072,-11103.089130,0.000000
492.901334,-1406.391290,-9622.677246,-229.828649
492.901662,-962.267725,-7476.080014,0.000000
492.901990,74.020594,-6143.709319,995.924147
492.902317,0.000000,-6661.853478,76.609550
492.902645,-1702.473667,-8882.471304,0.000000
492.902973,-3108.864956,-9400.615463,-612.876398
492.903301,-2960.823768,-8216.285956,-306.438199
492.903628,-2220.617826,-7105.977043,306.438199
492.903956,-518.144159,-7846.182985,1532.190996
492.904284,-592.164754,-9178.553681,689.485948
492.904611,-370.102971,-9770.718434,536.266849
492.904939,740.205942,-8586.388927,842.705048
492.905267,2368.659014,-7328.038826,1685.410096
492.905594,3256.906145,-7624.121203,1991.848295
492.905922,2886.803174,-9696.697840,2298.286494
492.906250,518.144159,-11473.192101,1072.533697
492.906577,-296.082377,-11399.171507,689.485948
492.906905,0.000000,-10214.842000,842.705048
492.907233,296.082377,-9474.636058,1072.533697
492.907560,1036.288319,-10288.862594,1915.238745
492.907888,370.102971,-11473.192101,1072.533697
492.908216,-1036.288319,-11251.130318,383.047749
492.908543,-1480.411884,-9326.594869,153.219100
492.908871,-370.102971,-7920.203579,1149.143247
492.909199,-666.185348,-8142.265362,766.095498
492.909526,-1554.432478,-9474.636058,76.609550
492.909854,-3849.070898,-10288.862594,-919.314598
492.910182,-4145.153275,-8956.491898,-1532.190996
492.910509,-3108.864956,-7179.997637,-766.095498
492.910837,-962.267725,-5921.647536,-383.047749
492.911165,74.020594,-7254.018232,0.000000
492.911493,444.123565,-9252.574275,-459.657299
492.911820,148.041188,-8882.471304,76.609550
492.912148,1628.453072,-8216.285956,689.485948
492.912476,2812.782580,-8290.306550,1455.581446
492.912803,2590.720797,-9696.697840,1762.019645
492.913131,962.267725,-11917.315666,1302.362347
492.913459,-888.247130,-12805.562797,536.266849
492.913786,-222.061783,-11695.253884,1072.533697
492.914114,1110.308913,-9770.718434,1378.971896
492.914442,1776.494261,-9474.636058,1838.629195
492.914769,1776.494261,-10658.965565,1532.190996
492.915097,740.205942,-11473.192101,995.924147
492.915425,-222.061783,-9918.759623,0.000000
492.915752,-148.041188,-7920.203579,536.266849
492.916080,296.082377,-7402.059420,306.438199
492.916408,-740.205942,-8290.306550,536.266849
492.916735,-2960.823768,-9770.718434,-229.828649
492.917063,-4367.215058,-9252.574275,-612.876398
492.917391,-4145.153275,-7550.100608,-689.485948
492.917718,-2146.597232,-6291.750507,306.438199
492.918046,-1184.329507,-6513.812290,0.000000
492.918374,-1110.308913,-7772.162391,76.609550
492.918702,-1036.288319,-8068.244768,0.000000
492.919029,-148.041188,-7031.956449,229.828649
492.919357,1258.350101,-6291.750507,1072.533697
492.919685,1776.494261,-6661.853478,1608.800546
492.920012,1332.370696,-9030.512492,1608.800546
492.920340,0.000000,-10807.006753,1072.533697
492.920668,-518.144159,-10881.027347,842.705048
492.920995,444.123565,-9548.656652,1532.190996
492.921323,1776.494261,-8808.450710,1991.848295
492.921651,2368.659014,-9696.697840,2068.457845
492.921978,1258.350101,-11251.130318,1225.752797
492.922306,0.000000,-10807.006753,689.485948
492.922634,0.000000,-8512.368333,919.314598
492.922961,148.041188,-7624.121203,1072.533697
492.923289,370.102971,-7772.162391,689.485948
492.923617,-1258.350101,-9252.574275,0.000000
492.923945,-3182.885551,-9992.780217,-842.705048
492.924272,-3404.947333,-8660.409521,-1072.533697
492.924600,-1924.535449,-7476.080014,-383.047749
492.924928,-1036.288319,-6809.894666,306.438199
492.925255,370.102971,-7994.224174,76.609550
492.925583,-222.061783,-9400.615463,-153.219100
492.925911,74.020594,-9030.512492,76.609550
492.926238,1184.329507,-7698.141797,689.485948
492.926566,1998.556043,-7624.121203,1991.848295
492.926894,1776.494261,-9178.553681,1838.629195
492.927221,222.061783,-11547.212695,1225.752797
492.927549,-1480.411884,-12139.377449,306.438199
492.927877,-962.267725,-10732.986159,383.047749
492.928205,814.226536,-9252.574275,1685.410096
492.928532,1332.370696,-9400.615463,1302.362347
492.928860,962.267725,-10807.006753,1149.143247
492.929188,-296.082377,-11325.150913,229.828649
492.929515,-962.267725,-10066.800811,0.000000
492.929843,0.000000,-8882.471304,0.000000
492.930171,74.020594,-8364.327145,766.095498
492.930498,-1110.308913,-9474.636058,306.438199
492.930826,-3034.844362,-10807.006753,-459.657299
492.931154,-4219.173869,-9918.759623,-1072.533697
492.931481,-3923.091493,-7698.141797,-995.924147
492.931809,-1850.514855,-6735.874072,-612.876398
492.932137,-666.185348,-7031.956449,-229.828649
492.932465,-740.205942,-8364.327145,-229.828649
492.932792,-592.164754,-8512.368333,-459.657299
492.933120,592.164754,-7328.038826,153.219100
492.933448,1998.556043,-6365.771101,1072.533697
492.933775,2812.782580,-7254.018232,1838.629195
492.934103,1998.556043,-9844.739029,1532.190996
492.934431,74.020594,-11695.253884,995.924147
492.934758,-296.082377,-11251.130318,1072.533697
492.935086,370.102971,-9548.656652,995.924147
492.935414,1110.308913,-9548.656652,1532.190996
492.935741,1184.329507,-10436.903782,995.924147
492.936069,444.123565,-11991.336260,612.876398
492.936397,-592.164754,-10955.047942,153.219100
492.936725,0.000000,-8882.471304,1455.581446
492.937052,666.185348,-7624.121203,459.657299
492.937380,370.102971,-8364.327145,612.876398
492.937708,-1702.473667,-9548.656652,-383.047749
492.938035,-3034.844362,-10066.800811,-1072.533697
492.938363,-3849.070898,-8438.347739,-842.705048
492.938691,-2146.597232,-7105.977043,-1072.533697
492.939018,-1184.329507,-7179.997637,0.000000
492.939346,-518.144159,-8438.347739,229.828649
492.939674,-444.123565,-9326.594869,0.000000
492.940001,0.000000,-7846.182985,919.314598
492.940329,1628.453072,-7031.956449,1302.362347
492.940657,2368.659014,-7550.100608,2068.457845
492.940985,1850.514855,-9400.615463,1838.629195
492.941312,518.144159,-11621.233289,1455.581446
492.941640,-740.205942,-11621.233289,766.095498
492.941968,0.000000,-9992.780217,1225.752797
492.942295,1406.391290,-9104.533087,1838.629195
492.942623,2072.576638,-10140.821405,2374.896044
492.942951,1110.308913,-11473.192101,1532.190996
492.943278,-148.041188,-11695.253884,995.924147
492.943606,-592.164754,-9918.759623,1149.143247
492.943934,-148.041188,-8956.491898,1225.752797
492.944261,-222.061783,-9178.553681,1149.143247
492.944589,-1702.473667,-10658.965565,919.314598
492.944917,-4071.132681,-11399.171507,-383.047749
492.945245,-4515.256246,-9844.739029,-383.047749
492.945572,-3478.967927,-7476.080014,-459.657299
492.945900,-1628.453072,-6735.874072,0.000000
492.946228,-740.205942,-7179.997637,0.000000
492.946555,-888.247130,-8068.244768,-536.266849
492.946883,-518.144159,-7772.162391,-306.438199
492.947211,814.226536,-6513.812290,459.657299
492.947538,1702.473667,-6069.688724,919.314598
492.947866,2368.659014,-7550.100608,1455.581446
492.948194,1480.411884,-10140.821405,1225.752797
492.948521,-296.082377,-11547.212695,766.095498
492.948849,0.000000,-10955.047942,995.924147
492.949177,592.164754,-9326.594869,995.924147
492.949505,1850.514855,-9474.636058,1608.800546
492.949832,2072.576638,-10658.965565,1378.971896
492.950160,1406.391290,-11621.233289,459.657299
492.950488,592.164754,-9770.718434,383.047749
492.950815,1332.370696,-8216.285956,689.485948
492.951143,1776.494261,-7254.018232,1149.143247
492.951471,296.082377,-8364.327145,306.438199
492.951798,-1554.432478,-10066.800811,-459.657299
492.952126,-3627.009116,-9992.780217,-1608.800546
492.952454,-3923.091493,-7772.162391,-1302.362347
492.952781,-2442.679609,-6661.853478,-689.485948
492.953109,-1258.350101,-6735.874072,-306.438199
492.953437,-1184.329507,-8068.244768,-306.438199
492.953765,-1850.514855,-9104.533087,-229.828649
492.954092,-1110.308913,-6735.874072,-383.047749
492.954420,370.102971,-5847.626942,306.438199
492.954748,1924.535449,-6365.771101,995.924147
492.955075,1406.391290,-8216.285956,1149.143247
492.955403,148.041188,-10140.821405,689.485948
492.955731,-592.164754,-10066.800811,153.219100
492.956058,0.000000,-9104.533087,1225.752797
492.956386,1258.350101,-9030.512492,1685.410096
492.956714,2072.576638,-9918.759623,1838.629195
492.957041,1258.350101,-11621.233289,1149.143247
492.957369,888.247130,-11399.171507,919.314598
492.957697,666.185348,-9474.636058,1302.362347
492.958025,1110.308913,-8364.327145,1685.410096
492.958352,1036.288319,-9030.512492,1762.019645
492.958680,-592.164754,-10510.924376,1149.143247
492.959008,-2886.803174,-11103.089130,76.609550
492.959335,-4145.153275,-9474.636058,0.000000
492.959663,-3330.926739,-8142.265362,0.000000
492.959991,-1850.514855,-7254.018232,76.609550
492.960318,-1628.453072,-8142.265362,536.266849
492.960646,-1776.494261,-8660.409521,76.609550
492.960974,-1850.514855,-7994.224174,-229.828649
492.961301,-666.185348,-6809.894666,229.828649
492.961629,444.123565,-6735.874072,1072.533697
492.961957,962.267725,-8438.347739,1302.362347
492.962285,-444.123565,-10658.965565,995.924147
492.962612,-1406.391290,-10807.006753,689.485948
492.962940,-1776.494261,-10140.821405,766.095498
492.963268,-222.061783,-9400.615463,1072.533697
492.963595,1036.288319,-9622.677246,1532.190996
492.963923,1258.350101,-11029.068536,1302.362347
492.964251,592.164754,-11325.150913,766.095498
492.964578,814.226536,-9992.780217,383.047749
492.964906,1258.350101,-8734.430116,1149.143247
492.965234,1480.411884,-8438.347739,1608.800546
492.965561,296.082377,-9992.780217,842.705048
492.965889,-1998.556043,-11399.171507,0.000000
492.966217,-3034.844362,-11029.068536,-383.047749
492.966545,-3478.967927,-9104.533087,-612.876398
492.966872,-2368.659014,-7772.162391,0.000000
492.967200,-1036.288319,-7846.182985,153.219100
492.967528,-962.267725,-8734.430116,76.609550
492.967855,-814.226536,-8512.368333,0.000000
492.968183,0.000000,-7031.956449,0.000000
492.968511,1258.350101,-6217.729913,689.485948
492.968838,2072.576638,-7105.977043,1149.143247
492.969166,888.247130,-8882.471304,919.314598
492.969494,-222.061783,-10214.842000,383.047749
492.969821,-1110.308913,-10214.842000,0.000000
492.970149,-148.041188,-9400.615463,919.314598
492.970477,1258.350101,-9104.533087,1455.581446
492.970805,1924.535449,-10140.821405,1685.410096
492.971132,1702.473667,-11103.089130,1302.362347
492.971460,1480.411884,-10807.006753,995.924147
492.971788,1184.329507,-9326.594869,1302.362347
492.972115,1554.432478,-8216.285956,1608.800546
492.972443,888.247130,-8956.491898,1378.971896
492.972771,-1184.329507,-10288.862594,536.266849
492.973098,-2886.803174,-10362.883188,-153.219100
492.973426,-3404.947333,-8882.471304,-536.266849
492.973754,-2516.700203,-7254.018232,0.000000
492.974081,-1332.370696,-6957.935855,0.000000
492.974409,-1628.453072,-7698.141797,0.000000
492.974737,-2072.576638,-7994.224174,-842.705048
492.975065,-1258.350101,-7254.018232,-612.876398
492.975392,0.000000,-5921.647536,0.000000
492.975720,1036.288319,-6365.771101,612.876398
492.976048,814.226536,-7994.224174,612.876398
492.976375,-444.123565,-10288.862594,995.924147
492.976703,-1258.350101,-10510.924376,0.000000
492.977031,-814.226536,-9696.697840,229.828649
492.977358,518.144159,-9030.512492,612.876398
492.977686,1850.514855,-9474.636058,1149.143247
492.978014,2294.638420,-10807.006753,1608.800546
492.978341,1702.473667,-10955.047942,536.266849
492.978669,1998.556043,-9918.759623,1072.533697
492.978997,2368.659014,-9104.533087,1608.800546
492.979325,2072.576638,-9104.533087,1532.190996
492.979652,0.000000,-10436.903782,1302.362347
492.979980,-2072.576638,-10807.006753,229.828649
492.980308,-3182.885551,-11103.089130,-612.876398
492.980635,-2664.741391,-9178.553681,-229.828649
492.980963,-1702.473667,-8586.388927,229.828649
492.981291,-1110.308913,-8882.471304,153.219100
492.981618,-1628.453072,-9844.739029,0.000000
492.981946,-1702.473667,-9104.533087,-536.266849
492.982274,-1110.308913,-7402.059420,-536.266849
492.982601,0.000000,-6587.832884,536.266849
492.982929,592.164754,-7328.038826,612.876398
492.983257,-148.041188,-8882.471304,306.438199
492.983585,-1628.453072,-10510.924376,-153.219100
492.983912,-1776.494261,-9696.697840,76.609550
492.984240,-592.164754,-8660.409521,383.047749
492.984568,814.226536,-8808.450710,1072.533697
492.984895,1406.391290,-9696.697840,1149.143247
492.985223,1406.391290,-10436.903782,612.876398
492.985551,1184.329507,-10066.800811,842.705048
492.985878,1998.556043,-9326.594869,1378.971896
492.986206,2294.638420,-9030.512492,1838.629195
492.986534,1184.329507,-9844.739029,2068.457845
492.986861,-444.123565,-11251.130318,536.266849
492.987189,-2072.576638,-11251.130318,153.219100
492.987517,-2072.576638,-9696.697840,76.609550
492.987845,-1480.411884,-8290.306550,459.657299
492.988172,-518.144159,-8068.244768,612.876398
492.988500,-814.226536,-8660.409521,229.828649
492.988828,-1184.329507,-8586.388927,-459.657299
492.989155,-962.267725,-7402.059420,0.000000
492.989483,74.020594,-6291.750507,459.657299
492.989811,888.247130,-6587.832884,1378.971896
492.990138,296.082377,-7550.100608,1149.143247
492.990466,-1258.350101,-9548.656652,842.705048
492.990794,-2294.638420,-9844.739029,306.438199
492.991121,-1850.514855,-8808.450710,766.095498
492.991449,-666.185348,-8512.368333,1225.752797
492.991777,296.082377,-9400.615463,1302.362347
492.992105,74.020594,-10140.821405,919.314598
492.992432,0.000000,-10066.800811,689.485948
492.992760,296.082377,-8882.471304,842.705048
492.993088,1184.329507,-8068.244768,1532.190996
492.993415,1480.411884,-8586.388927,1915.238745
492.993743,148.041188,-10066.800811,1225.752797
492.994071,-1776.494261,-11029.068536,229.828649
492.994398,-2590.720797,-9770.718434,-306.438199
492.994726,-1554.432478,-8364.327145,0.000000
492.995054,-814.226536,-7698.141797,383.047749
492.995381,518.144159,-8586.388927,919.314598
492.995709,-592.164754,-9622.677246,153.219100
492.996037,-962.267725,-8734.430116,0.000000
492.996365,0.000000,-7402.059420,0.000000
492.996692,1036.288319,-6957.935855,612.876398
492.997020,888.247130,-7698.141797,1685.410096
492.997348,-370.102971,-9696.697840,76.609550
492.997675,-2072.576638,-10436.903782,-536.266849
492.998003,-2146.597232,-9400.615463,-459.657299
492.998331,-666.185348,-8512.368333,0.000000
492.998658,740.205942,-8734.430116,459.657299
492.998986,1184.329507,-9474.636058,842.705048
492.999314,740.205942,-10807.006753,153.219100
492.999641,1036.288319,-9622.677246,383.047749
492.999969,1628.453072,-8364.327145,995.924147
493.000297,2146.597232,-8216.285956,1072.533697
493.000625,1628.453072,-9622.677246,1072.533697
493.000952,-296.082377,-11103.089130,383.047749
493.001280,-2072.576638,-10881.027347,-229.828649
493.001608,-1998.556043,-9326.594869,229.828649
493.001935,-814.226536,-8734.430116,689.485948
493.002263,148.041188,-8956.491898,689.485948
493.002591,-814.226536,-9474.636058,459.657299
493.002918,-1258.350101,-9696.697840,0.000000
493.003246,-1184.329507,-8068.244768,0.000000
493.003574,0.000000,-6957.935855,536.266849
493.003901,1184.329507,-7105.977043,1915.238745
493.004229,296.082377,-7994.224174,1149.143247
493.004557,-1110.308913,-10140.821405,536.266849
493.004885,-2368.659014,-9622.677246,76.609550
493.005212,-2220.617826,-8808.450710,383.047749
493.005540,-1110.308913,-8660.409521,459.657299
493.005868,-296.082377,-9178.553681,1378.971896
493.006195,-444.123565,-10436.903782,459.657299
493.006523,-592.164754,-10140.821405,229.828649
493.006851,444.123565,-8586.388927,919.314598
493.007178,1998.556043,-7846.182985,1455.581446
493.007506,1702.473667,-8660.409521,1532.190996
493.007834,0.000000,-10436.903782,536.266849
493.008161,-1480.411884,-10807.006753,0.000000
493.008489,-1776.494261,-9474.636058,0.000000
493.008817,-518.144159,-8290.306550,536.266849
493.009145,814.226536,-8068.244768,1225.752797
493.009472,1110.308913,-8882.471304,1302.362347
493.009800,296.082377,-9622.677246,919.314598
493.010128,0.000000,-8660.409521,766.095498
493.010455,370.102971,-7476.080014,766.095498
493.010783,666.185348,-7402.059420,1378.971896
493.011111,370.102971,-8956.491898,1455.581446
493.011438,-1406.391290,-10510.924376,612.876398
493.011766,-2516.700203,-10658.965565,76.609550
493.012094,-2294.638420,-9548.656652,229.828649
493.012421,-444.123565,-8512.368333,766.095498
493.012749,592.164754,-8512.368333,306.438199
493.013077,370.102971,-9548.656652,612.876398
493.013405,-148.041188,-10214.842000,229.828649
493.013732,-296.082377,-8882.471304,153.219100
493.014060,222.061783,-7920.203579,383.047749
493.014388,592.164754,-7772.162391,1302.362347
493.014715,-296.082377,-9474.636058,919.314598
493.015043,-1702.473667,-10881.027347,306.438199
493.015371,-2664.741391,-10362.883188,153.219100
493.015698,-1850.514855,-9178.553681,76.609550
493.016026,-814.226536,-8660.409521,766.095498
493.016354,-148.041188,-8660.409521,459.657299
493.016681,0.000000,-9622.677246,383.047749
493.017009,0.000000,-9474.636058,0.000000
493.017337,444.123565,-7994.224174,229.828649
493.017665,1184.329507,-7105.977043,689.485948
493.017992,1924.535449,-7994.224174,1378.971896
493.018320,518.144159,-10066.800811,612.876398
493.018648,-1480.411884,-11103.089130,0.000000
493.018975,-2146.597232,-10214.842000,-612.876398
493.019303,-1406.391290,-9400.615463,536.266849
493.019631,222.061783,-8956.491898,842.705048
493.019958,444.123565,-9696.697840,766.095498
493.020286,296.082377,-10658.965565,306.438199
493.020614,0.000000,-9918.759623,229.828649
493.020941,148.041188,-8364.327145,459.657299
493.021269,1184.329507,-7772.162391,536.266849
493.021597,592.164754,-8512.368333,919.314598
493.021925,-296.082377,-10066.800811,766.095498
493.022252,-1998.556043,-10214.842000,0.000000
493.022580,-1924.535449,-9104.533087,153.219100
493.022907,-1184.329507,-7624.121203,1149.143247
493.023235,-148.041188,-7920.203579,842.705048
493.023562,-222.061783,-9400.615463,536.266849
493.023890,-888.247130,-9992.780217,612.876398
493.024217,-444.123565,-8734.430116,306.438199
493.024545,370.102971,-6883.915261,919.314598
493.024872,1554.432478,-7476.080014,1378.971896
493.025200,962.267725,-9030.512492,1225.752797
493.025527,-518.144159,-10214.842000,766.095498
493.025855,-1776.494261,-9992.780217,459.657299
493.026182,-2146.597232,-8956.491898,459.657299
493.026510,-666.185348,-8290.306550,919.314598
493.026837,-148.041188,-8808.450710,919.314598
493.027165,-444.123565,-9918.759623,612.876398
493.027492,-740.205942,-10214.842000,689.485948
493.027820,-222.061783,-8660.409521,612.876398
493.028147,444.123565,-6883.915261,689.485948
493.028475,1184.329507,-7698.141797,1302.362347
493.028802,148.041188,-9030.512492,919.314598
493.029130,-1258.350101,-10362.883188,306.438199
493.029457,-2368.659014,-9622.677246,-306.438199
493.029785,-1332.370696,-8142.265362,689.485948
493.030112,-222.061783,-8068.244768,459.657299
493.030440,296.082377,-8734.430116,766.095498
493.030767,148.041188,-9770.718434,689.485948
493.031095,74.020594,-9474.636058,459.657299
493.031422,666.185348,-8660.409521,1149.143247
493.031750,1702.473667,-8142.265362,1685.410096
493.032077,1332.370696,-8956.491898,1225.752797
493.032405,0.000000,-10436.903782,612.876398
493.032732,-1702.473667,-11103.089130,0.000000
493.033060,-2146.597232,-9844.739029,-153.219100
493.033387,-888.247130,-8364.327145,383.047749
493.033715,444.123565,-8142.265362,919.314598
493.034042,888.247130,-9030.512492,689.485948
493.034370,0.000000,-9844.739029,153.219100
493.034697,-370.102971,-9326.594869,0.000000
493.035025,-518.144159,-7846.182985,0.000000
493.035352,444.123565,-8216.285956,766.095498
493.035680,0.000000,-9178.553681,919.314598
493.036007,-1332.370696,-10807.006753,229.828649
493.036335,-2368.659014,-10510.924376,-153.219100
493.036662,-1776.494261,-8956.491898,-459.657299
493.036990,-888.247130,-8290.306550,383.047749
493.037317,0.000000,-8142.265362,153.219100
493.037645,0.000000,-9252.574275,306.438199
493.037972,0.000000,-9474.636058,0.000000
493.038300,296.082377,-8216.285956,383.047749
493.038627,1480.411884,-7550.100608,919.314598
493.038955,1776.494261,-7994.224174,1378.971896
493.039282,666.185348,-9474.636058,1225.752797
493.039610,-1184.329507,-11103.089130,536.266849
493.039937,-2368.659014,-10807.006753,-229.828649
493.040265,-2072.576638,-9548.656652,383.047749
493.040592,-888.247130,-8956.491898,766.095498
493.040920,-296.082377,-9326.594869,689.485948
493.041247,0.000000,-10362.883188,536.266849
493.041575,-370.102971,-9918.759623,153.219100
493.041902,0.000000,-7402.059420,76.609550
493.042230,1110.308913,-7476.080014,689.485948
493.042557,1258.350101,-7550.100608,842.705048
493.042885,740.205942,-9030.512492,536.266849
493.043212,-888.247130,-10066.800811,383.047749
493.043540,-1702.473667,-9326.594869,306.438199
493.043867,-1036.288319,-9104.533087,536.266849
493.044195,-222.061783,-8734.430116,1225.752797
493.044522,148.041188,-9326.594869,1225.752797
493.044850,-148.041188,-9992.780217,919.314598
493.045177,-148.041188,-9178.553681,536.266849
493.045505,1332.370696,-7476.080014,1378.971896
493.045832,1924.535449,-7105.977043,2145.067394
493.046160,1776.494261,-7920.203579,1991.848295
493.046487,222.061783,-9474.636058,1455.581446
493.046815,-1554.432478,-10362.883188,766.095498
493.047142,-2516.700203,-10066.800811,612.876398
493.047470,-2146.597232,-9104.533087,689.485948
493.047797,-1554.432478,-9030.512492,689.485948
493.048125,-1480.411884,-9918.759623,306.438199
493.048452,-2368.659014,-10436.903782,0.000000
493.048780,-1776.494261,-8512.368333,-383.047749
493.049107,-444.123565,-7179.997637,-153.219100
493.049435,666.185348,-6883.915261,536.266849
493.049762,666.185348,-7920.203579,76.609550
493.050090,-666.185348,-9548.656652,0.000000
493.050417,-1850.514855,-9474.636058,-459.657299
493.050745,-1480.411884,-8364.327145,-229.828649
493.051072,-666.185348,-7994.224174,459.657299
493.051400,148.041188,-8734.430116,689.485948
493.051727,370.102971,-9918.759623,689.485948
493.052055,740.205942,-10066.800811,919.314598
493.052382,1554.432478,-8660.409521,1225.752797
493.052710,2442.679609,-8142.265362,1608.800546
493.053037,3034.844362,-8882.471304,2068.457845
493.053365,1850.514855,-10288.862594,1532.190996
493.053692,-296.082377,-11547.212695,459.657299
493.054020,-1480.411884,-10214.842000,306.438199
493.054347,-1036.288319,-9474.636058,229.828649
493.054675,-296.082377,-8882.471304,459.657299
493.055002,0.000000,-9400.615463,383.047749
493.055330,-592.164754,-10288.862594,0.000000
493.055657,-1184.329507,-9622.677246,153.219100
493.055985,-1332.370696,-7994.224174,0.000000
493.056312,74.020594,-7402.059420,459.657299
493.056640,74.020594,-8068.244768,459.657299
493.056967,-888.247130,-9622.677246,229.828649
493.057295,-2368.659014,-10140.821405,-153.219100
493.057622,-2590.720797,-9104.533087,-383.047749
493.057950,-1924.535449,-7402.059420,0.000000
493.058277,-370.102971,-7402.059420,612.876398
493.058605,222.061783,-8512.368333,536.266849
493.058932,592.164754,-9400.615463,1072.533697
493.059260,740.205942,-8216.285956,766.095498
493.059587,1776.494261,-7624.121203,1302.362347
493.059915,2368.659014,-7920.203579,2221.676944
493.060242,1924.535449,-9474.636058,2298.286494
493.060570,370.102971,-11325.150913,1762.019645
493.060897,-1258.350101,-11473.192101,1072.533697
493.061225,-1554.432478,-10510.924376,1072.533697
493.061552,-962.267725,-9696.697840,1608.800546
493.061880,-592.164754,-9474.636058,919.314598
493.062207,-1332.370696,-10436.903782,612.876398
493.062535,-1036.288319,-9844.739029,0.000000
493.062862,-1258.350101,-8808.450710,153.219100
493.063190,-518.144159,-7105.977043,459.657299
493.063517,444.123565,-7105.977043,689.485948
493.063845,0.000000,-8068.244768,459.657299
493.064172,-1850.514855,-9104.533087,0.000000
493.064500,-2812.782580,-8734.430116,-229.828649
493.064827,-2812.782580,-8216.285956,0.000000
493.065155,-1702.473667,-7772.162391,459.657299
493.065482,-740.205942,-8364.327145,919.314598
493.065810,74.020594,-9474.636058,842.705048
493.066137,444.123565,-9696.697840,919.314598
493.066465,1184.329507,-8216.285956,842.705048
493.066792,2516.700203,-7772.162391,1532.190996
493.067120,2812.782580,-8364.327145,1838.629195
493.067447,1702.473667,-10362.883188,1225.752797
493.067775,-222.061783,-11695.253884,842.705048
493.068102,-1332.370696,-10955.047942,76.609550
493.068430,-666.185348,-9844.739029,536.266849
493.068757,0.000000,-9918.759623,689.485948
493.069085,0.000000,-10807.006753,459.657299
493.069412,-296.082377,-11325.150913,0.000000
493.069740,-592.164754,-10436.903782,-536.266849
493.070067,-518.144159,-8512.368333,153.219100
493.070395,148.041188,-7920.203579,306.438199
493.070722,0.000000,-8734.430116,229.828649
493.071050,-1554.432478,-9622.677246,0.000000
493.071377,-2886.803174,-9696.697840,-1072.533697
493.071705,-2960.823768,-8068.244768,-766.095498
493.072032,-1554.432478,-6809.894666,-383.047749
493.072360,370.102971,-7105.977043,459.657299
493.072687,1406.391290,-8290.306550,536.266849
493.073015,1184.329507,-8808.450710,689.485948
493.073342,1258.350101,-8216.285956,536.266849
493.073670,1702.473667,-7402.059420,1378.971896
493.073997,1998.556043,-8364.327145,1762.019645
493.074325,1184.329507,-10584.944971,1838.629195
493.074652,-370.102971,-11991.336260,1915.238745
493.074980,-1332.370696,-11991.336260,919.314598
493.075307,-1258.350101,-10362.883188,1072.533697
493.075635,-222.061783,-9548.656652,1149.143247
493.075962,0.000000,-9622.677246,1072.533697
493.076290,0.000000,-10510.924376,842.705048
493.076617,-666.185348,-10510.924376,0.000000
493.076945,-1702.473667,-8438.347739,-383.047749
493.077272,-222.061783,-7105.977043,76.609550
493.077600,222.061783,-7031.956449,306.438199
493.077927,-296.082377,-8438.347739,842.705048
493.078255,-1776.494261,-9252.574275,76.609550
493.078582,-3108.864956,-8660.409521,0.000000
493.078910,-2590.720797,-7402.059420,153.219100
493.079237,-1628.453072,-7105.977043,536.266849
493.079565,-740.205942,-7550.100608,919.314598
493.079892,-222.061783,-8808.450710,383.047749
493.080220,74.020594,-8882.471304,1072.533697
493.080547,1036.288319,-7179.997637,1455.581446
493.080875,2294.638420,-7105.977043,1915.238745
493.081202,2590.720797,-8364.327145,2068.457845
493.081530,1554.432478,-10214.842000,2298.286494
493.081857,-370.102971,-10881.027347,766.095498
493.082185,-888.247130,-9918.759623,459.657299
493.082512,0.000000,-9474.636058,1302.362347
493.082840,74.020594,-9474.636058,1149.143247
493.083167,740.205942,-10510.924376,1072.533697
493.083495,-222.061783,-11029.068536,842.705048
493.083822,-1258.350101,-10066.800811,76.609550
493.084150,-888.247130,-8364.327145,459.657299
493.084477,74.020594,-7624.121203,919.314598
493.084805,-296.082377,-8364.327145,612.876398
493.085132,-1850.514855,-9252.574275,229.828649
493.085460,-2812.782580,-9400.615463,-383.047749
493.085787,-3034.844362,-7772.162391,-612.876398
493.086115,-1554.432478,-6587.832884,-229.828649
493.086442,-148.041188,-6809.894666,383.047749
493.086770,296.082377,-8142.265362,306.438199
493.087097,-296.082377,-9030.512492,-306.438199
493.087425,296.082377,-7772.162391,153.219100
493.087752,1258.350101,-7105.977043,842.705048
493.088080,2072.576638,-8142.265362,1455.581446
493.088407,1110.308913,-10658.965565,842.705048
493.088735,-592.164754,-12361.439231,995.924147
493.089062,-1258.350101,-11917.315666,383.047749
493.089390,-740.205942,-10658.965565,842.705048
493.089717,370.102971,-10066.800811,842.705048
493.090045,1258.350101,-10288.862594,995.924147
493.090372,592.164754,-11103.089130,383.047749
493.090700,-814.226536,-10807.006753,0.000000
493.091027,-1036.288319,-8734.430116,-229.828649
493.091355,-296.082377,-7846.182985,0.000000
493.091682,222.061783,-7698.141797,0.000000
493.092010,-666.185348,-9400.615463,-459.657299
493.092337,-2664.741391,-10362.883188,-1149.143247
493.092665,-3552.988522,-9252.574275,-1378.971896
493.092992,-2442.679609,-7920.203579,-612.876398
493.093320,-296.082377,-7179.997637,76.609550
493.093647,1480.411884,-8068.244768,153.219100
493.093975,1332.370696,-9252.574275,689.485948
493.094302,1702.473667,-9178.553681,1149.143247
493.094630,2664.741391,-7772.162391,1915.238745
493.094957,3923.091493,-7772.162391,2834.553343
493.095285,3923.091493,-8808.450710,3064.381992
493.095612,2664.741391,-11473.192101,2911.162892
493.095940,962.267725,-12065.356855,2528.115143
493.096267,148.041188,-11103.089130,2528.115143
493.096595,888.247130,-9622.677246,3294.210641
493.096922,2072.576638,-9474.636058,3830.477490
493.097250,1554.432478,-10807.006753,3140.991542
493.097577,0.000000,-11473.192101,2757.943793
493.097905,-1406.391290,-10214.842000,2298.286494
493.098232,-1554.432478,-8290.306550,2451.505594
493.098560,-1554.432478,-7105.977043,2757.943793
493.098887,-1258.350101,-8068.244768,2681.334243
493.099215,-2960.823768,-9548.656652,2068.457845
493.099542,-5625.565159,-9992.780217,1302.362347
493.099870,-6735.874072,-8364.327145,919.314598
493.100197,-5625.565159,-6587.832884,1378.971896
493.100525,-2590.720797,-6069.688724,1915.238745
493.100852,-1110.308913,-6957.935855,1685.410096
493.101180,-1258.350101,-7550.100608,1455.581446
493.101507,-1924.535449,-7624.121203,1455.581446
493.101835,-1480.411884,-6661.853478,1991.848295
493.102162,518.144159,-6365.771101,2681.334243
493.102490,3182.885551,-7846.182985,3600.648841
493.102817,3701.029710,-9992.780217,4060.306139
493.103145,2886.803174,-11473.192101,4213.525239
493.103472,1184.329507,-11325.150913,4290.134789
493.103800,518.144159,-10584.944971,4749.792088
493.104127,2516.700203,-10658.965565,4903.011187
493.104455,3997.112087,-11029.068536,4596.572988
493.104782,4145.153275,-11769.274478,4826.401637
493.105110,2368.659014,-11399.171507,4366.744339
493.105437,0.000000,-9770.718434,3907.087040
493.105765,-1702.473667,-8808.450710,3447.429741
493.106092,0.000000,-8142.265362,3064.381992
493.106420,1258.350101,-7994.224174,3217.601092
493.106747,814.226536,-8068.244768,3217.601092
493.107075,-1480.411884,-7994.224174,2987.772442
493.107402,-4441.235652,-8216.285956,2604.724693
493.107730,-6217.729913,-8808.450710,1762.019645
493.108057,-5773.606348,-8956.491898,995.924147
493.108385,-3997.112087,-8808.450710,536.266849
493.108712,-1776.494261,-7698.141797,1302.362347
493.109040,-1406.391290,-7105.977043,2987.772442
493.109367,-1036.288319,-7624.121203,2681.334243
493.109695,-1480.411884,-8512.368333,2681.334243
493.110022,-1480.411884,-9474.636058,1685.410096
493.110350,-1480.411884,-9844.739029,919.314598
493.110677,-296.082377,-9918.759623,1608.800546
493.111005,1702.473667,-9104.533087,3524.039291
493.111332,3849.070898,-8956.491898,5056.230287
493.111660,5329.482782,-9770.718434,5822.325785
493.111987,5033.400406,-10955.047942,5669.106685
493.112315,2738.761985,-11547.212695,4826.401637
493.112642,0.000000,-11547.212695,4136.915689
493.112970,-1110.308913,-11325.150913,3447.429741
493.113297,-888.247130,-10658.965565,3217.601092
493.113625,2220.617826,-9474.636058,4826.401637
493.113952,5181.441594,-8660.409521,5515.887586
493.114280,3775.050304,-8512.368333,5975.544884
493.114607,962.267725,-8290.306550,4903.011187
493.114935,-2664.741391,-8660.409521,3447.429741
493.115262,-5403.503377,-9030.512492,1838.629195
493.115590,-5625.565159,-9030.512492,995.924147
493.115917,-3701.029710,-8290.306550,1838.629195
493.116245,-1480.411884,-7179.997637,2757.943793
493.116572,444.123565,-6957.935855,4903.011187
493.116900,740.205942,-6957.935855,5132.839837
493.117227,-518.144159,-7994.224174,4979.620737
493.117555,-2516.700203,-8882.471304,3600.648841
493.117882,-4219.173869,-10066.800811,1991.848295
493.118210,-5847.626942,-10288.862594,1378.971896
493.118537,-4737.318029,-10214.842000,1225.752797
493.118865,-2368.659014,-9548.656652,2298.286494
493.119192,592.164754,-8438.347739,3524.039291
493.119520,3182.885551,-7105.977043,4519.963438
493.119847,2812.782580,-7698.141797,4213.525239
493.120175,2072.576638,-8290.306550,3370.820191
493.120502,666.185348,-9474.636058,2451.505594
493.120830,148.041188,-10066.800811,2221.676944
493.121157,666.185348,-10214.842000,2681.334243
493.121485,1036.288319,-10214.842000,3524.039291
493.121812,1258.350101,-9844.739029,4213.525239
493.122140,1184.329507,-9622.677246,4596.572988
493.122468,592.164754,-9178.553681,2987.772442
493.122795,370.102971,-9474.636058,3217.601092
493.123123,1184.329507,-9400.615463,2681.334243
493.123450,666.185348,-9178.553681,2374.896044
493.123778,888.247130,-7994.224174,2757.943793
493.124105,1776.494261,-8438.347739,2987.772442
493.124433,1628.453072,-7994.224174,4060.306139
493.124760,1406.391290,-8290.306550,3677.258390
493.125088,1332.370696,-9474.636058,3677.258390
493.125415,-740.205942,-9104.533087,3524.039291
493.125743,-1036.288319,-9992.780217,3447.429741
493.126071,-1924.535449,-9918.759623,3447.429741
493.126398,-2368.659014,-9918.759623,3524.039291
493.126726,-1554.432478,-9918.759623,3217.601092
493.127053,-1406.391290,-9474.636058,3217.601092
493.127381,-1332.370696,-8364.327145,3140.991542
493.127708,-1110.308913,-8290.306550,3064.381992
493.128036,-1702.473667,-7994.224174,2451.505594
493.128363,-1628.453072,-8512.368333,2451.505594
493.128691,-1406.391290,-8068.244768,2451.505594
493.129019,-1480.411884,-8364.327145,2911.162892
493.129346,-814.226536,-8364.327145,3064.381992
493.129674,74.020594,-8660.409521,3907.087040
493.130001,296.082377,-9474.636058,3677.258390
493.130329,814.226536,-9770.718434,3983.696590
493.130656,666.185348,-10510.924376,3907.087040
493.130984,-296.082377,-10436.903782,4060.306139
493.131311,-222.061783,-10510.924376,4519.963438
493.131639,0.000000,-9844.739029,3830.477490
493.131967,444.123565,-9474.636058,3753.867940
493.132294,444.123565,-9326.594869,3370.820191
493.132622,1036.288319,-8660.409521,2834.553343
493.132949,888.247130,-8808.450710,3294.210641
493.133277,222.061783,-9400.615463,3140.991542
493.133604,-296.082377,-9548.656652,2451.505594
493.133932,-814.226536,-9548.656652,2145.067394
493.134259,-888.247130,-9474.636058,2298.286494
493.134587,-148.041188,-9030.512492,2451.505594
493.134915,-814.226536,-8882.471304,2604.724693
493.135242,-592.164754,-9326.594869,1838.629195
493.135570,-888.247130,-9474.636058,1991.848295
493.135897,-1776.494261,-9326.594869,1762.019645
493.136225,-1628.453072,-9104.533087,1762.019645
493.136552,-814.226536,-8290.306550,1608.800546
493.136880,-444.123565,-7920.203579,1608.800546
493.137207,370.102971,-8068.244768,1302.362347
493.137535,444.123565,-8438.347739,1072.533697
493.137862,296.082377,-8512.368333,995.924147
493.138190,148.041188,-8586.388927,1302.362347
493.138518,-296.082377,-9326.594869,1302.362347
493.138845,-666.185348,-9918.759623,1225.752797
493.139173,222.061783,-10214.842000,1455.581446
493.139500,888.247130,-10214.842000,1455.581446
493.139828,1480.411884,-10066.800811,1762.019645
493.140155,1036.288319,-9474.636058,1915.238745
493.140483,1332.370696,-9696.697840,1915.238745
493.140810,740.205942,-9400.615463,1225.752797
493.141138,-444.123565,-9326.594869,919.314598
493.141466,-444.123565,-9252.574275,842.705048
493.141793,-592.164754,-8660.409521,919.314598
493.142121,-444.123565,-8660.409521,766.095498
493.142448,-296.082377,-8734.430116,612.876398
493.142776,-74.020594,-8660.409521,766.095498
493.143103,-518.144159,-8660.409521,536.266849
493.143431,-222.061783,-8290.306550,919.314598
493.143758,-592.164754,-7994.224174,383.047749
493.144086,-666.185348,-8512.368333,306.438199
493.144414,-370.102971,-8808.450710,383.047749
493.144741,-370.102971,-8956.491898,459.657299
493.145069,-296.082377,-9104.533087,1072.533697
493.145396,-518.144159,-8734.430116,1149.143247
493.145724,-592.164754,-9104.533087,1149.143247
493.146051,-518.144159,-9252.574275,919.314598
493.146379,-222.061783,-9178.553681,766.095498
493.146706,0.000000,-9030.512492,689.485948
493.147034,74.020594,-8660.409521,1302.362347
493.147362,-148.041188,-9030.512492,1072.533697
493.147689,0.000000,-9104.533087,1149.143247
493.148017,-148.041188,-9252.574275,1455.581446
493.148344,-370.102971,-9400.615463,1225.752797
493.148672,-370.102971,-9326.594869,1455.581446
493.148999,0.000000,-9178.553681,689.485948
493.149327,-666.185348,-8882.471304,536.266849
493.149654,-296.082377,-8808.450710,689.485948
493.149982,0.000000,-8956.491898,995.924147
493.150309,0.000000,-9030.512492,1072.533697
493.150637,-222.061783,-8956.491898,1225.752797
493.150965,-814.226536,-8882.471304,1072.533697
493.151292,-962.267725,-8956.491898,766.095498
493.151620,-1184.329507,-9178.553681,536.266849
493.151947,-740.205942,-9252.574275,536.266849
493.152275,-666.185348,-8808.450710,459.657299
493.152602,-370.102971,-9030.512492,766.095498
493.152930,-148.041188,-9030.512492,612.876398
493.153257,0.000000,-9030.512492,536.266849
493.153585,74.020594,-9178.553681,612.876398
493.153913,74.020594,-9770.718434,689.485948
493.154240,-370.102971,-9400.615463,229.828649
493.154568,-444.123565,-9696.697840,536.266849
493.154895,-518.144159,-9844.739029,689.485948
493.155223,-370.102971,-9844.739029,536.266849
493.155550,0.000000,-9400.615463,919.314598
493.155878,148.041188,-9548.656652,229.828649
493.156205,222.061783,-9326.594869,536.266849
493.156533,148.041188,-9104.533087,383.047749
493.156861,444.123565,-9104.533087,383.047749
493.157188,222.061783,-9252.574275,919.314598
493.157516,0.000000,-9252.574275,995.924147
493.157843,0.000000,-9326.594869,306.438199
493.158171,-296.082377,-9326.594869,459.657299
493.158498,74.020594,-9252.574275,459.657299
493.158826,222.061783,-9104.533087,689.485948
493.159153,222.061783,-8660.409521,229.828649
493.159481,296.082377,-8956.491898,383.047749
493.159809,0.000000,-8808.450710,306.438199
493.160136,-370.102971,-8586.388927,153.219100
493.160464,-740.205942,-8808.450710,306.438199
493.160791,-592.164754,-9030.512492,229.828649
493.161119,-888.247130,-8956.491898,536.266849
493.161446,-740.205942,-9030.512492,459.657299
493.161774,-592.164754,-8882.471304,306.438199
493.162101,-666.185348,-8660.409521,536.266849
493.162429,-444.123565,-8290.306550,0.000000
493.162756,-518.144159,-8364.327145,766.095498
493.163084,-370.102971,-8808.450710,383.047749
493.163412,-592.164754,-8808.450710,459.657299
493.163739,-666.185348,-9104.533087,842.705048
493.164067,-740.205942,-9252.574275,766.095498
493.164394,-1110.308913,-9400.615463,689.485948
493.164722,-740.205942,-9474.636058,612.876398
493.165049,-666.185348,-9326.594869,766.095498
493.165377,-518.144159,-9030.512492,842.705048
493.165704,-222.061783,-8660.409521,612.876398
493.166032,-370.102971,-8364.327145,153.219100
493.166360,0.000000,-8882.471304,459.657299
493.166687,-148.041188,-9104.533087,689.485948
493.167015,-370.102971,-9178.553681,842.705048
493.167342,-592.164754,-9326.594869,536.266849
493.167670,-296.082377,-9326.594869,1149.143247
493.167997,0.000000,-9326.594869,536.266849
493.168325,-148.041188,-9326.594869,842.705048
493.168652,0.000000,-9030.512492,459.657299
493.168980,-444.123565,-8882.471304,229.828649
493.169308,-370.102971,-9030.512492,766.095498
493.169635,-296.082377,-9030.512492,459.657299
493.169963,-740.205942,-9326.594869,306.438199
493.170290,-666.185348,-9474.636058,536.266849
493.170618,-740.205942,-9326.594869,459.657299
493.170945,-888.247130,-8956.491898,842.705048
493.171273,-740.205942,-8290.306550,689.485948
493.171600,-296.082377,-9104.533087,459.657299
493.171928,-444.123565,-8882.471304,383.047749
493.172255,-296.082377,-9104.533087,459.657299
493.172583,-444.123565,-9178.553681,459.657299
493.172911,-518.144159,-9104.533087,919.314598
493.173238,-518.144159,-9696.697840,459.657299
493.173566,-518.144159,-9622.677246,842.705048
493.173893,-444.123565,-9474.636058,612.876398
493.174221,-222.061783,-9400.615463,536.266849
493.174548,0.000000,-8956.491898,536.266849
493.174876,-370.102971,-8512.368333,459.657299
493.175203,-444.123565,-8364.327145,612.876398
493.175531,-666.185348,-8734.430116,536.266849
493.175859,-814.226536,-8586.388927,306.438199
493.176186,-814.226536,-8882.471304,689.485948
493.176514,-888.247130,-8808.450710,842.705048
493.176841,-296.082377,-9030.512492,536.266849
493.177169,-222.061783,-8808.450710,383.047749
493.177496,74.020594,-8734.430116,153.219100
493.177824,518.144159,-8882.471304,612.876398
493.178151,74.020594,-8734.430116,76.609550
493.178479,0.000000,-9030.512492,459.657299
493.178807,-148.041188,-9474.636058,842.705048
493.179134,0.000000,-9918.759623,842.705048
493.179462,0.000000,-10066.800811,1072.533697
493.179789,0.000000,-9252.574275,766.095498
493.180117,444.123565,-9252.574275,689.485948
493.180444,518.144159,-8734.430116,306.438199
493.180772,592.164754,-8512.368333,306.438199
493.181099,518.144159,-8290.306550,229.828649
493.181427,0.000000,-8290.306550,383.047749
493.181755,370.102971,-8882.471304,76.609550
493.182082,-222.061783,-9252.574275,612.876398
493.182410,-148.041188,-9326.594869,689.485948
493.182737,0.000000,-9252.574275,612.876398
493.183065,0.000000,-9326.594869,612.876398
493.183392,592.164754,-9030.512492,76.609550
493.183720,296.082377,-8808.450710,76.609550
493.184047,296.082377,-8586.388927,536.266849
493.184375,296.082377,-8956.491898,153.219100
493.184702,-222.061783,-8956.491898,459.657299
493.185030,0.000000,-9400.615463,766.095498
493.185358,-444.123565,-9622.677246,612.876398
493.185685,-444.123565,-9622.677246,459.657299
493.186013,0.000000,-9474.636058,689.485948
493.186340,-296.082377,-9030.512492,153.219100
493.186668,0.000000,-8956.491898,766.095498
493.186995,0.000000,-9030.512492,229.828649
493.187323,-74.020594,-9400.615463,383.047749
493.187650,-296.082377,-9252.574275,459.657299
493.187978,-148.041188,-9622.677246,1072.533697
493.188306,-222.061783,-9844.739029,536.266849
493.188633,-518.144159,-9474.636058,1072.533697
493.188961,-222.061783,-9696.697840,842.705048
493.189288,0.000000,-9104.533087,536.266849
493.189616,-222.061783,-9030.512492,383.047749
493.189943,-370.102971,-9104.533087,536.266849
493.190271,-148.041188,-8882.471304,383.047749
493.190598,-518.144159,-9474.636058,612.876398
493.190926,-518.144159,-9696.697840,766.095498
493.191254,-444.123565,-9770.718434,766.095498
493.191581,-444.123565,-9474.636058,536.266849
493.191909,-296.082377,-9548.656652,689.485948
493.192236,-148.041188,-9326.594869,229.828649
493.192564,-444.123565,-9030.512492,306.438199
493.192891,-592.164754,-8956.491898,459.657299
493.193219,-740.205942,-9104.533087,612.876398
493.193546,-666.185348,-9030.512492,766.095498
493.193874,-1036.288319,-9326.594869,842.705048
493.194202,-1110.308913,-9326.594869,612.876398
493.194529,-962.267725,-9252.574275,766.095498
493.194857,-814.226536,-8882.471304,689.485948
493.195184,-592.164754,-8808.450710,995.924147
493.195512,0.000000,-8438.347739,306.438199
493.195839,-370.102971,-8808.450710,383.047749
493.196167,-592.164754,-8808.450710,919.314598
493.196494,-740.205942,-9030.512492,842.705048
493.196822,-666.185348,-8660.409521,1072.533697
493.197149,-518.144159,-9326.594869,1072.533697
493.197477,-592.164754,-8882.471304,383.047749
493.197805,-370.102971,-8956.491898,689.485948
493.198132,-370.102971,-8734.430116,459.657299
493.198460,-444.123565,-8660.409521,459.657299
493.198787,0.000000,-8438.347739,-153.219100
493.199115,-296.082377,-8734.430116,766.095498
493.199442,-592.164754,-8808.450710,612.876398
493.199770,-518.144159,-8956.491898,689.485948
493.200097,-444.123565,-8956.491898,459.657299
493.200425,-370.102971,-8512.368333,612.876398
493.200753,-296.082377,-8586.388927,536.266849
493.201080,-370.102971,-8586.388927,383.047749
493.201408,-296.082377,-8364.327145,229.828649
493.201735,0.000000,-8882.471304,383.047749
493.202063,0.000000,-8438.347739,536.266849
493.202390,74.020594,-8882.471304,689.485948
493.202718,74.020594,-9252.574275,612.876398
493.203045,148.041188,-9178.553681,306.438199
493.203373,74.020594,-9178.553681,306.438199
493.203701,74.020594,-9252.574275,459.657299
493.204028,0.000000,-9030.512492,536.266849
493.204356,148.041188,-9178.553681,459.657299
493.204683,222.061783,-9548.656652,459.657299
493.205011,74.020594,-9400.615463,459.657299
493.205338,0.000000,-9178.553681,459.657299
493.205666,296.082377,-9326.594869,306.438199
493.205993,74.020594,-9178.553681,459.657299
493.206321,0.000000,-9252.574275,536.266849
493.206649,0.000000,-8734.430116,153.219100
493.206976,-148.041188,-8882.471304,306.438199
493.207304,148.041188,-9104.533087,153.219100
493.207631,-370.102971,-8956.491898,689.485948
493.207959,-444.123565,-9252.574275,459.657299
493.208286,-148.041188,-9400.615463,689.485948
493.208614,-518.144159,-9326.594869,536.266849
493.208941,-666.185348,-9474.636058,1378.971896
493.209269,0.000000,-9252.574275,229.828649
493.209596,0.000000,-9178.553681,536.266849
493.209924,0.000000,-9474.636058,536.266849
493.210252,0.000000,-9326.594869,766.095498
493.210579,0.000000,-9400.615463,612.876398
493.210907,0.000000,-9326.594869,766.095498
493.211234,-222.061783,-9770.718434,689.485948
493.211562,-222.061783,-9696.697840,766.095498
493.211889,-222.061783,-9548.656652,612.876398
493.212217,-148.041188,-9548.656652,766.095498
493.212544,0.000000,-9252.574275,459.657299
493.212872,-296.082377,-9030.512492,689.485948
493.213200,0.000000,-9252.574275,536.266849
493.213527,-222.061783,-9178.553681,766.095498
493.213855,0.000000,-9104.533087,459.657299
493.214182,-296.082377,-8882.471304,229.828649
493.214510,-370.102971,-8956.491898,919.314598
493.214837,-592.164754,-9104.533087,383.047749
493.215165,-518.144159,-9178.553681,612.876398
493.215492,-518.144159,-9030.512492,306.438199
493.215820,-518.144159,-9178.553681,306.438199
493.216148,-666.185348,-8956.491898,306.438199
493.216475,-222.061783,-9326.594869,459.657299
493.216803,-370.102971,-9474.636058,536.266849
493.217130,0.000000,-9400.615463,459.657299
493.217458,148.041188,-9178.553681,995.924147
493.217785,0.000000,-9178.553681,1149.143247
493.218113,0.000000,-9252.574275,383.047749
493.218440,0.000000,-9252.574275,536.266849
493.218768,-148.041188,-9178.553681,612.876398
493.219096,-296.082377,-9178.553681,306.438199
493.219423,-518.144159,-8808.450710,689.485948
493.219751,-296.082377,-9030.512492,536.266849
493.220078,-222.061783,-8882.471304,689.485948
493.220406,-444.123565,-8882.471304,383.047749
493.220733,-444.123565,-8808.450710,612.876398
493.221061,0.000000,-8734.430116,306.438199
493.221388,-222.061783,-8512.368333,766.095498
493.221716,-518.144159,-8734.430116,689.485948
493.222043,-518.144159,-8734.430116,612.876398
493.222371,-592.164754,-9030.512492,536.266849
493.222699,-518.144159,-8882.471304,919.314598
493.223026,-740.205942,-8586.388927,383.047749
493.223354,-592.164754,-8808.450710,612.876398
493.223681,-592.164754,-8956.491898,536.266849
493.224009,-370.102971,-9178.553681,612.876398
493.224337,-222.061783,-8808.450710,766.095498
493.224664,-148.041188,-8956.491898,1072.533697
493.224992,-444.123565,-9104.533087,459.657299
493.225319,-444.123565,-9252.574275,842.705048
493.225647,-666.185348,-9030.512492,689.485948
493.225975,-444.123565,-9104.533087,612.876398
493.226302,-444.123565,-8808.450710,536.266849
493.226630,-592.164754,-9104.533087,536.266849
493.226957,-370.102971,-8734.430116,689.485948
493.227285,-592.164754,-8808.450710,612.876398
493.227612,-592.164754,-8660.409521,306.438199
493.227940,-444.123565,-8586.388927,536.266849
493.228268,-666.185348,-8734.430116,536.266849
493.228595,-518.144159,-8956.491898,612.876398
493.228923,-370.102971,-9030.512492,383.047749
493.229250,-740.205942,-9030.512492,536.266849
493.229578,-444.123565,-9326.594869,689.485948
493.229906,-592.164754,-8512.368333,612.876398
493.230233,-444.123565,-9252.574275,459.657299
493.230561,-518.144159,-9030.512492,459.657299
493.230888,-444.123565,-9252.574275,459.657299
493.231216,-148.041188,-9178.553681,612.876398
493.231544,-444.123565,-9030.512492,1149.143247
493.231871,-296.082377,-9178.553681,459.657299
493.232199,-370.102971,-9178.553681,536.266849
493.232526,-222.061783,-9178.553681,536.266849
493.232854,-296.082377,-9030.512492,459.657299
493.233181,-222.061783,-8882.471304,919.314598
493.233509,0.000000,-9104.533087,536.266849
493.233837,-148.041188,-8882.471304,689.485948
493.234164,-370.102971,-8956.491898,612.876398
493.234492,-444.123565,-9104.533087,689.485948
493.234819,-666.185348,-8956.491898,842.705048
493.235147,-962.267725,-8512.368333,919.314598
493.235475,-666.185348,-8956.491898,612.876398
493.235802,-444.123565,-8882.471304,689.485948
493.236130,-518.144159,-8734.430116,383.047749
493.236457,-222.061783,-9178.553681,842.705048
493.236785,-296.082377,-8808.450710,995.924147
493.237113,-370.102971,-9030.512492,536.266849
493.237440,-370.102971,-9104.533087,459.657299
493.237768,-296.082377,-9252.574275,306.438199
493.238095,0.000000,-9252.574275,459.657299
493.238423,222.061783,-9178.553681,766.095498
493.238750,-222.061783,-9104.533087,306.438199
493.239078,74.020594,-9326.594869,459.657299
493.239406,148.041188,-9400.615463,536.266849
493.239733,148.041188,-9252.574275,459.657299
493.240061,0.000000,-9030.512492,612.876398
493.240388,0.000000,-9178.553681,536.266849
493.240716,0.000000,-9252.574275,536.266849
493.241044,148.041188,-9326.594869,459.657299
493.241371,148.041188,-9326.594869,612.876398
493.241699,148.041188,-9252.574275,459.657299
493.242026,0.000000,-9104.533087,383.047749
493.242354,-222.061783,-9326.594869,306.438199
493.242682,0.000000,-9400.615463,383.047749
493.243009,0.000000,-9474.636058,383.047749
493.243337,0.000000,-9474.636058,0.000000
493.243664,0.000000,-9696.697840,383.047749
493.243992,-148.041188,-9474.636058,459.657299
493.244319,-148.041188,-9548.656652,383.047749
493.244647,-222.061783,-9548.656652,689.485948
493.244975,0.000000,-9548.656652,459.657299
493.245302,0.000000,-9474.636058,919.314598
493.245630,148.041188,-9474.636058,536.266849
493.245957,0.000000,-9474.636058,536.266849
493.246285,-222.061783,-9326.594869,459.657299
493.246613,0.000000,-9178.553681,766.095498
493.246940,-370.102971,-8808.450710,842.705048
493.247268,-222.061783,-9474.636058,995.924147
493.247595,-222.061783,-9474.636058,536.266849
493.247923,-296.082377,-9104.533087,766.095498
493.248251,-296.082377,-9326.594869,919.314598
493.248578,-370.102971,-9178.553681,1378.971896
493.248906,-148.041188,-9474.636058,536.266849
493.249233,-370.102971,-9030.512492,459.657299
493.249561,-444.123565,-8956.491898,536.266849
493.249888,-814.226536,-8808.450710,459.657299
493.250216,-444.123565,-8882.471304,842.705048
493.250544,-518.144159,-9400.615463,76.609550
493.250871,-518.144159,-9104.533087,612.876398
493.251199,-740.205942,-8956.491898,459.657299
493.251526,-666.185348,-9104.533087,459.657299
493.251854,-888.247130,-9104.533087,536.266849
493.252182,-888.247130,-8734.430116,689.485948
493.252509,-666.185348,-8808.450710,459.657299
493.252837,-666.185348,-9030.512492,536.266849
493.253164,-592.164754,-9104.533087,612.876398
493.253492,-444.123565,-9030.512492,612.876398
493.253820,0.000000,-8734.430116,306.438199
493.254147,-370.102971,-8808.450710,1072.533697
493.254475,-518.144159,-8956.491898,383.047749
493.254802,-444.123565,-8734.430116,536.266849
493.255130,-444.123565,-8660.409521,383.047749
493.255457,-370.102971,-8290.306550,612.876398
493.255785,0.000000,-8734.430116,612.876398
493.256113,-296.082377,-8512.368333,306.438199
493.256440,-518.144159,-8512.368333,612.876398
493.256768,-296.082377,-8512.368333,229.828649
493.257095,-444.123565,-8660.409521,306.438199
493.257423,-592.164754,-8290.306550,76.609550
493.257751,-592.164754,-8660.409521,76.609550
493.258078,-592.164754,-8956.491898,229.828649
493.258406,-592.164754,-8882.471304,536.266849
493.258733,-666.185348,-8882.471304,229.828649
493.259061,-370.102971,-8808.450710,689.485948
493.259389,-148.041188,-8808.450710,459.657299
493.259716,0.000000,-9030.512492,383.047749
493.260044,0.000000,-9178.553681,306.438199
493.260371,-148.041188,-9178.553681,229.828649
493.260699,0.000000,-9178.553681,919.314598
493.261026,222.061783,-9104.533087,229.828649
493.261354,0.000000,-9326.594869,383.047749
493.261682,0.000000,-9178.553681,612.876398
493.262009,0.000000,-9326.594869,612.876398
493.262337,-296.082377,-9252.574275,536.266849
493.262664,0.000000,-9252.574275,842.705048
493.262992,0.000000,-9252.574275,306.438199
493.263320,-222.061783,-9104.533087,306.438199
493.263647,-148.041188,-9178.553681,612.876398
493.263975,0.000000,-9252.574275,459.657299
493.264302,0.000000,-9104.533087,459.657299
493.264630,-148.041188,-9326.594869,612.876398
493.264958,0.000000,-9400.615463,306.438199
493.265285,0.000000,-9548.656652,612.876398
493.265613,-148.041188,-9548.656652,766.095498
493.265940,-222.061783,-9474.636058,919.314598
493.266268,-222.061783,-9474.636058,842.705048
493.266596,74.020594,-9622.677246,766.095498
493.266923,148.041188,-9474.636058,536.266849
493.267251,74.020594,-9474.636058,766.095498
493.267578,148.041188,-9252.574275,995.924147
493.267906,0.000000,-9400.615463,459.657299
493.268233,0.000000,-9326.594869,689.485948
493.268561,0.000000,-9474.636058,842.705048
493.268889,0.000000,-9400.615463,766.095498
493.269216,0.000000,-9326.594869,919.314598
493.269544,222.061783,-9474.636058,1149.143247
493.269871,-222.061783,-9326.594869,612.876398
493.270199,0.000000,-9252.574275,766.095498
493.270527,-370.102971,-9252.574275,766.095498
493.270854,-222.061783,-9030.512492,689.485948
493.271182,-222.061783,-9252.574275,459.657299
493.271509,-444.123565,-9030.512492,612.876398
493.271837,-370.102971,-9178.553681,612.876398
493.272165,-518.144159,-9104.533087,536.266849
493.272492,-444.123565,-9252.574275,229.828649
493.272820,-592.164754,-8882.471304,766.095498
493.273147,-592.164754,-8956.491898,766.095498
493.273475,-222.061783,-9030.512492,689.485948
493.273802,-74.020594,-9252.574275,612.876398
493.274130,0.000000,-9400.615463,536.266849
493.274458,0.000000,-9252.574275,766.095498
493.274785,222.061783,-9178.553681,919.314598
493.275113,-296.082377,-9400.615463,459.657299
493.275440,-518.144159,-9252.574275,459.657299
493.275768,-222.061783,-9252.574275,536.266849
493.276096,0.000000,-9030.512492,995.924147
493.276423,0.000000,-9104.533087,766.095498
493.276751,-148.041188,-9104.533087,383.047749
493.277078,-222.061783,-8956.491898,689.485948
493.277406,-296.082377,-8882.471304,383.047749
493.277734,-296.082377,-8956.491898,153.219100
493.278061,-222.061783,-8660.409521,306.438199
493.278389,-370.102971,-9104.533087,766.095498
493.278716,-370.102971,-9178.553681,383.047749
493.279044,-370.102971,-8956.491898,612.876398
493.279371,-518.144159,-8808.450710,459.657299
493.279699,-148.041188,-9252.574275,536.266849
493.280027,-518.144159,-9104.533087,383.047749
493.280354,-518.144159,-8808.450710,612.876398
493.280682,0.000000,-8808.450710,536.266849
493.281009,-222.061783,-8808.450710,612.876398
493.281337,-222.061783,-8956.491898,766.095498
493.281665,-296.082377,-9326.594869,766.095498
493.281992,-592.164754,-9252.574275,536.266849
493.282320,-592.164754,-9030.512492,459.657299
493.282647,-592.164754,-8956.491898,306.438199
493.282975,-370.102971,-8956.491898,612.876398
493.283303,-592.164754,-9030.512492,995.924147
493.283630,-296.082377,-9030.512492,766.095498
493.283958,-296.082377,-8882.471304,459.657299
493.284285,-370.102971,-8956.491898,612.876398
493.284613,-518.144159,-8956.491898,383.047749
493.284940,-370.102971,-8808.450710,612.876398
493.285268,-370.102971,-9104.533087,689.485948
493.285596,-444.123565,-9178.553681,536.266849
493.285923,-518.144159,-9326.594869,383.047749
493.286251,-666.185348,-9030.512492,689.485948
493.286578,-592.164754,-8734.430116,689.485948
493.286906,-296.082377,-9104.533087,536.266849
493.287234,-296.082377,-8956.491898,536.266849
493.287561,0.000000,-9030.512492,306.438199
493.287889,0.000000,-8956.491898,689.485948
493.288216,74.020594,-8956.491898,612.876398
493.288544,-296.082377,-8882.471304,536.266849
493.288872,0.000000,-9474.636058,612.876398
493.289199,-444.123565,-9400.615463,612.876398
493.289527,-296.082377,-9326.594869,612.876398
493.289854,-740.205942,-9030.512492,766.095498
493.290182,222.061783,-9104.533087,689.485948
493.290509,0.000000,-9252.574275,842.705048
493.290837,0.000000,-9252.574275,919.314598
493.291165,-222.061783,-8956.491898,383.047749
493.291492,-296.082377,-8882.471304,536.266849
493.291820,-222.061783,-8882.471304,842.705048
493.292147,-444.123565,-9252.574275,766.095498
493.292475,-518.144159,-9326.594869,612.876398
493.292803,-296.082377,-9252.574275,766.095498
493.293130,-296.082377,-9178.553681,536.266849
493.293458,0.000000,-8734.430116,919.314598
493.293785,0.000000,-9104.533087,536.266849
493.294113,0.000000,-9178.553681,383.047749
493.294441,-222.061783,-9326.594869,536.266849
493.294768,0.000000,-9326.594869,536.266849
493.295096,0.000000,-9178.553681,919.314598
493.295423,-370.102971,-9178.553681,383.047749
493.295751,-296.082377,-9474.636058,766.095498
493.296078,-222.061783,-9474.636058,536.266849
493.296406,-222.061783,-9474.636058,536.266849
493.296734,-148.041188,-9400.615463,689.485948
493.297061,0.000000,-9030.512492,76.609550
493.297389,74.020594,-9178.553681,459.657299
493.297716,0.000000,-9252.574275,612.876398
493.298044,0.000000,-9252.574275,536.266849
493.298372,-148.041188,-9400.615463,383.047749
493.298699,-296.082377,-9178.553681,612.876398
493.299027,-444.123565,-9400.615463,612.876398
493.299354,-148.041188,-9400.615463,459.657299
493.299682,-148.041188,-9400.615463,229.828649
493.300010,-148.041188,-9178.553681,383.047749
493.300337,0.000000,-9178.553681,919.314598
493.300665,0.000000,-9178.553681,229.828649
493.300992,-148.041188,-9178.553681,383.047749
493.301320,-148.041188,-9104.533087,459.657299
493.301647,0.000000,-9400.615463,459.657299
493.301975,0.000000,-9178.553681,459.657299
493.302303,-370.102971,-9400.615463,842.705048
493.302630,0.000000,-9252.574275,536.266849
493.302958,0.000000,-9400.615463,459.657299
493.303285,-148.041188,-9104.533087,919.314598
493.303613,-222.061783,-9252.574275,766.095498
493.303941,0.000000,-8956.491898,383.047749
493.304268,-222.061783,-9252.574275,536.266849
493.304596,0.000000,-8956.491898,689.485948
493.304923,-222.061783,-8882.471304,536.266849
493.305251,-370.102971,-8734.430116,766.095498
493.305579,-518.144159,-8808.450710,536.266849
493.305906,-592.164754,-8808.450710,536.266849
493.306234,-444.123565,-8882.471304,383.047749
493.306561,-370.102971,-8808.450710,306.438199
493.306889,-296.082377,-8808.450710,383.047749
493.307216,-444.123565,-8290.306550,612.876398
493.307544,-444.123565,-8956.491898,459.657299
493.307872,-592.164754,-9178.553681,536.266849
493.308199,-666.185348,-8882.471304,383.047749
493.308527,-666.185348,-8956.491898,689.485948
493.308854,-222.061783,-8882.471304,689.485948
493.309182,-148.041188,-8660.409521,536.266849
493.309510,-444.123565,-8808.450710,536.266849
493.309837,-296.082377,-9104.533087,689.485948
493.310165,0.000000,-8956.491898,536.266849
493.310492,-296.082377,-8956.491898,766.095498
493.310820,0.000000,-9030.512492,306.438199
493.311148,-222.061783,-9030.512492,689.485948
493.311475,-296.082377,-8956.491898,689.485948
493.311803,-370.102971,-8956.491898,612.876398
493.312130,-296.082377,-8882.471304,689.485948
493.312458,-296.082377,-9178.553681,383.047749
493.312785,-592.164754,-8660.409521,689.485948
493.313113,-518.144159,-8882.471304,306.438199
493.313441,-592.164754,-8956.491898,459.657299
493.313768,-444.123565,-8956.491898,536.266849
493.314096,-740.205942,-8586.388927,612.876398
493.314423,-518.144159,-9030.512492,459.657299
493.314751,-592.164754,-9030.512492,459.657299
493.315079,-666.185348,-8882.471304,689.485948
493.315406,-592.164754,-9252.574275,383.047749
493.315734,-518.144159,-8882.471304,995.924147
493.316061,-222.061783,-8882.471304,766.095498
493.316389,-296.082377,-9104.533087,689.485948
493.316717,-444.123565,-9178.553681,842.705048
493.317044,-518.144159,-9178.553681,766.095498
493.317372,-222.061783,-9252.574275,766.095498
493.317699,0.000000,-9252.574275,919.314598
493.318027,-518.144159,-9030.512492,842.705048
493.318354,-222.061783,-9400.615463,689.485948
493.318682,-370.102971,-9252.574275,766.095498
493.319010,-296.082377,-9030.512492,689.485948
493.319337,-148.041188,-9252.574275,0.000000
493.319665,-370.102971,-8808.450710,766.095498
493.319992,-370.102971,-9178.553681,459.657299
493.320320,-370.102971,-9104.533087,383.047749
493.320648,-518.144159,-9252.574275,459.657299
493.320975,-370.102971,-9178.553681,612.876398
493.321303,-296.082377,-9326.594869,459.657299
493.321630,-296.082377,-9326.594869,459.657299
493.321958,-296.082377,-9252.574275,383.047749
493.322285,-296.082377,-9252.574275,306.438199
493.322613,-222.061783,-9030.512492,766.095498
493.322940,74.020594,-9178.553681,383.047749
493.323268,0.000000,-9178.553681,459.657299
493.323596,74.020594,-9252.574275,536.266849
493.323923,0.000000,-9400.615463,459.657299
493.324251,296.082377,-9474.636058,689.485948
493.324578,-148.041188,-9252.574275,229.828649
493.324906,0.000000,-9252.574275,459.657299
493.325233,0.000000,-9326.594869,383.047749
493.325561,296.082377,-9326.594869,459.657299
493.325888,0.000000,-9030.512492,383.047749
493.326216,74.020594,-9030.512492,0.000000
493.326544,-296.082377,-9104.533087,536.266849
493.326871,0.000000,-9104.533087,459.657299
493.327199,-296.082377,-9104.533087,459.657299
493.327526,0.000000,-9178.553681,459.657299
493.327854,0.000000,-9030.512492,612.876398
493.328181,-296.082377,-8882.471304,1225.752797
493.328509,-222.061783,-9178.553681,536.266849
493.328836,0.000000,-9252.574275,536.266849
493.329164,0.000000,-9474.636058,536.266849
493.329492,0.000000,-9696.697840,459.657299
493.329819,-148.041188,-8956.491898,766.095498
493.330147,0.000000,-9178.553681,612.876398
493.330474,-148.041188,-9326.594869,612.876398
493.330802,0.000000,-9252.574275,536.266849
493.331129,0.000000,-9326.594869,612.876398
493.331457,222.061783,-8808.450710,383.047749
493.331784,0.000000,-9252.574275,689.485948
493.332112,-222.061783,-9326.594869,536.266849
493.332440,-370.102971,-9326.594869,612.876398
493.332767,-148.041188,-9104.533087,536.266849
493.333095,-222.061783,-8956.491898,536.266849
493.333422,0.000000,-9178.553681,306.438199
493.333750,0.000000,-9474.636058,536.266849
493.334077,-222.061783,-9326.594869,459.657299
493.334405,-296.082377,-9104.533087,306.438199
493.334732,0.000000,-8882.471304,766.095498
493.335060,-222.061783,-9030.512492,766.095498
493.335388,-296.082377,-9178.553681,383.047749
493.335715,-296.082377,-9104.533087,536.266849
493.336043,-592.164754,-9104.533087,766.095498
493.336370,-666.185348,-9178.553681,1072.533697
493.336698,-518.144159,-9252.574275,919.314598
493.337025,-370.102971,-9178.553681,612.876398
493.337353,-296.082377,-8882.471304,383.047749
493.337680,-370.102971,-8882.471304,842.705048
493.338008,-518.144159,-8956.491898,612.876398
493.338336,-370.102971,-9178.553681,612.876398
493.338663,-518.144159,-9030.512492,612.876398
493.338991,-518.144159,-8882.471304,689.485948
493.339318,-444.123565,-8956.491898,842.705048
493.339646,-666.185348,-8882.471304,766.095498
493.339973,-370.102971,-8808.450710,842.705048
493.340301,-370.102971,-8734.430116,689.485948
493.340628,-370.102971,-8956.491898,536.266849
493.340956,-666.185348,-8660.409521,536.266849
493.341284,-592.164754,-8808.450710,536.266849
493.341611,-592.164754,-8808.450710,383.047749
493.341939,-592.164754,-9030.512492,842.705048
493.342266,-666.185348,-8808.450710,689.485948
493.342594,-740.205942,-8882.471304,383.047749
493.342921,-592.164754,-9104.533087,612.876398
493.343249,-666.185348,-9252.574275,842.705048
493.343576,0.000000,-8660.409521,383.047749
493.343904,0.000000,-8882.471304,76.609550
493.344232,0.000000,-8882.471304,383.047749
493.344559,0.000000,-9030.512492,306.438199
493.344887,0.000000,-9178.553681,459.657299
493.345214,-296.082377,-8882.471304,842.705048
493.345542,-148.041188,-9178.553681,306.438199
493.345869,0.000000,-9326.594869,229.828649
493.346197,148.041188,-9400.615463,306.438199
493.346524,0.000000,-9326.594869,306.438199
493.346852,148.041188,-9030.512492,995.924147
493.347180,0.000000,-9030.512492,612.876398
493.347507,0.000000,-9252.574275,383.047749
493.347835,0.000000,-9326.594869,306.438199
493.348162,0.000000,-9104.533087,229.828649
493.348490,0.000000,-9326.594869,76.609550
493.348817,74.020594,-9326.594869,842.705048
493.349145,-296.082377,-9474.636058,459.657299
493.349472,-296.082377,-9252.574275,306.438199
493.349800,0.000000,-9400.615463,306.438199
493.350128,0.000000,-9400.615463,459.657299
493.350455,0.000000,-9252.574275,766.095498
493.350783,0.000000,-9474.636058,536.266849
493.351110,0.000000,-9548.656652,459.657299
493.351438,74.020594,-9474.636058,612.876398
493.351765,-222.061783,-9474.636058,383.047749
493.352093,-222.061783,-8808.450710,1149.143247
493.352420,-148.041188,-9474.636058,766.095498
493.352748,-444.123565,-9400.615463,766.095498
493.353076,-296.082377,-9474.636058,536.266849
493.353403,-296.082377,-9252.574275,612.876398
493.353731,370.102971,-9178.553681,689.485948
493.354058,-296.082377,-9178.553681,612.876398
493.354386,-296.082377,-9178.553681,766.095498
493.354713,-370.102971,-9030.512492,842.705048
493.355041,-370.102971,-9030.512492,612.876398
493.355368,-296.082377,-9104.533087,1072.533697
493.355696,-370.102971,-9104.533087,689.485948
493.356024,-296.082377,-9178.553681,536.266849
493.356351,-370.102971,-9104.533087,612.876398
493.356679,-296.082377,-9104.533087,766.095498
493.357006,-370.102971,-9252.574275,76.609550
493.357334,-148.041188,-9252.574275,612.876398
493.357661,74.020594,-8808.450710,383.047749
493.357989,-148.041188,-9104.533087,536.266849
493.358316,-74.020594,-9030.512492,306.438199
493.358644,-148.041188,-9030.512492,229.828649
493.358972,370.102971,-9252.574275,842.705048
493.359299,0.000000,-9178.553681,459.657299
493.359627,0.000000,-9178.553681,612.876398
493.359954,-222.061783,-9252.574275,536.266849
493.360282,-296.082377,-9252.574275,766.095498
493.360609,0.000000,-8660.409521,842.705048
493.360937,0.000000,-8438.347739,153.219100
493.361265,-148.041188,-8882.471304,383.047749
493.361592,0.000000,-8882.471304,536.266849
493.361920,-222.061783,-8882.471304,689.485948
493.362247,-444.123565,-8734.430116,842.705048
493.362575,0.000000,-8956.491898,842.705048
493.362902,-518.144159,-8808.450710,689.485948
493.363230,-518.144159,-9104.533087,689.485948
493.363557,-296.082377,-8956.491898,536.266849
493.363885,-370.102971,-8956.491898,842.705048
493.364213,-222.061783,-8956.491898,612.876398
493.364540,-296.082377,-8882.471304,842.705048
493.364868,-148.041188,-9104.533087,536.266849
493.365195,0.000000,-9178.553681,536.266849
493.365523,0.000000,-9252.574275,612.876398
493.365850,0.000000,-9104.533087,536.266849
493.366178,-370.102971,-9474.636058,919.314598
493.366505,-444.123565,-9400.615463,842.705048
493.366833,-222.061783,-9326.594869,842.705048
493.367161,-296.082377,-9030.512492,306.438199
493.367488,-370.102971,-8660.409521,1149.143247
493.367816,-518.144159,-8734.430116,0.000000
493.368143,-518.144159,-8956.491898,689.485948
493.368471,-592.164754,-8808.450710,459.657299
493.368798,-370.102971,-8956.491898,459.657299
493.369126,-1184.329507,-9252.574275,842.705048
493.369453,-370.102971,-9252.574275,689.485948
493.369781,-592.164754,-9104.533087,459.657299
493.370109,-666.185348,-9104.533087,383.047749
493.370436,-666.185348,-9030.512492,536.266849
493.370764,-444.123565,-9178.553681,306.438199
493.371091,-370.102971,-9030.512492,536.266849
493.371419,-444.123565,-8882.471304,459.657299
493.371746,-444.123565,-9178.553681,612.876398
493.372074,-370.102971,-9104.533087,383.047749
493.372401,-222.061783,-9030.512492,459.657299
493.372729,-148.041188,-9030.512492,536.266849
493.373057,0.000000,-9104.533087,306.438199
493.373384,-444.123565,-9104.533087,306.438199
493.373712,-296.082377,-9178.553681,459.657299
493.374039,-222.061783,-9104.533087,383.047749
493.374367,-148.041188,-8956.491898,689.485948
493.374694,-222.061783,-8882.471304,306.438199
493.375022,-222.061783,-9178.553681,459.657299
493.375349,-444.123565,-8956.491898,459.657299
493.375677,-592.164754,-8882.471304,306.438199
493.376005,-592.164754,-8882.471304,612.876398
493.376332,-518.144159,-9326.594869,306.438199
493.376660,-370.102971,-8882.471304,383.047749
493.376987,-518.144159,-8956.491898,459.657299
493.377315,-444.123565,-8956.491898,536.266849
493.377642,-518.144159,-9104.533087,306.438199
493.377970,-518.144159,-9178.553681,153.219100
493.378297,-518.144159,-8882.471304,383.047749
493.378625,-444.123565,-9178.553681,612.876398
493.378953,-370.102971,-9252.574275,612.876398
493.379280,0.000000,-9252.574275,459.657299
493.379608,0.000000,-8956.491898,612.876398
493.379935,74.020594,-9326.594869,612.876398
493.380263,-148.041188,-9178.553681,612.876398
493.380590,-296.082377,-9252.574275,689.485948
493.380918,-296.082377,-9400.615463,459.657299
493.381245,-296.082377,-9252.574275,766.095498
493.381573,-222.061783,-9030.512492,536.266849
493.381901,0.000000,-9030.512492,766.095498
493.382228,0.000000,-9104.533087,612.876398
493.382556,74.020594,-9104.533087,612.876398
493.382883,-296.082377,-8956.491898,459.657299
493.383211,-444.123565,-8734.430116,842.705048
493.383538,-444.123565,-9400.615463,459.657299
493.383866,-222.061783,-9252.574275,536.266849
493.384193,0.000000,-9326.594869,306.438199
493.384521,0.000000,-9400.615463,459.657299
493.384849,74.020594,-8882.471304,995.924147
493.385176,74.020594,-9326.594869,459.657299
493.385504,0.000000,-9178.553681,459.657299
493.385831,222.061783,-9400.615463,459.657299
493.386159,0.000000,-9400.615463,459.657299
493.386486,0.000000,-9178.553681,459.657299
493.386814,0.000000,-9474.636058,612.876398
493.387141,0.000000,-9474.636058,1072.533697
493.387469,0.000000,-9474.636058,536.266849
493.387797,0.000000,-9474.636058,766.095498
493.388124,0.000000,-9326.594869,1072.533697
493.388452,-222.061783,-9104.533087,1149.143247
493.388779,-296.082377,-9030.512492,689.485948
493.389107,-222.061783,-9178.553681,612.876398
493.389434,-222.061783,-9030.512492,459.657299
493.389762,-296.082377,-9104.533087,459.657299
493.390089,-592.164754,-8956.491898,459.657299
493.390417,-370.102971,-9252.574275,536.266849
493.390745,-666.185348,-9104.533087,459.657299
493.391072,-518.144159,-9178.553681,536.266849
493.391400,-444.123565,-9104.533087,306.438199
493.391727,0.000000,-9326.594869,536.266849
493.392055,-592.164754,-8882.471304,766.095498
493.392382,-444.123565,-9030.512492,459.657299
493.392710,-518.144159,-8882.471304,459.657299
493.393037,-222.061783,-8956.491898,612.876398
493.393365,0.000000,-8734.430116,919.314598
493.393693,-222.061783,-8660.409521,229.828649
493.394020,-444.123565,-8956.491898,536.266849
