#time,accel_x,accel_y,accel_z
415.108256,-222.061783,-8734.430116,459.657299
415.108584,-148.041188,-9178.553681,612.876398
415.108912,-444.123565,-9326.594869,383.047749
415.109239,-370.102971,-9178.553681,612.876398
415.109567,0.000000,-9252.574275,459.657299
415.109894,0.000000,-8956.491898,459.657299
415.110222,-222.061783,-9326.594869,689.485948
415.110550,-444.123565,-9326.594869,459.657299
415.110877,-296.082377,-9326.594869,536.266849
415.111205,-296.082377,-8956.491898,766.095498
415.111532,74.020594,-9030.512492,229.828649
415.111860,-296.082377,-9030.512492,536.266849
415.112187,0.000000,-9400.615463,306.438199
415.112515,-74.020594,-9178.553681,536.266849
415.112843,-370.102971,-9178.553681,612.876398
415.113170,0.000000,-8882.471304,459.657299
415.113498,-296.082377,-9400.615463,536.266849
415.113825,-296.082377,-9104.533087,536.266849
415.114153,-148.041188,-9030.512492,536.266849
415.114481,-296.082377,-9178.553681,919.314598
415.114808,-296.082377,-9178.553681,383.047749
415.115136,-296.082377,-8956.491898,612.876398
415.115463,-148.041188,-9104.533087,612.876398
415.115791,-370.102971,-9104.533087,612.876398
415.116119,-296.082377,-9252.574275,612.876398
415.116446,0.000000,-9104.533087,383.047749
415.116774,-222.061783,-8734.430116,536.266849
415.117101,-296.082377,-9104.533087,612.876398
415.117429,-370.102971,-9252.574275,689.485948
415.117757,-296.082377,-9252.574275,459.657299
415.118084,-888.247130,-9252.574275,383.047749
415.118412,-962.267725,-9104.533087,383.047749
415.118739,-1628.453072,-9474.636058,-229.828649
415.119067,-1554.432478,-9400.615463,-383.047749
415.119395,-814.226536,-9104.533087,-383.047749
415.119722,-666.185348,-8956.491898,-383.047749
415.120050,-592.164754,-8734.430116,0.000000
415.120377,-888.247130,-9400.615463,-995.924147
415.120705,-1184.329507,-8956.491898,-1149.143247
415.121032,-1258.350101,-9104.533087,-1072.533697
415.121360,-888.247130,-9104.533087,-1455.581446
415.121688,-1036.288319,-8956.491898,-1302.362347
415.122015,-148.041188,-9548.656652,-842.705048
415.122343,-518.144159,-9104.533087,-1225.752797
415.122670,0.000000,-9178.553681,-1072.533697
415.122998,0.000000,-9104.533087,-1378.971896
415.123326,0.000000,-9178.553681,-1608.800546
415.123653,296.082377,-9252.574275,-1378.971896
415.123981,222.061783,-9252.574275,-1608.800546
415.124308,296.082377,-9104.533087,-1838.629195
415.124636,518.144159,-9252.574275,-1455.581446
415.124964,222.061783,-9104.533087,-1608.800546
415.125291,444.123565,-9104.533087,-1532.190996
415.125619,592.164754,-9474.636058,-1915.238745
415.125946,148.041188,-9474.636058,-1915.238745
415.126274,74.020594,-9474.636058,-1838.629195
415.126602,148.041188,-9252.574275,-1915.238745
415.126929,222.061783,-9252.574275,-1762.019645
415.127257,74.020594,-9252.574275,-1685.410096
415.127584,0.000000,-9326.594869,-1685.410096
415.127912,-666.185348,-9104.533087,-1838.629195
415.128240,-740.205942,-9104.533087,-1915.238745
415.128567,-740.205942,-9030.512492,-2451.505594
415.128895,-1258.350101,-8882.471304,-2145.067394
415.129222,-1480.411884,-9252.574275,-2374.896044
415.129550,-1628.453072,-9030.512492,-2604.724693
415.129877,-1924.535449,-8882.471304,-2757.943793
415.130205,-1850.514855,-8882.471304,-2834.553343
415.130533,-2072.576638,-8882.471304,-2834.553343
415.130860,-2146.597232,-9252.574275,-3600.648841
415.131188,-2146.597232,-9030.512492,-3907.087040
415.131515,-2072.576638,-8882.471304,-3907.087040
415.131843,-1628.453072,-8956.491898,-3983.696590
415.132171,-1184.329507,-8882.471304,-4136.915689
415.132498,-592.164754,-8734.430116,-3907.087040
415.132826,0.000000,-8882.471304,-3447.429741
415.133153,518.144159,-8882.471304,-3064.381992
415.133481,1110.308913,-8882.471304,-2757.943793
415.133809,2072.576638,-9474.636058,-2604.724693
415.134136,2294.638420,-8882.471304,-1991.848295
415.134464,2220.617826,-9400.615463,-1608.800546
415.134791,1776.494261,-9992.780217,-1991.848295
415.135119,962.267725,-10214.842000,-2221.676944
415.135447,-444.123565,-9992.780217,-2604.724693
415.135774,-1406.391290,-9992.780217,-2911.162892
415.136102,-2146.597232,-10436.903782,-4366.744339
415.136429,-2960.823768,-9770.718434,-4673.182538
415.136757,-1702.473667,-9178.553681,-4979.620737
415.137085,-518.144159,-8290.306550,-4673.182538
415.137412,1850.514855,-7698.141797,-4443.353888
415.137740,3108.864956,-6883.915261,-2987.772442
415.138067,3701.029710,-7105.977043,-1762.019645
415.138395,3108.864956,-7698.141797,-1225.752797
415.138723,1554.432478,-8660.409521,-1302.362347
415.139050,-370.102971,-10510.924376,-1455.581446
415.139378,-2442.679609,-10732.986159,-1991.848295
415.139705,-3775.050304,-11621.233289,-2221.676944
415.140033,-3627.009116,-10881.027347,-2145.067394
415.140360,-2146.597232,-9844.739029,-2068.457845
415.140688,888.247130,-8364.327145,-1532.190996
415.141016,2516.700203,-6957.935855,-842.705048
415.141343,4219.173869,-6661.853478,-766.095498
415.141671,4589.276840,-6957.935855,-536.266849
415.141998,2738.761985,-7846.182985,-766.095498
415.142326,74.020594,-9252.574275,-1149.143247
415.142654,-3108.864956,-10658.965565,-1225.752797
415.142981,-5255.462188,-11621.233289,-2374.896044
415.143309,-5699.585753,-11547.212695,-2221.676944
415.143636,-4367.215058,-10732.986159,-1762.019645
415.143964,-1998.556043,-9252.574275,-766.095498
415.144292,1628.453072,-7772.162391,536.266849
415.144619,3108.864956,-7179.997637,1455.581446
415.144947,2812.782580,-7031.956449,842.705048
415.145274,888.247130,-7772.162391,536.266849
415.145602,-2072.576638,-8956.491898,-612.876398
415.145930,-4737.318029,-9844.739029,-995.924147
415.146257,-5403.503377,-9474.636058,-1991.848295
415.146585,-3330.926739,-8808.450710,-1455.581446
415.146912,-222.061783,-7624.121203,-536.266849
415.147240,3775.050304,-6735.874072,842.705048
415.147568,6143.709319,-6809.894666,1762.019645
415.147895,5255.462188,-7402.059420,2451.505594
415.148223,2072.576638,-9770.718434,1608.800546
415.148550,-2516.700203,-11843.295072,-306.438199
415.148878,-5329.482782,-12657.521608,-1608.800546
415.149205,-5477.523971,-11399.171507,-1455.581446
415.149533,-2442.679609,-10066.800811,-689.485948
415.149861,2368.659014,-7254.018232,1532.190996
415.150188,6365.771101,-6439.791695,3600.648841
415.150516,6883.915261,-6439.791695,3983.696590
415.150843,4145.153275,-7328.038826,3140.991542
415.151171,0.000000,-9474.636058,1685.410096
415.151499,-3849.070898,-11177.109724,-153.219100
415.151826,-5699.585753,-10510.924376,-1072.533697
415.152154,-4145.153275,-9918.759623,-766.095498
415.152481,0.000000,-8882.471304,1378.971896
415.152809,2664.741391,-7105.977043,3447.429741
415.153137,3552.988522,-7254.018232,4366.744339
415.153464,1110.308913,-7550.100608,3370.820191
415.153792,-2516.700203,-8734.430116,612.876398
415.154119,-5329.482782,-10584.944971,-1455.581446
415.154447,-7254.018232,-10584.944971,-2451.505594
415.154775,-6735.874072,-9474.636058,-3064.381992
415.155102,-2664.741391,-8956.491898,-1225.752797
415.155430,1702.473667,-7179.997637,1302.362347
415.155757,4589.276840,-6143.709319,2987.772442
415.156085,3627.009116,-7105.977043,3677.258390
415.156413,666.185348,-8438.347739,1685.410096
415.156740,-4071.132681,-10881.027347,-612.876398
415.157068,-6513.812290,-12879.583391,-2298.286494
415.157395,-7476.080014,-12361.439231,-2451.505594
415.157723,-4219.173869,-11029.068536,-2374.896044
415.158051,148.041188,-9548.656652,-919.314598
415.158378,5477.523971,-7476.080014,1532.190996
415.158706,7254.018232,-6513.812290,2681.334243
415.159033,6143.709319,-6587.832884,1762.019645
415.159361,2294.638420,-7846.182985,0.000000
415.159688,-1036.288319,-9918.759623,-1838.629195
415.160016,-3923.091493,-11843.295072,-2451.505594
415.160344,-3627.009116,-10732.986159,-2604.724693
415.160671,962.267725,-10436.903782,-383.047749
415.160999,5107.421000,-9474.636058,2145.067394
415.161326,8364.327145,-7550.100608,4213.525239
415.161654,7550.100608,-8142.265362,4673.182538
415.161982,4145.153275,-9548.656652,2757.943793
415.162309,-2368.659014,-9918.759623,0.000000
415.162637,-4515.256246,-11917.315666,-1302.362347
415.162964,-5625.565159,-11399.171507,-1838.629195
415.163292,-3627.009116,-9696.697840,-1072.533697
415.163620,1480.411884,-9104.533087,1072.533697
415.163947,4515.256246,-7772.162391,2911.162892
415.164275,4515.256246,-6439.791695,3064.381992
415.164602,2368.659014,-7624.121203,2528.115143
415.164930,-2664.741391,-8734.430116,229.828649
415.165258,-7846.182985,-9178.553681,-2145.067394
415.165585,-8068.244768,-10807.006753,-2145.067394
415.165913,-7105.977043,-9622.677246,-1762.019645
415.166240,-2664.741391,-7994.224174,229.828649
415.166568,2368.659014,-8660.409521,3140.991542
415.166895,3775.050304,-6513.812290,3677.258390
415.167223,2960.823768,-7254.018232,3447.429741
415.167550,148.041188,-8808.450710,1991.848295
415.167878,-5329.482782,-9030.512492,-766.095498
415.168205,-6957.935855,-10510.924376,-1685.410096
415.168533,-6883.915261,-10362.883188,-1915.238745
415.168860,-3701.029710,-9178.553681,-1378.971896
415.169188,1924.535449,-9104.533087,1455.581446
415.169515,5773.606348,-7254.018232,2528.115143
415.169843,6365.771101,-7328.038826,3217.601092
415.170170,3849.070898,-8142.265362,2604.724693
415.170498,-148.041188,-9474.636058,-306.438199
415.170825,-3478.967927,-11399.171507,-1838.629195
415.171153,-4737.318029,-11029.068536,-2221.676944
415.171480,-3478.967927,-10066.800811,-2145.067394
415.171808,1480.411884,-9178.553681,1302.362347
415.172135,6291.750507,-8660.409521,3294.210641
415.172463,7031.956449,-7772.162391,4213.525239
415.172790,5847.626942,-7476.080014,3830.477490
415.173117,1480.411884,-8586.388927,1302.362347
415.173445,-2146.597232,-9918.759623,-153.219100
415.173772,-4293.194464,-10288.862594,-2145.067394
415.174100,-4589.276840,-10066.800811,-2221.676944
415.174427,-1036.288319,-9474.636058,-766.095498
415.174755,2368.659014,-8882.471304,1378.971896
415.175082,4515.256246,-7179.997637,3370.820191
415.175410,4737.318029,-7402.059420,3370.820191
415.175737,1480.411884,-8808.450710,1915.238745
415.176065,-3182.885551,-9548.656652,-689.485948
415.176392,-5921.647536,-11547.212695,-1991.848295
415.176720,-7031.956449,-10584.944971,-2451.505594
415.177047,-5107.421000,-9178.553681,-1455.581446
415.177375,0.000000,-9326.594869,919.314598
415.177702,3108.864956,-7476.080014,2757.943793
415.178030,3478.967927,-7476.080014,3830.477490
415.178357,2368.659014,-7772.162391,3370.820191
415.178685,-1406.391290,-8290.306550,1149.143247
415.179012,-4737.318029,-10066.800811,-229.828649
415.179340,-6143.709319,-11103.089130,-1608.800546
415.179667,-6365.771101,-10436.903782,-2068.457845
415.179995,-2590.720797,-9030.512492,-919.314598
415.180322,1702.473667,-8512.368333,1532.190996
415.180649,5181.441594,-7402.059420,2604.724693
415.180977,5181.441594,-7402.059420,3140.991542
415.181304,2516.700203,-8808.450710,1838.629195
415.181632,-1924.535449,-9474.636058,-536.266849
415.181959,-4293.194464,-11177.109724,-1685.410096
415.182287,-4737.318029,-11103.089130,-2145.067394
415.182614,-2886.803174,-9918.759623,-1302.362347
415.182942,1036.288319,-9548.656652,612.876398
415.183269,5551.544565,-7846.182985,3140.991542
415.183597,6587.832884,-7772.162391,4213.525239
415.183924,4959.379811,-8068.244768,3140.991542
415.184252,1184.329507,-8956.491898,1915.238745
415.184579,-2368.659014,-10436.903782,-306.438199
415.184907,-4589.276840,-11325.150913,-1608.800546
415.185234,-4145.153275,-10288.862594,-1532.190996
415.185562,-888.247130,-9474.636058,153.219100
415.185889,2368.659014,-8512.368333,2145.067394
415.186217,4811.338623,-7328.038826,3064.381992
415.186544,4737.318029,-7698.141797,3294.210641
415.186872,1554.432478,-8512.368333,1915.238745
415.187199,-3034.844362,-9104.533087,-612.876398
415.187527,-5699.585753,-10362.883188,-1225.752797
415.187854,-6809.894666,-10732.986159,-2451.505594
415.188181,-4663.297435,-9252.574275,-1378.971896
415.188509,-740.205942,-9104.533087,229.828649
415.188836,3404.947333,-7772.162391,2911.162892
415.189164,3849.070898,-6735.874072,3447.429741
415.189491,2294.638420,-7846.182985,2757.943793
415.189819,-814.226536,-8882.471304,1455.581446
415.190146,-4811.338623,-10214.842000,-995.924147
415.190474,-6513.812290,-11103.089130,-2221.676944
415.190801,-5033.400406,-10140.821405,-1608.800546
415.191129,-2812.782580,-9104.533087,-1608.800546
415.191456,1480.411884,-7920.203579,1072.533697
415.191784,4959.379811,-7402.059420,2681.334243
415.192111,4441.235652,-7402.059420,2374.896044
415.192439,2738.761985,-7624.121203,1455.581446
415.192766,-666.185348,-9030.512492,-612.876398
415.193094,-4293.194464,-10288.862594,-2374.896044
415.193421,-4737.318029,-10881.027347,-1991.848295
415.193749,-2664.741391,-9548.656652,-1685.410096
415.194076,814.226536,-8734.430116,153.219100
415.194404,5921.647536,-7772.162391,3064.381992
415.194731,7031.956449,-7179.997637,3600.648841
415.195058,5107.421000,-8216.285956,3140.991542
415.195386,2146.597232,-9474.636058,1991.848295
415.195713,-2812.782580,-10658.965565,-842.705048
415.196041,-4737.318029,-11547.212695,-1532.190996
415.196368,-3701.029710,-10214.842000,-1991.848295
415.196696,-1110.308913,-9770.718434,-1072.533697
415.197023,2590.720797,-8068.244768,1455.581446
415.197351,5625.565159,-7328.038826,3294.210641
415.197678,4441.235652,-7550.100608,2681.334243
415.198006,1480.411884,-7698.141797,1072.533697
415.198333,-2368.659014,-9622.677246,-536.266849
415.198661,-6217.729913,-10584.944971,-2221.676944
415.198988,-6883.915261,-10510.924376,-2374.896044
415.199316,-4515.256246,-9696.697840,-1378.971896
415.199643,-962.267725,-8216.285956,995.924147
415.199971,2960.823768,-8216.285956,2987.772442
415.200298,4663.297435,-6809.894666,3447.429741
415.200626,2738.761985,-7846.182985,2757.943793
415.200953,-592.164754,-9326.594869,1762.019645
415.201281,-5329.482782,-10066.800811,-842.705048
415.201608,-6587.832884,-11843.295072,-1762.019645
415.201936,-5995.668130,-10510.924376,-1532.190996
415.202263,-3034.844362,-9474.636058,-842.705048
415.202590,1924.535449,-8364.327145,1378.971896
415.202918,4885.359217,-7402.059420,3217.601092
415.203245,4663.297435,-7402.059420,3140.991542
415.203573,2294.638420,-7994.224174,1762.019645
415.203900,-1332.370696,-9696.697840,76.609550
415.204228,-4737.318029,-10658.965565,-1915.238745
415.204555,-5625.565159,-10881.027347,-2068.457845
415.204883,-2664.741391,-10288.862594,-1072.533697
415.205210,222.061783,-8808.450710,612.876398
415.205538,5033.400406,-8216.285956,3524.039291
415.205865,6439.791695,-7254.018232,4290.134789
415.206193,4219.173869,-7920.203579,3753.867940
415.206520,888.247130,-9252.574275,2145.067394
415.206848,-3330.926739,-10436.903782,-459.657299
415.207175,-5625.565159,-11399.171507,-1608.800546
415.207503,-4737.318029,-10362.883188,-1608.800546
415.207830,-2072.576638,-9104.533087,-612.876398
415.208158,2516.700203,-7624.121203,1838.629195
415.208485,5403.503377,-7328.038826,3217.601092
415.208813,4219.173869,-7402.059420,2911.162892
415.209140,1554.432478,-7920.203579,1762.019645
415.209468,-2442.679609,-9548.656652,-383.047749
415.209795,-5625.565159,-9992.780217,-1608.800546
415.210122,-6291.750507,-10436.903782,-2221.676944
415.210450,-3627.009116,-9474.636058,-1302.362347
415.210777,-518.144159,-8660.409521,229.828649
415.211105,4071.132681,-7624.121203,3064.381992
415.211432,4959.379811,-6883.915261,3753.867940
415.211760,2442.679609,-8216.285956,2911.162892
415.212087,-962.267725,-8808.450710,1378.971896
415.212415,-5033.400406,-10658.965565,-1378.971896
415.212742,-6883.915261,-11251.130318,-2374.896044
415.213070,-5181.441594,-9696.697840,-1838.629195
415.213397,-2072.576638,-9326.594869,-1532.190996
415.213725,2294.638420,-7772.162391,995.924147
415.214052,5699.585753,-6957.935855,2834.553343
415.214380,5107.421000,-7179.997637,2374.896044
415.214707,2220.617826,-7550.100608,995.924147
415.215035,-1110.308913,-9696.697840,-306.438199
415.215362,-4737.318029,-11029.068536,-2604.724693
415.215690,-5107.421000,-11029.068536,-2298.286494
415.216017,-2516.700203,-10066.800811,-1149.143247
415.216345,1332.370696,-9104.533087,689.485948
415.216672,5551.544565,-7846.182985,3677.258390
415.217000,6661.853478,-7550.100608,3907.087040
415.217327,4515.256246,-8364.327145,3294.210641
415.217654,518.144159,-9474.636058,1608.800546
415.217982,-4293.194464,-10288.862594,-1532.190996
415.218309,-5551.544565,-10807.006753,-2068.457845
415.218637,-4589.276840,-10288.862594,-1991.848295
415.218964,-1332.370696,-9030.512492,-689.485948
415.219292,2072.576638,-7550.100608,1225.752797
415.219619,5921.647536,-7476.080014,3370.820191
415.219947,4145.153275,-7031.956449,2298.286494
415.220274,1332.370696,-7920.203579,1225.752797
415.220602,-2590.720797,-9622.677246,-459.657299
415.220929,-5625.565159,-10955.047942,-2298.286494
415.221257,-6217.729913,-11029.068536,-2221.676944
415.221584,-3701.029710,-9918.759623,-612.876398
415.221912,148.041188,-8364.327145,1532.190996
415.222239,3108.864956,-8364.327145,3217.601092
415.222567,4737.318029,-7328.038826,4213.525239
415.222894,2812.782580,-7846.182985,2834.553343
415.223222,-814.226536,-9400.615463,1302.362347
415.223549,-4737.318029,-9548.656652,-766.095498
415.223877,-6143.709319,-11473.192101,-1838.629195
415.224204,-4737.318029,-10140.821405,-1762.019645
415.224531,-1480.411884,-9326.594869,-459.657299
415.224859,2960.823768,-7920.203579,1838.629195
415.225186,4811.338623,-7031.956449,2834.553343
415.225514,4071.132681,-7328.038826,3064.381992
415.225841,888.247130,-8438.347739,766.095498
415.226169,-2738.761985,-9770.718434,-842.705048
415.226496,-5329.482782,-10955.047942,-2374.896044
415.226824,-5847.626942,-10584.944971,-2528.115143
415.227151,-2590.720797,-9844.739029,-1608.800546
415.227479,1184.329507,-9030.512492,459.657299
415.227806,5107.421000,-7550.100608,3064.381992
415.228134,6365.771101,-7476.080014,3830.477490
415.228461,3775.050304,-8438.347739,2374.896044
415.228789,-222.061783,-9030.512492,919.314598
415.229116,-3256.906145,-10807.006753,-1302.362347
415.229444,-4737.318029,-11399.171507,-1991.848295
415.229771,-3256.906145,-9844.739029,-1532.190996
415.230099,592.164754,-9770.718434,0.000000
415.230426,3997.112087,-8586.388927,1762.019645
415.230754,5551.544565,-7772.162391,3140.991542
415.231081,4515.256246,-8068.244768,2911.162892
415.231409,962.267725,-8364.327145,766.095498
415.231736,-2738.761985,-10362.883188,-536.266849
415.232063,-4959.379811,-11177.109724,-1608.800546
415.232391,-5329.482782,-10584.944971,-2221.676944
415.232718,-2664.741391,-9548.656652,-536.266849
415.233046,1406.391290,-9400.615463,1762.019645
415.233373,3552.988522,-7994.224174,3600.648841
415.233701,4959.379811,-7105.977043,3524.039291
415.234028,3108.864956,-8142.265362,2451.505594
415.234356,-1776.494261,-9326.594869,919.314598
415.234683,-5477.523971,-9992.780217,-1225.752797
415.235011,-6291.750507,-11029.068536,-1838.629195
415.235338,-5329.482782,-9844.739029,-1455.581446
415.235666,-2220.617826,-9178.553681,842.705048
415.235993,2220.617826,-8216.285956,2374.896044
415.236321,3701.029710,-6883.915261,3064.381992
415.236648,3849.070898,-7328.038826,2911.162892
415.236976,1036.288319,-8216.285956,1149.143247
415.237303,-3701.029710,-9696.697840,-306.438199
415.237631,-4737.318029,-10955.047942,-1991.848295
415.237958,-5329.482782,-10066.800811,-1915.238745
415.238286,-2812.782580,-9770.718434,-229.828649
415.238613,1406.391290,-8586.388927,1838.629195
415.238941,4441.235652,-7402.059420,3064.381992
415.239268,6291.750507,-7031.956449,3907.087040
415.239595,3923.091493,-7920.203579,2757.943793
415.239923,-740.205942,-9178.553681,612.876398
415.240250,-3627.009116,-10066.800811,-1072.533697
415.240578,-5329.482782,-11177.109724,-1915.238745
415.240905,-4589.276840,-10584.944971,-1302.362347
415.241233,-1184.329507,-9474.636058,76.609550
415.241560,2590.720797,-7846.182985,1915.238745
415.241888,5107.421000,-7105.977043,3294.210641
415.242215,4145.153275,-7624.121203,2911.162892
415.242543,888.247130,-7846.182985,995.924147
415.242870,-2886.803174,-9104.533087,-1225.752797
415.243198,-4885.359217,-11029.068536,-2451.505594
415.243525,-5773.606348,-10140.821405,-2757.943793
415.243853,-3552.988522,-9770.718434,-1838.629195
415.244180,888.247130,-8956.491898,842.705048
415.244508,4367.215058,-7846.182985,2604.724693
415.244835,4515.256246,-7846.182985,3524.039291
415.245163,2738.761985,-8068.244768,2604.724693
415.245490,-1406.391290,-9326.594869,153.219100
415.245818,-3849.070898,-11251.130318,-1072.533697
415.246145,-5329.482782,-10732.986159,-2068.457845
415.246472,-4737.318029,-10214.842000,-2145.067394
415.246800,-370.102971,-9178.553681,0.000000
415.247127,2886.803174,-8216.285956,1762.019645
415.247455,5403.503377,-6809.894666,2987.772442
415.247782,4885.359217,-7179.997637,2604.724693
415.248110,1776.494261,-8734.430116,1455.581446
415.248437,-2516.700203,-9474.636058,-919.314598
415.248765,-5403.503377,-11325.150913,-1991.848295
415.249092,-5699.585753,-10584.944971,-2145.067394
415.249420,-2516.700203,-9622.677246,-995.924147
415.249747,2368.659014,-8808.450710,1915.238745
415.250075,5329.482782,-7772.162391,3524.039291
415.250402,5329.482782,-7624.121203,4443.353888
415.250730,3849.070898,-8068.244768,3447.429741
415.251057,-1332.370696,-9400.615463,919.314598
415.251385,-5329.482782,-10362.883188,-1225.752797
415.251712,-5995.668130,-11029.068536,-2068.457845
415.252040,-5181.441594,-10214.842000,-1838.629195
415.252367,-1480.411884,-8808.450710,0.000000
415.252695,3182.885551,-7476.080014,1991.848295
415.253022,5403.503377,-6661.853478,3294.210641
415.253350,4293.194464,-6513.812290,2145.067394
415.253677,1110.308913,-8512.368333,842.705048
415.254004,-4219.173869,-10214.842000,-1149.143247
415.254332,-7105.977043,-10510.924376,-2834.553343
415.254659,-5995.668130,-11325.150913,-2068.457845
415.254987,-2812.782580,-9548.656652,-1072.533697
415.255314,1036.288319,-8364.327145,766.095498
415.255642,5995.668130,-8364.327145,3907.087040
415.255969,5403.503377,-7031.956449,3217.601092
415.256297,3256.906145,-8068.244768,1762.019645
415.256624,0.000000,-10436.903782,383.047749
415.256952,-4663.297435,-10807.006753,-1915.238745
415.257279,-5329.482782,-11991.336260,-2298.286494
415.257607,-3404.947333,-11177.109724,-1532.190996
415.257934,0.000000,-9474.636058,76.609550
415.258262,4367.215058,-8438.347739,2757.943793
415.258589,6365.771101,-7846.182985,3294.210641
415.258917,4737.318029,-6661.853478,2451.505594
415.259244,2146.597232,-9030.512492,689.485948
415.259572,-2664.741391,-10510.924376,-842.705048
415.259899,-5847.626942,-10732.986159,-2221.676944
415.260227,-4885.359217,-11547.212695,-1762.019645
415.260554,-2146.597232,-9770.718434,-536.266849
415.260882,2220.617826,-8512.368333,1991.848295
415.261209,5773.606348,-7698.141797,3983.696590
415.261536,4811.338623,-7179.997637,3294.210641
415.261864,1628.453072,-7920.203579,2528.115143
415.262191,-2368.659014,-9474.636058,76.609550
415.262519,-5181.441594,-10288.862594,-1762.019645
415.262846,-6513.812290,-10436.903782,-2145.067394
415.263174,-3997.112087,-9918.759623,-1915.238745
415.263501,-962.267725,-8956.491898,153.219100
415.263829,2812.782580,-7624.121203,2298.286494
415.264156,4367.215058,-7698.141797,3600.648841
415.264484,2812.782580,-7476.080014,2604.724693
415.264811,-518.144159,-8290.306550,842.705048
415.265139,-3923.091493,-9844.739029,-1455.581446
415.265467,-6143.709319,-10807.006753,-2068.457845
415.265794,-5699.585753,-10362.883188,-2068.457845
415.266122,-2368.659014,-9474.636058,-689.485948
415.266450,2294.638420,-7994.224174,1838.629195
415.266777,5255.462188,-6735.874072,3447.429741
415.267105,5255.462188,-7550.100608,4290.134789
415.267433,3108.864956,-8216.285956,2757.943793
415.267760,-2220.617826,-8808.450710,229.828649
415.268088,-3849.070898,-10436.903782,-689.485948
415.268416,-5033.400406,-10658.965565,-1532.190996
415.268743,-3034.844362,-9400.615463,-842.705048
415.269071,666.185348,-9104.533087,306.438199
415.269399,4663.297435,-7550.100608,2834.553343
415.269726,5403.503377,-7105.977043,3294.210641
415.270054,4441.235652,-7476.080014,2911.162892
415.270382,592.164754,-7994.224174,1532.190996
415.270709,-3404.947333,-9918.759623,-919.314598
415.271037,-5551.544565,-11103.089130,-2374.896044
415.271365,-5107.421000,-10140.821405,-1838.629195
415.271692,-1406.391290,-9474.636058,-459.657299
415.272020,1924.535449,-8438.347739,1149.143247
415.272348,5033.400406,-7476.080014,3370.820191
415.272675,4811.338623,-7550.100608,3294.210641
415.273003,1850.514855,-8586.388927,1838.629195
415.273331,-2590.720797,-9474.636058,0.000000
415.273658,-5551.544565,-10510.924376,-1838.629195
415.273986,-6735.874072,-11399.171507,-2221.676944
415.274314,-4367.215058,-10140.821405,-1532.190996
415.274641,-814.226536,-9252.574275,-536.266849
415.274969,3552.988522,-8438.347739,1685.410096
415.275297,4959.379811,-7179.997637,2681.334243
415.275625,3478.967927,-8290.306550,1991.848295
415.275952,296.082377,-9030.512492,306.438199
415.276280,-3923.091493,-10140.821405,-1608.800546
415.276608,-5477.523971,-11843.295072,-2604.724693
415.276935,-4811.338623,-10436.903782,-2451.505594
415.277263,-2072.576638,-9622.677246,-842.705048
415.277591,2960.823768,-8808.450710,1455.581446
415.277918,6143.709319,-7698.141797,3064.381992
415.278246,5403.503377,-7920.203579,3447.429741
415.278574,3256.906145,-8364.327145,2451.505594
415.278901,-962.267725,-9474.636058,766.095498
415.279229,-4219.173869,-11695.253884,-919.314598
415.279557,-5329.482782,-11473.192101,-1685.410096
415.279884,-3330.926739,-10066.800811,-1378.971896
415.280212,888.247130,-9622.677246,766.095498
415.280540,4515.256246,-7254.018232,2987.772442
415.280867,5847.626942,-7550.100608,3753.867940
415.281195,4441.235652,-7846.182985,3217.601092
415.281523,-222.061783,-8364.327145,612.876398
415.281850,-3552.988522,-10510.924376,-995.924147
415.282178,-5773.606348,-11029.068536,-2145.067394
415.282506,-6513.812290,-9252.574275,-2528.115143
415.282833,-2072.576638,-8734.430116,-229.828649
415.283161,2368.659014,-8142.265362,2068.457845
415.283489,4663.297435,-6661.853478,3600.648841
415.283816,5107.421000,-7105.977043,4826.401637
415.284144,1554.432478,-7624.121203,3294.210641
415.284472,-3849.070898,-9178.553681,76.609550
415.284799,-6291.750507,-11399.171507,-842.705048
415.285127,-7328.038826,-10214.842000,-2145.067394
415.285455,-5107.421000,-8956.491898,-1532.190996
415.285782,444.123565,-8290.306550,689.485948
415.286110,3478.967927,-6661.853478,2757.943793
415.286438,4293.194464,-6439.791695,3524.039291
415.286765,3775.050304,-7254.018232,2987.772442
415.287093,-1110.308913,-8068.244768,76.609550
415.287421,-4663.297435,-9548.656652,-1685.410096
415.287748,-5699.585753,-10214.842000,-2604.724693
415.288076,-5477.523971,-10066.800811,-2451.505594
415.288404,-1480.411884,-8808.450710,-612.876398
415.288731,2664.741391,-8586.388927,1455.581446
415.289059,6217.729913,-6957.935855,3217.601092
415.289387,6143.709319,-7179.997637,3370.820191
415.289714,2812.782580,-9030.512492,2221.676944
415.290042,-1776.494261,-9844.739029,76.609550
415.290370,-4737.318029,-11843.295072,-1838.629195
415.290698,-5033.400406,-10955.047942,-2528.115143
415.291025,-2664.741391,-9252.574275,-2068.457845
415.291353,1332.370696,-9030.512492,0.000000
415.291681,5107.421000,-7994.224174,1915.238745
415.292008,5773.606348,-7105.977043,2681.334243
415.292336,4589.276840,-7402.059420,2068.457845
415.292664,888.247130,-9104.533087,306.438199
415.292991,-3552.988522,-10658.965565,-1455.581446
415.293319,-5107.421000,-11399.171507,-2451.505594
415.293647,-4367.215058,-10732.986159,-2145.067394
415.293974,-1332.370696,-9770.718434,-153.219100
415.294302,3182.885551,-8438.347739,3140.991542
415.294630,5107.421000,-7994.224174,3600.648841
415.294957,5107.421000,-8068.244768,3753.867940
415.295285,1702.473667,-9178.553681,2068.457845
415.295613,-3478.967927,-10288.862594,76.609550
415.295940,-5477.523971,-11473.192101,-2068.457845
415.296268,-6439.791695,-11103.089130,-2374.896044
415.296596,-4219.173869,-10066.800811,-995.924147
415.296923,-222.061783,-8808.450710,689.485948
415.297251,3330.926739,-7698.141797,2145.067394
415.297579,4589.276840,-7031.956449,2298.286494
415.297906,2146.597232,-7105.977043,2221.676944
415.298234,-1480.411884,-9252.574275,536.266849
415.298562,-5847.626942,-11103.089130,-1608.800546
415.298889,-6809.894666,-11325.150913,-2451.505594
415.299217,-5477.523971,-10732.986159,-1838.629195
415.299545,-1998.556043,-9178.553681,-612.876398
415.299872,2294.638420,-7846.182985,2068.457845
415.300200,6069.688724,-7698.141797,3907.087040
415.300528,5255.462188,-7624.121203,3830.477490
415.300855,1924.535449,-7920.203579,2068.457845
415.301183,-1332.370696,-9770.718434,229.828649
415.301511,-4145.153275,-10955.047942,-1378.971896
415.301838,-5033.400406,-11029.068536,-1685.410096
415.302166,-2294.638420,-9992.780217,-766.095498
415.302494,1998.556043,-8956.491898,1225.752797
415.302821,6217.729913,-7624.121203,3447.429741
415.303149,6957.935855,-7624.121203,3983.696590
415.303477,4219.173869,-8512.368333,2987.772442
415.303804,0.000000,-9474.636058,919.314598
415.304132,-3775.050304,-10807.006753,-1225.752797
415.304460,-5329.482782,-11177.109724,-2068.457845
415.304788,-4663.297435,-9474.636058,-1762.019645
415.305115,148.041188,-8438.347739,536.266849
415.305443,3775.050304,-7476.080014,2451.505594
415.305771,5699.585753,-7105.977043,4519.963438
415.306098,4293.194464,-7254.018232,3983.696590
415.306426,74.020594,-7772.162391,1532.190996
415.306754,-4367.215058,-9696.697840,-536.266849
415.307081,-6661.853478,-10732.986159,-1915.238745
415.307409,-7328.038826,-10510.924376,-2451.505594
415.307737,-4071.132681,-9104.533087,-995.924147
415.308064,592.164754,-8438.347739,766.095498
415.308392,2738.761985,-6957.935855,2374.896044
415.308720,3404.947333,-5699.585753,2374.896044
415.309047,2220.617826,-7254.018232,1072.533697
415.309375,-1702.473667,-8882.471304,-689.485948
415.309703,-5551.544565,-9474.636058,-2681.334243
415.310030,-6291.750507,-11251.130318,-3294.210641
415.310358,-4885.359217,-10140.821405,-2681.334243
415.310686,-1480.411884,-8882.471304,-1455.581446
415.311013,3552.988522,-8290.306550,1532.190996
415.311341,6069.688724,-6957.935855,2681.334243
415.311669,5329.482782,-7254.018232,2757.943793
415.311996,3330.926739,-8660.409521,1838.629195
415.312324,-1110.308913,-9992.780217,-689.485948
415.312652,-3627.009116,-11547.212695,-1991.848295
415.312979,-4071.132681,-11177.109724,-2221.676944
415.313307,-1258.350101,-9548.656652,-1915.238745
415.313635,2220.617826,-9104.533087,383.047749
415.313962,6439.791695,-7624.121203,2451.505594
415.314290,7476.080014,-7105.977043,3370.820191
415.314618,5181.441594,-7994.224174,2451.505594
415.314945,962.267725,-9548.656652,766.095498
415.315273,-3256.906145,-10362.883188,-766.095498
415.315601,-4737.318029,-11473.192101,-1762.019645
415.315928,-4293.194464,-10214.842000,-1455.581446
415.316256,222.061783,-9474.636058,536.266849
415.316584,4071.132681,-9030.512492,3370.820191
415.316911,5699.585753,-7105.977043,4519.963438
415.317239,4145.153275,-7920.203579,4519.963438
415.317567,592.164754,-9252.574275,2757.943793
415.317894,-5181.441594,-9770.718434,76.609550
415.318222,-7328.038826,-10881.027347,-995.924147
415.318550,-7254.018232,-10955.047942,-1225.752797
415.318878,-4885.359217,-9178.553681,-766.095498
415.319205,-1184.329507,-8438.347739,1149.143247
415.319533,2960.823768,-7254.018232,3140.991542
415.319861,2886.803174,-6439.791695,3140.991542
415.320188,740.205942,-7328.038826,2221.676944
415.320516,-3034.844362,-8808.450710,766.095498
415.320844,-7031.956449,-10288.862594,-1455.581446
415.321171,-7920.203579,-11621.233289,-2145.067394
415.321499,-6143.709319,-10140.821405,-1532.190996
415.321827,-2294.638420,-8882.471304,-459.657299
415.322154,3182.885551,-7624.121203,2451.505594
415.322482,6069.688724,-7179.997637,3983.696590
415.322810,4811.338623,-7105.977043,3447.429741
415.323137,2146.597232,-8438.347739,2145.067394
415.323465,-1628.453072,-10584.944971,0.000000
415.323793,-4737.318029,-11325.150913,-2221.676944
415.324120,-5477.523971,-11029.068536,-2221.676944
415.324448,-1850.514855,-9918.759623,-1455.581446
415.324776,1480.411884,-8956.491898,0.000000
415.325103,6513.812290,-7476.080014,2681.334243
415.325431,7624.121203,-6365.771101,3600.648841
415.325759,5329.482782,-8068.244768,2451.505594
415.326086,1332.370696,-9252.574275,229.828649
415.326414,-3330.926739,-10732.986159,-2068.457845
415.326742,-5033.400406,-11399.171507,-2451.505594
415.327069,-3404.947333,-9252.574275,-1991.848295
415.327397,74.020594,-10140.821405,-229.828649
415.327725,4145.153275,-7105.977043,1991.848295
415.328052,5551.544565,-6661.853478,3600.648841
415.328380,4145.153275,-8660.409521,3447.429741
415.328708,1332.370696,-7846.182985,766.095498
415.329035,-3701.029710,-9400.615463,-383.047749
415.329363,-6143.709319,-11399.171507,-2681.334243
415.329691,-8290.306550,-10658.965565,-3677.258390
415.330018,-2442.679609,-9104.533087,-842.705048
415.330346,-740.205942,-8438.347739,-766.095498
415.330674,5477.523971,-7476.080014,3753.867940
415.331001,3701.029710,-6735.874072,2145.067394
415.331329,2294.638420,-8586.388927,1915.238745
415.331657,-2812.782580,-9252.574275,-536.266849
415.331984,-5107.421000,-11695.253884,-995.924147
415.332312,-8734.430116,-11695.253884,-3447.429741
415.332640,-3775.050304,-10214.842000,-1685.410096
415.332968,-740.205942,-8956.491898,-1608.800546
415.333295,3701.029710,-8364.327145,1915.238745
415.333623,6735.874072,-7772.162391,4060.306139
415.333951,4441.235652,-8660.409521,2451.505594
415.334278,2294.638420,-8068.244768,2068.457845
415.334606,-2738.761985,-10140.821405,-995.924147
415.334934,-4663.297435,-13027.624579,-1302.362347
415.335261,-5625.565159,-11103.089130,-2911.162892
415.335589,-814.226536,-9474.636058,-995.924147
415.335917,3404.947333,-8586.388927,1608.800546
415.336244,6661.853478,-6661.853478,2911.162892
415.336572,6883.915261,-8142.265362,4673.182538
415.336900,4145.153275,-9400.615463,2604.724693
415.337227,-1850.514855,-9400.615463,612.876398
415.337555,-4145.153275,-11547.212695,-1072.533697
415.337883,-5551.544565,-11621.233289,-1455.581446
415.338210,-3552.988522,-9770.718434,-766.095498
415.338538,1110.308913,-8808.450710,1302.362347
415.338866,4885.359217,-7698.141797,3983.696590
415.339193,5181.441594,-7105.977043,4366.744339
415.339521,2960.823768,-8364.327145,4519.963438
415.339849,-1406.391290,-9104.533087,1685.410096
415.340176,-5403.503377,-10214.842000,-383.047749
415.340504,-6365.771101,-11251.130318,-1225.752797
415.340832,-6217.729913,-9178.553681,-689.485948
415.341159,-2368.659014,-7920.203579,383.047749
415.341487,1924.535449,-7698.141797,2604.724693
415.341815,3775.050304,-6291.750507,3524.039291
415.342142,2886.803174,-7328.038826,3600.648841
415.342470,148.041188,-8882.471304,2221.676944
415.342798,-5699.585753,-9252.574275,-612.876398
415.343125,-7254.018232,-11399.171507,-1378.971896
415.343453,-7328.038826,-10658.965565,-1991.848295
415.343781,-4663.297435,-8808.450710,-1532.190996
415.344108,370.102971,-8438.347739,536.266849
415.344436,4515.256246,-7031.956449,2451.505594
415.344764,4811.338623,-6735.874072,2987.772442
415.345091,3849.070898,-7698.141797,2298.286494
415.345419,-148.041188,-8734.430116,0.000000
415.345747,-3404.947333,-10140.821405,-1532.190996
415.346074,-3997.112087,-11399.171507,-2374.896044
415.346402,-3701.029710,-10362.883188,-2528.115143
415.346730,-222.061783,-9252.574275,-995.924147
415.347058,3775.050304,-8808.450710,1302.362347
415.347385,6513.812290,-7402.059420,2374.896044
415.347713,6439.791695,-7476.080014,2068.457845
415.348041,4145.153275,-8586.388927,1072.533697
415.348368,74.020594,-9918.759623,-842.705048
415.348696,-2664.741391,-10807.006753,-2451.505594
415.349024,-3627.009116,-11251.130318,-2604.724693
415.349351,-1776.494261,-10214.842000,-1072.533697
415.349679,2368.659014,-9252.574275,612.876398
415.350007,5181.441594,-8142.265362,2451.505594
415.350334,6217.729913,-7402.059420,3677.258390
415.350662,4515.256246,-7994.224174,2528.115143
415.350990,370.102971,-9474.636058,995.924147
415.351317,-3552.988522,-10140.821405,-536.266849
415.351645,-5403.503377,-11029.068536,-1838.629195
415.351973,-4589.276840,-10066.800811,-1608.800546
415.352300,-1850.514855,-8956.491898,0.000000
415.352628,1406.391290,-7920.203579,1838.629195
415.352956,3478.967927,-7402.059420,3064.381992
415.353283,2664.741391,-7550.100608,3294.210641
415.353611,-1258.350101,-7846.182985,1072.533697
415.353939,-4737.318029,-9252.574275,-612.876398
415.354266,-6439.791695,-10584.944971,-2068.457845
415.354594,-7402.059420,-10436.903782,-2451.505594
415.354922,-5181.441594,-9474.636058,-1532.190996
415.355249,-962.267725,-8586.388927,229.828649
415.355577,2886.803174,-7031.956449,2374.896044
415.355905,4367.215058,-6513.812290,3217.601092
415.356232,3256.906145,-7550.100608,3140.991542
415.356560,0.000000,-9474.636058,1225.752797
415.356888,-4367.215058,-10436.903782,-919.314598
415.357215,-5255.462188,-11843.295072,-1608.800546
415.357543,-5107.421000,-10510.924376,-1838.629195
415.357871,-1110.308913,-9548.656652,-766.095498
415.358198,2960.823768,-8586.388927,842.705048
415.358526,6587.832884,-7254.018232,3294.210641
415.358854,5921.647536,-7328.038826,3447.429741
415.359181,4145.153275,-7994.224174,1838.629195
415.359509,0.000000,-9918.759623,0.000000
415.359837,-2886.803174,-11103.089130,-1532.190996
415.360164,-4737.318029,-11251.130318,-2145.067394
415.360492,-2368.659014,-10066.800811,-995.924147
415.360820,1776.494261,-9178.553681,1149.143247
415.361148,5255.462188,-7994.224174,3600.648841
415.361475,6735.874072,-7179.997637,4596.572988
415.361803,4737.318029,-7698.141797,3294.210641
415.362131,222.061783,-9400.615463,1685.410096
415.362458,-4145.153275,-10140.821405,-842.705048
415.362786,-5699.585753,-11103.089130,-1991.848295
415.363114,-5107.421000,-9770.718434,-1302.362347
415.363441,-1628.453072,-9104.533087,229.828649
415.363769,2072.576638,-7994.224174,2528.115143
415.364097,3330.926739,-7254.018232,3447.429741
415.364424,2590.720797,-7105.977043,3140.991542
415.364752,666.185348,-8438.347739,1838.629195
415.365080,-4663.297435,-9622.677246,-1072.533697
415.365407,-7994.224174,-10658.965565,-2068.457845
415.365735,-7624.121203,-11621.233289,-2374.896044
415.366063,-5403.503377,-9548.656652,-1762.019645
415.366390,-962.267725,-8512.368333,153.219100
415.366718,3775.050304,-7550.100608,2528.115143
415.367045,4515.256246,-7328.038826,2834.553343
415.367373,3108.864956,-7920.203579,2451.505594
415.367700,-1110.308913,-8882.471304,0.000000
415.368028,-4293.194464,-10288.862594,-1378.971896
415.368356,-5329.482782,-11695.253884,-1838.629195
415.368683,-4959.379811,-10955.047942,-2834.553343
415.369011,-1628.453072,-9844.739029,-1608.800546
415.369338,4293.194464,-9178.553681,1608.800546
415.369666,6809.894666,-7550.100608,2451.505594
415.369993,7105.977043,-7550.100608,3983.696590
415.370321,4959.379811,-8512.368333,1532.190996
415.370648,-444.123565,-10362.883188,-383.047749
415.370976,-2590.720797,-11695.253884,-1762.019645
415.371303,-4145.153275,-11029.068536,-2451.505594
415.371631,-1332.370696,-9770.718434,-1455.581446
415.371958,2738.761985,-9696.697840,306.438199
415.372286,6439.791695,-7772.162391,3447.429741
415.372613,6957.935855,-7994.224174,4443.353888
415.372941,4811.338623,-8512.368333,3753.867940
415.373269,-222.061783,-9178.553681,1532.190996
415.373596,-3701.029710,-10214.842000,153.219100
415.373924,-6217.729913,-10881.027347,-1762.019645
415.374251,-5477.523971,-9918.759623,-1072.533697
415.374579,-1332.370696,-8660.409521,383.047749
415.374906,1184.329507,-7994.224174,2068.457845
415.375234,3849.070898,-6735.874072,4213.525239
415.375561,3182.885551,-7105.977043,3370.820191
415.375889,-1480.411884,-8142.265362,1685.410096
415.376216,-5181.441594,-9252.574275,-153.219100
415.376544,-8068.244768,-10807.006753,-2068.457845
415.376871,-8438.347739,-9770.718434,-2451.505594
415.377199,-5181.441594,-8290.306550,-1378.971896
415.377526,-222.061783,-8068.244768,689.485948
415.377854,2664.741391,-6365.771101,2298.286494
415.378182,4589.276840,-6661.853478,3753.867940
415.378509,3404.947333,-7994.224174,2987.772442
415.378837,-1258.350101,-8512.368333,383.047749
415.379164,-4441.235652,-10732.986159,-766.095498
415.379492,-5625.565159,-11621.233289,-2298.286494
415.379819,-5107.421000,-10214.842000,-2221.676944
415.380147,-666.185348,-9104.533087,-459.657299
415.380474,4145.153275,-8142.265362,1685.410096
415.380802,6957.935855,-6513.812290,3064.381992
415.381129,7105.977043,-7254.018232,2987.772442
415.381457,4367.215058,-8734.430116,1532.190996
415.381784,-1036.288319,-9770.718434,-766.095498
415.382112,-3552.988522,-11177.109724,-2374.896044
415.382440,-4071.132681,-11843.295072,-1838.629195
415.382767,-2072.576638,-9622.677246,-1225.752797
415.383095,2960.823768,-8808.450710,1072.533697
415.383422,6809.894666,-8216.285956,3447.429741
415.383750,6069.688724,-7105.977043,4519.963438
415.384077,4145.153275,-8364.327145,3217.601092
415.384405,0.000000,-10066.800811,766.095498
415.384732,-4663.297435,-10288.862594,-1608.800546
415.385060,-5699.585753,-11473.192101,-2298.286494
415.385387,-4515.256246,-10214.842000,-1532.190996
415.385715,-2146.597232,-7698.141797,0.000000
415.386042,2442.679609,-7920.203579,2068.457845
415.386370,3997.112087,-7105.977043,3064.381992
415.386697,2368.659014,-6439.791695,2145.067394
415.387025,-370.102971,-8734.430116,766.095498
415.387353,-4589.276840,-10288.862594,-919.314598
415.387680,-7846.182985,-11103.089130,-2681.334243
415.388008,-7179.997637,-11325.150913,-2374.896044
415.388335,-4663.297435,-9474.636058,-1455.581446
415.388663,444.123565,-8142.265362,842.705048
415.388990,4737.318029,-8142.265362,3524.039291
415.389318,4441.235652,-7254.018232,3753.867940
415.389645,2072.576638,-8142.265362,2221.676944
415.389973,-962.267725,-10214.842000,612.876398
415.390300,-4367.215058,-11177.109724,-1378.971896
415.390628,-5625.565159,-10955.047942,-2451.505594
415.390955,-3627.009116,-10510.924376,-1608.800546
415.391283,296.082377,-9474.636058,-612.876398
415.391610,3923.091493,-8438.347739,1762.019645
415.391938,7105.977043,-7328.038826,3140.991542
415.392266,6291.750507,-7476.080014,2757.943793
415.392593,2220.617826,-9178.553681,1915.238745
415.392921,-1998.556043,-10436.903782,-612.876398
415.393248,-4737.318029,-12139.377449,-1991.848295
415.393576,-4885.359217,-11251.130318,-2374.896044
415.393903,-1998.556043,-9474.636058,-1302.362347
415.394231,2886.803174,-8808.450710,1225.752797
415.394558,6661.853478,-8068.244768,3600.648841
415.394886,5477.523971,-7402.059420,4136.915689
415.395213,3923.091493,-8216.285956,3064.381992
415.395541,-740.205942,-9548.656652,689.485948
415.395868,-4367.215058,-10214.842000,-1532.190996
415.396196,-4885.359217,-10140.821405,-995.924147
415.396524,-3330.926739,-9992.780217,-1149.143247
415.396851,-888.247130,-8364.327145,766.095498
415.397179,3256.906145,-8364.327145,2987.772442
415.397506,4293.194464,-7550.100608,3830.477490
415.397834,2368.659014,-6513.812290,2911.162892
415.398161,-148.041188,-9252.574275,1608.800546
415.398489,-4737.318029,-10214.842000,-383.047749
415.398816,-7994.224174,-10807.006753,-2298.286494
415.399144,-6957.935855,-11103.089130,-1685.410096
415.399471,-3923.091493,-8660.409521,-612.876398
415.399799,0.000000,-7846.182985,919.314598
415.400126,4515.256246,-6957.935855,2987.772442
415.400454,4219.173869,-6661.853478,2987.772442
415.400781,1628.453072,-7846.182985,2221.676944
415.401109,-2368.659014,-9326.594869,0.000000
415.401437,-5107.421000,-9918.759623,-1532.190996
415.401764,-6217.729913,-11177.109724,-2068.457845
415.402092,-4737.318029,-10288.862594,-1685.410096
415.402419,-1110.308913,-8808.450710,-153.219100
415.402747,4145.153275,-8216.285956,1991.848295
415.403074,6365.771101,-6735.874072,2604.724693
415.403402,6143.709319,-7105.977043,2681.334243
415.403729,3034.844362,-8734.430116,1302.362347
415.404057,-1776.494261,-9696.697840,-995.924147
415.404384,-4367.215058,-12065.356855,-1685.410096
415.404712,-4737.318029,-10807.006753,-1991.848295
415.405039,-1702.473667,-9622.677246,-1455.581446
415.405367,3849.070898,-9252.574275,1455.581446
415.405695,7105.977043,-7328.038826,3140.991542
415.406022,7031.956449,-7550.100608,3907.087040
415.406350,4885.359217,-8808.450710,3370.820191
415.406677,-444.123565,-9326.594869,842.705048
415.407005,-3701.029710,-10584.944971,-995.924147
415.407332,-4885.359217,-11399.171507,-1302.362347
415.407660,-3701.029710,-9770.718434,-1149.143247
415.407987,-666.185348,-8660.409521,229.828649
415.408315,3478.967927,-7254.018232,2604.724693
415.408642,4515.256246,-6809.894666,3753.867940
415.408970,2590.720797,-7179.997637,3217.601092
415.409297,-814.226536,-8364.327145,1378.971896
415.409625,-4663.297435,-9696.697840,-1225.752797
415.409952,-7254.018232,-11103.089130,-2374.896044
415.410280,-7476.080014,-10066.800811,-2374.896044
415.410608,-4441.235652,-8956.491898,-1378.971896
415.410935,74.020594,-8364.327145,1072.533697
415.411263,3552.988522,-6809.894666,2911.162892
415.411590,3775.050304,-7179.997637,3907.087040
415.411918,1406.391290,-8216.285956,2221.676944
415.412245,-3627.009116,-9104.533087,-153.219100
415.412573,-6291.750507,-11695.253884,-1685.410096
415.412900,-7254.018232,-11251.130318,-2604.724693
415.413228,-4663.297435,-9252.574275,-2451.505594
415.413555,0.000000,-8956.491898,-1225.752797
415.413883,4293.194464,-7254.018232,1838.629195
415.414210,6809.894666,-7031.956449,3294.210641
415.414538,5995.668130,-7698.141797,2681.334243
415.414865,2368.659014,-8512.368333,766.095498
415.415193,-1110.308913,-10807.006753,-995.924147
415.415521,-3923.091493,-11843.295072,-2221.676944
415.415848,-3775.050304,-10584.944971,-1991.848295
415.416176,222.061783,-9474.636058,-689.485948
415.416503,4885.359217,-9474.636058,1991.848295
415.416831,7254.018232,-7179.997637,3677.258390
415.417158,7105.977043,-8364.327145,4519.963438
415.417486,4663.297435,-9474.636058,2987.772442
415.417813,-1554.432478,-10066.800811,229.828649
415.418141,-4589.276840,-11917.315666,-842.705048
415.418468,-5921.647536,-11177.109724,-1762.019645
415.418796,-4145.153275,-9400.615463,-1225.752797
415.419123,-370.102971,-8586.388927,76.609550
415.419451,3775.050304,-7624.121203,2604.724693
415.419779,3923.091493,-7179.997637,3140.991542
415.420106,2368.659014,-8216.285956,2987.772442
415.420434,-1184.329507,-8882.471304,612.876398
415.420761,-6143.709319,-9844.739029,-1378.971896
415.421089,-7846.182985,-11251.130318,-2221.676944
415.421416,-6809.894666,-9770.718434,-1915.238745
415.421744,-3478.967927,-8438.347739,-766.095498
415.422071,2368.659014,-8364.327145,2221.676944
415.422399,3997.112087,-7254.018232,3524.039291
415.422726,3256.906145,-7772.162391,3447.429741
415.423054,740.205942,-9104.533087,2528.115143
415.423381,-3997.112087,-9622.677246,-306.438199
415.423709,-5995.668130,-11769.274478,-1072.533697
415.424036,-5995.668130,-11325.150913,-2374.896044
415.424364,-3034.844362,-9622.677246,-1838.629195
415.424692,1036.288319,-9030.512492,0.000000
415.425019,5107.421000,-7476.080014,1762.019645
415.425347,6957.935855,-7550.100608,3677.258390
415.425674,5403.503377,-8512.368333,2451.505594
415.426002,888.247130,-9400.615463,229.828649
415.426329,-2072.576638,-11325.150913,-1072.533697
415.426657,-4367.215058,-11843.295072,-2221.676944
415.426984,-3775.050304,-10214.842000,-1838.629195
415.427312,222.061783,-9548.656652,-229.828649
415.427639,4737.318029,-8660.409521,2145.067394
415.427967,6661.853478,-7179.997637,3370.820191
415.428294,6735.874072,-7846.182985,4213.525239
415.428622,3552.988522,-8734.430116,2604.724693
415.428949,-1554.432478,-9104.533087,919.314598
415.429277,-3404.947333,-10881.027347,-842.705048
415.429605,-4367.215058,-10140.821405,-1378.971896
415.429932,-2072.576638,-8586.388927,-995.924147
415.430260,888.247130,-8438.347739,995.924147
415.430587,2960.823768,-7031.956449,3217.601092
415.430915,3775.050304,-7476.080014,3753.867940
415.431242,1628.453072,-8142.265362,2834.553343
415.431570,-2738.761985,-8660.409521,536.266849
415.431897,-5477.523971,-10436.903782,-842.705048
415.432225,-7476.080014,-10288.862594,-1762.019645
415.432552,-6513.812290,-8882.471304,-1532.190996
415.432880,-2664.741391,-8290.306550,0.000000
415.433207,1258.350101,-7624.121203,1838.629195
415.433535,3034.844362,-6069.688724,3064.381992
415.433863,3701.029710,-7105.977043,3983.696590
415.434190,444.123565,-8364.327145,2068.457845
415.434518,-4367.215058,-9178.553681,76.609550
415.434845,-5995.668130,-11177.109724,-1225.752797
415.435173,-6883.915261,-10436.903782,-2298.286494
415.435500,-3701.029710,-9252.574275,-1608.800546
415.435828,888.247130,-8586.388927,0.000000
415.436155,4145.153275,-7105.977043,1225.752797
415.436483,5773.606348,-6661.853478,2528.115143
415.436810,5255.462188,-8142.265362,2298.286494
415.437138,814.226536,-9030.512492,153.219100
415.437465,-2146.597232,-10732.986159,-1532.190996
415.437793,-4367.215058,-12287.418637,-2604.724693
415.438120,-4589.276840,-10658.965565,-2681.334243
415.438448,74.020594,-9992.780217,-689.485948
415.438776,3997.112087,-9030.512492,612.876398
415.439103,6735.874072,-7254.018232,3294.210641
415.439431,7772.162391,-8364.327145,3447.429741
415.439758,4145.153275,-9474.636058,1991.848295
415.440086,-666.185348,-9696.697840,76.609550
415.440413,-2886.803174,-11843.295072,-995.924147
415.440741,-4367.215058,-10807.006753,-2221.676944
415.441068,-2220.617826,-9474.636058,-1072.533697
415.441396,1628.453072,-9548.656652,612.876398
415.441723,3997.112087,-7846.182985,2068.457845
415.442051,4737.318029,-7698.141797,3524.039291
415.442378,3256.906145,-8512.368333,2528.115143
415.442706,-1702.473667,-8882.471304,0.000000
415.443034,-4885.359217,-11251.130318,-766.095498
415.443361,-6587.832884,-11769.274478,-2068.457845
415.443689,-6957.935855,-9918.759623,-2298.286494
415.444016,-2442.679609,-9104.533087,-536.266849
415.444344,1924.535449,-7994.224174,1762.019645
415.444671,3627.009116,-6809.894666,3294.210641
415.444999,4219.173869,-7994.224174,3907.087040
415.445326,370.102971,-9326.594869,2145.067394
415.445654,-4663.297435,-9696.697840,-153.219100
415.445981,-5773.606348,-12139.377449,-1225.752797
415.446309,-7105.977043,-10881.027347,-1915.238745
415.446636,-4071.132681,-9030.512492,-1608.800546
415.446964,222.061783,-8660.409521,76.609550
415.447291,4219.173869,-6883.915261,2374.896044
415.447619,5847.626942,-6883.915261,3140.991542
415.447947,4737.318029,-7698.141797,3140.991542
415.448274,-148.041188,-8882.471304,536.266849
415.448602,-3701.029710,-10732.986159,-1072.533697
415.448929,-5699.585753,-11695.253884,-2374.896044
415.449257,-5107.421000,-9770.718434,-2298.286494
415.449584,0.000000,-8216.285956,-689.485948
415.449912,5625.565159,-7772.162391,2068.457845
415.450239,7698.141797,-6439.791695,3830.477490
415.450567,7105.977043,-7328.038826,4749.792088
415.450894,3849.070898,-8956.491898,3294.210641
415.451222,-2664.741391,-9548.656652,612.876398
415.451549,-4663.297435,-11695.253884,-1149.143247
415.451877,-5255.462188,-10955.047942,-1685.410096
415.452204,-2442.679609,-9400.615463,-919.314598
415.452532,1554.432478,-8808.450710,1149.143247
415.452860,4811.338623,-6809.894666,3064.381992
415.453187,5255.462188,-7328.038826,3830.477490
415.453515,3034.844362,-8142.265362,2834.553343
415.453842,-2146.597232,-8660.409521,76.609550
415.454170,-5625.565159,-10362.883188,-1455.581446
415.454497,-7031.956449,-10807.006753,-2528.115143
415.454825,-5773.606348,-8808.450710,-1915.238745
415.455152,-2294.638420,-8364.327145,-536.266849
415.455480,3182.885551,-7624.121203,2451.505594
415.455807,4293.194464,-6883.915261,3677.258390
415.456135,2886.803174,-7105.977043,3294.210641
415.456462,-148.041188,-8660.409521,1455.581446
415.456790,-4737.318029,-10362.883188,-459.657299
415.457118,-6957.935855,-11843.295072,-1608.800546
415.457445,-6809.894666,-10955.047942,-2451.505594
415.457773,-3256.906145,-9474.636058,-1838.629195
415.458100,1406.391290,-8882.471304,842.705048
415.458428,5255.462188,-7179.997637,1991.848295
415.458755,6217.729913,-7624.121203,2757.943793
415.459083,4663.297435,-8956.491898,2221.676944
415.459410,-296.082377,-9844.739029,0.000000
415.459738,-3108.864956,-11843.295072,-2298.286494
415.460065,-4959.379811,-12435.459826,-2911.162892
415.460393,-3701.029710,-10658.965565,-2451.505594
415.460720,222.061783,-9770.718434,-995.924147
415.461048,5255.462188,-8734.430116,1991.848295
415.461375,7031.956449,-7624.121203,2987.772442
415.461703,5995.668130,-8438.347739,3677.258390
415.462031,2442.679609,-9178.553681,2221.676944
415.462358,-2146.597232,-10732.986159,-306.438199
415.462686,-4811.338623,-11917.315666,-1762.019645
415.463013,-5329.482782,-10658.965565,-1608.800546
415.463341,-2072.576638,-9844.739029,-995.924147
415.463668,962.267725,-8512.368333,306.438199
415.463996,4811.338623,-7105.977043,2834.553343
415.464323,5181.441594,-7105.977043,3600.648841
415.464651,2516.700203,-8216.285956,2451.505594
415.464978,-1406.391290,-8808.450710,919.314598
415.465306,-5403.503377,-10510.924376,-1302.362347
415.465633,-6661.853478,-11251.130318,-1685.410096
415.465961,-5107.421000,-9178.553681,-1072.533697
415.466288,-1628.453072,-8660.409521,536.266849
415.466616,2664.741391,-7698.141797,2834.553343
415.466944,4293.194464,-7031.956449,4290.134789
415.467271,2442.679609,-7846.182985,3907.087040
415.467599,-1184.329507,-8512.368333,2068.457845
415.467926,-4737.318029,-10066.800811,0.000000
415.468254,-6439.791695,-10658.965565,-1532.190996
415.468581,-7105.977043,-9548.656652,-2221.676944
415.468909,-3701.029710,-8660.409521,-1072.533697
415.469236,1036.288319,-7402.059420,536.266849
415.469564,3997.112087,-6439.791695,2451.505594
415.469891,4737.318029,-5847.626942,2451.505594
415.470219,2812.782580,-8142.265362,2451.505594
415.470546,-1258.350101,-9622.677246,306.438199
415.470873,-5403.503377,-10288.862594,-1915.238745
415.471201,-6291.750507,-11843.295072,-2298.286494
415.471528,-3627.009116,-9474.636058,-1991.848295
415.471856,444.123565,-7994.224174,-459.657299
415.472183,5847.626942,-7476.080014,2221.676944
415.472511,7550.100608,-6809.894666,3753.867940
415.472838,6143.709319,-7920.203579,3294.210641
415.473166,2664.741391,-8956.491898,1455.581446
415.473493,-888.247130,-10362.883188,-383.047749
415.473821,-3701.029710,-10732.986159,-1838.629195
415.474148,-3552.988522,-11029.068536,-1915.238745
415.474476,-666.185348,-9770.718434,-689.485948
415.474803,1850.514855,-8512.368333,536.266849
415.475131,6069.688724,-7772.162391,3370.820191
415.475458,5477.523971,-8068.244768,3600.648841
415.475786,1850.514855,-8882.471304,1608.800546
415.476113,-1998.556043,-9992.780217,153.219100
415.476441,-5403.503377,-11621.233289,-2221.676944
415.476768,-7031.956449,-11103.089130,-2604.724693
415.477096,-4589.276840,-9400.615463,-2145.067394
415.477423,-1036.288319,-8660.409521,-612.876398
415.477751,2368.659014,-7402.059420,1685.410096
415.478078,4219.173869,-7328.038826,3370.820191
415.478405,2664.741391,-8216.285956,2451.505594
415.478733,-1924.535449,-8364.327145,1378.971896
415.479060,-4071.132681,-10436.903782,-536.266849
415.479388,-6069.688724,-11325.150913,-1762.019645
415.479715,-5699.585753,-10732.986159,-2145.067394
415.480043,-2442.679609,-9400.615463,-536.266849
415.480370,1554.432478,-8290.306550,689.485948
415.480698,4737.318029,-7920.203579,2528.115143
415.481025,5699.585753,-7476.080014,3140.991542
415.481353,3182.885551,-9104.533087,2451.505594
415.481680,-962.267725,-10140.821405,689.485948
415.482008,-4145.153275,-11399.171507,-1302.362347
415.482335,-5329.482782,-11843.295072,-1915.238745
415.482663,-2960.823768,-9918.759623,-1608.800546
415.482990,740.205942,-9252.574275,153.219100
415.483318,5329.482782,-7328.038826,2528.115143
415.483645,6809.894666,-7698.141797,4136.915689
415.483973,5107.421000,-8586.388927,4060.306139
415.484300,666.185348,-8956.491898,2374.896044
415.484628,-3034.844362,-10584.944971,459.657299
415.484955,-5551.544565,-11251.130318,-1455.581446
415.485283,-5329.482782,-10288.862594,-1302.362347
415.485610,-1628.453072,-8438.347739,-153.219100
415.485938,518.144159,-7402.059420,919.314598
415.486265,3775.050304,-6587.832884,3140.991542
415.486592,4145.153275,-6661.853478,3524.039291
415.486920,1480.411884,-7920.203579,1915.238745
415.487247,-2516.700203,-8216.285956,229.828649
415.487575,-5107.421000,-9918.759623,-1762.019645
415.487902,-6809.894666,-10881.027347,-2221.676944
415.488230,-4441.235652,-9178.553681,-1302.362347
415.488557,-888.247130,-8364.327145,0.000000
415.488885,3182.885551,-7105.977043,2451.505594
415.489212,5033.400406,-6957.935855,3447.429741
415.489540,3182.885551,-7846.182985,3217.601092
415.489867,-370.102971,-8734.430116,1685.410096
415.490195,-3182.885551,-10288.862594,-153.219100
415.490522,-5403.503377,-11325.150913,-1608.800546
415.490850,-5329.482782,-10436.903782,-1838.629195
415.491177,-1702.473667,-8882.471304,-612.876398
415.491505,1776.494261,-8142.265362,536.266849
415.491832,5403.503377,-6661.853478,3217.601092
415.492160,6069.688724,-6809.894666,3140.991542
415.492487,3404.947333,-8660.409521,2681.334243
415.492815,-814.226536,-9252.574275,536.266849
415.493142,-4663.297435,-11399.171507,-1685.410096
415.493470,-6513.812290,-11769.274478,-2834.553343
415.493797,-4219.173869,-9696.697840,-1991.848295
415.494124,-592.164754,-8808.450710,-689.485948
415.494452,4367.215058,-7624.121203,1225.752797
415.494779,6217.729913,-6883.915261,3524.039291
415.495107,4959.379811,-7698.141797,3370.820191
415.495434,1332.370696,-8438.347739,1225.752797
415.495762,-3256.906145,-10288.862594,-383.047749
415.496089,-5403.503377,-11621.233289,-2911.162892
415.496417,-5995.668130,-10510.924376,-2528.115143
415.496744,-2368.659014,-9474.636058,-1378.971896
415.497072,1332.370696,-8734.430116,229.828649
415.497399,4367.215058,-7105.977043,2451.505594
415.497727,6513.812290,-7476.080014,3830.477490
415.498054,3034.844362,-8512.368333,2068.457845
415.498382,-2146.597232,-8882.471304,-229.828649
415.498709,-4737.318029,-11399.171507,-1608.800546
415.499037,-6735.874072,-11621.233289,-2757.943793
415.499364,-4367.215058,-9548.656652,-1915.238745
415.499692,0.000000,-9030.512492,-612.876398
415.500019,3997.112087,-7624.121203,2068.457845
415.500347,5329.482782,-7179.997637,3907.087040
415.500674,4071.132681,-8364.327145,3294.210641
415.501002,370.102971,-8808.450710,1685.410096
415.501329,-3552.988522,-10436.903782,-383.047749
415.501657,-5847.626942,-11917.315666,-2068.457845
415.501984,-5847.626942,-10436.903782,-2298.286494
415.502311,-2368.659014,-9030.512492,-1302.362347
415.502639,2368.659014,-8290.306550,1302.362347
415.502966,5699.585753,-6587.832884,3064.381992
415.503294,5847.626942,-7254.018232,3830.477490
415.503621,2960.823768,-9104.533087,2528.115143
415.503949,-2738.761985,-9992.780217,0.000000
415.504276,-5181.441594,-11621.233289,-1302.362347
415.504604,-6069.688724,-11621.233289,-2451.505594
415.504931,-4219.173869,-9400.615463,-2068.457845
415.505259,444.123565,-8808.450710,0.000000
415.505586,5181.441594,-7550.100608,2681.334243
415.505914,6143.709319,-6735.874072,3830.477490
415.506241,4737.318029,-7994.224174,4136.915689
415.506569,222.061783,-9326.594869,1225.752797
415.506896,-4219.173869,-11029.068536,-766.095498
415.507224,-6439.791695,-12361.439231,-2374.896044
415.507551,-6069.688724,-10658.965565,-2604.724693
415.507879,-2368.659014,-8882.471304,-1225.752797
415.508206,2220.617826,-8734.430116,1991.848295
415.508534,5255.462188,-7254.018232,2987.772442
415.508861,5107.421000,-7698.141797,3370.820191
415.509189,2738.761985,-8882.471304,2145.067394
415.509516,-2516.700203,-9844.739029,-229.828649
415.509843,-4959.379811,-11695.253884,-1762.019645
415.510171,-6069.688724,-11251.130318,-1838.629195
415.510498,-3182.885551,-9548.656652,-1455.581446
415.510826,888.247130,-9030.512492,612.876398
415.511153,4959.379811,-7772.162391,3447.429741
415.511481,5699.585753,-7698.141797,4290.134789
415.511808,3478.967927,-8512.368333,3677.258390
415.512136,-814.226536,-9326.594869,1608.800546
415.512463,-4441.235652,-10807.006753,-536.266849
415.512791,-6143.709319,-11843.295072,-1608.800546
415.513118,-4959.379811,-9770.718434,-1608.800546
415.513446,-1406.391290,-8438.347739,-995.924147
415.513773,3997.112087,-8068.244768,2145.067394
415.514101,5847.626942,-6661.853478,3524.039291
415.514428,4737.318029,-7624.121203,3830.477490
415.514756,1480.411884,-8882.471304,2681.334243
415.515083,-3701.029710,-9918.759623,0.000000
415.515411,-6439.791695,-11473.192101,-1685.410096
415.515738,-6439.791695,-10658.965565,-2451.505594
415.516066,-3256.906145,-8808.450710,-1302.362347
415.516393,1110.308913,-8068.244768,536.266849
415.516721,5255.462188,-6735.874072,3447.429741
415.517048,5625.565159,-7031.956449,4213.525239
415.517375,3478.967927,-8438.347739,3064.381992
415.517703,-1480.411884,-9030.512492,766.095498
415.518030,-5181.441594,-10658.965565,-1225.752797
415.518358,-6809.894666,-11769.274478,-2757.943793
415.518685,-5181.441594,-9548.656652,-2145.067394
415.519013,-1332.370696,-8882.471304,-1302.362347
415.519340,3627.009116,-7550.100608,1378.971896
415.519668,5625.565159,-6661.853478,2834.553343
415.519995,4737.318029,-7698.141797,2757.943793
415.520323,2072.576638,-8290.306550,919.314598
415.520650,-2368.659014,-9622.677246,-919.314598
415.520978,-4885.359217,-11177.109724,-2145.067394
415.521305,-5403.503377,-10288.862594,-2451.505594
415.521633,-1998.556043,-8956.491898,-1532.190996
415.521960,2220.617826,-8216.285956,766.095498
415.522288,5181.441594,-7031.956449,2528.115143
415.522615,6143.709319,-7476.080014,4136.915689
415.522943,3552.988522,-8438.347739,2834.553343
415.523270,-1110.308913,-9030.512492,842.705048
415.523598,-4145.153275,-11029.068536,-1378.971896
415.523925,-5995.668130,-11325.150913,-2221.676944
415.524253,-4589.276840,-9400.615463,-2374.896044
415.524580,-814.226536,-8882.471304,-995.924147
415.524908,3923.091493,-7105.977043,1532.190996
415.525235,5773.606348,-6587.832884,2987.772442
415.525562,4367.215058,-7476.080014,3140.991542
415.525890,1036.288319,-8660.409521,1225.752797
415.526217,-3404.947333,-10510.924376,-919.314598
415.526545,-6513.812290,-12065.356855,-2298.286494
415.526872,-6291.750507,-10732.986159,-2451.505594
415.527200,-2738.761985,-9474.636058,-2221.676944
415.527527,1628.453072,-8512.368333,842.705048
415.527855,5181.441594,-7031.956449,3294.210641
415.528182,5921.647536,-7476.080014,4136.915689
415.528510,3627.009116,-8512.368333,3294.210641
415.528837,-2072.576638,-9104.533087,766.095498
415.529165,-4589.276840,-11251.130318,-766.095498
415.529492,-6365.771101,-12065.356855,-1991.848295
415.529820,-5107.421000,-9918.759623,-1532.190996
415.530147,-888.247130,-9252.574275,0.000000
415.530475,4219.173869,-8512.368333,2911.162892
415.530802,5699.585753,-7179.997637,3524.039291
415.531130,4441.235652,-8068.244768,3294.210641
415.531457,888.247130,-9252.574275,1762.019645
415.531785,-3923.091493,-10362.883188,-766.095498
415.532112,-5847.626942,-11991.336260,-1991.848295
415.532440,-6217.729913,-10584.944971,-2374.896044
415.532767,-3182.885551,-9252.574275,-1149.143247
415.533094,1628.453072,-8586.388927,1225.752797
415.533422,4811.338623,-6957.935855,2911.162892
415.533749,4885.359217,-6957.935855,4136.915689
415.534077,3627.009116,-8290.306550,2911.162892
415.534404,-1924.535449,-9030.512492,842.705048
415.534732,-4663.297435,-10807.006753,-766.095498
415.535059,-5699.585753,-11251.130318,-1608.800546
415.535387,-4293.194464,-8882.471304,-1378.971896
415.535714,-222.061783,-8586.388927,153.219100
415.536042,4515.256246,-7698.141797,2681.334243
415.536369,5551.544565,-6809.894666,3753.867940
415.536697,4441.235652,-7698.141797,3524.039291
415.537024,1258.350101,-8882.471304,2068.457845
415.537352,-3478.967927,-10362.883188,-842.705048
415.537679,-6291.750507,-11695.253884,-1915.238745
415.538007,-6365.771101,-9992.780217,-2374.896044
415.538334,-2738.761985,-8808.450710,-1685.410096
415.538662,1924.535449,-7920.203579,842.705048
415.538989,5995.668130,-6365.771101,3370.820191
415.539317,6365.771101,-6809.894666,3907.087040
415.539644,3701.029710,-8364.327145,2834.553343
415.539972,-2072.576638,-8882.471304,612.876398
415.540299,-5625.565159,-10881.027347,-1225.752797
415.540627,-6957.935855,-11399.171507,-2145.067394
415.540954,-4737.318029,-9474.636058,-1455.581446
415.541281,-962.267725,-8660.409521,-689.485948
415.541609,3997.112087,-7328.038826,2221.676944
415.541936,5403.503377,-6587.832884,3140.991542
415.542264,4367.215058,-7550.100608,2911.162892
415.542591,1332.370696,-8142.265362,1072.533697
415.542919,-3108.864956,-10140.821405,-842.705048
415.543246,-5551.544565,-11843.295072,-2145.067394
415.543574,-5921.647536,-10362.883188,-2451.505594
415.543901,-2590.720797,-9104.533087,-1915.238745
415.544229,2960.823768,-8808.450710,689.485948
415.544556,5255.462188,-7105.977043,2681.334243
415.544884,5699.585753,-7772.162391,3447.429741
415.545211,3627.009116,-8956.491898,2604.724693
415.545539,-2072.576638,-9696.697840,229.828649
415.545866,-4811.338623,-11473.192101,-1685.410096
415.546194,-5921.647536,-11843.295072,-1685.410096
415.546521,-4663.297435,-9770.718434,-2451.505594
415.546849,-370.102971,-9030.512492,-536.266849
415.547176,4663.297435,-7994.224174,2145.067394
415.547504,5699.585753,-6661.853478,3370.820191
415.547831,4293.194464,-7994.224174,3370.820191
415.548159,1258.350101,-9252.574275,1915.238745
415.548486,-3330.926739,-10066.800811,-689.485948
415.548813,-5329.482782,-11769.274478,-1762.019645
415.549141,-5107.421000,-10214.842000,-2068.457845
415.549468,-1776.494261,-8438.347739,-689.485948
415.549796,3182.885551,-8512.368333,2145.067394
415.550123,6069.688724,-7179.997637,4136.915689
415.550451,5107.421000,-8142.265362,4596.572988
415.550778,2738.761985,-9400.615463,3907.087040
415.551106,-3108.864956,-10362.883188,919.314598
415.551433,-6439.791695,-11695.253884,-689.485948
415.551761,-6957.935855,-11991.336260,-1608.800546
415.552088,-5625.565159,-9844.739029,-1608.800546
415.552416,-1036.288319,-8808.450710,229.828649
415.552743,3256.906145,-7994.224174,2451.505594
415.553071,4737.318029,-6069.688724,2681.334243
415.553398,3997.112087,-7328.038826,2834.553343
415.553726,0.000000,-8734.430116,766.095498
415.554053,-5625.565159,-9696.697840,-1455.581446
415.554381,-7031.956449,-10955.047942,-2068.457845
415.554708,-5995.668130,-9622.677246,-2145.067394
415.555036,-3108.864956,-8660.409521,-1991.848295
415.555363,2590.720797,-8068.244768,1455.581446
415.555691,5255.462188,-7772.162391,2757.943793
415.556018,4219.173869,-6957.935855,2987.772442
415.556345,2960.823768,-8216.285956,1762.019645
415.556673,-1332.370696,-9474.636058,0.000000
415.557000,-4293.194464,-10732.986159,-2145.067394
415.557328,-4589.276840,-10881.027347,-2068.457845
415.557655,-3404.947333,-9178.553681,-2451.505594
415.557983,1184.329507,-8216.285956,-1149.143247
415.558310,5995.668130,-7476.080014,2068.457845
415.558638,7031.956449,-6883.915261,2528.115143
415.558965,5255.462188,-8216.285956,2528.115143
415.559293,1702.473667,-9918.759623,1149.143247
415.559620,-3923.091493,-11547.212695,-1991.848295
415.559948,-5403.503377,-11473.192101,-2221.676944
415.560275,-4145.153275,-10955.047942,-2298.286494
415.560603,-1332.370696,-8808.450710,-1225.752797
415.560930,3923.091493,-7920.203579,1685.410096
415.561258,6661.853478,-7105.977043,3600.648841
415.561585,4441.235652,-6809.894666,3677.258390
415.561913,2368.659014,-8364.327145,3140.991542
415.562240,-2516.700203,-9844.739029,383.047749
415.562568,-5995.668130,-10436.903782,-1302.362347
415.562895,-6143.709319,-10955.047942,-1455.581446
415.563223,-4515.256246,-9252.574275,-1225.752797
415.563550,-592.164754,-8364.327145,536.266849
415.563878,3923.091493,-8290.306550,3064.381992
415.564205,4663.297435,-7179.997637,3370.820191
415.564532,2294.638420,-8438.347739,2911.162892
415.564860,-1332.370696,-9770.718434,1991.848295
415.565187,-5847.626942,-11251.130318,-1608.800546
415.565515,-7105.977043,-11843.295072,-2221.676944
415.565842,-5477.523971,-10214.842000,-2145.067394
415.566170,-2664.741391,-9030.512492,-1072.533697
415.566494,2294.638420,-7846.182985,1991.848295
415.566821,5625.565159,-6883.915261,3447.429741
415.567149,3997.112087,-7698.141797,3370.820191
415.567477,1776.494261,-8586.388927,2451.505594
415.567804,-1776.494261,-10658.965565,612.876398
415.568132,-4515.256246,-11177.109724,-842.705048
415.568460,-4737.318029,-10955.047942,-1225.752797
415.568787,-2442.679609,-9770.718434,-919.314598
415.569115,1184.329507,-8512.368333,612.876398
415.569442,5773.606348,-8216.285956,3140.991542
415.569770,6883.915261,-6957.935855,3600.648841
415.570098,4737.318029,-8142.265362,2987.772442
415.570425,888.247130,-9622.677246,1378.971896
415.570753,-3923.091493,-10732.986159,-995.924147
415.571080,-5403.503377,-11917.315666,-1685.410096
415.571408,-3701.029710,-10214.842000,-1532.190996
415.571736,-444.123565,-9178.553681,-536.266849
415.572063,4219.173869,-7624.121203,1685.410096
415.572391,6069.688724,-7328.038826,3830.477490
415.572718,4071.132681,-7846.182985,3753.867940
415.573046,1184.329507,-8882.471304,2604.724693
415.573374,-3552.988522,-10066.800811,229.828649
415.573701,-7031.956449,-10584.944971,-1532.190996
415.574029,-7105.977043,-10807.006753,-1915.238745
415.574356,-4737.318029,-8882.471304,-1762.019645
415.574684,-1258.350101,-7254.018232,-383.047749
415.575012,3923.091493,-6957.935855,2451.505594
415.575339,4737.318029,-5699.585753,3600.648841
415.575667,2442.679609,-6735.874072,1991.848295
415.575995,-740.205942,-8660.409521,612.876398
415.576322,-5181.441594,-10214.842000,-2068.457845
415.576650,-6883.915261,-11177.109724,-2604.724693
415.576977,-5181.441594,-9844.739029,-2221.676944
415.577305,-1924.535449,-9326.594869,-1991.848295
415.577633,2664.741391,-7846.182985,919.314598
415.577960,6217.729913,-7179.997637,2911.162892
415.578288,5033.400406,-7624.121203,2987.772442
415.578615,2516.700203,-8512.368333,1991.848295
415.578943,-814.226536,-10436.903782,229.828649
415.579271,-4293.194464,-10955.047942,-1991.848295
415.579598,-5181.441594,-11473.192101,-2451.505594
415.579926,-2664.741391,-9918.759623,-1991.848295
415.580253,962.267725,-8512.368333,-842.705048
415.580581,5699.585753,-7328.038826,2145.067394
415.580909,7105.977043,-6513.812290,3140.991542
415.581236,4663.297435,-7624.121203,2374.896044
415.581564,1110.308913,-9400.615463,1378.971896
415.581891,-3627.009116,-10510.924376,-1685.410096
415.582219,-5847.626942,-11029.068536,-1685.410096
415.582547,-4219.173869,-9548.656652,-1915.238745
415.582874,-1332.370696,-8512.368333,-995.924147
415.583202,3478.967927,-7105.977043,2145.067394
415.583530,6217.729913,-6587.832884,4519.963438
415.583857,4293.194464,-7105.977043,4749.792088
415.584185,1776.494261,-8438.347739,3064.381992
415.584512,-3849.070898,-10362.883188,612.876398
415.584840,-7624.121203,-11473.192101,-1378.971896
415.585168,-7994.224174,-11695.253884,-1608.800546
415.585495,-4885.359217,-9918.759623,-1149.143247
415.585823,-444.123565,-8364.327145,919.314598
415.586150,3552.988522,-7254.018232,3140.991542
415.586478,5033.400406,-6735.874072,3830.477490
415.586806,2146.597232,-7846.182985,2681.334243
415.587133,-1702.473667,-9326.594869,995.924147
415.587461,-6291.750507,-10658.965565,-1532.190996
415.587788,-7402.059420,-11843.295072,-2221.676944
415.588116,-5847.626942,-9992.780217,-2145.067394
415.588444,-1998.556043,-8882.471304,-1072.533697
415.588771,3108.864956,-7550.100608,1915.238745
415.589099,6439.791695,-7031.956449,3983.696590
415.589426,4737.318029,-7698.141797,3600.648841
415.589754,2072.576638,-8734.430116,2068.457845
415.590082,-2368.659014,-10584.944971,0.000000
415.590409,-5551.544565,-11843.295072,-2298.286494
415.590737,-5699.585753,-11399.171507,-2145.067394
415.591065,-1702.473667,-9770.718434,-2068.457845
415.591392,2072.576638,-9030.512492,-229.828649
415.591720,6809.894666,-7698.141797,2681.334243
415.592047,7550.100608,-7698.141797,3370.820191
415.592375,4515.256246,-8956.491898,2298.286494
415.592703,370.102971,-10140.821405,536.266849
415.593030,-3256.906145,-11843.295072,-1685.410096
415.593358,-5773.606348,-12065.356855,-2451.505594
415.593685,-3256.906145,-10140.821405,-1685.410096
415.594013,222.061783,-8956.491898,0.000000
415.594341,4959.379811,-7994.224174,2911.162892
415.594668,6439.791695,-7105.977043,4673.182538
415.594996,4441.235652,-7698.141797,4213.525239
415.595323,444.123565,-8734.430116,2681.334243
415.595651,-3775.050304,-10140.821405,229.828649
415.595979,-7254.018232,-10955.047942,-1455.581446
415.596306,-7105.977043,-10140.821405,-1915.238745
415.596634,-3478.967927,-8438.347739,-1072.533697
415.596961,0.000000,-7550.100608,536.266849
415.597289,3923.091493,-6291.750507,3217.601092
415.597617,4367.215058,-6365.771101,3830.477490
415.597944,1554.432478,-7698.141797,2451.505594
415.598272,-3404.947333,-8956.491898,229.828649
415.598600,-6957.935855,-10955.047942,-1685.410096
415.598927,-8512.368333,-11177.109724,-2757.943793
415.599255,-5551.544565,-9400.615463,-1991.848295
415.599582,-1924.535449,-8438.347739,-612.876398
415.599910,3330.926739,-7031.956449,1685.410096
415.600238,5699.585753,-6809.894666,3524.039291
415.600565,4737.318029,-7328.038826,2987.772442
415.600893,1110.308913,-8142.265362,1225.752797
415.601220,-2072.576638,-9992.780217,0.000000
415.601548,-4737.318029,-11547.212695,-2298.286494
415.601876,-5107.421000,-10288.862594,-2681.334243
415.602203,-888.247130,-9178.553681,-1762.019645
415.602531,3182.885551,-8290.306550,153.219100
415.602858,6587.832884,-6661.853478,2451.505594
415.603186,7698.141797,-7254.018232,3907.087040
415.603514,4959.379811,-8438.347739,2451.505594
415.603841,-444.123565,-9400.615463,383.047749
415.604169,-3182.885551,-11843.295072,-1455.581446
415.604496,-5329.482782,-11843.295072,-1991.848295
415.604824,-2812.782580,-9622.677246,-1378.971896
415.605152,888.247130,-9252.574275,76.609550
415.605479,4737.318029,-7698.141797,2911.162892
415.605807,6291.750507,-7105.977043,4443.353888
415.606135,4589.276840,-8290.306550,3983.696590
415.606462,222.061783,-9030.512492,2681.334243
415.606790,-3849.070898,-10807.006753,0.000000
415.607117,-6661.853478,-11991.336260,-1532.190996
415.607445,-6587.832884,-10584.944971,-1762.019645
415.607773,-2886.803174,-9030.512492,-689.485948
415.608100,518.144159,-8216.285956,766.095498
415.608428,2886.803174,-6883.915261,2987.772442
415.608755,3478.967927,-7550.100608,3447.429741
415.609083,666.185348,-8660.409521,1991.848295
415.609411,-4515.256246,-9178.553681,-459.657299
415.609738,-6587.832884,-10807.006753,-995.924147
415.610066,-7402.059420,-11695.253884,-2298.286494
415.610393,-5477.523971,-9474.636058,-2145.067394
415.610721,-1258.350101,-8734.430116,-766.095498
415.611049,4145.153275,-7698.141797,2068.457845
415.611376,5181.441594,-6809.894666,2911.162892
415.611704,4367.215058,-8142.265362,2987.772442
415.612031,1110.308913,-9548.656652,1455.581446
415.612359,-2886.803174,-11029.068536,-689.485948
415.612687,-4811.338623,-12731.542202,-1838.629195
415.613014,-4441.235652,-11547.212695,-2068.457845
415.613342,-592.164754,-10066.800811,-1455.581446
415.613670,3775.050304,-9030.512492,1072.533697
415.613997,7105.977043,-7031.956449,2374.896044
415.614325,6883.915261,-7920.203579,3217.601092
415.614652,4959.379811,-8956.491898,2451.505594
415.614980,-444.123565,-9474.636058,-536.266849
415.615308,-3849.070898,-10881.027347,-1302.362347
415.615635,-4811.338623,-11325.150913,-1991.848295
415.615963,-2886.803174,-9030.512492,-1455.581446
415.616290,888.247130,-8586.388927,76.609550
415.616618,5181.441594,-7105.977043,3370.820191
415.616946,5625.565159,-6439.791695,4673.182538
415.617273,3330.926739,-8216.285956,3983.696590
415.617601,-666.185348,-9474.636058,2451.505594
415.617928,-5181.441594,-10066.800811,-459.657299
415.618256,-6957.935855,-11325.150913,-919.314598
415.618584,-6439.791695,-9326.594869,-919.314598
415.618911,-3108.864956,-7772.162391,-612.876398
415.619239,962.267725,-7698.141797,1532.190996
415.619567,3775.050304,-5995.668130,2757.943793
415.619894,2664.741391,-6513.812290,3064.381992
415.620222,740.205942,-8142.265362,2374.896044
415.620549,-4737.318029,-9326.594869,-612.876398
415.620877,-6883.915261,-11325.150913,-1762.019645
415.621205,-7402.059420,-10881.027347,-2221.676944
415.621532,-4959.379811,-8882.471304,-1915.238745
415.621860,-888.247130,-8290.306550,-306.438199
415.622187,3701.029710,-6661.853478,2451.505594
415.622515,5329.482782,-6439.791695,3294.210641
415.622843,4441.235652,-7254.018232,3064.381992
415.623170,1036.288319,-8734.430116,1378.971896
415.623498,-2442.679609,-10066.800811,-995.924147
415.623825,-4589.276840,-11103.089130,-1991.848295
415.624153,-4293.194464,-9992.780217,-2298.286494
415.624481,-962.267725,-8956.491898,-1608.800546
415.624808,3701.029710,-9104.533087,919.314598
415.625136,6883.915261,-7254.018232,2298.286494
415.625463,5921.647536,-7402.059420,3294.210641
415.625791,4811.338623,-9030.512492,1991.848295
415.626119,-740.205942,-9992.780217,-306.438199
415.626446,-3478.967927,-12287.418637,-1915.238745
415.626774,-4737.318029,-11991.336260,-2298.286494
415.627102,-2812.782580,-9770.718434,-2068.457845
415.627429,592.164754,-9030.512492,-536.266849
415.627757,5181.441594,-7698.141797,2451.505594
415.628084,5921.647536,-7105.977043,3677.258390
415.628412,4071.132681,-8216.285956,3294.210641
415.628740,0.000000,-8808.450710,1991.848295
415.629067,-4367.215058,-10140.821405,-229.828649
415.629395,-6587.832884,-11843.295072,-1532.190996
415.629722,-6439.791695,-10214.842000,-1685.410096
415.630050,-3034.844362,-9030.512492,-612.876398
415.630378,1628.453072,-8956.491898,1838.629195
415.630705,4589.276840,-6883.915261,3294.210641
415.631033,4145.153275,-7550.100608,3907.087040
415.631360,1110.308913,-8438.347739,2528.115143
415.631688,-4293.194464,-9770.718434,153.219100
415.632016,-6809.894666,-11917.315666,-1608.800546
415.632343,-7624.121203,-11399.171507,-1378.971896
415.632671,-5107.421000,-9548.656652,-2221.676944
415.632998,-1110.308913,-9030.512492,-459.657299
415.633326,3923.091493,-7476.080014,2528.115143
415.633654,5181.441594,-6957.935855,3370.820191
415.633981,4219.173869,-7772.162391,3140.991542
415.634309,296.082377,-9252.574275,1378.971896
415.634637,-3849.070898,-10807.006753,-689.485948
415.634964,-5847.626942,-12287.418637,-2298.286494
415.635292,-5773.606348,-10362.883188,-2451.505594
415.635619,-888.247130,-9474.636058,-1149.143247
415.635947,3108.864956,-8512.368333,612.876398
415.636275,6143.709319,-6587.832884,2451.505594
415.636602,6957.935855,-7179.997637,3524.039291
415.636930,4145.153275,-8216.285956,2068.457845
415.637257,-1184.329507,-9326.594869,-306.438199
415.637585,-3330.926739,-11473.192101,-1608.800546
415.637913,-4663.297435,-11177.109724,-2221.676944
415.638240,-1480.411884,-9474.636058,-1685.410096
415.638568,2220.617826,-8512.368333,536.266849
415.638895,5921.647536,-7402.059420,3370.820191
415.639223,6809.894666,-7550.100608,5056.230287
415.639551,4219.173869,-9178.553681,4060.306139
415.639878,-888.247130,-9474.636058,1608.800546
415.640206,-4071.132681,-11029.068536,-306.438199
415.640533,-6587.832884,-11843.295072,-1532.190996
415.640861,-5625.565159,-9770.718434,-1532.190996
415.641189,-1184.329507,-8512.368333,-229.828649
415.641516,2294.638420,-7402.059420,1838.629195
415.641844,4145.153275,-5847.626942,3294.210641
415.642172,3923.091493,-6957.935855,3907.087040
415.642499,0.000000,-8142.265362,2451.505594
415.642827,-5255.462188,-9178.553681,-459.657299
415.643154,-7698.141797,-11399.171507,-1685.410096
415.643482,-8142.265362,-10436.903782,-2451.505594
415.643810,-5329.482782,-8660.409521,-1378.971896
415.644137,222.061783,-8364.327145,689.485948
415.644465,3701.029710,-6587.832884,2451.505594
415.644792,4441.235652,-7031.956449,3294.210641
415.645120,3775.050304,-8068.244768,2911.162892
415.645448,-1628.453072,-8660.409521,0.000000
415.645775,-3849.070898,-10732.986159,-1149.143247
415.646103,-5773.606348,-11251.130318,-2068.457845
415.646430,-5181.441594,-10214.842000,-2528.115143
415.646758,-518.144159,-9400.615463,-995.924147
415.647086,4145.153275,-8364.327145,842.705048
415.647413,5995.668130,-6883.915261,1915.238745
415.647741,6883.915261,-7328.038826,3600.648841
415.648068,4515.256246,-9326.594869,1378.971896
415.648396,-1258.350101,-10066.800811,-459.657299
415.648724,-3182.885551,-11843.295072,-1608.800546
415.649051,-4293.194464,-10732.986159,-2604.724693
415.649379,-1628.453072,-8438.347739,-1608.800546
415.649707,3552.988522,-8956.491898,1378.971896
415.650034,6069.688724,-7105.977043,2681.334243
415.650362,6143.709319,-7179.997637,3983.696590
415.650689,4737.318029,-8512.368333,3524.039291
415.651017,-962.267725,-9252.574275,1072.533697
415.651345,-3923.091493,-10881.027347,0.000000
415.651672,-5033.400406,-11695.253884,-995.924147
415.652000,-4885.359217,-10066.800811,-1225.752797
415.652327,-962.267725,-8808.450710,383.047749
415.652655,2442.679609,-8364.327145,2374.896044
415.652983,3552.988522,-7105.977043,3140.991542
415.653310,3404.947333,-7846.182985,3217.601092
415.653638,148.041188,-9104.533087,1838.629195
415.653965,-5329.482782,-9622.677246,-612.876398
415.654293,-7254.018232,-11843.295072,-1378.971896
415.654621,-7254.018232,-10732.986159,-1915.238745
415.654948,-4885.359217,-8882.471304,-1608.800546
415.655276,296.082377,-9030.512492,995.924147
415.655603,3478.967927,-7105.977043,2374.896044
415.655931,3923.091493,-7328.038826,3217.601092
415.656259,3182.885551,-8216.285956,3524.039291
415.656586,-1776.494261,-9252.574275,842.705048
415.656914,-4589.276840,-11325.150913,-842.705048
415.657242,-5551.544565,-12139.377449,-1915.238745
415.657569,-5403.503377,-10288.862594,-2681.334243
415.657897,-666.185348,-9400.615463,-1072.533697
415.658224,4219.173869,-8512.368333,842.705048
415.658552,6143.709319,-6809.894666,2374.896044
415.658880,7179.997637,-7698.141797,2911.162892
415.659207,3923.091493,-9178.553681,1991.848295
415.659535,-740.205942,-10214.842000,-536.266849
415.659862,-3182.885551,-12583.501014,-1685.410096
415.660190,-4367.215058,-11399.171507,-2145.067394
415.660518,-1332.370696,-9622.677246,-1225.752797
415.660845,3256.906145,-9400.615463,1302.362347
415.661173,6735.874072,-7328.038826,3064.381992
415.661500,7105.977043,-7179.997637,4903.011187
415.661828,5551.544565,-9104.533087,4213.525239
415.662156,-962.267725,-8956.491898,1149.143247
415.662483,-3997.112087,-10732.986159,-153.219100
415.662811,-5773.606348,-11251.130318,-1225.752797
415.663139,-5033.400406,-9252.574275,-842.705048
415.663466,-1258.350101,-8216.285956,306.438199
415.663794,2368.659014,-7179.997637,2298.286494
415.664121,3404.947333,-5773.606348,3217.601092
415.664449,2516.700203,-6587.832884,3370.820191
415.664777,-962.267725,-7994.224174,1838.629195
415.665104,-6587.832884,-8808.450710,-919.314598
415.665432,-8512.368333,-11251.130318,-1991.848295
415.665759,-8438.347739,-10362.883188,-2528.115143
415.666087,-5477.523971,-8438.347739,-1838.629195
415.666415,0.000000,-7994.224174,306.438199
415.666742,4071.132681,-6587.832884,2374.896044
415.667070,4589.276840,-6735.874072,3217.601092
415.667397,3404.947333,-8068.244768,2604.724693
415.667725,-1554.432478,-9030.512492,0.000000
415.668053,-4219.173869,-11177.109724,-1149.143247
415.668380,-5699.585753,-11769.274478,-1608.800546
415.668708,-4441.235652,-10140.821405,-2681.334243
415.669036,74.020594,-8882.471304,-1455.581446
415.669363,5773.606348,-8216.285956,1225.752797
415.669691,7476.080014,-6735.874072,2451.505594
415.670018,7254.018232,-7550.100608,2911.162892
415.670346,4071.132681,-8660.409521,1532.190996
415.670674,-1480.411884,-10362.883188,-1149.143247
415.671001,-3627.009116,-12139.377449,-2221.676944
415.671329,-4737.318029,-11769.274478,-2604.724693
415.671657,-1628.453072,-10066.800811,-1991.848295
415.671984,3478.967927,-9326.594869,1225.752797
415.672312,6809.894666,-7402.059420,2757.943793
415.672639,6957.935855,-7624.121203,3677.258390
415.672967,4737.318029,-8956.491898,3217.601092
415.673295,-1036.288319,-9548.656652,689.485948
415.673622,-4441.235652,-11473.192101,-995.924147
415.673950,-6217.729913,-11843.295072,-1455.581446
415.674278,-5181.441594,-9992.780217,-1685.410096
415.674605,-1702.473667,-9326.594869,0.000000
415.674933,2960.823768,-8068.244768,2451.505594
415.675260,4293.194464,-7031.956449,4060.306139
415.675588,2442.679609,-7550.100608,3600.648841
415.675916,-592.164754,-8956.491898,1838.629195
415.676243,-5625.565159,-10584.944971,-536.266849
415.676571,-7994.224174,-11843.295072,-1915.238745
415.676899,-7698.141797,-10955.047942,-1991.848295
415.677226,-4071.132681,-9030.512492,-1072.533697
415.677554,148.041188,-8364.327145,766.095498
415.677881,4219.173869,-7031.956449,3217.601092
415.678209,4663.297435,-7105.977043,4060.306139
415.678537,2368.659014,-8142.265362,2681.334243
415.678864,-2368.659014,-9474.636058,153.219100
415.679192,-5477.523971,-11695.253884,-1532.190996
415.679520,-6809.894666,-12361.439231,-1915.238745
415.679847,-4367.215058,-9918.759623,-1762.019645
415.680175,0.000000,-9400.615463,-612.876398
415.680503,4737.318029,-7698.141797,1838.629195
415.680830,7254.018232,-6883.915261,3217.601092
415.681158,6069.688724,-7624.121203,2987.772442
415.681485,2368.659014,-8956.491898,1455.581446
415.681813,-1628.453072,-10658.965565,-612.876398
415.682141,-4293.194464,-11917.315666,-1991.848295
415.682468,-4663.297435,-10955.047942,-2528.115143
415.682796,-592.164754,-9474.636058,-766.095498
415.683124,3923.091493,-8734.430116,1762.019645
415.683451,6661.853478,-7179.997637,3447.429741
415.683779,6957.935855,-7698.141797,4443.353888
415.684106,3997.112087,-8734.430116,3140.991542
415.684434,-2072.576638,-9178.553681,689.485948
415.684762,-4811.338623,-11177.109724,-1149.143247
415.685089,-6217.729913,-11325.150913,-1762.019645
415.685417,-3849.070898,-9400.615463,-995.924147
415.685745,222.061783,-8438.347739,459.657299
415.686072,3849.070898,-7254.018232,2757.943793
415.686400,4145.153275,-6883.915261,3753.867940
415.686727,1924.535449,-8068.244768,3140.991542
415.687055,-2072.576638,-9030.512492,995.924147
415.687383,-5773.606348,-10288.862594,-919.314598
415.687710,-7846.182985,-11325.150913,-2681.334243
415.688038,-7550.100608,-9992.780217,-2374.896044
415.688366,-3256.906145,-8512.368333,-1072.533697
415.688693,1332.370696,-7698.141797,1149.143247
415.689021,4071.132681,-6365.771101,2604.724693
415.689348,4663.297435,-7476.080014,3064.381992
415.689676,1776.494261,-8586.388927,1991.848295
415.690004,-3256.906145,-9400.615463,-306.438199
415.690331,-4959.379811,-11695.253884,-1762.019645
415.690659,-5773.606348,-11621.233289,-2298.286494
415.690987,-2664.741391,-9474.636058,-1991.848295
415.691314,1258.350101,-8956.491898,-383.047749
415.691642,5329.482782,-7328.038826,2145.067394
415.691970,7031.956449,-6883.915261,2681.334243
415.692297,5551.544565,-8068.244768,2221.676944
415.692625,1998.556043,-9178.553681,153.219100
415.692952,-1998.556043,-10658.965565,-1225.752797
415.693280,-4219.173869,-11769.274478,-2221.676944
415.693608,-3923.091493,-9992.780217,-2604.724693
415.693935,148.041188,-8882.471304,-1149.143247
415.694263,4811.338623,-8660.409521,1762.019645
415.694591,6883.915261,-6735.874072,3217.601092
415.694918,6291.750507,-7476.080014,3753.867940
415.695246,3330.926739,-9030.512492,2451.505594
415.695573,-2368.659014,-9770.718434,153.219100
415.695901,-4737.318029,-11769.274478,-766.095498
415.696229,-5255.462188,-10881.027347,-1225.752797
415.696556,-3034.844362,-9252.574275,-766.095498
415.696884,0.000000,-8586.388927,842.705048
415.697212,3330.926739,-7031.956449,2834.553343
415.697539,3552.988522,-6957.935855,3524.039291
415.697867,2442.679609,-7772.162391,2757.943793
415.698194,-2368.659014,-8512.368333,459.657299
415.698522,-5995.668130,-10066.800811,-1149.143247
415.698850,-7772.162391,-11399.171507,-1991.848295
415.699177,-7031.956449,-9548.656652,-2068.457845
415.699505,-2886.803174,-8290.306550,-766.095498
415.699833,2072.576638,-7402.059420,2145.067394
415.700160,3997.112087,-6365.771101,2911.162892
415.700488,4145.153275,-7402.059420,3524.039291
415.700815,1480.411884,-8734.430116,2451.505594
415.701143,-3923.091493,-9178.553681,0.000000
415.701471,-5403.503377,-11547.212695,-766.095498
415.701798,-5921.647536,-11399.171507,-1838.629195
415.702126,-3330.926739,-9548.656652,-1608.800546
415.702454,666.185348,-8882.471304,76.609550
415.702781,4737.318029,-7031.956449,2221.676944
415.703109,5995.668130,-6809.894666,3064.381992
415.703436,4885.359217,-8142.265362,2451.505594
415.703764,1406.391290,-9030.512492,766.095498
415.704092,-2442.679609,-10510.924376,-1149.143247
415.704419,-4737.318029,-12287.418637,-1991.848295
415.704747,-4293.194464,-10658.965565,-2221.676944
415.705075,-518.144159,-9474.636058,-1149.143247
415.705402,4367.215058,-8882.471304,1915.238745
415.705730,6809.894666,-7031.956449,3140.991542
415.706058,5847.626942,-7994.224174,3830.477490
415.706385,3627.009116,-9030.512492,2681.334243
415.706713,-2516.700203,-9474.636058,153.219100
415.707040,-4959.379811,-11177.109724,-1455.581446
415.707368,-5255.462188,-10955.047942,-1532.190996
415.707696,-3182.885551,-9252.574275,-1378.971896
415.708023,296.082377,-8216.285956,383.047749
415.708351,4219.173869,-6809.894666,2911.162892
415.708679,4293.194464,-6587.832884,3600.648841
415.709006,2146.597232,-7994.224174,2528.115143
415.709334,-1702.473667,-9030.512492,1149.143247
415.709661,-5773.606348,-10436.903782,-1455.581446
415.709989,-7328.038826,-11621.233289,-1455.581446
415.710317,-6143.709319,-9992.780217,-1762.019645
415.710644,-2738.761985,-8586.388927,-689.485948
415.710972,2368.659014,-7994.224174,2221.676944
415.711300,4959.379811,-6883.915261,3753.867940
415.711627,3849.070898,-7846.182985,2987.772442
415.711955,962.267725,-8882.471304,2145.067394
415.712282,-4145.153275,-9844.739029,-229.828649
415.712610,-6291.750507,-11769.274478,-1608.800546
415.712938,-6735.874072,-11325.150913,-2298.286494
415.713265,-3701.029710,-9474.636058,-1991.848295
415.713593,74.020594,-8142.265362,-306.438199
415.713921,4737.318029,-7105.977043,2374.896044
415.714248,5921.647536,-6661.853478,2757.943793
415.714576,4293.194464,-7846.182985,2068.457845
415.714903,740.205942,-8660.409521,766.095498
415.715231,-2960.823768,-10436.903782,-1302.362347
415.715559,-4959.379811,-12065.356855,-2451.505594
415.715886,-4071.132681,-10066.800811,-2068.457845
415.716214,-370.102971,-9252.574275,-612.876398
415.716542,4515.256246,-8142.265362,2221.676944
415.716869,7105.977043,-7179.997637,3983.696590
415.717197,5403.503377,-8142.265362,3830.477490
415.717524,2442.679609,-8882.471304,2451.505594
415.717852,-2368.659014,-10288.862594,76.609550
415.718180,-5255.462188,-11325.150913,-1455.581446
415.718507,-5403.503377,-10807.006753,-1608.800546
415.718835,-2368.659014,-9400.615463,-1072.533697
415.719163,444.123565,-8290.306550,689.485948
415.719490,4367.215058,-6883.915261,2987.772442
415.719818,4737.318029,-6439.791695,3677.258390
415.720146,2220.617826,-7624.121203,2604.724693
415.720473,-2220.617826,-8512.368333,1302.362347
415.720801,-5847.626942,-10510.924376,-1225.752797
415.721128,-7328.038826,-11325.150913,-2068.457845
415.721456,-5403.503377,-9178.553681,-1378.971896
415.721784,-1850.514855,-8068.244768,0.000000
415.722111,2516.700203,-6809.894666,2681.334243
415.722439,4589.276840,-6809.894666,4060.306139
415.722767,2812.782580,-7624.121203,3600.648841
415.723094,-518.144159,-8438.347739,1915.238745
415.723422,-4145.153275,-9992.780217,0.000000
415.723749,-6661.853478,-11103.089130,-1378.971896
415.724077,-6587.832884,-10732.986159,-1991.848295
415.724405,-3108.864956,-9326.594869,-1685.410096
415.724732,814.226536,-8364.327145,0.000000
415.725060,4811.338623,-7179.997637,2298.286494
415.725388,5921.647536,-7254.018232,3370.820191
415.725715,3552.988522,-8586.388927,2221.676944
415.726043,-370.102971,-9770.718434,153.219100
415.726370,-3997.112087,-11547.212695,-2068.457845
415.726698,-5699.585753,-11917.315666,-2681.334243
415.727026,-3108.864956,-9992.780217,-2145.067394
415.727353,518.144159,-9104.533087,-229.828649
415.727681,4885.359217,-7772.162391,2068.457845
415.728009,7328.038826,-7254.018232,3983.696590
415.728336,5921.647536,-8364.327145,3447.429741
415.728664,1924.535449,-8734.430116,1302.362347
415.728991,-1258.350101,-10658.965565,76.609550
415.729319,-4663.297435,-11473.192101,-1762.019645
415.729647,-4737.318029,-10584.944971,-1838.629195
415.729974,-1332.370696,-9770.718434,-612.876398
415.730302,1850.514855,-8808.450710,995.924147
415.730630,4885.359217,-7624.121203,2911.162892
415.730957,5255.462188,-7698.141797,3830.477490
415.731285,1924.535449,-8734.430116,1915.238745
415.731612,-2886.803174,-9474.636058,306.438199
415.731940,-5773.606348,-11177.109724,-1225.752797
415.732268,-7031.956449,-11103.089130,-1378.971896
415.732595,-4959.379811,-9030.512492,-1225.752797
415.732923,-1332.370696,-8734.430116,153.219100
415.733251,2590.720797,-7105.977043,2681.334243
415.733578,4071.132681,-6661.853478,3830.477490
415.733906,2442.679609,-7254.018232,3064.381992
415.734234,-1332.370696,-8216.285956,1838.629195
415.734561,-4589.276840,-10214.842000,-229.828649
415.734889,-6809.894666,-11325.150913,-1608.800546
415.735216,-6809.894666,-10214.842000,-1991.848295
415.735544,-3108.864956,-9030.512492,-995.924147
415.735872,1332.370696,-8068.244768,536.266849
415.736199,4589.276840,-6661.853478,2221.676944
415.736527,5699.585753,-6957.935855,2987.772442
415.736855,3552.988522,-8438.347739,1762.019645
415.737182,-1332.370696,-9252.574275,-383.047749
415.737510,-3997.112087,-11547.212695,-2145.067394
415.737837,-5403.503377,-11473.192101,-2604.724693
415.738165,-3256.906145,-9622.677246,-2221.676944
415.738493,962.267725,-9030.512492,-766.095498
415.738820,5847.626942,-8068.244768,2298.286494
415.739148,7624.121203,-7105.977043,3370.820191
415.739476,5773.606348,-8364.327145,3677.258390
415.739803,2146.597232,-9400.615463,1762.019645
415.740131,-1850.514855,-10584.944971,-306.438199
415.740458,-3849.070898,-11843.295072,-1302.362347
415.740786,-4071.132681,-10066.800811,-1532.190996
415.741114,-1036.288319,-9030.512492,-536.266849
415.741441,3182.885551,-8956.491898,1455.581446
415.741769,5329.482782,-7031.956449,3064.381992
415.742097,4737.318029,-7254.018232,3370.820191
415.742424,2368.659014,-8586.388927,2221.676944
415.742752,-3034.844362,-9400.615463,0.000000
415.743079,-5921.647536,-11177.109724,-1685.410096
415.743407,-7254.018232,-11177.109724,-2451.505594
415.743735,-5551.544565,-9400.615463,-1838.629195
415.744062,-1406.391290,-8660.409521,-306.438199
415.744390,3108.864956,-7179.997637,2528.115143
415.744718,3701.029710,-6365.771101,3677.258390
415.745045,2368.659014,-7772.162391,3064.381992
415.745373,-1036.288319,-9030.512492,1532.190996
415.745701,-4885.359217,-10658.965565,-689.485948
415.746028,-6587.832884,-11991.336260,-1608.800546
415.746356,-6143.709319,-10066.800811,-1915.238745
415.746683,-2886.803174,-9030.512492,-995.924147
415.747011,1776.494261,-8660.409521,842.705048
415.747339,5033.400406,-6809.894666,2528.115143
415.747666,5551.544565,-7328.038826,3140.991542
415.747994,3478.967927,-8586.388927,2068.457845
415.748322,-1850.514855,-9548.656652,-459.657299
415.748649,-4441.235652,-11769.274478,-1991.848295
415.748977,-5477.523971,-11843.295072,-2681.334243
415.749304,-3182.885551,-9918.759623,-2298.286494
415.749632,962.267725,-8586.388927,-919.314598
415.749960,5551.544565,-7328.038826,2451.505594
415.750287,7328.038826,-7328.038826,3983.696590
415.750615,5477.523971,-8364.327145,3370.820191
415.750943,1406.391290,-9400.615463,1608.800546
415.751270,-2368.659014,-11029.068536,-229.828649
415.751598,-5107.421000,-11917.315666,-1455.581446
415.751925,-4737.318029,-10436.903782,-1762.019645
415.752253,-1036.288319,-9178.553681,-536.266849
415.752581,3404.947333,-8586.388927,1838.629195
415.752908,6069.688724,-6809.894666,3217.601092
415.753236,4737.318029,-6883.915261,3140.991542
415.753564,2220.617826,-8216.285956,2145.067394
415.753891,-3182.885551,-9104.533087,-383.047749
415.754219,-6217.729913,-11029.068536,-1991.848295
415.754546,-7550.100608,-10510.924376,-2374.896044
415.754874,-4737.318029,-8734.430116,-1608.800546
415.755202,-592.164754,-8364.327145,229.828649
415.755529,3404.947333,-7105.977043,2834.553343
415.755857,4293.194464,-7031.956449,4060.306139
415.756185,2368.659014,-8438.347739,3294.210641
415.756512,-1480.411884,-9622.677246,1149.143247
415.756840,-5329.482782,-10955.047942,-689.485948
415.757167,-7105.977043,-11843.295072,-1762.019645
415.757495,-5921.647536,-9992.780217,-1915.238745
415.757823,-1850.514855,-8586.388927,-766.095498
415.758150,2886.803174,-7772.162391,1685.410096
415.758478,5551.544565,-6217.729913,2757.943793
415.758806,4811.338623,-7105.977043,3140.991542
415.759133,2812.782580,-8512.368333,1991.848295
415.759461,-2368.659014,-9474.636058,-536.266849
415.759789,-4737.318029,-11251.130318,-1608.800546
415.760116,-4959.379811,-10955.047942,-1838.629195
415.760444,-2146.597232,-9548.656652,-1225.752797
415.760771,1776.494261,-9104.533087,766.095498
415.761099,5773.606348,-7550.100608,2911.162892
415.761427,6439.791695,-7698.141797,4903.011187
415.761754,4441.235652,-8808.450710,3294.210641
415.762082,-296.082377,-9474.636058,1455.581446
415.762410,-3627.009116,-10807.006753,-842.705048
415.762737,-5699.585753,-11621.233289,-1991.848295
415.763065,-4737.318029,-9696.697840,-1991.848295
415.763392,-814.226536,-9030.512492,-995.924147
415.763720,3701.029710,-7994.224174,1762.019645
415.764048,4959.379811,-6661.853478,2681.334243
415.764375,4293.194464,-7772.162391,2834.553343
415.764703,1184.329507,-8808.450710,1762.019645
415.765031,-3775.050304,-9474.636058,-306.438199
415.765358,-5403.503377,-11547.212695,-1762.019645
415.765686,-5995.668130,-10732.986159,-1915.238745
415.766013,-3108.864956,-9178.553681,-1378.971896
415.766341,370.102971,-8438.347739,689.485948
415.766669,4219.173869,-7105.977043,2911.162892
415.766996,4441.235652,-6883.915261,3677.258390
415.767324,2738.761985,-8512.368333,3217.601092
415.767652,-1480.411884,-9178.553681,766.095498
415.767979,-4589.276840,-10881.027347,-842.705048
415.768307,-5773.606348,-11547.212695,-1608.800546
415.768634,-4737.318029,-9474.636058,-1838.629195
415.768962,-666.185348,-8956.491898,-383.047749
415.769290,3775.050304,-8142.265362,1762.019645
415.769617,5403.503377,-6735.874072,2681.334243
415.769945,4737.318029,-7920.203579,2911.162892
415.770273,2072.576638,-8882.471304,1608.800546
415.770600,-3034.844362,-9918.759623,-536.266849
415.770928,-4737.318029,-11843.295072,-1838.629195
415.771256,-5181.441594,-11103.089130,-2298.286494
415.771583,-2220.617826,-9326.594869,-1378.971896
415.771911,1998.556043,-8882.471304,919.314598
415.772238,4885.359217,-6957.935855,3140.991542
415.772566,5551.544565,-7179.997637,3447.429741
415.772894,3552.988522,-8586.388927,2681.334243
415.773221,-1110.308913,-9178.553681,383.047749
415.773549,-3849.070898,-10881.027347,-1225.752797
415.773877,-5847.626942,-11547.212695,-2221.676944
415.774204,-4811.338623,-9326.594869,-2221.676944
415.774532,-1036.288319,-8808.450710,-995.924147
415.774860,3330.926739,-7846.182985,1302.362347
415.775187,4959.379811,-6661.853478,2374.896044
415.775515,3627.009116,-7550.100608,2757.943793
415.775842,1184.329507,-9104.533087,1608.800546
415.776170,-3108.864956,-9992.780217,-766.095498
415.776498,-4811.338623,-11769.274478,-1838.629195
415.776825,-5477.523971,-10807.006753,-1685.410096
415.777153,-2146.597232,-9992.780217,-995.924147
415.777481,1998.556043,-8808.450710,1149.143247
415.777808,4663.297435,-7179.997637,3140.991542
415.778136,5181.441594,-7328.038826,4060.306139
415.778464,2886.803174,-8586.388927,2987.772442
415.778791,-1110.308913,-9474.636058,689.485948
415.779119,-3849.070898,-10362.883188,-689.485948
415.779446,-5699.585753,-11103.089130,-1685.410096
415.779774,-5033.400406,-9252.574275,-1762.019645
415.780102,-1036.288319,-8438.347739,-383.047749
415.780429,3034.844362,-7550.100608,2145.067394
415.780757,4589.276840,-5847.626942,3217.601092
415.781085,3701.029710,-7476.080014,2987.772442
415.781412,592.164754,-9104.533087,2145.067394
415.781740,-4219.173869,-10140.821405,-536.266849
415.782067,-6069.688724,-11769.274478,-1608.800546
415.782395,-5995.668130,-10658.965565,-1608.800546
415.782723,-2960.823768,-8956.491898,-1149.143247
415.783050,888.247130,-8290.306550,459.657299
415.783378,4589.276840,-7031.956449,2987.772442
415.783706,5329.482782,-7105.977043,3677.258390
415.784033,3701.029710,-8586.388927,2604.724693
415.784361,-1110.308913,-9104.533087,612.876398
415.784689,-4219.173869,-11251.130318,-612.876398
415.785016,-5699.585753,-12213.398043,-1532.190996
415.785344,-4663.297435,-10140.821405,-1915.238745
415.785671,-592.164754,-9474.636058,-766.095498
415.785999,3997.112087,-8216.285956,2221.676944
415.786327,5403.503377,-7105.977043,3064.381992
415.786654,4663.297435,-7994.224174,2757.943793
415.786982,1702.473667,-9030.512492,1532.190996
415.787310,-2368.659014,-9918.759623,-383.047749
415.787637,-5033.400406,-11251.130318,-1225.752797
415.787965,-5181.441594,-10510.924376,-2221.676944
415.788293,-2368.659014,-9326.594869,-1225.752797
415.788620,1702.473667,-8734.430116,689.485948
415.788948,4737.318029,-7254.018232,2681.334243
415.789275,5181.441594,-6957.935855,3753.867940
415.789603,3404.947333,-8882.471304,3140.991542
415.789931,-1480.411884,-9400.615463,612.876398
415.790258,-4737.318029,-10955.047942,-919.314598
415.790586,-5921.647536,-11917.315666,-1991.848295
415.790914,-4515.256246,-9770.718434,-2145.067394
415.791241,-814.226536,-8660.409521,-919.314598
415.791569,3701.029710,-7920.203579,1762.019645
415.791897,5403.503377,-6513.812290,2757.943793
415.792224,4441.235652,-7550.100608,2604.724693
415.792552,1628.453072,-8808.450710,1762.019645
415.792879,-3404.947333,-9548.656652,-766.095498
415.793207,-5699.585753,-11695.253884,-2145.067394
415.793535,-6217.729913,-10955.047942,-2604.724693
415.793862,-3034.844362,-9252.574275,-1378.971896
415.794190,1184.329507,-8660.409521,842.705048
415.794518,5181.441594,-6809.894666,3217.601092
415.794845,5995.668130,-7328.038826,3983.696590
415.795173,3923.091493,-8364.327145,3217.601092
415.795501,-1258.350101,-9326.594869,919.314598
415.795828,-4515.256246,-11177.109724,-689.485948
415.796156,-5921.647536,-12213.398043,-1685.410096
415.796483,-5181.441594,-10066.800811,-1915.238745
415.796811,-962.267725,-8956.491898,-612.876398
415.797139,4293.194464,-7772.162391,2298.286494
415.797466,5995.668130,-6809.894666,3524.039291
415.797794,4737.318029,-7402.059420,3600.648841
415.798122,1554.432478,-8438.347739,1072.533697
415.798449,-3552.988522,-9844.739029,-919.314598
415.798777,-5625.565159,-11473.192101,-2068.457845
415.799105,-6217.729913,-10658.965565,-1991.848295
415.799432,-2590.720797,-8734.430116,-1072.533697
415.799760,1110.308913,-7994.224174,1302.362347
415.800087,5033.400406,-6661.853478,3294.210641
415.800415,4959.379811,-7105.977043,4060.306139
415.800743,3182.885551,-8216.285956,3064.381992
415.801070,-2368.659014,-9178.553681,536.266849
415.801398,-5477.523971,-10807.006753,-1072.533697
415.801726,-6809.894666,-11843.295072,-2451.505594
415.802053,-5107.421000,-9548.656652,-2145.067394
415.802381,-666.185348,-8512.368333,-766.095498
415.802709,4219.173869,-7402.059420,2068.457845
415.803036,5699.585753,-6291.750507,2834.553343
415.803364,4515.256246,-7846.182985,3370.820191
415.803691,888.247130,-8956.491898,1608.800546
415.804019,-3108.864956,-10436.903782,-919.314598
415.804347,-5329.482782,-11843.295072,-2145.067394
415.804674,-5403.503377,-10955.047942,-1991.848295
415.805002,-1480.411884,-9474.636058,-76.609550
415.805330,3034.844362,-8586.388927,1838.629195
415.805657,6365.771101,-7031.956449,3677.258390
415.805985,5921.647536,-7624.121203,4290.134789
415.806313,3701.029710,-9622.677246,3064.381992
415.806640,-2368.659014,-9844.739029,612.876398
415.806968,-5403.503377,-11621.233289,-1532.190996
415.807295,-6661.853478,-11843.295072,-2221.676944
415.807623,-4515.256246,-9474.636058,-2145.067394
415.807951,-148.041188,-8586.388927,-383.047749
415.808278,4145.153275,-6735.874072,2451.505594
415.808606,5403.503377,-6735.874072,2757.943793
415.808934,3627.009116,-7846.182985,2451.505594
415.809261,-370.102971,-9252.574275,766.095498
415.809589,-4663.297435,-10436.903782,-1532.190996
415.809916,-6365.771101,-12139.377449,-2451.505594
415.810244,-5847.626942,-10362.883188,-2604.724693
415.810572,-2220.617826,-9104.533087,-1149.143247
415.810899,2516.700203,-8512.368333,1608.800546
415.811227,5551.544565,-7105.977043,3447.429741
415.811555,5181.441594,-7920.203579,3524.039291
415.811882,2738.761985,-8734.430116,2451.505594
415.812210,-2664.741391,-9844.739029,0.000000
415.812538,-5033.400406,-11621.233289,-1302.362347
415.812865,-5625.565159,-11473.192101,-1991.848295
415.813193,-3182.885551,-9030.512492,-1762.019645
415.813520,888.247130,-8512.368333,-153.219100
415.813848,5255.462188,-7328.038826,2451.505594
415.814176,6143.709319,-7105.977043,3447.429741
415.814503,3997.112087,-7846.182985,2834.553343
415.814831,0.000000,-9178.553681,1225.752797
415.815159,-3923.091493,-10807.006753,-306.438199
415.815486,-5773.606348,-11769.274478,-1838.629195
415.815814,-5329.482782,-9770.718434,-1991.848295
415.816142,-1036.288319,-8660.409521,-689.485948
415.816469,3182.885551,-8068.244768,2451.505594
415.816797,5773.606348,-6957.935855,3830.477490
415.817124,4589.276840,-7624.121203,3907.087040
415.817452,1702.473667,-8882.471304,2681.334243
415.817780,-3627.009116,-9548.656652,153.219100
415.818107,-6069.688724,-11399.171507,-1608.800546
415.818435,-6217.729913,-11103.089130,-1991.848295
415.818763,-3552.988522,-8734.430116,-1532.190996
415.819090,0.000000,-8364.327145,153.219100
415.819418,3997.112087,-6957.935855,2374.896044
415.819746,4589.276840,-6809.894666,3370.820191
415.820073,3182.885551,-8068.244768,2834.553343
415.820401,-1554.432478,-8142.265362,689.485948
415.820728,-4589.276840,-10510.924376,-1149.143247
415.821056,-6217.729913,-11695.253884,-2221.676944
415.821384,-4959.379811,-9844.739029,-1915.238745
415.821711,-1258.350101,-8734.430116,-689.485948
415.822039,3552.988522,-7698.141797,1838.629195
415.822367,5699.585753,-6513.812290,3140.991542
415.822694,5255.462188,-7624.121203,3370.820191
415.823022,2590.720797,-9030.512492,2451.505594
415.823350,-2294.638420,-9474.636058,0.000000
415.823677,-4367.215058,-11621.233289,-1302.362347
415.824005,-4589.276840,-11399.171507,-2221.676944
415.824332,-2590.720797,-9474.636058,-1378.971896
415.824660,814.226536,-8882.471304,0.000000
415.824988,4811.338623,-7402.059420,2681.334243
415.825315,5773.606348,-7254.018232,3447.429741
415.825643,3775.050304,-8142.265362,2757.943793
415.825971,-592.164754,-9548.656652,459.657299
415.826298,-3923.091493,-11251.130318,-995.924147
415.826626,-6069.688724,-11843.295072,-2221.676944
415.826954,-4959.379811,-9696.697840,-1685.410096
415.827281,-1036.288319,-8216.285956,-459.657299
415.827609,3256.906145,-8142.265362,2298.286494
415.827936,5551.544565,-6661.853478,3370.820191
415.828264,4441.235652,-7550.100608,3370.820191
415.828592,1702.473667,-8882.471304,2451.505594
415.828919,-3404.947333,-9770.718434,0.000000
415.829247,-5477.523971,-11473.192101,-1685.410096
415.829575,-6217.729913,-11029.068536,-2068.457845
415.829902,-3552.988522,-9252.574275,-1378.971896
415.830230,74.020594,-8512.368333,306.438199
415.830558,4219.173869,-7105.977043,2528.115143
415.830885,4589.276840,-6661.853478,3294.210641
415.831213,3034.844362,-8142.265362,2451.505594
415.831540,-962.267725,-9030.512492,459.657299
415.831868,-4367.215058,-10584.944971,-1378.971896
415.832196,-5847.626942,-11621.233289,-1991.848295
415.832523,-4737.318029,-9844.739029,-1991.848295
415.832851,-1258.350101,-8882.471304,-612.876398
415.833179,3404.947333,-8512.368333,1762.019645
415.833506,5403.503377,-6661.853478,2681.334243
415.833834,4737.318029,-7994.224174,3447.429741
415.834162,2146.597232,-8586.388927,2298.286494
415.834489,-2590.720797,-10066.800811,0.000000
415.834817,-4737.318029,-11917.315666,-1378.971896
415.835144,-5403.503377,-11399.171507,-1838.629195
415.835472,-2960.823768,-9548.656652,-1455.581446
415.835800,1110.308913,-8882.471304,-229.828649
415.836127,4515.256246,-6809.894666,2374.896044
415.836455,5551.544565,-6883.915261,3294.210641
415.836783,3775.050304,-8142.265362,2451.505594
415.837110,-370.102971,-9104.533087,536.266849
415.837438,-3849.070898,-10732.986159,-459.657299
415.837765,-5625.565159,-11325.150913,-2298.286494
415.838093,-5181.441594,-9622.677246,-1838.629195
415.838421,-1554.432478,-8586.388927,-612.876398
415.838748,3330.926739,-8438.347739,1915.238745
415.839076,5773.606348,-6661.853478,3524.039291
415.839404,4737.318029,-7698.141797,3677.258390
415.839731,2146.597232,-9030.512492,2451.505594
415.840059,-3627.009116,-9992.780217,76.609550
415.840387,-5699.585753,-11843.295072,-1378.971896
415.840714,-6217.729913,-11473.192101,-1991.848295
415.841042,-3552.988522,-9474.636058,-1915.238745
415.841369,296.082377,-8438.347739,76.609550
415.841697,4441.235652,-7105.977043,2221.676944
415.842025,5255.462188,-6735.874072,3370.820191
415.842352,3552.988522,-7920.203579,2451.505594
415.842680,-444.123565,-9104.533087,459.657299
415.843008,-4293.194464,-10584.944971,-1532.190996
415.843335,-6365.771101,-11843.295072,-2221.676944
415.843663,-5551.544565,-10066.800811,-2221.676944
415.843991,-1480.411884,-9178.553681,-612.876398
415.844318,3627.009116,-8586.388927,1991.848295
415.844646,5255.462188,-6587.832884,3600.648841
415.844973,4737.318029,-7772.162391,3524.039291
415.845301,2294.638420,-9178.553681,2451.505594
415.845629,-2886.803174,-9918.759623,0.000000
415.845956,-4959.379811,-11769.274478,-919.314598
415.846284,-5477.523971,-10881.027347,-1915.238745
415.846612,-2664.741391,-9548.656652,-1762.019645
415.846939,1036.288319,-8586.388927,76.609550
415.847267,5477.523971,-7105.977043,2528.115143
415.847595,5995.668130,-7031.956449,3370.820191
415.847922,3923.091493,-7772.162391,2911.162892
415.848250,-370.102971,-9252.574275,689.485948
415.848577,-3923.091493,-10955.047942,-995.924147
415.848905,-5699.585753,-11843.295072,-1762.019645
415.849233,-4589.276840,-9770.718434,-1532.190996
415.849560,74.020594,-8882.471304,76.609550
415.849888,4071.132681,-7402.059420,2757.943793
415.850216,6143.709319,-6439.791695,4443.353888
415.850543,4441.235652,-7550.100608,4290.134789
415.850871,1184.329507,-8660.409521,2681.334243
415.851199,-4071.132681,-10214.842000,153.219100
415.851526,-6069.688724,-10955.047942,-1302.362347
415.851854,-6439.791695,-10658.965565,-1915.238745
415.852181,-3404.947333,-9030.512492,-1149.143247
415.852509,444.123565,-8290.306550,1149.143247
415.852837,4219.173869,-6661.853478,2987.772442
415.853164,4367.215058,-6809.894666,3907.087040
415.853492,1924.535449,-8290.306550,2298.286494
415.853820,-2738.761985,-9104.533087,-153.219100
415.854147,-6143.709319,-10881.027347,-1838.629195
415.854475,-7254.018232,-11843.295072,-2681.334243
415.854803,-5995.668130,-9400.615463,-2298.286494
415.855130,-1554.432478,-8586.388927,-995.924147
415.855458,3997.112087,-7698.141797,1838.629195
415.855785,5773.606348,-6661.853478,2757.943793
415.856113,5033.400406,-7698.141797,2987.772442
415.856441,1924.535449,-8660.409521,2068.457845
415.856768,-2220.617826,-10436.903782,-689.485948
415.857096,-4367.215058,-12287.418637,-1838.629195
415.857424,-4811.338623,-11251.130318,-2374.896044
415.857751,-1406.391290,-9992.780217,-1532.190996
415.858079,2664.741391,-8808.450710,1149.143247
415.858407,6365.771101,-7550.100608,2451.505594
415.858734,6513.812290,-7550.100608,3370.820191
415.859062,4441.235652,-9400.615463,2528.115143
415.859389,-518.144159,-9548.656652,0.000000
415.859717,-3849.070898,-11251.130318,-1608.800546
415.860045,-5329.482782,-11843.295072,-1762.019645
415.860372,-3923.091493,-9548.656652,-1762.019645
415.860700,148.041188,-8734.430116,0.000000
415.861028,4663.297435,-7624.121203,2681.334243
415.861355,5995.668130,-7328.038826,3830.477490
415.861683,4071.132681,-7624.121203,3830.477490
415.862011,0.000000,-8882.471304,2374.896044
415.862338,-4589.276840,-10436.903782,-153.219100
415.862666,-6809.894666,-11399.171507,-1225.752797
415.862993,-6661.853478,-10214.842000,-1838.629195
415.863321,-3849.070898,-8142.265362,-919.314598
415.863649,444.123565,-7476.080014,1225.752797
415.863976,3701.029710,-5995.668130,2681.334243
415.864304,3849.070898,-6365.771101,3217.601092
415.864632,1850.514855,-7772.162391,2221.676944
415.864959,-3034.844362,-8734.430116,-612.876398
415.865287,-6143.709319,-10955.047942,-1225.752797
415.865614,-7179.997637,-11769.274478,-2528.115143
415.865942,-5477.523971,-9622.677246,-2451.505594
415.866270,-962.267725,-9030.512492,-612.876398
415.866597,4293.194464,-7698.141797,2604.724693
415.866925,6513.812290,-7031.956449,2757.943793
415.867253,4959.379811,-7772.162391,2987.772442
415.867580,2072.576638,-9030.512492,1991.848295
415.867908,-2368.659014,-10362.883188,-536.266849
415.868235,-4663.297435,-11769.274478,-1838.629195
415.868563,-4737.318029,-10881.027347,-2451.505594
415.868891,-1258.350101,-9326.594869,-1455.581446
415.869218,2516.700203,-8438.347739,459.657299
415.869546,6439.791695,-6957.935855,2528.115143
415.869873,6809.894666,-7105.977043,3217.601092
415.870201,4737.318029,-8660.409521,2451.505594
415.870528,-370.102971,-9622.677246,306.438199
415.870856,-3997.112087,-11177.109724,-1225.752797
415.871184,-5329.482782,-11547.212695,-2374.896044
415.871511,-4219.173869,-9474.636058,-1915.238745
415.871839,0.000000,-8438.347739,689.485948
415.872166,4959.379811,-7328.038826,2987.772442
415.872494,5995.668130,-6957.935855,4213.525239
415.872822,3627.009116,-7920.203579,4060.306139
415.873149,-148.041188,-8956.491898,2298.286494
415.873477,-4959.379811,-10658.965565,0.000000
415.873804,-7179.997637,-11843.295072,-1532.190996
415.874132,-7105.977043,-10584.944971,-1685.410096
415.874459,-3330.926739,-9252.574275,-919.314598
415.874787,666.185348,-8290.306550,1225.752797
415.875115,3997.112087,-6513.812290,3140.991542
415.875442,4219.173869,-6957.935855,3370.820191
415.875770,1924.535449,-8290.306550,2068.457845
415.876097,-3701.029710,-9252.574275,0.000000
415.876425,-6291.750507,-11251.130318,-1838.629195
415.876752,-7550.100608,-11473.192101,-2451.505594
415.877080,-5107.421000,-9030.512492,-2068.457845
415.877408,-592.164754,-8364.327145,0.000000
415.877735,4663.297435,-7550.100608,2451.505594
415.878063,6143.709319,-7105.977043,3524.039291
415.878390,4737.318029,-7994.224174,3524.039291
415.878718,592.164754,-9400.615463,1762.019645
415.879045,-3330.926739,-10955.047942,-919.314598
415.879373,-5403.503377,-12287.418637,-2298.286494
415.879701,-5403.503377,-10807.006753,-2221.676944
415.880028,-1184.329507,-9474.636058,-1455.581446
415.880356,3182.885551,-8660.409521,689.485948
415.880683,7105.977043,-6809.894666,2834.553343
415.881011,7105.977043,-7328.038826,3294.210641
415.881338,4589.276840,-9030.512492,2451.505594
415.881666,-1036.288319,-9918.759623,0.000000
415.881994,-4071.132681,-12361.439231,-1225.752797
415.882321,-4811.338623,-11991.336260,-2068.457845
415.882649,-2960.823768,-9844.739029,-1378.971896
415.882976,1036.288319,-8956.491898,383.047749
415.883304,5255.462188,-7624.121203,3217.601092
415.883632,6217.729913,-7179.997637,4596.572988
415.883959,4071.132681,-7920.203579,4060.306139
415.884287,-444.123565,-8660.409521,1838.629195
415.884614,-4737.318029,-10584.944971,-306.438199
415.884942,-6883.915261,-11621.233289,-1915.238745
415.885269,-6735.874072,-9844.739029,-1991.848295
415.885597,-2664.741391,-8216.285956,-766.095498
415.885925,2146.597232,-7328.038826,2298.286494
415.886252,4071.132681,-6217.729913,2911.162892
415.886580,3404.947333,-7254.018232,3447.429741
415.886907,888.247130,-8808.450710,1915.238745
415.887235,-4737.318029,-9770.718434,-689.485948
415.887562,-7031.956449,-11769.274478,-2145.067394
415.887890,-7772.162391,-11547.212695,-2374.896044
415.888218,-4811.338623,-9474.636058,-2145.067394
415.888545,-370.102971,-8586.388927,0.000000
415.888873,4811.338623,-6957.935855,2451.505594
415.889200,5921.647536,-6661.853478,2834.553343
415.889528,4663.297435,-7179.997637,2911.162892
415.889855,518.144159,-9030.512492,995.924147
415.890183,-2886.803174,-10732.986159,-919.314598
415.890511,-5033.400406,-11621.233289,-2145.067394
415.890838,-4071.132681,-9844.739029,-1991.848295
415.891166,0.000000,-9104.533087,-766.095498
415.891493,4367.215058,-8734.430116,1608.800546
415.891821,7031.956449,-7105.977043,2987.772442
415.892148,6587.832884,-7550.100608,3294.210641
415.892476,3923.091493,-9030.512492,2451.505594
415.892804,-1480.411884,-9770.718434,153.219100
415.893131,-4441.235652,-11991.336260,-1991.848295
415.893459,-4885.359217,-11399.171507,-2221.676944
415.893786,-2368.659014,-9400.615463,-1532.190996
415.894114,1332.370696,-8364.327145,459.657299
415.894442,5477.523971,-6957.935855,2987.772442
415.894769,5847.626942,-7031.956449,4213.525239
415.895097,2960.823768,-8068.244768,3370.820191
415.895424,-1554.432478,-9326.594869,1302.362347
415.895752,-5033.400406,-11029.068536,-459.657299
415.896079,-7031.956449,-11769.274478,-1455.581446
415.896407,-5847.626942,-9770.718434,-1455.581446
415.896735,-2146.597232,-8438.347739,-153.219100
415.897062,2146.597232,-7846.182985,1991.848295
415.897390,3627.009116,-6513.812290,3064.381992
415.897717,2960.823768,-7550.100608,3370.820191
415.898045,740.205942,-8586.388927,1532.190996
415.898372,-4737.318029,-9400.615463,-1072.533697
415.898700,-6883.915261,-11473.192101,-2145.067394
415.899028,-7031.956449,-10955.047942,-2451.505594
415.899355,-4145.153275,-8956.491898,-1838.629195
415.899683,0.000000,-7994.224174,-766.095498
415.900010,4071.132681,-6661.853478,2528.115143
415.900338,5255.462188,-7031.956449,3370.820191
415.900665,3627.009116,-8216.285956,2528.115143
415.900993,-444.123565,-9548.656652,919.314598
415.901321,-3256.906145,-11177.109724,-612.876398
415.901648,-5107.421000,-12139.377449,-1378.971896
415.901976,-4663.297435,-10362.883188,-2145.067394
415.902303,-444.123565,-8956.491898,-842.705048
415.902631,4293.194464,-8216.285956,1225.752797
415.902958,7105.977043,-6587.832884,2834.553343
415.903286,6809.894666,-7476.080014,3140.991542
415.903614,4071.132681,-8660.409521,2221.676944
415.903941,-1258.350101,-9844.739029,-229.828649
415.904269,-3701.029710,-11917.315666,-1532.190996
415.904596,-4737.318029,-11325.150913,-1838.629195
415.904924,-1924.535449,-9474.636058,-1149.143247
415.905252,1480.411884,-8512.368333,689.485948
415.905579,5551.544565,-7254.018232,3370.820191
415.905907,5773.606348,-7179.997637,4213.525239
415.906234,3478.967927,-8512.368333,3600.648841
415.906562,-814.226536,-9918.759623,1762.019645
415.906889,-4959.379811,-10807.006753,-229.828649
415.907217,-7105.977043,-11695.253884,-1532.190996
415.907545,-6439.791695,-9992.780217,-1378.971896
415.907872,-2590.720797,-8586.388927,-536.266849
415.908200,1850.514855,-7179.997637,1838.629195
415.908527,3923.091493,-5625.565159,3217.601092
415.908855,2960.823768,-6809.894666,3370.820191
415.909182,222.061783,-8068.244768,1838.629195
415.909510,-4811.338623,-9696.697840,-459.657299
415.909838,-7179.997637,-11103.089130,-1685.410096
415.910165,-7179.997637,-11029.068536,-1991.848295
415.910493,-4145.153275,-8956.491898,-1608.800546
415.910820,0.000000,-8364.327145,229.828649
415.911148,4515.256246,-6883.915261,2757.943793
415.911475,5329.482782,-7105.977043,3524.039291
415.911803,3923.091493,-8290.306550,2834.553343
415.912131,-296.082377,-9696.697840,842.705048
415.912458,-3997.112087,-11177.109724,-1072.533697
415.912786,-5847.626942,-12435.459826,-1991.848295
415.913113,-4737.318029,-10584.944971,-2374.896044
415.913441,-222.061783,-9178.553681,-2068.457845
