#time,accel_x,accel_y,accel_z
431.905400,-222.061783,-9178.553681,536.266849
431.905728,-370.102971,-9252.574275,306.438199
431.906056,0.000000,-9104.533087,842.705048
431.906383,0.000000,-9030.512492,383.047749
431.906711,-222.061783,-9178.553681,536.266849
431.907039,0.000000,-9178.553681,383.047749
431.907367,-222.061783,-9252.574275,536.266849
431.907695,0.000000,-9104.533087,536.266849
431.908023,-444.123565,-9104.533087,612.876398
431.908351,-370.102971,-9178.553681,536.266849
431.908678,-296.082377,-9104.533087,306.438199
431.909006,-296.082377,-9252.574275,842.705048
431.909334,-296.082377,-8882.471304,612.876398
431.909662,-222.061783,-8956.491898,153.219100
431.909990,-296.082377,-9104.533087,612.876398
431.910318,-296.082377,-9104.533087,383.047749
431.910645,-518.144159,-9030.512492,536.266849
431.910973,-222.061783,-9178.553681,612.876398
431.911301,0.000000,-9178.553681,306.438199
431.911629,-666.185348,-8808.450710,842.705048
431.911957,-148.041188,-9178.553681,766.095498
431.912285,-370.102971,-9104.533087,612.876398
431.912612,-148.041188,-9178.553681,612.876398
431.912940,0.000000,-9104.533087,536.266849
431.913268,-148.041188,-9104.533087,842.705048
431.913596,-518.144159,-9252.574275,689.485948
431.913924,-296.082377,-9104.533087,536.266849
431.914252,0.000000,-8956.491898,459.657299
431.914579,148.041188,-8956.491898,1378.971896
431.914907,-370.102971,-9474.636058,919.314598
431.915235,-148.041188,-9104.533087,536.266849
431.915563,-296.082377,-9104.533087,459.657299
431.915891,-296.082377,-9030.512492,689.485948
431.916219,0.000000,-9178.553681,459.657299
431.916546,0.000000,-8734.430116,919.314598
431.916874,-222.061783,-9104.533087,383.047749
431.917202,-148.041188,-9104.533087,766.095498
431.917530,-148.041188,-9252.574275,459.657299
431.917858,-444.123565,-9030.512492,459.657299
431.918186,74.020594,-9252.574275,76.609550
431.918513,-740.205942,-9030.512492,306.438199
431.918841,-1184.329507,-9474.636058,0.000000
431.919169,-1406.391290,-9474.636058,-153.219100
431.919497,-1554.432478,-9252.574275,-459.657299
431.919825,-740.205942,-9104.533087,-306.438199
431.920153,-370.102971,-8512.368333,-459.657299
431.920481,-666.185348,-8956.491898,-766.095498
431.920808,-962.267725,-9178.553681,-919.314598
431.921136,-1184.329507,-9178.553681,-995.924147
431.921464,-1258.350101,-8734.430116,-842.705048
431.921792,-814.226536,-9030.512492,-1149.143247
431.922120,-370.102971,-9400.615463,-1072.533697
431.922448,-296.082377,-9252.574275,-1378.971896
431.922775,-148.041188,-9400.615463,-1072.533697
431.923103,0.000000,-9030.512492,-1302.362347
431.923431,0.000000,-9030.512492,-1762.019645
431.923759,74.020594,-9030.512492,-1302.362347
431.924087,222.061783,-9400.615463,-1762.019645
431.924415,74.020594,-9326.594869,-1455.581446
431.924742,148.041188,-9474.636058,-1915.238745
431.925070,740.205942,-9326.594869,-1608.800546
431.925398,296.082377,-9104.533087,-1532.190996
431.925726,296.082377,-9252.574275,-1685.410096
431.926054,0.000000,-9400.615463,-1685.410096
431.926382,74.020594,-9474.636058,-1991.848295
431.926709,444.123565,-9474.636058,-2068.457845
431.927037,222.061783,-8808.450710,-2451.505594
431.927365,0.000000,-9252.574275,-1762.019645
431.927693,-148.041188,-9178.553681,-1838.629195
431.928021,-296.082377,-9178.553681,-1915.238745
431.928349,-296.082377,-9104.533087,-1762.019645
431.928676,-814.226536,-8660.409521,-1915.238745
431.929004,-888.247130,-9178.553681,-2145.067394
431.929332,-1258.350101,-9326.594869,-2068.457845
431.929660,-1406.391290,-9104.533087,-2451.505594
431.929988,-1480.411884,-9104.533087,-2681.334243
431.930316,-1332.370696,-9030.512492,-2298.286494
431.930643,-1850.514855,-8956.491898,-3064.381992
431.930971,-2220.617826,-8956.491898,-3064.381992
431.931299,-1850.514855,-9252.574275,-3370.820191
431.931627,-1850.514855,-9030.512492,-3753.867940
431.931955,-1628.453072,-8882.471304,-4136.915689
431.932283,-1480.411884,-8660.409521,-3753.867940
431.932611,-1036.288319,-9030.512492,-3753.867940
431.932938,-592.164754,-8734.430116,-3677.258390
431.933266,0.000000,-8882.471304,-3600.648841
431.933594,592.164754,-8512.368333,-3140.991542
431.933922,962.267725,-8660.409521,-2987.772442
431.934250,1702.473667,-9104.533087,-2451.505594
431.934578,2220.617826,-9030.512492,-2145.067394
431.934905,2220.617826,-9178.553681,-1991.848295
431.935233,1776.494261,-9622.677246,-1762.019645
431.935561,666.185348,-9992.780217,-1991.848295
431.935889,-370.102971,-10288.862594,-2604.724693
431.936217,-1332.370696,-10362.883188,-3524.039291
431.936545,-1850.514855,-10362.883188,-4596.572988
431.936872,-2442.679609,-9992.780217,-4826.401637
431.937200,-1184.329507,-9474.636058,-5439.278036
431.937528,-296.082377,-8216.285956,-4903.011187
431.937856,1110.308913,-7402.059420,-4213.525239
431.938184,2516.700203,-7031.956449,-3294.210641
431.938512,3182.885551,-7105.977043,-2451.505594
431.938839,2664.741391,-7698.141797,-1302.362347
431.939167,1184.329507,-8660.409521,-1991.848295
431.939495,-1110.308913,-9992.780217,-2068.457845
431.939823,-3108.864956,-10955.047942,-2374.896044
431.940151,-3849.070898,-11473.192101,-2681.334243
431.940479,-3701.029710,-10807.006753,-2757.943793
431.940806,-2220.617826,-9992.780217,-2451.505594
431.941134,296.082377,-8438.347739,-2221.676944
431.941462,3997.112087,-6957.935855,-919.314598
431.941790,7920.203579,-5403.503377,842.705048
431.942118,10214.842000,-4959.379811,2528.115143
431.942446,9696.697840,-6217.729913,3830.477490
431.942774,5329.482782,-9622.677246,3370.820191
431.943101,-1332.370696,-12657.521608,2374.896044
431.943429,-7624.121203,-14211.954086,0.000000
431.943757,-10658.965565,-14582.057057,-919.314598
431.944085,-10066.800811,-13175.665768,-2451.505594
431.944413,-7772.162391,-11843.295072,-1762.019645
431.944741,-2146.597232,-8586.388927,-1302.362347
431.945068,518.144159,-6587.832884,689.485948
431.945396,1998.556043,-4589.276840,-612.876398
431.945724,0.000000,-5033.400406,-2068.457845
431.946052,-4959.379811,-6513.812290,-3907.087040
431.946380,-9178.553681,-8808.450710,-5975.544884
431.946708,-13619.789333,-9474.636058,-7660.954980
431.947035,-11399.171507,-9030.512492,-7354.516781
431.947363,-7031.956449,-8734.430116,-4826.401637
431.947691,-518.144159,-6587.832884,-3140.991542
431.948019,5255.462188,-6143.709319,-689.485948
431.948347,8216.285956,-6809.894666,0.000000
431.948675,5551.544565,-8364.327145,-995.924147
431.949002,1184.329507,-11621.233289,-2451.505594
431.949330,-1924.535449,-11695.253884,-4290.134789
431.949658,-1702.473667,-11769.274478,-5515.887586
431.949986,4367.215058,-11029.068536,-2451.505594
431.950314,10658.965565,-7476.080014,76.609550
431.950642,15026.180623,-6957.935855,3524.039291
431.950969,16728.654289,-7772.162391,4443.353888
431.951297,11843.295072,-8290.306550,2911.162892
431.951625,6883.915261,-10881.027347,229.828649
431.951953,1332.370696,-12953.603985,-1072.533697
431.952281,-148.041188,-13323.706956,-2451.505594
431.952609,-962.267725,-13101.645173,-536.266849
431.952936,-1036.288319,-11251.130318,229.828649
431.953264,-518.144159,-9770.718434,1149.143247
431.953592,0.000000,-8068.244768,2451.505594
431.953920,-2886.803174,-7105.977043,766.095498
431.954248,-5033.400406,-4959.379811,-1532.190996
431.954576,-5329.482782,-5033.400406,-1532.190996
431.954904,-3627.009116,-4959.379811,-766.095498
431.955231,-2664.741391,-3923.091493,459.657299
431.955559,-296.082377,-4959.379811,2987.772442
431.955887,0.000000,-6957.935855,4136.915689
431.956215,-3997.112087,-8290.306550,3524.039291
431.956543,-7402.059420,-9844.739029,3830.477490
431.956871,-9252.574275,-9918.759623,1838.629195
431.957198,-9030.512492,-10584.944971,995.924147
431.957526,-4959.379811,-10436.903782,2451.505594
431.957854,-1554.432478,-9252.574275,3064.381992
431.958182,592.164754,-9178.553681,4213.525239
431.958510,1110.308913,-10066.800811,3753.867940
431.958838,-444.123565,-10658.965565,2451.505594
431.959165,-2664.741391,-10066.800811,612.876398
431.959493,-1850.514855,-9696.697840,153.219100
431.959821,-370.102971,-8660.409521,383.047749
431.960149,2368.659014,-8512.368333,2298.286494
431.960477,3552.988522,-8956.491898,3753.867940
431.960805,3330.926739,-10066.800811,4596.572988
431.961132,370.102971,-11695.253884,3907.087040
431.961460,-1924.535449,-12509.480420,2451.505594
431.961788,-3552.988522,-11843.295072,0.000000
431.962116,-3997.112087,-11325.150913,0.000000
431.962444,444.123565,-7772.162391,0.000000
431.962772,2886.803174,-6809.894666,1225.752797
431.963099,4589.276840,-5995.668130,1838.629195
431.963427,5181.441594,-6883.915261,1532.190996
431.963755,1332.370696,-8290.306550,0.000000
431.964083,-1184.329507,-9992.780217,-2374.896044
431.964411,-1702.473667,-11621.233289,-2374.896044
431.964739,-1258.350101,-11695.253884,-2757.943793
431.965067,1036.288319,-9992.780217,-1302.362347
431.965394,4145.153275,-10066.800811,919.314598
431.965722,3775.050304,-10288.862594,1838.629195
431.966050,888.247130,-9844.739029,689.485948
431.966378,-2442.679609,-11695.253884,-536.266849
431.966705,-5329.482782,-11695.253884,-2604.724693
431.967033,-6661.853478,-10584.944971,-4213.525239
431.967361,-3256.906145,-9622.677246,-3140.991542
431.967689,740.205942,-6661.853478,-1302.362347
431.968016,3997.112087,-5107.421000,306.438199
431.968344,4663.297435,-5403.503377,842.705048
431.968672,2442.679609,-6365.771101,0.000000
431.969000,-1110.308913,-7402.059420,-2145.067394
431.969327,-3330.926739,-8956.491898,-3140.991542
431.969655,-2812.782580,-9030.512492,-2681.334243
431.969983,0.000000,-8438.347739,-459.657299
431.970311,4145.153275,-8290.306550,1991.848295
431.970638,5995.668130,-8142.265362,4213.525239
431.970966,4515.256246,-8808.450710,3677.258390
431.971294,1480.411884,-9622.677246,1991.848295
431.971622,-2072.576638,-10214.842000,-383.047749
431.971949,-3108.864956,-10288.862594,-1685.410096
431.972277,-2368.659014,-9474.636058,-1302.362347
431.972605,592.164754,-7772.162391,689.485948
431.972932,3997.112087,-7550.100608,2834.553343
431.973260,4145.153275,-7476.080014,4366.744339
431.973588,1776.494261,-8068.244768,3064.381992
431.973916,-888.247130,-9474.636058,1225.752797
431.974243,-4367.215058,-9770.718434,-612.876398
431.974571,-4885.359217,-9030.512492,-1302.362347
431.974899,-3330.926739,-8438.347739,76.609550
431.975227,-296.082377,-6587.832884,1838.629195
431.975554,2146.597232,-6365.771101,4213.525239
431.975882,814.226536,-7105.977043,4443.353888
431.976210,-2442.679609,-7698.141797,2451.505594
431.976538,-5033.400406,-9178.553681,383.047749
431.976865,-7476.080014,-9992.780217,-1991.848295
431.977193,-7550.100608,-8734.430116,-2221.676944
431.977521,-3552.988522,-8660.409521,-612.876398
431.977848,814.226536,-7254.018232,1225.752797
431.978176,2738.761985,-7105.977043,2451.505594
431.978504,3034.844362,-8882.471304,3294.210641
431.978832,222.061783,-10658.965565,842.705048
431.979159,-3330.926739,-11843.295072,-919.314598
431.979487,-3775.050304,-12287.418637,-1072.533697
431.979815,-2664.741391,-11769.274478,-919.314598
431.980143,1628.453072,-10140.821405,1608.800546
431.980470,5995.668130,-9104.533087,4213.525239
431.980798,5477.523971,-9104.533087,3983.696590
431.981126,3775.050304,-9548.656652,4060.306139
431.981454,1110.308913,-11177.109724,1838.629195
431.981781,-3627.009116,-11547.212695,-383.047749
431.982109,-3034.844362,-10436.903782,-1685.410096
431.982437,-666.185348,-9918.759623,76.609550
431.982764,2368.659014,-8142.265362,1455.581446
431.983092,5181.441594,-7328.038826,2987.772442
431.983420,4663.297435,-8438.347739,3217.601092
431.983748,1554.432478,-8660.409521,1991.848295
431.984075,-1850.514855,-10658.965565,0.000000
431.984403,-4367.215058,-11473.192101,-1838.629195
431.984731,-5107.421000,-10807.006753,-1915.238745
431.985059,-2072.576638,-10066.800811,-459.657299
431.985386,888.247130,-8586.388927,1455.581446
431.985714,2516.700203,-8216.285956,2451.505594
431.986042,814.226536,-8808.450710,2374.896044
431.986370,-2738.761985,-9918.759623,0.000000
431.986697,-6143.709319,-10584.944971,-2298.286494
431.987025,-7476.080014,-10584.944971,-3907.087040
431.987353,-5551.544565,-9622.677246,-3677.258390
431.987681,-1554.432478,-7254.018232,-1608.800546
431.988008,2368.659014,-6883.915261,612.876398
431.988336,3997.112087,-6957.935855,2145.067394
431.988664,2664.741391,-7031.956449,1149.143247
431.988991,666.185348,-8808.450710,-229.828649
431.989319,-2590.720797,-9696.697840,-1685.410096
431.989647,-2590.720797,-9622.677246,-2145.067394
431.989975,74.020594,-9178.553681,-383.047749
431.990302,4145.153275,-7476.080014,1532.190996
431.990630,7105.977043,-6809.894666,3830.477490
431.990958,6069.688724,-7772.162391,4290.134789
431.991286,3108.864956,-8660.409521,2068.457845
431.991613,0.000000,-10066.800811,1302.362347
431.991941,-2072.576638,-10436.903782,-1072.533697
431.992269,-2442.679609,-9992.780217,-1225.752797
431.992597,296.082377,-8364.327145,153.219100
431.992924,3552.988522,-7994.224174,1915.238745
431.993252,4293.194464,-7254.018232,3217.601092
431.993580,2664.741391,-8068.244768,2451.505594
431.993907,0.000000,-9326.594869,1378.971896
431.994235,-3997.112087,-9474.636058,-1149.143247
431.994563,-5773.606348,-9844.739029,-1991.848295
431.994891,-5477.523971,-8882.471304,-1532.190996
431.995218,-2442.679609,-7105.977043,306.438199
431.995546,1036.288319,-6809.894666,2374.896044
431.995874,1184.329507,-6587.832884,2911.162892
431.996202,-1184.329507,-7550.100608,2451.505594
431.996529,-3627.009116,-9326.594869,689.485948
431.996857,-6809.894666,-9992.780217,-1762.019645
431.997185,-7105.977043,-9696.697840,-2298.286494
431.997513,-4145.153275,-8734.430116,-1685.410096
431.997840,222.061783,-8068.244768,919.314598
431.998168,3701.029710,-7254.018232,2145.067394
431.998496,3775.050304,-8512.368333,2451.505594
431.998823,1776.494261,-9844.739029,1302.362347
431.999151,-1924.535449,-11399.171507,-612.876398
431.999479,-2960.823768,-11843.295072,-1838.629195
431.999807,-2886.803174,-11325.150913,-1378.971896
432.000134,296.082377,-10214.842000,536.266849
432.000462,4589.276840,-9104.533087,2528.115143
432.000790,5477.523971,-8808.450710,4136.915689
432.001118,3701.029710,-9548.656652,3830.477490
432.001445,1258.350101,-11399.171507,2451.505594
432.001773,-2442.679609,-11029.068536,-306.438199
432.002101,-4367.215058,-11399.171507,-995.924147
432.002429,-2294.638420,-10288.862594,-1378.971896
432.002756,1110.308913,-8512.368333,229.828649
432.003084,3849.070898,-7698.141797,2068.457845
432.003412,4737.318029,-7994.224174,2834.553343
432.003739,1924.535449,-8956.491898,2145.067394
432.004067,-1332.370696,-9992.780217,0.000000
432.004395,-4367.215058,-10584.944971,-1455.581446
432.004723,-4515.256246,-10955.047942,-2221.676944
432.005050,-2664.741391,-9104.533087,-1378.971896
432.005378,740.205942,-7994.224174,919.314598
432.005706,2516.700203,-7772.162391,2451.505594
432.006034,2220.617826,-8512.368333,3217.601092
432.006361,-296.082377,-9844.739029,1838.629195
432.006689,-4293.194464,-10362.883188,-229.828649
432.007017,-6143.709319,-10732.986159,-1991.848295
432.007345,-5181.441594,-9770.718434,-1915.238745
432.007672,-2146.597232,-7994.224174,-1455.581446
432.008000,2368.659014,-6439.791695,919.314598
432.008328,4219.173869,-6587.832884,2145.067394
432.008656,2738.761985,-7624.121203,2145.067394
432.008983,-296.082377,-9252.574275,842.705048
432.009311,-3034.844362,-10140.821405,-1149.143247
432.009639,-3923.091493,-9770.718434,-1762.019645
432.009966,-2146.597232,-8512.368333,-1072.533697
432.010294,1850.514855,-7402.059420,612.876398
432.010622,5107.421000,-7031.956449,2681.334243
432.010950,4737.318029,-7624.121203,3753.867940
432.011277,2664.741391,-9030.512492,3217.601092
432.011605,-888.247130,-10510.924376,919.314598
432.011933,-3775.050304,-10881.027347,-995.924147
432.012261,-3627.009116,-10510.924376,-1532.190996
432.012588,-1258.350101,-8660.409521,-689.485948
432.012916,2368.659014,-7254.018232,1455.581446
432.013244,5181.441594,-6809.894666,2911.162892
432.013572,3997.112087,-7402.059420,2911.162892
432.013899,1110.308913,-8734.430116,995.924147
432.014227,-2146.597232,-9918.759623,-536.266849
432.014555,-4441.235652,-9918.759623,-2068.457845
432.014882,-3404.947333,-9104.533087,-1685.410096
432.015210,-1184.329507,-8068.244768,0.000000
432.015538,1998.556043,-7179.997637,1685.410096
432.015866,3034.844362,-7402.059420,2987.772442
432.016193,888.247130,-8364.327145,2757.943793
432.016521,-1924.535449,-9696.697840,689.485948
432.016849,-5477.523971,-10881.027347,-919.314598
432.017177,-6143.709319,-10510.924376,-1991.848295
432.017504,-4515.256246,-9400.615463,-2068.457845
432.017832,-296.082377,-8216.285956,0.000000
432.018160,2960.823768,-7254.018232,1762.019645
432.018488,3330.926739,-7698.141797,2374.896044
432.018815,518.144159,-9326.594869,842.705048
432.019143,-2442.679609,-10807.006753,-612.876398
432.019471,-4515.256246,-11251.130318,-2298.286494
432.019798,-3849.070898,-10214.842000,-2298.286494
432.020126,-370.102971,-9178.553681,-306.438199
432.020454,3849.070898,-8660.409521,1302.362347
432.020782,5329.482782,-8512.368333,3217.601092
432.021109,4293.194464,-9252.574275,3524.039291
432.021437,1406.391290,-10658.965565,1915.238745
432.021765,-2516.700203,-11843.295072,76.609550
432.022093,-3923.091493,-11695.253884,-1225.752797
432.022420,-3108.864956,-10732.986159,-1608.800546
432.022748,888.247130,-8882.471304,306.438199
432.023076,4589.276840,-7772.162391,2145.067394
432.023404,5329.482782,-7846.182985,3064.381992
432.023731,3330.926739,-8956.491898,2681.334243
432.024059,0.000000,-10214.842000,459.657299
432.024387,-3034.844362,-10658.965565,-995.924147
432.024715,-3923.091493,-10436.903782,-1378.971896
432.025042,-1924.535449,-9474.636058,-842.705048
432.025370,1110.308913,-8068.244768,1378.971896
432.025698,3182.885551,-7698.141797,3370.820191
432.026025,2146.597232,-8216.285956,3524.039291
432.026353,-370.102971,-9622.677246,2145.067394
432.026681,-4071.132681,-10362.883188,766.095498
432.027009,-5625.565159,-10881.027347,-536.266849
432.027336,-5699.585753,-10288.862594,-1072.533697
432.027664,-2960.823768,-8364.327145,-383.047749
432.027992,962.267725,-7254.018232,1608.800546
432.028320,2738.761985,-6883.915261,2681.334243
432.028647,1110.308913,-7476.080014,2451.505594
432.028975,-1480.411884,-8438.347739,766.095498
432.029303,-4293.194464,-9622.677246,-1378.971896
432.029631,-4811.338623,-9548.656652,-2298.286494
432.029958,-2886.803174,-8512.368333,-1302.362347
432.030286,1406.391290,-7031.956449,383.047749
432.030614,4737.318029,-6439.791695,2528.115143
432.030941,4367.215058,-7550.100608,3677.258390
432.031269,1998.556043,-9178.553681,2911.162892
432.031597,-1924.535449,-9992.780217,689.485948
432.031925,-3997.112087,-10288.862594,-1225.752797
432.032252,-3627.009116,-10510.924376,-1302.362347
432.032580,-1036.288319,-9252.574275,-766.095498
432.032908,2664.741391,-7846.182985,1225.752797
432.033236,5329.482782,-7105.977043,2604.724693
432.033563,4219.173869,-7328.038826,3140.991542
432.033891,1776.494261,-8660.409521,1149.143247
432.034219,-2220.617826,-9992.780217,-766.095498
432.034547,-3701.029710,-10732.986159,-2068.457845
432.034874,-3404.947333,-9770.718434,-2068.457845
432.035202,-296.082377,-8660.409521,0.000000
432.035530,2368.659014,-7179.997637,1838.629195
432.035857,3478.967927,-7920.203579,3217.601092
432.036185,1850.514855,-8882.471304,2298.286494
432.036513,-1258.350101,-10066.800811,842.705048
432.036841,-4589.276840,-10510.924376,-1455.581446
432.037168,-5551.544565,-10584.944971,-1991.848295
432.037496,-3997.112087,-9252.574275,-1991.848295
432.037824,-296.082377,-7846.182985,0.000000
432.038152,2886.803174,-7105.977043,1608.800546
432.038479,3108.864956,-7476.080014,2298.286494
432.038807,1776.494261,-8586.388927,995.924147
432.039135,-1850.514855,-10140.821405,383.047749
432.039463,-4367.215058,-11029.068536,-1915.238745
432.039790,-4219.173869,-10658.965565,-2145.067394
432.040118,-1184.329507,-9622.677246,-459.657299
432.040446,2738.761985,-8660.409521,1685.410096
432.040774,4515.256246,-8216.285956,3600.648841
432.041101,3034.844362,-9104.533087,3217.601092
432.041429,0.000000,-10436.903782,1455.581446
432.041757,-3256.906145,-11621.233289,-459.657299
432.042084,-4515.256246,-11177.109724,-1915.238745
432.042412,-3478.967927,-9474.636058,-1915.238745
432.042740,592.164754,-8068.244768,-229.828649
432.043068,3923.091493,-7476.080014,1685.410096
432.043395,4737.318029,-7476.080014,2757.943793
432.043723,3182.885551,-8216.285956,2145.067394
432.044051,518.144159,-9770.718434,919.314598
432.044379,-3256.906145,-10807.006753,-1072.533697
432.044706,-4145.153275,-11029.068536,-1991.848295
432.045034,-2220.617826,-9770.718434,-1072.533697
432.045362,1924.535449,-8512.368333,1149.143247
432.045690,4737.318029,-7920.203579,3600.648841
432.046017,4071.132681,-7994.224174,3600.648841
432.046345,1406.391290,-9474.636058,2221.676944
432.046673,-2368.659014,-10955.047942,306.438199
432.047000,-4441.235652,-11325.150913,-1225.752797
432.047328,-4515.256246,-10584.944971,-1991.848295
432.047656,-1406.391290,-8808.450710,-306.438199
432.047984,2368.659014,-7772.162391,1149.143247
432.048311,3923.091493,-7328.038826,2681.334243
432.048639,2812.782580,-7994.224174,2221.676944
432.048967,-222.061783,-9622.677246,689.485948
432.049295,-3923.091493,-10436.903782,-842.705048
432.049622,-4885.359217,-10955.047942,-1915.238745
432.049950,-3627.009116,-9918.759623,-1225.752797
432.050278,-148.041188,-8142.265362,689.485948
432.050606,3627.009116,-7772.162391,2987.772442
432.050933,3478.967927,-7920.203579,2681.334243
432.051261,1184.329507,-8068.244768,2834.553343
432.051589,-2146.597232,-9622.677246,766.095498
432.051916,-4737.318029,-10140.821405,-1072.533697
432.052244,-5033.400406,-10436.903782,-1685.410096
432.052572,-2664.741391,-8734.430116,-995.924147
432.052900,1332.370696,-7328.038826,1455.581446
432.053227,3775.050304,-6735.874072,2451.505594
432.053555,3552.988522,-7698.141797,2681.334243
432.053883,1184.329507,-8882.471304,1149.143247
432.054211,-2442.679609,-9770.718434,-766.095498
432.054538,-4219.173869,-10807.006753,-1455.581446
432.054866,-3849.070898,-10066.800811,-1838.629195
432.055194,-1184.329507,-8734.430116,0.000000
432.055522,2738.761985,-7994.224174,2068.457845
432.055849,4071.132681,-7550.100608,3217.601092
432.056177,2812.782580,-8364.327145,3140.991542
432.056505,-370.102971,-9104.533087,1455.581446
432.056833,-3552.988522,-9992.780217,-919.314598
432.057160,-4737.318029,-10436.903782,-1608.800546
432.057488,-3404.947333,-9178.553681,-1455.581446
432.057816,370.102971,-7179.997637,-229.828649
432.058143,4145.153275,-6513.812290,2145.067394
432.058471,4293.194464,-6883.915261,2451.505594
432.058799,2072.576638,-8142.265362,1762.019645
432.059127,-962.267725,-9474.636058,0.000000
432.059454,-3256.906145,-10214.842000,-2068.457845
432.059782,-3330.926739,-10362.883188,-1608.800546
432.060110,-1480.411884,-9178.553681,-995.924147
432.060438,2220.617826,-8438.347739,1149.143247
432.060765,4219.173869,-8216.285956,2757.943793
432.061093,2886.803174,-9030.512492,2681.334243
432.061421,-592.164754,-9918.759623,1685.410096
432.061749,-3627.009116,-11621.233289,-459.657299
432.062076,-5255.462188,-11547.212695,-2068.457845
432.062404,-4219.173869,-10584.944971,-2068.457845
432.062732,-1036.288319,-8660.409521,-919.314598
432.063059,2812.782580,-7179.997637,1302.362347
432.063387,4441.235652,-7698.141797,2068.457845
432.063715,2590.720797,-7994.224174,1838.629195
432.064043,-370.102971,-9474.636058,306.438199
432.064370,-2960.823768,-10436.903782,-995.924147
432.064698,-4145.153275,-10807.006753,-1455.581446
432.065026,-1998.556043,-9400.615463,-306.438199
432.065354,1332.370696,-8142.265362,1149.143247
432.065681,4441.235652,-8068.244768,3524.039291
432.066009,4071.132681,-8586.388927,4366.744339
432.066337,1480.411884,-9844.739029,3370.820191
432.066665,-1480.411884,-11177.109724,995.924147
432.066992,-3552.988522,-11473.192101,-612.876398
432.067320,-4071.132681,-11029.068536,-919.314598
432.067648,-1554.432478,-9400.615463,76.609550
432.067975,2294.638420,-8290.306550,1685.410096
432.068303,3923.091493,-7994.224174,3447.429741
432.068631,2664.741391,-8438.347739,2681.334243
432.068959,0.000000,-9252.574275,1455.581446
432.069286,-2664.741391,-10288.862594,0.000000
432.069614,-4071.132681,-10362.883188,-1072.533697
432.069942,-3108.864956,-9770.718434,76.609550
432.070270,-74.020594,-7846.182985,919.314598
432.070597,2664.741391,-7772.162391,3447.429741
432.070925,2516.700203,-7698.141797,3600.648841
432.071253,74.020594,-8808.450710,2374.896044
432.071581,-3330.926739,-9770.718434,689.485948
432.071908,-5625.565159,-10214.842000,-1149.143247
432.072236,-6217.729913,-9770.718434,-2145.067394
432.072564,-3627.009116,-8142.265362,-1838.629195
432.072891,518.144159,-6809.894666,383.047749
432.073219,3330.926739,-6439.791695,1685.410096
432.073547,3108.864956,-6587.832884,1225.752797
432.073875,666.185348,-7698.141797,536.266849
432.074202,-2368.659014,-9400.615463,-1072.533697
432.074530,-4293.194464,-10362.883188,-2451.505594
432.074858,-3997.112087,-10140.821405,-2374.896044
432.075186,-370.102971,-8734.430116,-536.266849
432.075513,3256.906145,-7698.141797,1762.019645
432.075841,4885.359217,-7846.182985,3064.381992
432.076169,3627.009116,-8734.430116,2451.505594
432.076496,962.267725,-9918.759623,1302.362347
432.076824,-2294.638420,-10658.965565,-153.219100
432.077152,-3775.050304,-10584.944971,-1991.848295
432.077480,-2442.679609,-9474.636058,-2068.457845
432.077807,1184.329507,-8290.306550,-383.047749
432.078135,4515.256246,-7105.977043,1455.581446
432.078463,5329.482782,-7031.956449,2451.505594
432.078791,3478.967927,-7772.162391,1532.190996
432.079118,0.000000,-9548.656652,0.000000
432.079446,-2664.741391,-10510.924376,-1378.971896
432.079774,-3701.029710,-10510.924376,-1838.629195
432.080102,-1480.411884,-9178.553681,-536.266849
432.080429,2072.576638,-8216.285956,1532.190996
432.080757,3701.029710,-7920.203579,3370.820191
432.081085,2368.659014,-8808.450710,2911.162892
432.081412,-592.164754,-9918.759623,1915.238745
432.081740,-4441.235652,-10881.027347,-383.047749
432.082068,-5995.668130,-11251.130318,-2068.457845
432.082396,-5551.544565,-9918.759623,-2145.067394
432.082723,-2072.576638,-8438.347739,-1149.143247
432.083051,1998.556043,-7254.018232,766.095498
432.083379,3552.988522,-7105.977043,2221.676944
432.083707,2442.679609,-7550.100608,2374.896044
432.084034,-296.082377,-9474.636058,1072.533697
432.084362,-3627.009116,-11251.130318,-919.314598
432.084690,-4811.338623,-11029.068536,-1608.800546
432.085018,-3108.864956,-10288.862594,-842.705048
432.085345,962.267725,-8956.491898,1149.143247
432.085673,3701.029710,-8586.388927,3294.210641
432.086001,4293.194464,-8956.491898,4136.915689
432.086328,2368.659014,-9992.780217,3064.381992
432.086656,-1332.370696,-10881.027347,1225.752797
432.086984,-3701.029710,-11547.212695,-229.828649
432.087312,-3478.967927,-10658.965565,-1072.533697
432.087639,-1332.370696,-9474.636058,-383.047749
432.087967,2886.803174,-8438.347739,1762.019645
432.088295,4737.318029,-7920.203579,3064.381992
432.088623,3775.050304,-8364.327145,2987.772442
432.088950,962.267725,-9548.656652,1608.800546
432.089278,-2220.617826,-10732.986159,689.485948
432.089606,-3923.091493,-10658.965565,-1072.533697
432.089933,-2886.803174,-9844.739029,-689.485948
432.090261,0.000000,-8734.430116,1225.752797
432.090589,2442.679609,-8586.388927,3677.258390
432.090917,2812.782580,-7994.224174,4060.306139
432.091244,444.123565,-8882.471304,2834.553343
432.091572,-2960.823768,-9770.718434,1225.752797
432.091900,-5773.606348,-10288.862594,-919.314598
432.092228,-6439.791695,-10066.800811,-2145.067394
432.092555,-4293.194464,-8142.265362,-1225.752797
432.092883,-148.041188,-7031.956449,0.000000
432.093211,2590.720797,-6291.750507,1149.143247
432.093539,2516.700203,-6735.874072,1378.971896
432.093866,370.102971,-7994.224174,383.047749
432.094194,-3034.844362,-9400.615463,-1302.362347
432.094522,-5033.400406,-9992.780217,-3064.381992
432.094849,-4589.276840,-9844.739029,-2834.553343
432.095177,-1332.370696,-8734.430116,-1378.971896
432.095505,3108.864956,-7550.100608,842.705048
432.095833,5403.503377,-7105.977043,2757.943793
432.096160,4663.297435,-8364.327145,2987.772442
432.096488,1628.453072,-9400.615463,1225.752797
432.096816,-1628.453072,-10362.883188,-842.705048
432.097144,-2812.782580,-10436.903782,-2221.676944
432.097471,-1998.556043,-9474.636058,-2068.457845
432.097799,2368.659014,-7476.080014,-383.047749
432.098127,5995.668130,-6883.915261,1762.019645
432.098455,6513.812290,-7031.956449,2987.772442
432.098782,4737.318029,-8142.265362,2221.676944
432.099110,1036.288319,-9548.656652,306.438199
432.099438,-1702.473667,-10807.006753,-1072.533697
432.099765,-2590.720797,-10362.883188,-1762.019645
432.100093,-888.247130,-9400.615463,-689.485948
432.100421,2146.597232,-8068.244768,1532.190996
432.100749,4145.153275,-8142.265362,3370.820191
432.101076,2516.700203,-8068.244768,3600.648841
432.101404,-444.123565,-9400.615463,1991.848295
432.101732,-4441.235652,-10362.883188,153.219100
432.102060,-6661.853478,-10807.006753,-1378.971896
432.102387,-6365.771101,-9844.739029,-1532.190996
432.102715,-3775.050304,-8216.285956,-306.438199
432.103043,222.061783,-7105.977043,1532.190996
432.103370,1776.494261,-6957.935855,2757.943793
432.103698,370.102971,-7698.141797,2068.457845
432.104026,-2220.617826,-9104.533087,612.876398
432.104354,-5329.482782,-10214.842000,-1072.533697
432.104681,-6291.750507,-10732.986159,-2068.457845
432.105009,-4737.318029,-9622.677246,-1378.971896
432.105337,-666.185348,-8512.368333,612.876398
432.105665,3256.906145,-7994.224174,2604.724693
432.105992,3849.070898,-8216.285956,3524.039291
432.106320,2664.741391,-9326.594869,3753.867940
432.106648,-962.267725,-10584.944971,1225.752797
432.106976,-3108.864956,-11399.171507,-689.485948
432.107303,-3627.009116,-11251.130318,-1532.190996
432.107631,-1406.391290,-9770.718434,-766.095498
432.107959,2886.803174,-8586.388927,1072.533697
432.108286,5625.565159,-7550.100608,2757.943793
432.108614,4441.235652,-7920.203579,2757.943793
432.108942,3330.926739,-9696.697840,2068.457845
432.109270,74.020594,-10732.986159,0.000000
432.109597,-3404.947333,-10584.944971,-2068.457845
432.109925,-2146.597232,-10658.965565,-689.485948
432.110253,370.102971,-9030.512492,76.609550
432.110581,2886.803174,-8290.306550,2451.505594
432.110908,4219.173869,-8438.347739,3524.039291
432.111236,2294.638420,-8882.471304,3370.820191
432.111564,-2664.741391,-8882.471304,383.047749
432.111892,-4737.318029,-11843.295072,-919.314598
432.112219,-5773.606348,-10658.965565,-2604.724693
432.112547,-4441.235652,-9918.759623,-1991.848295
432.112875,-1332.370696,-7624.121203,-842.705048
432.113202,2146.597232,-6883.915261,459.657299
432.113530,1998.556043,-7328.038826,1302.362347
432.113858,592.164754,-8808.450710,919.314598
432.114186,-4219.173869,-10140.821405,-1685.410096
432.114513,-4219.173869,-10955.047942,-1685.410096
432.114841,-5255.462188,-9548.656652,-3294.210641
432.115169,-2146.597232,-9918.759623,-1302.362347
432.115497,2294.638420,-8586.388927,229.828649
432.115824,4737.318029,-8438.347739,2451.505594
432.116152,3627.009116,-7772.162391,2681.334243
432.116480,2072.576638,-9844.739029,2221.676944
432.116807,-1406.391290,-10436.903782,0.000000
432.117135,-3330.926739,-11029.068536,-1608.800546
432.117463,-1702.473667,-10140.821405,-1225.752797
432.117791,962.267725,-7772.162391,-229.828649
432.118118,4737.318029,-8068.244768,2221.676944
432.118446,5107.421000,-7698.141797,2528.115143
432.118774,4145.153275,-8216.285956,2298.286494
432.119102,444.123565,-9844.739029,689.485948
432.119429,-1628.453072,-10732.986159,-766.095498
432.119757,-2590.720797,-10732.986159,-1149.143247
432.120085,-888.247130,-9548.656652,-306.438199
432.120413,2146.597232,-8438.347739,1915.238745
432.120740,3775.050304,-8290.306550,3600.648841
432.121068,2590.720797,-8660.409521,3677.258390
432.121396,-148.041188,-9622.677246,2451.505594
432.121723,-3404.947333,-10066.800811,612.876398
432.122051,-5255.462188,-9696.697840,-1072.533697
432.122379,-4885.359217,-9548.656652,-1072.533697
432.122707,-2812.782580,-7624.121203,0.000000
432.123034,1258.350101,-6661.853478,1991.848295
432.123362,2220.617826,-6735.874072,2681.334243
432.123690,0.000000,-7031.956449,2528.115143
432.124018,-2294.638420,-8956.491898,612.876398
432.124345,-4811.338623,-9918.759623,-995.924147
432.124673,-5921.647536,-10140.821405,-2068.457845
432.125001,-4145.153275,-9622.677246,-1072.533697
432.125328,-740.205942,-8290.306550,995.924147
432.125656,2590.720797,-8142.265362,2681.334243
432.125984,2960.823768,-8290.306550,2987.772442
432.126312,1258.350101,-9104.533087,2145.067394
432.126639,-1702.473667,-9696.697840,76.609550
432.126967,-3034.844362,-11103.089130,-1302.362347
432.127295,-3404.947333,-10732.986159,-1532.190996
432.127623,-1110.308913,-9030.512492,-1072.533697
432.127950,3256.906145,-7772.162391,919.314598
432.128278,5773.606348,-7402.059420,2451.505594
432.128606,5033.400406,-8142.265362,2681.334243
432.128934,2590.720797,-8586.388927,1455.581446
432.129261,0.000000,-10436.903782,0.000000
432.129589,-1776.494261,-10955.047942,-1072.533697
432.129917,-1258.350101,-10436.903782,-995.924147
432.130244,1480.411884,-9474.636058,536.266849
432.130572,4663.297435,-8290.306550,2451.505594
432.130900,4811.338623,-8216.285956,3524.039291
432.131228,2368.659014,-8956.491898,3217.601092
432.131555,-740.205942,-9918.759623,1455.581446
432.131883,-3701.029710,-10510.924376,-689.485948
432.132211,-4811.338623,-10140.821405,-1991.848295
432.132539,-3849.070898,-9030.512492,-1225.752797
432.132866,-962.267725,-7698.141797,153.219100
432.133194,1480.411884,-7105.977043,1608.800546
432.133522,1628.453072,-7105.977043,2221.676944
432.133850,-814.226536,-8290.306550,1455.581446
432.134177,-3849.070898,-9622.677246,-995.924147
432.134505,-6439.791695,-10436.903782,-2757.943793
432.134833,-6143.709319,-10214.842000,-2528.115143
432.135160,-3701.029710,-8586.388927,-1608.800546
432.135488,666.185348,-7698.141797,689.485948
432.135816,2664.741391,-7105.977043,2451.505594
432.136144,2368.659014,-8068.244768,2298.286494
432.136471,370.102971,-9474.636058,1225.752797
432.136799,-2960.823768,-10584.944971,-689.485948
432.137127,-4441.235652,-10807.006753,-2374.896044
432.137455,-3256.906145,-9474.636058,-2298.286494
432.137782,370.102971,-8586.388927,-536.266849
432.138110,4515.256246,-7402.059420,1302.362347
432.138438,5995.668130,-7328.038826,2757.943793
432.138765,4885.359217,-8216.285956,2221.676944
432.139093,2368.659014,-9696.697840,1149.143247
432.139421,-1184.329507,-10732.986159,-1225.752797
432.139749,-2368.659014,-10658.965565,-1225.752797
432.140076,-222.061783,-9548.656652,-766.095498
432.140404,3034.844362,-8808.450710,1532.190996
432.140732,4737.318029,-8142.265362,3447.429741
432.141060,4737.318029,-8216.285956,3753.867940
432.141387,1850.514855,-9696.697840,3140.991542
432.141715,-1998.556043,-10584.944971,919.314598
432.142043,-4589.276840,-11029.068536,-842.705048
432.142371,-4737.318029,-10066.800811,-1302.362347
432.142698,-1998.556043,-8290.306550,-153.219100
432.143026,1406.391290,-7550.100608,1685.410096
432.143354,2368.659014,-7031.956449,2681.334243
432.143681,962.267725,-7254.018232,2374.896044
432.144009,-1850.514855,-8660.409521,766.095498
432.144337,-5403.503377,-9252.574275,-1225.752797
432.144665,-6587.832884,-10140.821405,-2068.457845
432.144992,-5551.544565,-9474.636058,-1991.848295
432.145320,-1628.453072,-8438.347739,153.219100
432.145648,1332.370696,-7624.121203,1991.848295
432.145976,1998.556043,-8068.244768,4366.744339
432.146303,1332.370696,-9548.656652,2451.505594
432.146631,-2664.741391,-10584.944971,536.266849
432.146959,-5107.421000,-11251.130318,-1149.143247
432.147287,-5107.421000,-11103.089130,-2145.067394
432.147614,-2442.679609,-9474.636058,-1225.752797
432.147942,2220.617826,-8364.327145,1149.143247
432.148270,5551.544565,-7624.121203,2604.724693
432.148597,5625.565159,-8216.285956,2834.553343
432.148925,3627.009116,-9400.615463,1915.238745
432.149253,74.020594,-10732.986159,76.609550
432.149581,-1702.473667,-10881.027347,-995.924147
432.149908,-1110.308913,-10658.965565,-689.485948
432.150236,962.267725,-9548.656652,612.876398
432.150564,4663.297435,-8364.327145,2528.115143
432.150892,5403.503377,-8734.430116,4136.915689
432.151219,3552.988522,-9400.615463,3677.258390
432.151547,666.185348,-10140.821405,2451.505594
432.151875,-2812.782580,-10807.006753,383.047749
432.152202,-4219.173869,-11177.109724,-995.924147
432.152530,-3330.926739,-9770.718434,-689.485948
432.152858,-814.226536,-8142.265362,995.924147
432.153186,1776.494261,-7402.059420,1991.848295
432.153513,1998.556043,-7402.059420,2604.724693
432.153841,-296.082377,-7920.203579,1225.752797
432.154169,-3478.967927,-9030.512492,-459.657299
432.154497,-5921.647536,-9770.718434,-1838.629195
432.154824,-6069.688724,-9548.656652,-2221.676944
432.155152,-4441.235652,-8142.265362,-1532.190996
432.155480,-296.082377,-7105.977043,536.266849
432.155808,1628.453072,-7105.977043,2145.067394
432.156135,1628.453072,-7624.121203,2451.505594
432.156463,-296.082377,-8734.430116,1225.752797
432.156791,-3701.029710,-9622.677246,-689.485948
432.157118,-5329.482782,-10436.903782,-2221.676944
432.157446,-4145.153275,-9622.677246,-2451.505594
432.157774,-296.082377,-8290.306550,-995.924147
432.158102,3997.112087,-7105.977043,1149.143247
432.158429,5847.626942,-6883.915261,2604.724693
432.158757,4663.297435,-7994.224174,2374.896044
432.159085,1850.514855,-9548.656652,689.485948
432.159413,-1184.329507,-10436.903782,-1149.143247
432.159740,-1850.514855,-10214.842000,-1685.410096
432.160068,0.000000,-9696.697840,-919.314598
432.160396,3552.988522,-8438.347739,995.924147
432.160724,5847.626942,-8290.306550,3294.210641
432.161051,5181.441594,-8142.265362,4060.306139
432.161379,2960.823768,-9770.718434,2987.772442
432.161707,-666.185348,-10584.944971,1685.410096
432.162034,-3478.967927,-10807.006753,-995.924147
432.162362,-3849.070898,-9992.780217,-1608.800546
432.162690,-2368.659014,-8364.327145,-766.095498
432.163018,1184.329507,-7254.018232,995.924147
432.163345,3256.906145,-6439.791695,2604.724693
432.163673,1702.473667,-7179.997637,2068.457845
432.164001,-962.267725,-8364.327145,459.657299
432.164329,-4737.318029,-9548.656652,-1149.143247
432.164656,-6439.791695,-10066.800811,-2528.115143
432.164984,-5551.544565,-9030.512492,-1915.238745
432.165312,-2368.659014,-8290.306550,-689.485948
432.165639,1036.288319,-7846.182985,1685.410096
432.165967,1924.535449,-7994.224174,2528.115143
432.166295,518.144159,-9252.574275,2068.457845
432.166623,-2368.659014,-10510.924376,306.438199
432.166950,-4737.318029,-11399.171507,-1225.752797
432.167278,-5329.482782,-11473.192101,-2374.896044
432.167606,-2812.782580,-9992.780217,-1762.019645
432.167934,1406.391290,-8364.327145,153.219100
432.168261,4515.256246,-7846.182985,2298.286494
432.168589,5181.441594,-8290.306550,2757.943793
432.168917,2960.823768,-9696.697840,1685.410096
432.169245,-296.082377,-10955.047942,76.609550
432.169572,-2294.638420,-11695.253884,-1685.410096
432.169900,-1554.432478,-11029.068536,-1149.143247
432.170227,1406.391290,-9548.656652,306.438199
432.170555,4293.194464,-8882.471304,2604.724693
432.170883,6069.688724,-8660.409521,3983.696590
432.171210,4145.153275,-8586.388927,3830.477490
432.171538,666.185348,-10140.821405,2221.676944
432.171865,-2146.597232,-10584.944971,0.000000
432.172193,-3849.070898,-10881.027347,-995.924147
432.172521,-3034.844362,-9696.697840,-842.705048
432.172848,0.000000,-8142.265362,766.095498
432.173176,2738.761985,-7254.018232,2451.505594
432.173504,3330.926739,-7179.997637,2987.772442
432.173831,814.226536,-7920.203579,2298.286494
432.174159,-2368.659014,-9474.636058,306.438199
432.174486,-5181.441594,-10214.842000,-842.705048
432.174814,-6217.729913,-10288.862594,-1302.362347
432.175142,-4367.215058,-9252.574275,-536.266849
432.175469,-962.267725,-8438.347739,995.924147
432.175797,962.267725,-7846.182985,2604.724693
432.176125,444.123565,-8216.285956,2757.943793
432.176452,-1480.411884,-9474.636058,1532.190996
432.176780,-4885.359217,-9918.759623,-536.266849
432.177107,-5995.668130,-10362.883188,-1838.629195
432.177435,-5033.400406,-9178.553681,-2451.505594
432.177763,-1554.432478,-7402.059420,-1225.752797
432.178090,2738.761985,-6735.874072,842.705048
432.178418,4663.297435,-6439.791695,2221.676944
432.178745,4071.132681,-7698.141797,1455.581446
432.179073,1554.432478,-8660.409521,842.705048
432.179401,-740.205942,-10066.800811,-383.047749
432.179728,-1628.453072,-10288.862594,-1302.362347
432.180056,74.020594,-9622.677246,-612.876398
432.180384,3330.926739,-8734.430116,1378.971896
432.180711,5181.441594,-8290.306550,3600.648841
432.181039,5847.626942,-8438.347739,3983.696590
432.181366,3330.926739,-9474.636058,2834.553343
432.181694,0.000000,-10288.862594,1072.533697
432.182022,-2294.638420,-11029.068536,-612.876398
432.182349,-3330.926739,-9992.780217,-1149.143247
432.182677,-1406.391290,-9030.512492,-766.095498
432.183005,1332.370696,-7254.018232,689.485948
432.183332,2664.741391,-7105.977043,1991.848295
432.183660,1998.556043,-7624.121203,2068.457845
432.183987,-666.185348,-8734.430116,842.705048
432.184315,-4071.132681,-9622.677246,-1072.533697
432.184643,-6365.771101,-10066.800811,-2374.896044
432.184970,-6069.688724,-9548.656652,-2451.505594
432.185298,-3330.926739,-8438.347739,-919.314598
432.185625,0.000000,-7402.059420,995.924147
432.185953,1258.350101,-7846.182985,2298.286494
432.186281,-148.041188,-8438.347739,1608.800546
432.186608,-2590.720797,-9696.697840,0.000000
432.186936,-5107.421000,-10362.883188,-1915.238745
432.187264,-5699.585753,-10066.800811,-2145.067394
432.187591,-3478.967927,-9474.636058,-2145.067394
432.187919,814.226536,-8364.327145,-459.657299
432.188246,4071.132681,-7698.141797,1455.581446
432.188574,4885.359217,-8438.347739,2068.457845
432.188902,3404.947333,-9400.615463,1225.752797
432.189229,296.082377,-10510.924376,-306.438199
432.189557,-1480.411884,-11473.192101,-1685.410096
432.189885,-1184.329507,-11473.192101,-1532.190996
432.190212,1628.453072,-9992.780217,153.219100
432.190540,5551.544565,-9178.553681,2681.334243
432.190867,6587.832884,-8364.327145,4213.525239
432.191195,5773.606348,-9474.636058,4136.915689
432.191523,2738.761985,-10140.821405,2681.334243
432.191850,-1332.370696,-11103.089130,842.705048
432.192178,-3034.844362,-10955.047942,-383.047749
432.192505,-2442.679609,-10584.944971,-153.219100
432.192833,0.000000,-8882.471304,919.314598
432.193161,2368.659014,-8068.244768,2604.724693
432.193488,2368.659014,-7772.162391,3217.601092
432.193816,444.123565,-8512.368333,2298.286494
432.194144,-2664.741391,-8808.450710,459.657299
432.194471,-5329.482782,-9844.739029,-995.924147
432.194799,-6661.853478,-9992.780217,-1838.629195
432.195126,-4589.276840,-9178.553681,-1072.533697
432.195454,-1406.391290,-7846.182985,919.314598
432.195782,592.164754,-7476.080014,2604.724693
432.196109,0.000000,-8734.430116,2757.943793
432.196437,-2220.617826,-9178.553681,1608.800546
432.196765,-4885.359217,-10362.883188,-306.438199
432.197092,-6217.729913,-10658.965565,-1838.629195
432.197420,-5329.482782,-9918.759623,-2068.457845
432.197747,-1776.494261,-8364.327145,-766.095498
432.198075,2516.700203,-7402.059420,995.924147
432.198403,4441.235652,-7105.977043,2298.286494
432.198730,3923.091493,-7920.203579,1991.848295
432.199058,1554.432478,-9474.636058,689.485948
432.199385,-1036.288319,-10140.821405,-459.657299
432.199713,-1628.453072,-10288.862594,-1532.190996
432.200041,148.041188,-9474.636058,-1072.533697
432.200368,3923.091493,-8216.285956,1072.533697
432.200696,6957.935855,-7994.224174,3677.258390
432.201024,6809.894666,-8438.347739,3753.867940
432.201351,3849.070898,-9326.594869,3753.867940
432.201679,592.164754,-10066.800811,995.924147
432.202006,-2442.679609,-11177.109724,-153.219100
432.202334,-3404.947333,-10436.903782,-1072.533697
432.202662,-1332.370696,-9178.553681,-536.266849
432.202989,1480.411884,-7772.162391,1838.629195
432.203317,3404.947333,-7031.956449,2528.115143
432.203645,2294.638420,-7402.059420,2757.943793
432.203972,-148.041188,-8290.306550,1225.752797
432.204300,-3404.947333,-9178.553681,-766.095498
432.204627,-5477.523971,-9326.594869,-2221.676944
432.204955,-5403.503377,-8586.388927,-1762.019645
432.205283,-2960.823768,-7698.141797,0.000000
432.205610,296.082377,-7031.956449,1762.019645
432.205938,888.247130,-7105.977043,2987.772442
432.206265,-370.102971,-8290.306550,1991.848295
432.206593,-3108.864956,-9326.594869,612.876398
432.206921,-6217.729913,-10140.821405,-1302.362347
432.207248,-6735.874072,-10288.862594,-2374.896044
432.207576,-4737.318029,-9326.594869,-1915.238745
432.207904,-592.164754,-7698.141797,-229.828649
432.208231,3256.906145,-6957.935855,1762.019645
432.208559,3775.050304,-7476.080014,1915.238745
432.208886,2516.700203,-8512.368333,1149.143247
432.209214,-370.102971,-9844.739029,-459.657299
432.209542,-2590.720797,-11103.089130,-2145.067394
432.209869,-2368.659014,-11103.089130,-2298.286494
432.210197,740.205942,-9622.677246,-1072.533697
432.210525,4737.318029,-8660.409521,1838.629195
432.210852,6883.915261,-8586.388927,3753.867940
432.211180,5329.482782,-9474.636058,3294.210641
432.211507,2072.576638,-10881.027347,1838.629195
432.211835,-962.267725,-10584.944971,153.219100
432.212163,-3108.864956,-11695.253884,-1378.971896
432.212490,-2442.679609,-10288.862594,-1838.629195
432.212818,1110.308913,-8956.491898,0.000000
432.213145,3997.112087,-8142.265362,2068.457845
432.213473,4515.256246,-7179.997637,3370.820191
432.213801,2812.782580,-8660.409521,2451.505594
432.214128,-592.164754,-9844.739029,536.266849
432.214456,-3330.926739,-10658.965565,-1149.143247
432.214784,-4441.235652,-10584.944971,-1608.800546
432.215111,-3701.029710,-9622.677246,-612.876398
432.215439,-444.123565,-8660.409521,766.095498
432.215766,1184.329507,-8142.265362,2528.115143
432.216094,666.185348,-8734.430116,3064.381992
432.216422,-1776.494261,-9474.636058,1608.800546
432.216749,-4737.318029,-10214.842000,-306.438199
432.217077,-7031.956449,-10584.944971,-2068.457845
432.217405,-6513.812290,-9992.780217,-2451.505594
432.217732,-3552.988522,-8068.244768,-1225.752797
432.218060,1332.370696,-7105.977043,689.485948
432.218387,3478.967927,-6439.791695,2221.676944
432.218715,3256.906145,-7476.080014,1991.848295
432.219043,740.205942,-8734.430116,612.876398
432.219370,-2442.679609,-10140.821405,-612.876398
432.219698,-2960.823768,-10362.883188,-1149.143247
432.220025,-1702.473667,-9326.594869,-612.876398
432.220353,2590.720797,-8142.265362,2068.457845
432.220681,5625.565159,-8142.265362,3907.087040
432.221008,5329.482782,-8364.327145,4519.963438
432.221336,3256.906145,-9252.574275,3753.867940
432.221664,148.041188,-10214.842000,1685.410096
432.221991,-3034.844362,-10436.903782,689.485948
432.222319,-2590.720797,-10658.965565,-1225.752797
432.222646,-1184.329507,-9030.512492,-153.219100
432.222974,1628.453072,-7550.100608,1302.362347
432.223302,3849.070898,-7254.018232,2987.772442
432.223629,3108.864956,-7476.080014,3064.381992
432.223957,592.164754,-8586.388927,1225.752797
432.224284,-2368.659014,-9770.718434,0.000000
432.224612,-4663.297435,-10214.842000,-1378.971896
432.224940,-4737.318029,-9548.656652,-1302.362347
432.225267,-2516.700203,-8216.285956,0.000000
432.225595,222.061783,-7105.977043,1991.848295
432.225923,1258.350101,-7105.977043,2834.553343
432.226250,0.000000,-7920.203579,2451.505594
432.226578,-2442.679609,-9178.553681,459.657299
432.226905,-5477.523971,-9622.677246,-1225.752797
432.227233,-6069.688724,-10140.821405,-2068.457845
432.227561,-4441.235652,-9030.512492,-2068.457845
432.227888,-444.123565,-7846.182985,-612.876398
432.228216,3034.844362,-7402.059420,1149.143247
432.228544,3627.009116,-7994.224174,1608.800546
432.228871,2368.659014,-8734.430116,612.876398
432.229199,-518.144159,-10658.965565,-306.438199
432.229526,-2590.720797,-11695.253884,-2068.457845
432.229854,-2886.803174,-11473.192101,-1991.848295
432.230182,222.061783,-10066.800811,-689.485948
432.230509,4441.235652,-9252.574275,1915.238745
432.230837,6291.750507,-8734.430116,3447.429741
432.231164,5181.441594,-9474.636058,3524.039291
432.231492,2738.761985,-10362.883188,2221.676944
432.231820,-1332.370696,-11177.109724,229.828649
432.232147,-2516.700203,-10881.027347,-1608.800546
432.232475,-2368.659014,-10584.944971,-1225.752797
432.232803,222.061783,-9104.533087,-153.219100
432.233130,3997.112087,-7920.203579,1838.629195
432.233458,4737.318029,-7550.100608,2987.772442
432.233785,3330.926739,-8364.327145,2374.896044
432.234113,0.000000,-9104.533087,1455.581446
432.234441,-3256.906145,-10362.883188,-612.876398
432.234768,-4959.379811,-10658.965565,-1608.800546
432.235096,-4145.153275,-9844.739029,-919.314598
432.235424,-1184.329507,-8586.388927,1072.533697
432.235751,740.205942,-7772.162391,3217.601092
432.236079,1110.308913,-8142.265362,3294.210641
432.236406,-1480.411884,-8956.491898,1915.238745
432.236734,-4663.297435,-9622.677246,229.828649
432.237062,-7031.956449,-10066.800811,-2145.067394
432.237389,-6809.894666,-9400.615463,-2221.676944
432.237717,-3330.926739,-8142.265362,-1455.581446
432.238044,370.102971,-6735.874072,153.219100
432.238372,2812.782580,-6513.812290,1838.629195
432.238700,2516.700203,-7328.038826,1991.848295
432.239027,666.185348,-8956.491898,919.314598
432.239355,-2738.761985,-9770.718434,-1072.533697
432.239683,-3404.947333,-10140.821405,-2068.457845
432.240010,-1924.535449,-9548.656652,-1302.362347
432.240338,1850.514855,-8364.327145,689.485948
432.240665,5255.462188,-7920.203579,2681.334243
432.240993,5995.668130,-7698.141797,3830.477490
432.241321,3330.926739,-8956.491898,3064.381992
432.241648,740.205942,-10288.862594,1532.190996
432.241976,-2072.576638,-10584.944971,-842.705048
432.242304,-2960.823768,-10510.924376,-1378.971896
432.242631,-370.102971,-9030.512492,-536.266849
432.242959,2886.803174,-8068.244768,919.314598
432.243286,4885.359217,-7698.141797,2604.724693
432.243614,4589.276840,-8142.265362,2757.943793
432.243942,2072.576638,-9252.574275,1991.848295
432.244269,-1554.432478,-10066.800811,0.000000
432.244597,-3552.988522,-11103.089130,-919.314598
432.244924,-4441.235652,-10584.944971,-1608.800546
432.245252,-2072.576638,-9030.512492,-536.266849
432.245580,666.185348,-7772.162391,1685.410096
432.245907,1702.473667,-7402.059420,2374.896044
432.246235,518.144159,-7920.203579,2298.286494
432.246563,-2368.659014,-9030.512492,383.047749
432.246890,-5255.462188,-9844.739029,-1072.533697
432.247218,-6143.709319,-10066.800811,-2528.115143
432.247545,-4737.318029,-9326.594869,-2298.286494
432.247873,-888.247130,-7698.141797,-229.828649
432.248201,2368.659014,-7402.059420,1225.752797
432.248528,3182.885551,-7920.203579,2221.676944
432.248856,1998.556043,-9030.512492,1608.800546
432.249184,-814.226536,-10510.924376,0.000000
432.249511,-2664.741391,-11325.150913,-919.314598
432.249839,-2590.720797,-11473.192101,-1608.800546
432.250166,-592.164754,-9992.780217,-383.047749
432.250494,3182.885551,-8808.450710,1762.019645
432.250822,5033.400406,-8734.430116,3600.648841
432.251149,4293.194464,-8882.471304,3600.648841
432.251477,1924.535449,-10140.821405,2681.334243
432.251804,-1850.514855,-10436.903782,153.219100
432.252132,-4293.194464,-10807.006753,-1149.143247
432.252460,-3478.967927,-9474.636058,-1685.410096
432.252787,-592.164754,-8216.285956,-229.828649
432.253115,2442.679609,-7179.997637,1455.581446
432.253443,4145.153275,-7105.977043,2681.334243
432.253770,2812.782580,-7772.162391,2451.505594
432.254098,74.020594,-9104.533087,1149.143247
432.254425,-2664.741391,-9844.739029,-459.657299
432.254753,-4663.297435,-9622.677246,-1072.533697
432.255081,-3775.050304,-9104.533087,-766.095498
432.255408,-740.205942,-8216.285956,1225.752797
432.255736,1702.473667,-7624.121203,2681.334243
432.256064,2146.597232,-7846.182985,3753.867940
432.256391,0.000000,-8142.265362,2221.676944
432.256719,-2442.679609,-8956.491898,153.219100
432.257046,-4737.318029,-10066.800811,-1378.971896
432.257374,-5107.421000,-9548.656652,-1762.019645
432.257702,-2886.803174,-8512.368333,-612.876398
432.258029,1332.370696,-7550.100608,1225.752797
432.258357,3256.906145,-7105.977043,2145.067394
432.258684,2442.679609,-8290.306550,2528.115143
432.259012,370.102971,-9548.656652,1455.581446
432.259340,-2664.741391,-10288.862594,-229.828649
432.259667,-4515.256246,-10732.986159,-1302.362347
432.259995,-3182.885551,-8956.491898,-1455.581446
432.260323,148.041188,-8364.327145,306.438199
432.260650,3701.029710,-7476.080014,2451.505594
432.260978,4515.256246,-7772.162391,3294.210641
432.261305,2886.803174,-8142.265362,2374.896044
432.261633,-518.144159,-9622.677246,919.314598
432.261961,-3404.947333,-10066.800811,-1608.800546
432.262288,-4589.276840,-10140.821405,-2374.896044
432.262616,-2294.638420,-9030.512492,-1762.019645
432.262944,1776.494261,-7772.162391,-153.219100
432.263271,4367.215058,-6957.935855,2298.286494
432.263599,4663.297435,-7624.121203,2451.505594
432.263926,2738.761985,-8956.491898,1608.800546
432.264254,-666.185348,-10288.862594,0.000000
432.264582,-2960.823768,-11251.130318,-1685.410096
432.264909,-3701.029710,-10807.006753,-1608.800546
432.265237,-1998.556043,-9548.656652,-689.485948
432.265564,1554.432478,-8512.368333,1302.362347
432.265892,3034.844362,-8364.327145,2757.943793
432.266220,2294.638420,-8438.347739,2528.115143
432.266547,0.000000,-9326.594869,1072.533697
432.266875,-3478.967927,-9918.759623,-1685.410096
432.267203,-4959.379811,-10658.965565,-2374.896044
432.267530,-4441.235652,-9400.615463,-2298.286494
432.267858,-814.226536,-8142.265362,-995.924147
432.268185,2516.700203,-7624.121203,1149.143247
432.268513,3849.070898,-7920.203579,2221.676944
432.268841,2146.597232,-9178.553681,1915.238745
432.269168,-1036.288319,-10436.903782,76.609550
432.269496,-4145.153275,-10881.027347,-1455.581446
432.269824,-4441.235652,-11177.109724,-2068.457845
432.270151,-2368.659014,-9918.759623,-766.095498
432.270479,1480.411884,-8586.388927,919.314598
432.270806,4145.153275,-8068.244768,2451.505594
432.271134,3775.050304,-8734.430116,3140.991542
432.271461,1480.411884,-9548.656652,1838.629195
432.271789,-2072.576638,-10510.924376,0.000000
432.272116,-4219.173869,-11103.089130,-1762.019645
432.272444,-3923.091493,-10658.965565,-2374.896044
432.272771,-888.247130,-9104.533087,-612.876398
432.273099,2960.823768,-8438.347739,1302.362347
432.273426,4811.338623,-8142.265362,2911.162892
432.273753,4219.173869,-8586.388927,3370.820191
432.274081,1554.432478,-10066.800811,1685.410096
432.274408,-1924.535449,-11103.089130,0.000000
432.274736,-3627.009116,-11399.171507,-689.485948
432.275063,-2886.803174,-10436.903782,-383.047749
432.275391,0.000000,-9030.512492,689.485948
432.275718,2442.679609,-8142.265362,3217.601092
432.276046,3034.844362,-8290.306550,4060.306139
432.276373,1110.308913,-8808.450710,2911.162892
432.276701,-1702.473667,-9548.656652,1532.190996
432.277028,-3923.091493,-10362.883188,-153.219100
432.277356,-4589.276840,-9770.718434,-995.924147
432.277683,-2294.638420,-8734.430116,-229.828649
432.278010,1036.288319,-7624.121203,1762.019645
432.278338,2590.720797,-7402.059420,2681.334243
432.278665,2294.638420,-7920.203579,3140.991542
432.278993,-296.082377,-8660.409521,1762.019645
432.279320,-3404.947333,-9400.615463,-306.438199
432.279648,-4737.318029,-9770.718434,-1532.190996
432.279975,-3552.988522,-9252.574275,-766.095498
432.280303,-666.185348,-7920.203579,459.657299
432.280630,2294.638420,-7328.038826,2604.724693
432.280958,2664.741391,-7402.059420,3294.210641
432.281285,1332.370696,-8216.285956,2681.334243
432.281612,-1924.535449,-9474.636058,842.705048
432.281940,-4515.256246,-10214.842000,-1378.971896
432.282267,-4885.359217,-10436.903782,-2221.676944
432.282595,-1998.556043,-8586.388927,-1608.800546
432.282922,1332.370696,-7328.038826,153.219100
432.283250,4663.297435,-7105.977043,1915.238745
432.283577,4737.318029,-7105.977043,2451.505594
432.283905,3182.885551,-8586.388927,1532.190996
432.284232,-444.123565,-9474.636058,-306.438199
432.284560,-2812.782580,-10584.944971,-1762.019645
432.284887,-3330.926739,-10436.903782,-1915.238745
432.285214,-666.185348,-9178.553681,0.000000
432.285542,2368.659014,-7920.203579,1915.238745
432.285869,3923.091493,-7846.182985,2834.553343
432.286197,3034.844362,-8660.409521,2757.943793
432.286524,370.102971,-9474.636058,995.924147
432.286852,-2590.720797,-10362.883188,-842.705048
432.287179,-4071.132681,-10510.924376,-2374.896044
432.287507,-3034.844362,-9474.636058,-1991.848295
432.287834,-296.082377,-8142.265362,-536.266849
432.288162,2812.782580,-7402.059420,1072.533697
432.288489,3552.988522,-7550.100608,2145.067394
432.288817,1924.535449,-8290.306550,1532.190996
432.289144,-740.205942,-9548.656652,536.266849
432.289471,-3404.947333,-10732.986159,-1762.019645
432.289799,-4441.235652,-10436.903782,-1915.238745
432.290126,-2442.679609,-9622.677246,-842.705048
432.290454,1184.329507,-8808.450710,995.924147
432.290781,3256.906145,-8290.306550,2757.943793
432.291109,2442.679609,-8216.285956,3064.381992
432.291436,222.061783,-9696.697840,1762.019645
432.291764,-3034.844362,-10732.986159,-459.657299
432.292091,-4663.297435,-11103.089130,-2068.457845
432.292419,-4293.194464,-9992.780217,-1838.629195
432.292746,-962.267725,-8586.388927,-459.657299
432.293073,2812.782580,-7994.224174,1225.752797
432.293401,4589.276840,-7772.162391,2757.943793
432.293728,3404.947333,-8586.388927,2528.115143
432.294056,814.226536,-9992.780217,1225.752797
432.294383,-2146.597232,-11103.089130,-459.657299
432.294711,-3849.070898,-11325.150913,-1149.143247
432.295038,-3108.864956,-10214.842000,-536.266849
432.295366,296.082377,-8956.491898,1455.581446
432.295693,2960.823768,-8364.327145,3217.601092
432.296021,3552.988522,-7772.162391,3983.696590
432.296348,2220.617826,-8808.450710,2604.724693
432.296675,-1110.308913,-9474.636058,1149.143247
432.297003,-3330.926739,-10214.842000,-612.876398
432.297330,-4293.194464,-9622.677246,-1378.971896
432.297658,-2368.659014,-8586.388927,-766.095498
432.297985,740.205942,-6883.915261,1302.362347
432.298313,2886.803174,-7105.977043,2757.943793
432.298640,1998.556043,-7402.059420,2451.505594
432.298968,0.000000,-8438.347739,1608.800546
432.299295,-2960.823768,-9474.636058,-383.047749
432.299623,-4589.276840,-9844.739029,-995.924147
432.299950,-3923.091493,-9474.636058,-1225.752797
432.300278,-1184.329507,-8290.306550,153.219100
432.300605,2220.617826,-7550.100608,2374.896044
432.300932,2886.803174,-7476.080014,3524.039291
432.301260,1480.411884,-8586.388927,2374.896044
432.301587,-1480.411884,-9474.636058,689.485948
432.301915,-4293.194464,-9992.780217,-1149.143247
432.302242,-4885.359217,-10140.821405,-2145.067394
432.302570,-2664.741391,-8882.471304,-1685.410096
432.302897,740.205942,-8068.244768,0.000000
432.303225,4219.173869,-6735.874072,1915.238745
432.303552,4293.194464,-7476.080014,2451.505594
432.303880,2590.720797,-8586.388927,1762.019645
432.304207,-814.226536,-9992.780217,0.000000
432.304534,-3034.844362,-10362.883188,-1762.019645
432.304862,-3034.844362,-10510.924376,-1762.019645
432.305189,-1184.329507,-9622.677246,-536.266849
432.305517,2220.617826,-8512.368333,1455.581446
432.305844,4219.173869,-7920.203579,2911.162892
432.306172,3627.009116,-8438.347739,2757.943793
432.306499,1110.308913,-9548.656652,1762.019645
432.306827,-1998.556043,-10436.903782,-536.266849
432.307154,-3701.029710,-11103.089130,-1991.848295
432.307482,-3849.070898,-9918.759623,-1991.848295
432.307809,-666.185348,-8734.430116,-689.485948
432.308136,2442.679609,-7920.203579,1608.800546
432.308464,3256.906145,-7698.141797,2528.115143
432.308791,2146.597232,-8882.471304,2068.457845
432.309119,-592.164754,-9844.739029,459.657299
432.309446,-3552.988522,-10436.903782,-1072.533697
432.309774,-3923.091493,-9992.780217,-1532.190996
432.310101,-2146.597232,-9252.574275,-536.266849
432.310429,1258.350101,-8586.388927,1378.971896
432.310756,3256.906145,-8364.327145,3294.210641
432.311084,2812.782580,-8808.450710,3600.648841
432.311411,592.164754,-9474.636058,2757.943793
432.311739,-2220.617826,-10732.986159,459.657299
432.312066,-4589.276840,-11547.212695,-766.095498
432.312393,-4737.318029,-10955.047942,-1302.362347
432.312721,-2516.700203,-9104.533087,-383.047749
432.313048,1406.391290,-8068.244768,1378.971896
432.313376,3330.926739,-7402.059420,2298.286494
432.313703,2590.720797,-7920.203579,2298.286494
432.314031,0.000000,-9104.533087,536.266849
432.314358,-2960.823768,-10214.842000,-1072.533697
432.314686,-4811.338623,-10436.903782,-2221.676944
432.315013,-3701.029710,-9400.615463,-1838.629195
432.315341,-962.267725,-8068.244768,229.828649
432.315668,2368.659014,-7624.121203,1838.629195
432.315995,3775.050304,-7920.203579,2911.162892
432.316323,2294.638420,-8364.327145,2374.896044
432.316650,-370.102971,-9400.615463,459.657299
432.316978,-2886.803174,-10807.006753,-1532.190996
432.317305,-3775.050304,-10140.821405,-2221.676944
432.317633,-2368.659014,-8808.450710,-1455.581446
432.317960,1702.473667,-8068.244768,153.219100
432.318288,3478.967927,-7179.997637,1838.629195
432.318615,4145.153275,-7550.100608,1838.629195
432.318943,1998.556043,-9030.512492,1072.533697
432.319270,-962.267725,-10214.842000,-766.095498
432.319597,-2738.761985,-10732.986159,-1991.848295
432.319925,-2220.617826,-9622.677246,-1608.800546
432.320252,888.247130,-9252.574275,306.438199
432.320580,3552.988522,-8216.285956,2298.286494
432.320907,4293.194464,-8364.327145,3524.039291
432.321235,2220.617826,-8882.471304,2987.772442
432.321562,-962.267725,-9918.759623,1225.752797
432.321890,-3701.029710,-10732.986159,-306.438199
432.322217,-4737.318029,-10140.821405,-1608.800546
432.322545,-3478.967927,-9474.636058,-919.314598
432.322872,0.000000,-7846.182985,306.438199
432.323200,2738.761985,-7328.038826,2374.896044
432.323527,3256.906145,-7550.100608,2834.553343
432.323854,1184.329507,-7994.224174,1608.800546
432.324182,-2220.617826,-9474.636058,0.000000
432.324509,-4293.194464,-10362.883188,-1455.581446
432.324837,-4811.338623,-10140.821405,-1838.629195
432.325164,-2368.659014,-9030.512492,-536.266849
432.325492,1332.370696,-8512.368333,1685.410096
432.325819,3256.906145,-8216.285956,3217.601092
432.326147,2664.741391,-8808.450710,3600.648841
432.326474,518.144159,-9992.780217,2221.676944
432.326802,-2368.659014,-10510.924376,306.438199
432.327129,-3701.029710,-10658.965565,-612.876398
432.327456,-3182.885551,-10362.883188,-1072.533697
432.327784,-370.102971,-9252.574275,383.047749
432.328111,2664.741391,-8142.265362,2451.505594
432.328439,3923.091493,-7920.203579,2911.162892
432.328766,3034.844362,-8882.471304,2834.553343
432.329094,0.000000,-9844.739029,842.705048
432.329421,-2442.679609,-10732.986159,-612.876398
432.329749,-3034.844362,-10658.965565,-1225.752797
432.330076,-1332.370696,-9474.636058,-229.828649
432.330404,1850.514855,-8438.347739,1378.971896
432.330731,3552.988522,-7846.182985,3217.601092
432.331058,2664.741391,-8290.306550,3447.429741
432.331386,148.041188,-9400.615463,2068.457845
432.331713,-3108.864956,-10140.821405,153.219100
432.332041,-4885.359217,-10362.883188,-1302.362347
432.332368,-4293.194464,-9992.780217,-1762.019645
432.332696,-2072.576638,-8142.265362,-995.924147
432.333023,1480.411884,-7105.977043,766.095498
432.333351,3330.926739,-7031.956449,2145.067394
432.333678,2516.700203,-7402.059420,1838.629195
432.334006,-296.082377,-8438.347739,459.657299
432.334333,-3404.947333,-9548.656652,-1762.019645
432.334661,-4959.379811,-10658.965565,-2604.724693
432.334988,-3997.112087,-9844.739029,-2221.676944
432.335315,-592.164754,-8660.409521,-153.219100
432.335643,2664.741391,-7624.121203,1838.629195
432.335970,4219.173869,-7698.141797,2987.772442
432.336298,2812.782580,-8512.368333,2298.286494
432.336625,0.000000,-9548.656652,919.314598
432.336953,-3108.864956,-10140.821405,-1149.143247
432.337280,-3849.070898,-10140.821405,-1838.629195
432.337608,-2072.576638,-8808.450710,-1608.800546
432.337935,1776.494261,-7846.182985,536.266849
432.338263,4367.215058,-7254.018232,2451.505594
432.338590,4663.297435,-7550.100608,2451.505594
432.338917,2368.659014,-8216.285956,1455.581446
432.339245,-444.123565,-9474.636058,-229.828649
432.339572,-2812.782580,-9992.780217,-1532.190996
432.339900,-2220.617826,-9622.677246,-1225.752797
432.340227,0.000000,-8290.306550,306.438199
432.340555,2516.700203,-7994.224174,2374.896044
432.340882,3552.988522,-7846.182985,4060.306139
432.341210,1554.432478,-8660.409521,3294.210641
432.341537,-1924.535449,-9918.759623,1302.362347
432.341865,-4959.379811,-10732.986159,-766.095498
432.342192,-6365.771101,-10807.006753,-2145.067394
432.342519,-4737.318029,-9474.636058,-1455.581446
432.342847,-740.205942,-8364.327145,-76.609550
432.343174,2368.659014,-7031.956449,1991.848295
432.343502,2812.782580,-7031.956449,2451.505594
432.343829,1406.391290,-8512.368333,1685.410096
432.344157,-2442.679609,-9548.656652,-536.266849
432.344484,-4589.276840,-10214.842000,-2068.457845
432.344812,-5181.441594,-10436.903782,-2068.457845
432.345139,-3034.844362,-9400.615463,-1072.533697
432.345467,1258.350101,-8808.450710,1378.971896
432.345794,3701.029710,-8364.327145,2911.162892
432.346122,3997.112087,-8956.491898,3524.039291
432.346449,1332.370696,-9918.759623,2068.457845
432.346776,-2146.597232,-11103.089130,-306.438199
432.347104,-3775.050304,-11473.192101,-1838.629195
432.347431,-3034.844362,-10584.944971,-1915.238745
432.347759,0.000000,-8586.388927,-612.876398
432.348086,3552.988522,-8438.347739,1915.238745
432.348414,4885.359217,-8290.306550,2834.553343
432.348741,3849.070898,-8808.450710,2451.505594
432.349069,1258.350101,-10066.800811,1149.143247
432.349396,-1332.370696,-11029.068536,-229.828649
432.349724,-3182.885551,-11103.089130,-1225.752797
432.350051,-1036.288319,-10214.842000,0.000000
432.350378,1850.514855,-9178.553681,2068.457845
432.350706,3256.906145,-8142.265362,3830.477490
432.351033,3330.926739,-8364.327145,4366.744339
432.351361,1702.473667,-8882.471304,3140.991542
432.351688,-2516.700203,-9918.759623,1149.143247
432.352016,-4885.359217,-10436.903782,-612.876398
432.352343,-5181.441594,-9770.718434,-1455.581446
432.352671,-3034.844362,-8216.285956,-459.657299
432.352998,222.061783,-7105.977043,1608.800546
432.353326,1554.432478,-6735.874072,2374.896044
432.353653,1036.288319,-7105.977043,2298.286494
432.353980,-1554.432478,-8660.409521,689.485948
432.354308,-4959.379811,-9548.656652,-1455.581446
432.354635,-6439.791695,-10214.842000,-2604.724693
432.354963,-5403.503377,-9474.636058,-2451.505594
432.355290,-2072.576638,-8216.285956,-612.876398
432.355618,1850.514855,-7550.100608,1455.581446
432.355945,2886.803174,-7328.038826,2451.505594
432.356273,2442.679609,-8068.244768,1685.410096
432.356600,148.041188,-8290.306550,995.924147
432.356928,-2442.679609,-9844.739029,-1608.800546
432.357255,-3182.885551,-9992.780217,-2451.505594
432.357583,-1036.288319,-9030.512492,-1608.800546
432.357910,2886.803174,-7772.162391,689.485948
432.358237,5477.523971,-7105.977043,2528.115143
432.358565,6365.771101,-7772.162391,3140.991542
432.358892,4219.173869,-9178.553681,1991.848295
432.359220,296.082377,-10066.800811,0.000000
432.359547,-1702.473667,-10955.047942,-919.314598
432.359875,-1406.391290,-9844.739029,-1149.143247
432.360202,370.102971,-9326.594869,153.219100
432.360530,3256.906145,-8512.368333,2068.457845
432.360857,4367.215058,-8364.327145,3524.039291
432.361185,2442.679609,-8808.450710,3370.820191
432.361512,-518.144159,-9474.636058,1608.800546
432.361839,-3923.091493,-10510.924376,-842.705048
432.362167,-5551.544565,-10807.006753,-1838.629195
432.362494,-4885.359217,-9474.636058,-1915.238745
432.362822,-1924.535449,-7994.224174,-459.657299
432.363149,1184.329507,-7328.038826,2068.457845
432.363477,1850.514855,-6957.935855,2451.505594
432.363804,0.000000,-8216.285956,1532.190996
432.364132,-3034.844362,-9400.615463,-383.047749
432.364459,-5847.626942,-10436.903782,-2068.457845
432.364787,-6069.688724,-10510.924376,-2451.505594
432.365114,-4071.132681,-9326.594869,-1225.752797
432.365441,296.082377,-8364.327145,842.705048
432.365769,3034.844362,-8068.244768,2604.724693
432.366096,3330.926739,-8808.450710,3064.381992
432.366424,1554.432478,-9844.739029,1991.848295
432.366751,-1850.514855,-10436.903782,0.000000
432.367079,-3182.885551,-11695.253884,-1302.362347
432.367406,-2516.700203,-11029.068536,-1532.190996
432.367734,518.144159,-9696.697840,0.000000
432.368061,4145.153275,-8808.450710,1915.238745
432.368389,5625.565159,-7994.224174,4213.525239
432.368716,4959.379811,-8882.471304,2757.943793
432.369044,1776.494261,-9844.739029,1455.581446
432.369371,-1258.350101,-10732.986159,0.000000
432.369699,-1998.556043,-10510.924376,-612.876398
432.370026,-1332.370696,-9844.739029,383.047749
432.370354,1628.453072,-9104.533087,2145.067394
432.370681,3256.906145,-8734.430116,3600.648841
432.371009,2368.659014,-8586.388927,3907.087040
432.371336,296.082377,-9252.574275,2911.162892
432.371664,-3108.864956,-9770.718434,689.485948
432.371991,-5181.441594,-10140.821405,-612.876398
432.372319,-5699.585753,-9696.697840,-1532.190996
432.372647,-3627.009116,-7920.203579,-919.314598
432.372974,-592.164754,-7031.956449,536.266849
432.373302,1628.453072,-6439.791695,2068.457845
432.373629,962.267725,-6661.853478,2298.286494
432.373957,-1850.514855,-7920.203579,229.828649
432.374284,-4441.235652,-9178.553681,-1455.581446
432.374612,-5551.544565,-9770.718434,-2451.505594
432.374939,-4737.318029,-9400.615463,-2068.457845
432.375267,-1184.329507,-7920.203579,0.000000
432.375594,2368.659014,-7254.018232,2068.457845
432.375922,3552.988522,-7550.100608,2911.162892
432.376250,2886.803174,-8290.306550,2298.286494
432.376577,148.041188,-9474.636058,612.876398
432.376905,-1924.535449,-10066.800811,-1149.143247
432.377232,-2738.761985,-10658.965565,-2068.457845
432.377560,-1332.370696,-9474.636058,-1378.971896
432.377887,2442.679609,-8586.388927,306.438199
432.378215,5033.400406,-7550.100608,1838.629195
432.378542,5625.565159,-7624.121203,2528.115143
432.378870,3552.988522,-8882.471304,1608.800546
432.379197,888.247130,-9844.739029,0.000000
432.379525,-1480.411884,-10510.924376,-1149.143247
432.379853,-2072.576638,-10510.924376,-1378.971896
432.380180,0.000000,-9400.615463,-229.828649
432.380508,2960.823768,-8216.285956,2145.067394
432.380835,3775.050304,-8364.327145,3524.039291
432.381163,2738.761985,-8734.430116,2987.772442
432.381490,-444.123565,-9622.677246,1685.410096
432.381818,-3330.926739,-10510.924376,-383.047749
432.382145,-4959.379811,-10288.862594,-842.705048
432.382473,-4145.153275,-9474.636058,-1608.800546
432.382800,-1924.535449,-8290.306550,-459.657299
432.383128,1332.370696,-7402.059420,1532.190996
432.383456,2072.576638,-7328.038826,2451.505594
432.383783,592.164754,-8290.306550,1915.238745
432.384111,-3108.864956,-9252.574275,0.000000
432.384438,-5477.523971,-10510.924376,-1532.190996
432.384766,-5995.668130,-10807.006753,-2145.067394
432.385093,-4219.173869,-9548.656652,-1225.752797
432.385421,-296.082377,-9030.512492,536.266849
432.385748,2812.782580,-8364.327145,2451.505594
432.386076,2516.700203,-8808.450710,3140.991542
432.386404,962.267725,-9696.697840,1991.848295
432.386731,-2072.576638,-11029.068536,0.000000
432.387059,-3552.988522,-11251.130318,-1532.190996
432.387386,-3552.988522,-10807.006753,-1455.581446
432.387714,-518.144159,-9622.677246,-689.485948
432.388041,3404.947333,-8586.388927,1378.971896
432.388369,5329.482782,-7772.162391,2298.286494
432.388696,4737.318029,-8216.285956,2681.334243
432.389024,2738.761985,-9252.574275,1532.190996
432.389351,-296.082377,-10510.924376,-842.705048
432.389679,-1406.391290,-10732.986159,-1149.143247
432.390007,-740.205942,-10140.821405,-536.266849
432.390334,1924.535449,-9178.553681,1532.190996
432.390662,3775.050304,-8364.327145,3447.429741
432.390989,4219.173869,-8512.368333,4519.963438
432.391317,1332.370696,-9104.533087,2757.943793
432.391644,-1332.370696,-9548.656652,1072.533697
432.391972,-3849.070898,-10066.800811,-689.485948
432.392299,-4737.318029,-9770.718434,-1302.362347
432.392627,-2442.679609,-8364.327145,-153.219100
432.392954,0.000000,-7328.038826,1302.362347
432.393282,1554.432478,-6735.874072,2298.286494
432.393610,962.267725,-7476.080014,2451.505594
432.393937,-1924.535449,-8586.388927,689.485948
432.394265,-5107.421000,-9252.574275,-1225.752797
432.394592,-5995.668130,-9770.718434,-1838.629195
432.394920,-5847.626942,-9474.636058,-1915.238745
432.395247,-2664.741391,-8364.327145,-383.047749
432.395575,1258.350101,-7476.080014,1608.800546
432.395902,2960.823768,-6809.894666,2298.286494
432.396230,2368.659014,-7624.121203,2451.505594
432.396557,-370.102971,-8956.491898,612.876398
432.396885,-2960.823768,-9844.739029,-1455.581446
432.397213,-3701.029710,-10140.821405,-1915.238745
432.397540,-2368.659014,-8956.491898,-1455.581446
432.397868,1776.494261,-8068.244768,0.000000
432.398195,4367.215058,-7402.059420,1685.410096
432.398523,5329.482782,-7476.080014,2451.505594
432.398850,3701.029710,-8438.347739,1608.800546
432.399178,814.226536,-9400.615463,76.609550
432.399505,-740.205942,-10066.800811,-2068.457845
432.399833,-2146.597232,-10214.842000,-1455.581446
432.400160,444.123565,-9474.636058,-459.657299
432.400488,3256.906145,-7994.224174,1838.629195
432.400816,4737.318029,-8142.265362,3370.820191
432.401143,3256.906145,-8660.409521,3064.381992
432.401471,0.000000,-9918.759623,2528.115143
432.401798,-2812.782580,-10510.924376,76.609550
432.402126,-4367.215058,-10732.986159,-1225.752797
432.402453,-4145.153275,-9844.739029,-1302.362347
432.402781,-1406.391290,-8290.306550,383.047749
432.403108,1258.350101,-7476.080014,1608.800546
432.403436,2294.638420,-7402.059420,2451.505594
432.403764,592.164754,-7772.162391,1915.238745
432.404091,-2294.638420,-8956.491898,0.000000
432.404419,-4959.379811,-10066.800811,-1608.800546
432.404746,-5699.585753,-10288.862594,-1838.629195
432.405074,-4293.194464,-9918.759623,-1378.971896
432.405401,-888.247130,-8808.450710,459.657299
432.405729,2220.617826,-8290.306550,2451.505594
432.406056,2294.638420,-8808.450710,2757.943793
432.406384,296.082377,-9548.656652,1608.800546
432.406711,-2516.700203,-10436.903782,0.000000
432.407039,-4071.132681,-11547.212695,-1991.848295
432.407367,-3997.112087,-10955.047942,-2298.286494
432.407694,-1406.391290,-9474.636058,-1149.143247
432.408022,2886.803174,-8660.409521,612.876398
432.408349,4959.379811,-7920.203579,2374.896044
432.408677,4737.318029,-8586.388927,2374.896044
432.409004,2220.617826,-9400.615463,689.485948
432.409332,-518.144159,-10362.883188,-229.828649
432.409659,-1110.308913,-10732.986159,-1225.752797
432.409987,-740.205942,-10510.924376,-919.314598
432.410314,2072.576638,-9178.553681,1302.362347
432.410642,4737.318029,-8882.471304,3677.258390
432.410970,4293.194464,-8734.430116,4366.744339
432.411297,2072.576638,-9326.594869,3370.820191
432.411625,-518.144159,-9474.636058,1532.190996
432.411952,-3256.906145,-10140.821405,0.000000
432.412280,-4441.235652,-9992.780217,-919.314598
432.412607,-3256.906145,-8660.409521,-229.828649
432.412935,-444.123565,-7105.977043,995.924147
432.413262,1628.453072,-6143.709319,2834.553343
432.413590,962.267725,-6513.812290,2145.067394
432.413917,-1036.288319,-7550.100608,995.924147
432.414245,-4663.297435,-8882.471304,-919.314598
432.414573,-6365.771101,-9474.636058,-2068.457845
432.414900,-6587.832884,-9252.574275,-1608.800546
432.415228,-3182.885551,-7550.100608,-919.314598
432.415555,296.082377,-7254.018232,1532.190996
432.415883,2072.576638,-7105.977043,2528.115143
432.416210,1258.350101,-7698.141797,2145.067394
432.416538,-1184.329507,-8808.450710,536.266849
432.416865,-3108.864956,-9844.739029,-1455.581446
432.417193,-4219.173869,-9992.780217,-2451.505594
432.417520,-2664.741391,-8956.491898,-2145.067394
432.417848,1332.370696,-7624.121203,-612.876398
432.418176,4663.297435,-7105.977043,1225.752797
432.418503,5847.626942,-7772.162391,2451.505594
432.418831,4145.153275,-8734.430116,1302.362347
432.419158,1110.308913,-9992.780217,-153.219100
432.419486,-740.205942,-11177.109724,-1378.971896
432.419813,-2146.597232,-10807.006753,-1915.238745
432.420141,592.164754,-9918.759623,0.000000
432.420468,4589.276840,-8586.388927,2068.457845
432.420796,5033.400406,-8438.347739,3677.258390
432.421124,4441.235652,-9178.553681,3217.601092
432.421451,1776.494261,-9622.677246,1915.238745
432.421779,-1998.556043,-10214.842000,229.828649
432.422106,-3552.988522,-10955.047942,-919.314598
432.422434,-4145.153275,-10066.800811,-1225.752797
432.422761,-1480.411884,-9104.533087,0.000000
432.423089,1924.535449,-7994.224174,1685.410096
432.423416,2368.659014,-7476.080014,2681.334243
432.423744,592.164754,-7698.141797,1532.190996
432.424071,-2072.576638,-9252.574275,153.219100
432.424399,-4885.359217,-10584.944971,-1532.190996
432.424727,-6365.771101,-10732.986159,-1991.848295
432.425054,-5033.400406,-9918.759623,-1762.019645
432.425382,-1110.308913,-8808.450710,612.876398
432.425709,1480.411884,-8216.285956,2145.067394
432.426037,1628.453072,-8438.347739,2451.505594
432.426364,592.164754,-9400.615463,1915.238745
432.426692,-2294.638420,-10288.862594,229.828649
432.427019,-4367.215058,-10955.047942,-842.705048
432.427347,-4293.194464,-11103.089130,-1532.190996
432.427674,-1702.473667,-9918.759623,-689.485948
432.428002,2368.659014,-8808.450710,1072.533697
432.428330,4441.235652,-8586.388927,2451.505594
432.428657,4663.297435,-8734.430116,2221.676944
432.428985,2368.659014,-9474.636058,1838.629195
432.429312,-148.041188,-10658.965565,0.000000
432.429640,-2072.576638,-11029.068536,-612.876398
432.429967,-444.123565,-10362.883188,0.000000
432.430295,2146.597232,-9548.656652,1302.362347
432.430622,4145.153275,-8364.327145,2911.162892
432.430950,4219.173869,-8882.471304,3753.867940
432.431277,2664.741391,-9252.574275,3370.820191
432.431605,-444.123565,-10066.800811,1838.629195
432.431933,-2812.782580,-10658.965565,383.047749
432.432260,-4515.256246,-10362.883188,-766.095498
432.432588,-2812.782580,-9400.615463,-153.219100
432.432915,0.000000,-8068.244768,1149.143247
432.433243,1258.350101,-7105.977043,2451.505594
432.433570,1184.329507,-7476.080014,2298.286494
432.433898,-444.123565,-8142.265362,995.924147
432.434225,-3849.070898,-8808.450710,-766.095498
432.434553,-5625.565159,-9548.656652,-1838.629195
432.434880,-5625.565159,-9326.594869,-1762.019645
432.435208,-2738.761985,-8290.306550,-459.657299
432.435536,444.123565,-7254.018232,1302.362347
432.435863,2072.576638,-7920.203579,2757.943793
432.436191,1110.308913,-8512.368333,2298.286494
432.436518,-1184.329507,-9326.594869,766.095498
432.436846,-3552.988522,-9992.780217,-842.705048
432.437173,-4663.297435,-10362.883188,-2221.676944
432.437501,-2738.761985,-8882.471304,-1225.752797
432.437828,1036.288319,-8068.244768,-383.047749
432.438156,4145.153275,-7402.059420,1072.533697
432.438483,5181.441594,-7179.997637,1838.629195
432.438811,3997.112087,-8068.244768,842.705048
432.439139,1480.411884,-9474.636058,-536.266849
432.439466,-1036.288319,-9696.697840,-1991.848295
432.439794,-1480.411884,-10140.821405,-1991.848295
432.440121,1406.391290,-9178.553681,-536.266849
432.440449,4441.235652,-8512.368333,1378.971896
432.440776,5551.544565,-8660.409521,2987.772442
432.441104,4737.318029,-8512.368333,2987.772442
432.441431,1776.494261,-9992.780217,1915.238745
432.441759,-1776.494261,-10658.965565,76.609550
432.442087,-3552.988522,-11103.089130,-1302.362347
432.442414,-3552.988522,-10066.800811,-1149.143247
432.442742,-962.267725,-8364.327145,0.000000
432.443069,1998.556043,-7402.059420,1378.971896
432.443397,2590.720797,-7179.997637,2145.067394
432.443724,1258.350101,-7624.121203,1378.971896
432.444052,-1554.432478,-8660.409521,0.000000
432.444379,-4589.276840,-9770.718434,-1608.800546
432.444707,-5403.503377,-9992.780217,-1838.629195
432.445034,-4367.215058,-9178.553681,-1225.752797
432.445362,-888.247130,-8364.327145,842.705048
432.445690,962.267725,-8290.306550,2604.724693
432.446017,1110.308913,-8290.306550,2911.162892
432.446345,-444.123565,-9252.574275,2298.286494
432.446672,-3404.947333,-10066.800811,536.266849
432.447000,-5181.441594,-10881.027347,-919.314598
432.447327,-5181.441594,-10436.903782,-1685.410096
432.447655,-1924.535449,-9400.615463,-995.924147
432.447982,1776.494261,-7772.162391,1302.362347
432.448310,4071.132681,-7254.018232,2451.505594
432.448637,3849.070898,-7772.162391,2451.505594
432.448965,1850.514855,-9104.533087,1302.362347
432.449293,-888.247130,-10214.842000,0.000000
432.449620,-2664.741391,-10807.006753,-1302.362347
432.449948,-1850.514855,-10288.862594,-612.876398
432.450275,1554.432478,-9400.615463,995.924147
432.450603,4367.215058,-8956.491898,2911.162892
432.450930,4293.194464,-8882.471304,4060.306139
432.451258,3034.844362,-9030.512492,3677.258390
432.451585,74.020594,-10214.842000,2068.457845
432.451913,-2738.761985,-10658.965565,0.000000
432.452240,-3701.029710,-10362.883188,-689.485948
432.452568,-2368.659014,-9400.615463,-306.438199
432.452896,888.247130,-8068.244768,995.924147
432.453223,3034.844362,-6957.935855,2221.676944
432.453551,2590.720797,-7254.018232,2604.724693
432.453878,740.205942,-8216.285956,1685.410096
432.454206,-2590.720797,-9548.656652,-153.219100
432.454533,-4811.338623,-10140.821405,-1455.581446
432.454861,-4737.318029,-9622.677246,-1685.410096
432.455188,-2368.659014,-8734.430116,-153.219100
432.455516,370.102971,-7994.224174,1532.190996
432.455843,1850.514855,-8068.244768,2528.115143
432.456171,1036.288319,-8660.409521,2068.457845
432.456499,-1480.411884,-9400.615463,1149.143247
432.456826,-4515.256246,-10214.842000,-766.095498
432.457154,-5699.585753,-10584.944971,-2145.067394
432.457481,-4441.235652,-9474.636058,-2451.505594
432.457809,-370.102971,-8142.265362,-689.485948
432.458136,3034.844362,-7105.977043,1455.581446
432.458464,4145.153275,-7179.997637,1608.800546
432.458791,3478.967927,-8216.285956,1149.143247
432.459119,222.061783,-9548.656652,-153.219100
432.459447,-2294.638420,-10658.965565,-1915.238745
432.459774,-2516.700203,-10658.965565,-1762.019645
432.460102,-222.061783,-9400.615463,-842.705048
432.460429,3256.906145,-8808.450710,1072.533697
432.460757,4885.359217,-8364.327145,3064.381992
432.461084,5107.421000,-8438.347739,3447.429741
432.461412,2664.741391,-9474.636058,2528.115143
432.461739,-740.205942,-10362.883188,536.266849
432.462067,-3404.947333,-10955.047942,-1072.533697
432.462394,-3404.947333,-10140.821405,-1455.581446
432.462722,-666.185348,-8660.409521,0.000000
432.463050,2294.638420,-7550.100608,1378.971896
432.463377,3627.009116,-7179.997637,2528.115143
432.463705,2590.720797,-7772.162391,2451.505594
432.464032,-444.123565,-8438.347739,1225.752797
432.464360,-3849.070898,-9326.594869,-689.485948
432.464687,-5255.462188,-9770.718434,-1225.752797
432.465015,-4219.173869,-9252.574275,-689.485948
432.465342,-1406.391290,-8216.285956,995.924147
432.465670,740.205942,-7550.100608,2681.334243
432.465997,962.267725,-7920.203579,3217.601092
432.466325,-296.082377,-8956.491898,2451.505594
432.466653,-3256.906145,-9770.718434,1149.143247
432.466980,-5551.544565,-10140.821405,-1378.971896
432.467308,-5625.565159,-10140.821405,-1915.238745
432.467635,-3330.926739,-8808.450710,-1302.362347
432.467963,814.226536,-7550.100608,383.047749
432.468290,3330.926739,-7402.059420,1838.629195
432.468618,3404.947333,-8068.244768,1685.410096
432.468945,1406.391290,-9400.615463,766.095498
432.469273,-1406.391290,-10436.903782,-689.485948
432.469600,-2886.803174,-10807.006753,-1838.629195
432.469928,-1776.494261,-10584.944971,-1302.362347
432.470256,2072.576638,-9474.636058,383.047749
432.470583,4515.256246,-8956.491898,2528.115143
432.470911,5107.421000,-9178.553681,3753.867940
432.471238,4145.153275,-9474.636058,3294.210641
432.471566,666.185348,-10362.883188,1532.190996
432.471893,-2220.617826,-10807.006753,0.000000
432.472221,-2738.761985,-10807.006753,-842.705048
432.472548,-1924.535449,-9474.636058,-612.876398
432.472876,1110.308913,-8438.347739,842.705048
432.473203,3330.926739,-7698.141797,2528.115143
432.473531,3108.864956,-7994.224174,2757.943793
432.473858,1628.453072,-8660.409521,1302.362347
432.474186,-1924.535449,-9844.739029,76.609550
432.474513,-4515.256246,-10362.883188,-1532.190996
432.474841,-4589.276840,-9992.780217,-1455.581446
432.475168,-3108.864956,-8734.430116,0.000000
432.475496,148.041188,-7846.182985,1915.238745
432.475823,1628.453072,-7846.182985,2681.334243
432.476150,592.164754,-8290.306550,2681.334243
432.476478,-1628.453072,-9178.553681,1302.362347
432.476805,-4663.297435,-9992.780217,-612.876398
432.477133,-5699.585753,-10140.821405,-1149.143247
432.477460,-4811.338623,-9474.636058,-1915.238745
432.477788,-1628.453072,-8216.285956,-612.876398
432.478115,1924.535449,-7402.059420,766.095498
432.478443,3330.926739,-7476.080014,1762.019645
432.478770,2368.659014,-7402.059420,612.876398
432.479098,-518.144159,-8956.491898,-229.828649
432.479425,-2368.659014,-9992.780217,-2145.067394
432.479753,-2812.782580,-10214.842000,-2374.896044
432.480080,-222.061783,-9474.636058,-1072.533697
432.480408,3330.926739,-8512.368333,919.314598
432.480735,5699.585753,-8216.285956,3217.601092
432.481063,5403.503377,-8956.491898,3524.039291
432.481390,3108.864956,-9696.697840,2298.286494
432.481718,0.000000,-10362.883188,689.485948
432.482045,-1850.514855,-10732.986159,-459.657299
432.482373,-2146.597232,-10436.903782,-689.485948
432.482700,148.041188,-9178.553681,0.000000
432.483028,3108.864956,-8068.244768,1532.190996
432.483355,4293.194464,-7624.121203,2911.162892
432.483683,3108.864956,-7846.182985,2374.896044
432.484010,0.000000,-8808.450710,995.924147
432.484338,-2886.803174,-9622.677246,-995.924147
432.484665,-4811.338623,-10140.821405,-1838.629195
432.484993,-4219.173869,-9178.553681,-1225.752797
432.485320,-1332.370696,-8142.265362,383.047749
432.485648,888.247130,-7476.080014,2451.505594
432.485975,1702.473667,-7772.162391,3140.991542
432.486303,-444.123565,-8808.450710,2451.505594
432.486630,-3627.009116,-9474.636058,306.438199
432.486958,-6217.729913,-10288.862594,-1149.143247
432.487285,-6587.832884,-10066.800811,-1991.848295
432.487613,-4367.215058,-8882.471304,-1149.143247
432.487940,-592.164754,-7920.203579,306.438199
432.488268,2146.597232,-7402.059420,1838.629195
432.488595,2368.659014,-7624.121203,1608.800546
432.488923,962.267725,-9104.533087,612.876398
432.489250,-1554.432478,-10140.821405,-1072.533697
432.489578,-2960.823768,-10584.944971,-2145.067394
432.489905,-2294.638420,-10214.842000,-1915.238745
432.490233,1184.329507,-9178.553681,0.000000
432.490560,4441.235652,-8734.430116,2145.067394
432.490888,5847.626942,-8438.347739,3983.696590
432.491215,4071.132681,-9474.636058,2604.724693
432.491543,1480.411884,-10510.924376,1838.629195
432.491870,-888.247130,-10881.027347,-306.438199
432.492198,-2664.741391,-11251.130318,-1302.362347
432.492525,-592.164754,-10436.903782,-536.266849
432.492853,2072.576638,-7920.203579,1149.143247
432.493180,4071.132681,-7550.100608,2298.286494
432.493508,4145.153275,-7624.121203,2604.724693
432.493835,2220.617826,-8216.285956,1991.848295
432.494163,-1110.308913,-9030.512492,229.828649
432.494490,-3404.947333,-10140.821405,-1302.362347
432.494818,-4441.235652,-10140.821405,-1608.800546
432.495145,-2368.659014,-9252.574275,0.000000
432.495473,148.041188,-8734.430116,1685.410096
432.495800,1406.391290,-8142.265362,2834.553343
432.496128,666.185348,-8290.306550,3140.991542
432.496455,-1776.494261,-9474.636058,1685.410096
432.496783,-4811.338623,-9992.780217,-229.828649
432.497110,-6069.688724,-9992.780217,-1838.629195
432.497438,-5329.482782,-9252.574275,-1838.629195
432.497765,-2072.576638,-7698.141797,-995.924147
432.498093,1480.411884,-7031.956449,919.314598
432.498420,2368.659014,-7105.977043,1685.410096
432.498748,1998.556043,-7920.203579,1685.410096
432.499075,-592.164754,-9326.594869,153.219100
432.499403,-2960.823768,-10288.862594,-1378.971896
432.499730,-3256.906145,-10214.842000,-689.485948
432.500058,-1258.350101,-9844.739029,-306.438199
432.500385,2294.638420,-8808.450710,1378.971896
432.500712,4145.153275,-8586.388927,3217.601092
432.501040,4071.132681,-8808.450710,3600.648841
432.501367,2368.659014,-9918.759623,2451.505594
432.501695,-666.185348,-10510.924376,536.266849
432.502022,-2368.659014,-10436.903782,-1225.752797
432.502350,-2368.659014,-10362.883188,-1378.971896
432.502677,0.000000,-9030.512492,-459.657299
432.503005,2812.782580,-7550.100608,1302.362347
432.503332,4441.235652,-7772.162391,2374.896044
432.503660,3034.844362,-7994.224174,2374.896044
432.503987,814.226536,-9178.553681,1149.143247
432.504315,-2294.638420,-9992.780217,-536.266849
432.504642,-3627.009116,-10066.800811,-1149.143247
432.504970,-3256.906145,-9326.594869,-995.924147
432.505297,-1110.308913,-8660.409521,842.705048
432.505625,1406.391290,-8216.285956,2221.676944
432.505952,1554.432478,-7920.203579,2911.162892
432.506280,222.061783,-8512.368333,1991.848295
432.506607,-2442.679609,-9178.553681,459.657299
432.506935,-5033.400406,-9844.739029,-1225.752797
432.507262,-5699.585753,-9474.636058,-2221.676944
432.507590,-3330.926739,-8512.368333,-1455.581446
432.507917,296.082377,-7476.080014,383.047749
432.508245,2368.659014,-6883.915261,1762.019645
432.508572,2664.741391,-7698.141797,1991.848295
432.508900,814.226536,-8660.409521,919.314598
432.509227,-2146.597232,-9992.780217,-612.876398
432.509555,-3701.029710,-10732.986159,-1915.238745
432.509882,-2516.700203,-10362.883188,-1302.362347
432.510210,74.020594,-9326.594869,153.219100
432.510537,3330.926739,-8734.430116,1991.848295
432.510865,4441.235652,-8512.368333,3064.381992
432.511192,3404.947333,-8956.491898,2604.724693
432.511520,814.226536,-9844.739029,1685.410096
432.511847,-1480.411884,-10436.903782,-536.266849
432.512175,-3330.926739,-10732.986159,-1532.190996
432.512502,-2072.576638,-9400.615463,-1302.362347
432.512830,1258.350101,-8290.306550,383.047749
432.513157,3701.029710,-7476.080014,1532.190996
432.513485,4367.215058,-7624.121203,2298.286494
432.513812,2812.782580,-8734.430116,1915.238745
432.514140,-444.123565,-9844.739029,0.000000
432.514467,-3182.885551,-10732.986159,-1225.752797
432.514795,-4145.153275,-10436.903782,-1302.362347
432.515122,-1702.473667,-9548.656652,229.828649
432.515450,1036.288319,-8142.265362,1915.238745
432.515777,1924.535449,-7772.162391,2987.772442
432.516105,1850.514855,-7994.224174,2834.553343
432.516432,-148.041188,-8956.491898,1838.629195
432.516760,-2886.803174,-9696.697840,-459.657299
432.517087,-5477.523971,-9918.759623,-1302.362347
432.517415,-4737.318029,-9548.656652,-1455.581446
432.517742,-2072.576638,-8438.347739,0.000000
432.518070,1480.411884,-7698.141797,1762.019645
432.518397,1924.535449,-7328.038826,2451.505594
432.518725,1628.453072,-8512.368333,2528.115143
432.519052,-1036.288319,-9474.636058,536.266849
432.519380,-3404.947333,-10288.862594,-995.924147
432.519707,-4145.153275,-10140.821405,-1608.800546
432.520035,-2368.659014,-9474.636058,-536.266849
432.520362,1554.432478,-8290.306550,1455.581446
432.520690,3701.029710,-7846.182985,2604.724693
432.521017,3775.050304,-8216.285956,3064.381992
432.521345,1628.453072,-9104.533087,2221.676944
432.521672,-1332.370696,-10214.842000,459.657299
432.522000,-3256.906145,-11103.089130,-1455.581446
432.522327,-3552.988522,-10362.883188,-1608.800546
432.522655,-1258.350101,-9400.615463,-612.876398
432.522982,2146.597232,-8364.327145,1149.143247
432.523310,3997.112087,-7920.203579,2451.505594
432.523637,3404.947333,-7624.121203,2221.676944
432.523965,1554.432478,-9178.553681,1072.533697
432.524292,-1554.432478,-10066.800811,-689.485948
432.524620,-3627.009116,-10362.883188,-1685.410096
432.524947,-2960.823768,-9992.780217,-1378.971896
432.525274,74.020594,-8956.491898,0.000000
432.525602,2442.679609,-8216.285956,2145.067394
432.525929,3182.885551,-7994.224174,2681.334243
432.526257,1924.535449,-8734.430116,2451.505594
432.526584,-1184.329507,-9622.677246,842.705048
432.526912,-3404.947333,-10288.862594,-306.438199
432.527239,-4515.256246,-10066.800811,-1685.410096
432.527567,-3034.844362,-9252.574275,-1302.362347
432.527894,370.102971,-7920.203579,383.047749
432.528222,2590.720797,-7402.059420,1838.629195
432.528549,2886.803174,-7698.141797,1991.848295
432.528877,1406.391290,-8438.347739,995.924147
432.529204,-2220.617826,-9696.697840,-766.095498
432.529532,-4145.153275,-10436.903782,-1838.629195
432.529859,-3775.050304,-10066.800811,-1991.848295
432.530187,-666.185348,-9104.533087,-306.438199
432.530514,2368.659014,-7846.182985,1991.848295
432.530842,3478.967927,-8364.327145,3140.991542
432.531169,2516.700203,-9104.533087,2834.553343
432.531497,148.041188,-9918.759623,1532.190996
432.531824,-2960.823768,-10658.965565,-612.876398
432.532152,-4293.194464,-10510.924376,-766.095498
432.532479,-2516.700203,-9770.718434,-1455.581446
432.532807,518.144159,-8586.388927,536.266849
432.533134,3478.967927,-7772.162391,1838.629195
432.533462,3997.112087,-7402.059420,2528.115143
432.533789,2590.720797,-8290.306550,1685.410096
432.534117,-740.205942,-9104.533087,383.047749
432.534444,-2960.823768,-10510.924376,-1302.362347
432.534772,-3552.988522,-10362.883188,-1532.190996
432.535099,-1998.556043,-9178.553681,-536.266849
432.535427,1184.329507,-8290.306550,1608.800546
432.535754,3108.864956,-7994.224174,3064.381992
432.536082,2442.679609,-8364.327145,3294.210641
432.536409,74.020594,-9178.553681,1762.019645
432.536737,-2960.823768,-9770.718434,76.609550
432.537064,-4515.256246,-10288.862594,-1378.971896
432.537392,-4145.153275,-9696.697840,-1225.752797
432.537719,-1036.288319,-8364.327145,0.000000
432.538047,1998.556043,-7698.141797,1532.190996
432.538374,3330.926739,-7698.141797,2451.505594
432.538702,2516.700203,-8142.265362,2451.505594
432.539029,0.000000,-8734.430116,1072.533697
432.539357,-2442.679609,-10214.842000,-689.485948
432.539684,-3256.906145,-10584.944971,-1149.143247
432.540012,-2294.638420,-9770.718434,-766.095498
432.540339,592.164754,-8956.491898,1072.533697
432.540667,3404.947333,-8438.347739,2604.724693
432.540994,2812.782580,-8586.388927,2757.943793
432.541322,518.144159,-9400.615463,2068.457845
432.541649,-2368.659014,-10288.862594,0.000000
432.541977,-4071.132681,-10362.883188,-1532.190996
432.542304,-3997.112087,-9992.780217,-2068.457845
432.542632,-1554.432478,-8438.347739,-1072.533697
432.542959,1776.494261,-7772.162391,689.485948
432.543287,3478.967927,-7254.018232,1915.238745
432.543614,3330.926739,-7994.224174,1685.410096
432.543942,740.205942,-8882.471304,842.705048
432.544269,-2146.597232,-9844.739029,-306.438199
432.544597,-3330.926739,-10807.006753,-1838.629195
432.544924,-2738.761985,-10436.903782,-1225.752797
432.545252,222.061783,-9252.574275,612.876398
432.545579,2738.761985,-8660.409521,2145.067394
432.545907,3923.091493,-8586.388927,3600.648841
432.546234,2590.720797,-9252.574275,2145.067394
432.546562,-370.102971,-10214.842000,842.705048
432.546889,-2812.782580,-10584.944971,-919.314598
432.547217,-3997.112087,-10658.965565,-1838.629195
432.547544,-2294.638420,-9104.533087,-1149.143247
432.547872,1184.329507,-8068.244768,153.219100
432.548199,3330.926739,-7328.038826,1915.238745
432.548527,3034.844362,-7624.121203,2451.505594
432.548854,1258.350101,-8586.388927,1685.410096
432.549182,-1702.473667,-9622.677246,0.000000
432.549509,-3108.864956,-10732.986159,-1149.143247
432.549836,-3849.070898,-10066.800811,-1149.143247
432.550164,-1406.391290,-9178.553681,0.000000
432.550491,1702.473667,-8586.388927,1991.848295
432.550819,2590.720797,-8068.244768,3140.991542
432.551146,1998.556043,-8290.306550,3217.601092
432.551474,-740.205942,-8882.471304,1072.533697
432.551801,-3552.988522,-9992.780217,-383.047749
432.552129,-4737.318029,-10140.821405,-1838.629195
432.552456,-3701.029710,-9252.574275,-1302.362347
432.552784,0.000000,-7550.100608,0.000000
432.553111,2738.761985,-7031.956449,1685.410096
432.553439,3330.926739,-7624.121203,2451.505594
432.553766,2294.638420,-8290.306550,2145.067394
432.554094,-592.164754,-9696.697840,689.485948
432.554421,-3108.864956,-10510.924376,-383.047749
432.554749,-3849.070898,-10807.006753,-1225.752797
432.555076,-2072.576638,-9474.636058,-229.828649
432.555404,1702.473667,-8586.388927,1455.581446
432.555731,3256.906145,-7994.224174,3064.381992
432.556059,3034.844362,-8068.244768,2987.772442
432.556386,1258.350101,-8512.368333,2451.505594
432.556714,-1776.494261,-9696.697840,0.000000
432.557041,-3701.029710,-9992.780217,-1455.581446
432.557369,-3404.947333,-9622.677246,-1532.190996
432.557696,-592.164754,-8660.409521,-229.828649
432.558024,2442.679609,-7846.182985,1838.629195
432.558351,3775.050304,-7698.141797,2604.724693
432.558679,2220.617826,-8438.347739,2145.067394
432.559006,-296.082377,-9696.697840,842.705048
432.559334,-3034.844362,-10584.944971,-1149.143247
432.559661,-3997.112087,-10510.924376,-1608.800546
432.559989,-2738.761985,-9400.615463,-766.095498
432.560316,666.185348,-8734.430116,919.314598
432.560644,2738.761985,-8068.244768,2374.896044
432.560971,2738.761985,-7920.203579,2987.772442
432.561299,1258.350101,-8808.450710,2145.067394
432.561626,-2072.576638,-9178.553681,0.000000
432.561954,-4145.153275,-10140.821405,-1378.971896
432.562281,-4515.256246,-10066.800811,-1608.800546
432.562609,-2220.617826,-8956.491898,-995.924147
432.562936,1110.308913,-7920.203579,842.705048
432.563264,3182.885551,-7402.059420,2068.457845
432.563591,2886.803174,-7994.224174,2298.286494
432.563919,814.226536,-8882.471304,842.705048
432.564246,-2368.659014,-9992.780217,-766.095498
432.564574,-3552.988522,-10732.986159,-2068.457845
432.564901,-3108.864956,-10288.862594,-1608.800546
432.565229,-444.123565,-9030.512492,-459.657299
432.565556,2738.761985,-8438.347739,1762.019645
432.565884,3552.988522,-8142.265362,2757.943793
432.566211,2812.782580,-8808.450710,2451.505594
432.566539,222.061783,-9474.636058,1762.019645
432.566866,-2812.782580,-10732.986159,-306.438199
432.567194,-3849.070898,-10881.027347,-1762.019645
432.567521,-2442.679609,-9918.759623,-1302.362347
432.567849,518.144159,-8586.388927,153.219100
432.568176,3034.844362,-7772.162391,1762.019645
432.568504,3627.009116,-8068.244768,2604.724693
432.568831,1850.514855,-8586.388927,1225.752797
432.569158,-1406.391290,-9474.636058,-229.828649
432.569485,-3256.906145,-10066.800811,-1608.800546
432.569812,-3256.906145,-9844.739029,-1685.410096
432.570140,-666.185348,-9326.594869,0.000000
432.570467,1776.494261,-7772.162391,1685.410096
432.570795,3330.926739,-8216.285956,3294.210641
432.571122,1998.556043,-8438.347739,2911.162892
432.571450,-888.247130,-9474.636058,1762.019645
432.571777,-3330.926739,-10436.903782,0.000000
432.572105,-4737.318029,-10288.862594,-1455.581446
432.572432,-4293.194464,-9918.759623,-1455.581446
432.572760,-592.164754,-8660.409521,0.000000
432.573087,2442.679609,-7624.121203,1915.238745
432.573415,3256.906145,-7031.956449,2757.943793
432.573742,2368.659014,-7624.121203,2145.067394
432.574070,-592.164754,-9474.636058,229.828649
432.574397,-3108.864956,-10362.883188,-1532.190996
432.574724,-3923.091493,-10584.944971,-2221.676944
432.575052,-2368.659014,-9548.656652,-1149.143247
432.575379,1184.329507,-8734.430116,1072.533697
432.575707,3552.988522,-8512.368333,2451.505594
432.576034,3627.009116,-8586.388927,3524.039291
432.576362,1628.453072,-8956.491898,2298.286494
432.576689,-1480.411884,-9918.759623,612.876398
432.577017,-3627.009116,-10807.006753,-1149.143247
432.577344,-3404.947333,-9696.697840,-1532.190996
432.577672,-1036.288319,-8808.450710,-306.438199
432.577999,2220.617826,-7920.203579,1455.581446
432.578327,3775.050304,-7402.059420,2528.115143
432.578654,3478.967927,-8142.265362,2911.162892
432.578982,666.185348,-8586.388927,1455.581446
432.579309,-2146.597232,-9696.697840,-306.438199
432.579637,-3108.864956,-10140.821405,-1072.533697
432.579964,-2368.659014,-9548.656652,-459.657299
432.580291,592.164754,-8808.450710,1072.533697
432.580619,2812.782580,-7920.203579,2987.772442
432.580946,2442.679609,-8364.327145,3677.258390
432.581274,222.061783,-9030.512492,2528.115143
432.581601,-3108.864956,-9918.759623,612.876398
432.581929,-5329.482782,-10362.883188,-1072.533697
432.582256,-5847.626942,-9696.697840,-1991.848295
432.582584,-3330.926739,-8734.430116,-995.924147
432.582911,296.082377,-7624.121203,536.266849
432.583239,2590.720797,-7031.956449,1838.629195
432.583566,2664.741391,-7550.100608,1838.629195
432.583894,592.164754,-8290.306550,1225.752797
432.584221,-2146.597232,-9992.780217,-1149.143247
432.584549,-4367.215058,-10436.903782,-1915.238745
432.584876,-3627.009116,-10140.821405,-1915.238745
432.585203,-740.205942,-9104.533087,-306.438199
432.585531,3182.885551,-8512.368333,2068.457845
432.585858,4515.256246,-8512.368333,2987.772442
432.586186,3330.926739,-8882.471304,2298.286494
432.586513,592.164754,-9918.759623,842.705048
432.586841,-2368.659014,-10807.006753,-1072.533697
432.587168,-3256.906145,-11177.109724,-1455.581446
432.587496,-1702.473667,-9770.718434,-1302.362347
432.587823,1184.329507,-8586.388927,0.000000
432.588151,3997.112087,-8068.244768,1532.190996
432.588478,4367.215058,-8216.285956,2451.505594
432.588806,2368.659014,-8882.471304,1532.190996
432.589133,-296.082377,-9474.636058,459.657299
432.589461,-2294.638420,-10362.883188,-995.924147
432.589788,-2886.803174,-10288.862594,-1302.362347
432.590116,-962.267725,-9474.636058,76.609550
432.590443,1850.514855,-8660.409521,1915.238745
432.590770,2886.803174,-8068.244768,3524.039291
432.591098,1998.556043,-8586.388927,3600.648841
432.591425,-814.226536,-9030.512492,2068.457845
432.591753,-3849.070898,-9548.656652,0.000000
432.592080,-5477.523971,-10066.800811,-1455.581446
432.592408,-4737.318029,-9252.574275,-1378.971896
432.592735,-1776.494261,-7550.100608,-459.657299
432.593063,1110.308913,-7179.997637,1302.362347
432.593390,2294.638420,-7031.956449,2374.896044
432.593718,888.247130,-7846.182985,1608.800546
432.594045,-2368.659014,-9030.512492,0.000000
432.594373,-4589.276840,-10214.842000,-995.924147
432.594700,-5107.421000,-10214.842000,-1991.848295
432.595028,-2960.823768,-9400.615463,-1149.143247
432.595355,888.247130,-8142.265362,842.705048
432.595682,3404.947333,-7846.182985,2451.505594
432.596010,4441.235652,-8142.265362,2681.334243
432.596337,2146.597232,-8734.430116,2374.896044
432.596665,-1036.288319,-9696.697840,153.219100
432.596992,-2590.720797,-10510.924376,-766.095498
432.597320,-2516.700203,-10140.821405,-1608.800546
432.597647,0.000000,-8882.471304,-689.485948
432.597975,3330.926739,-7772.162391,1455.581446
432.598302,5107.421000,-7476.080014,2604.724693
432.598630,4145.153275,-7994.224174,2757.943793
432.598957,1850.514855,-8734.430116,1378.971896
432.599285,-666.185348,-9844.739029,0.000000
432.599612,-2368.659014,-10732.986159,-1072.533697
432.599940,-1924.535449,-9696.697840,-612.876398
432.600267,592.164754,-9104.533087,1225.752797
432.600594,2812.782580,-8290.306550,2834.553343
432.600922,2664.741391,-8808.450710,3524.039291
432.601249,370.102971,-9178.553681,3064.381992
432.601577,-3182.885551,-9696.697840,306.438199
432.601904,-5477.523971,-10732.986159,-1378.971896
432.602232,-5847.626942,-10288.862594,-2068.457845
432.602559,-3849.070898,-8660.409521,-1302.362347
432.602887,-148.041188,-7476.080014,383.047749
432.603214,2220.617826,-6957.935855,1838.629195
432.603542,1702.473667,-7105.977043,1991.848295
432.603869,-222.061783,-7920.203579,459.657299
432.604197,-3330.926739,-9326.594869,-919.314598
432.604524,-4589.276840,-10214.842000,-2221.676944
432.604852,-3849.070898,-9918.759623,-1838.629195
432.605179,-962.267725,-9474.636058,0.000000
432.605507,2442.679609,-8882.471304,1915.238745
432.605834,3775.050304,-8734.430116,3140.991542
432.606161,3108.864956,-9178.553681,2911.162892
432.606489,666.185348,-9622.677246,1149.143247
432.606816,-2220.617826,-10807.006753,-995.924147
432.607144,-3404.947333,-10955.047942,-1762.019645
432.607471,-1998.556043,-9992.780217,-1378.971896
432.607799,1924.535449,-8956.491898,229.828649
432.608126,4737.318029,-8216.285956,2528.115143
432.608454,4885.359217,-8142.265362,2757.943793
432.608781,3478.967927,-9030.512492,2221.676944
432.609109,370.102971,-10288.862594,612.876398
432.609436,-2368.659014,-10955.047942,-995.924147
432.609764,-2960.823768,-10658.965565,-459.657299
432.610091,-962.267725,-9696.697840,0.000000
432.610419,1702.473667,-8808.450710,1991.848295
432.610746,2960.823768,-8068.244768,3447.429741
432.611073,2368.659014,-8512.368333,3524.039291
432.611401,-814.226536,-9030.512492,2298.286494
432.611728,-3404.947333,-9548.656652,153.219100
432.612056,-5403.503377,-9992.780217,-1455.581446
432.612383,-4959.379811,-9178.553681,-1915.238745
432.612711,-2294.638420,-8068.244768,-536.266849
432.613038,814.226536,-6957.935855,1072.533697
432.613366,2146.597232,-7328.038826,2374.896044
432.613693,592.164754,-8216.285956,1302.362347
432.614021,-2294.638420,-9326.594869,229.828649
432.614348,-4811.338623,-10214.842000,-1532.190996
432.614676,-5403.503377,-10658.965565,-2221.676944
432.615003,-3330.926739,-9992.780217,-1455.581446
432.615331,148.041188,-8808.450710,383.047749
432.615658,3108.864956,-8216.285956,2145.067394
432.615985,3552.988522,-8068.244768,2681.334243
432.616313,2072.576638,-8660.409521,1838.629195
432.616640,-814.226536,-9696.697840,459.657299
432.616968,-2368.659014,-10066.800811,-1378.971896
432.617295,-2886.803174,-9992.780217,-1838.629195
432.617623,-148.041188,-8586.388927,-612.876398
432.617950,3330.926739,-7846.182985,1149.143247
432.618278,5033.400406,-7402.059420,2604.724693
432.618605,4885.359217,-7698.141797,2911.162892
432.618933,2516.700203,-9030.512492,1608.800546
432.619260,-444.123565,-10066.800811,153.219100
432.619588,-2368.659014,-10732.986159,-1149.143247
432.619915,-1480.411884,-10140.821405,-536.266849
432.620243,740.205942,-9030.512492,1532.190996
432.620570,3256.906145,-8586.388927,2911.162892
432.620898,2886.803174,-8364.327145,3524.039291
432.621225,888.247130,-9400.615463,2757.943793
432.621552,-2294.638420,-10140.821405,689.485948
432.621880,-4811.338623,-10066.800811,-995.924147
432.622207,-5551.544565,-9918.759623,-1838.629195
432.622535,-4071.132681,-8734.430116,-1378.971896
432.622862,-740.205942,-7624.121203,306.438199
432.623190,1554.432478,-7031.956449,1762.019645
432.623517,1554.432478,-6957.935855,1838.629195
432.623845,0.000000,-8216.285956,1378.971896
432.624172,-3182.885551,-9104.533087,-689.485948
432.624500,-5329.482782,-10214.842000,-1762.019645
432.624827,-5033.400406,-10140.821405,-1838.629195
432.625155,-2072.576638,-9178.553681,-766.095498
432.625482,1332.370696,-8290.306550,1991.848295
432.625810,2960.823768,-7994.224174,2911.162892
432.626137,2590.720797,-8660.409521,2528.115143
432.626464,74.020594,-9474.636058,1302.362347
432.626792,-2442.679609,-10214.842000,-766.095498
432.627119,-3034.844362,-10436.903782,-1762.019645
432.627447,-2220.617826,-9400.615463,-1762.019645
432.627774,1850.514855,-8438.347739,153.219100
432.628102,4737.318029,-7698.141797,1532.190996
432.628429,5255.462188,-7846.182985,2834.553343
432.628757,4293.194464,-8808.450710,2221.676944
432.629084,1110.308913,-10214.842000,1532.190996
432.629412,-1406.391290,-10881.027347,-306.438199
432.629739,-2072.576638,-10807.006753,-612.876398
432.630067,-592.164754,-10066.800811,536.266849
432.630394,1924.535449,-9326.594869,2068.457845
432.630722,3627.009116,-8660.409521,3830.477490
432.631049,2146.597232,-8734.430116,3600.648841
432.631377,0.000000,-9252.574275,2374.896044
432.631704,-3256.906145,-9474.636058,459.657299
432.632031,-5107.421000,-9696.697840,-1149.143247
432.632359,-4589.276840,-8956.491898,-1302.362347
432.632686,-1998.556043,-7846.182985,-459.657299
432.633014,296.082377,-6883.915261,1455.581446
432.633341,1776.494261,-6587.832884,1915.238745
432.633669,444.123565,-7846.182985,1838.629195
432.633996,-2368.659014,-9178.553681,306.438199
432.634324,-5033.400406,-10214.842000,-842.705048
432.634651,-5699.585753,-10807.006753,-1762.019645
432.634979,-4441.235652,-9844.739029,-1225.752797
432.635306,-370.102971,-8882.471304,536.266849
432.635634,2664.741391,-7994.224174,2451.505594
432.635961,3034.844362,-7994.224174,2757.943793
432.636289,2072.576638,-9030.512492,2298.286494
432.636616,-592.164754,-9992.780217,229.828649
432.636943,-2516.700203,-10510.924376,-1302.362347
432.637271,-2442.679609,-9992.780217,-1838.629195
432.637598,0.000000,-8882.471304,-689.485948
432.637926,3256.906145,-7994.224174,766.095498
432.638253,4959.379811,-7328.038826,2068.457845
432.638581,4737.318029,-8290.306550,2451.505594
432.638908,2886.803174,-9326.594869,1378.971896
432.639236,-444.123565,-10214.842000,229.828649
432.639563,-2368.659014,-11029.068536,-1149.143247
432.639891,-2146.597232,-10436.903782,-919.314598
432.640218,222.061783,-9252.574275,459.657299
432.640546,2590.720797,-8586.388927,1991.848295
432.640873,3552.988522,-7920.203579,3600.648841
432.641201,1480.411884,-8364.327145,2451.505594
432.641528,-1258.350101,-9548.656652,1072.533697
432.641855,-4219.173869,-10288.862594,-919.314598
432.642183,-5625.565159,-10510.924376,-1915.238745
432.642510,-3849.070898,-9474.636058,-1762.019645
432.642838,-814.226536,-7772.162391,459.657299
432.643165,1776.494261,-7179.997637,1685.410096
432.643493,2146.597232,-7328.038826,2451.505594
432.643820,222.061783,-8068.244768,1225.752797
432.644148,-2664.741391,-9770.718434,-842.705048
432.644475,-5255.462188,-9992.780217,-1532.190996
432.644803,-5699.585753,-9918.759623,-2068.457845
432.645130,-3256.906145,-9030.512492,-1072.533697
432.645458,740.205942,-8438.347739,995.924147
432.645785,2664.741391,-7920.203579,2834.553343
432.646113,2812.782580,-7846.182985,2681.334243
432.646440,740.205942,-9474.636058,1302.362347
432.646768,-2368.659014,-10288.862594,-689.485948
432.647095,-3997.112087,-10955.047942,-2145.067394
432.647422,-2738.761985,-10140.821405,-2068.457845
432.647750,666.185348,-8586.388927,-306.438199
432.648077,4293.194464,-7994.224174,1225.752797
432.648405,5847.626942,-7846.182985,2451.505594
432.648732,4885.359217,-8734.430116,2451.505594
432.649060,1776.494261,-9622.677246,995.924147
432.649387,-592.164754,-10510.924376,-153.219100
432.649715,-1776.494261,-11103.089130,-995.924147
432.650042,-518.144159,-9992.780217,-153.219100
432.650370,2516.700203,-9252.574275,1608.800546
432.650697,4367.215058,-8882.471304,3370.820191
432.651025,4145.153275,-7994.224174,3600.648841
432.651352,1998.556043,-9178.553681,2834.553343
432.651680,-1850.514855,-9844.739029,995.924147
432.652007,-4219.173869,-10436.903782,-689.485948
432.652334,-4589.276840,-9844.739029,-1302.362347
432.652662,-2368.659014,-8586.388927,-536.266849
432.652989,592.164754,-7550.100608,1302.362347
432.653317,1628.453072,-7105.977043,2374.896044
432.653644,888.247130,-7550.100608,2374.896044
432.653972,-1924.535449,-8660.409521,919.314598
432.654299,-5107.421000,-9770.718434,-689.485948
432.654627,-6735.874072,-10362.883188,-1225.752797
432.654954,-5329.482782,-9696.697840,-1378.971896
432.655282,-2072.576638,-8734.430116,-76.609550
432.655609,1036.288319,-8216.285956,1915.238745
432.655937,1776.494261,-7920.203579,2528.115143
432.656264,1036.288319,-9104.533087,1838.629195
432.656592,-1776.494261,-9696.697840,229.828649
432.656919,-4293.194464,-10436.903782,-1685.410096
432.657247,-4219.173869,-10288.862594,-2221.676944
432.657574,-1258.350101,-9104.533087,-1455.581446
432.657901,2368.659014,-7846.182985,76.609550
432.658229,5625.565159,-7179.997637,2374.896044
432.658556,5551.544565,-7772.162391,2221.676944
432.658884,3478.967927,-8660.409521,1685.410096
432.659211,518.144159,-9844.739029,0.000000
432.659539,-1332.370696,-10881.027347,-1302.362347
432.659866,-1776.494261,-10140.821405,-766.095498
432.660194,1480.411884,-9474.636058,229.828649
432.660521,3775.050304,-9252.574275,2451.505594
432.660849,4885.359217,-8882.471304,3524.039291
432.661176,3404.947333,-9252.574275,3447.429741
432.661504,0.000000,-9844.739029,2298.286494
432.661831,-2664.741391,-10510.924376,-306.438199
432.662159,-4071.132681,-10584.944971,-1378.971896
432.662486,-3034.844362,-9326.594869,-1302.362347
432.662813,-370.102971,-7994.224174,0.000000
432.663141,1776.494261,-7105.977043,2451.505594
432.663468,2220.617826,-7031.956449,2834.553343
432.663796,296.082377,-7624.121203,1762.019645
432.664123,-2516.700203,-8808.450710,459.657299
432.664451,-5107.421000,-9918.759623,-919.314598
432.664778,-5329.482782,-10066.800811,-1991.848295
432.665106,-3404.947333,-9178.553681,76.609550
432.665433,0.000000,-8216.285956,1532.190996
432.665761,1924.535449,-7772.162391,3217.601092
432.666088,1924.535449,-8290.306550,3447.429741
432.666416,-444.123565,-9400.615463,2068.457845
432.666743,-2886.803174,-10288.862594,229.828649
432.667071,-4515.256246,-10362.883188,-995.924147
432.667398,-3404.947333,-9622.677246,-1149.143247
432.667725,0.000000,-8512.368333,0.000000
432.668053,3701.029710,-7624.121203,2068.457845
432.668380,5181.441594,-7179.997637,3370.820191
432.668708,4589.276840,-7846.182985,3524.039291
432.669035,1554.432478,-9326.594869,2221.676944
432.669363,-1480.411884,-10658.965565,995.924147
432.669690,-2516.700203,-11399.171507,0.000000
432.670018,-2220.617826,-10732.986159,383.047749
432.670345,1332.370696,-9252.574275,2451.505594
432.670673,4071.132681,-8216.285956,4213.525239
432.671000,4737.318029,-7772.162391,5515.887586
432.671328,3552.988522,-8512.368333,5132.839837
432.671655,0.000000,-9104.533087,3524.039291
432.671983,-2960.823768,-10140.821405,1532.190996
432.672310,-4737.318029,-10436.903782,306.438199
432.672638,-4219.173869,-9474.636058,383.047749
432.672965,-962.267725,-8364.327145,2451.505594
432.673293,2368.659014,-6957.935855,4060.306139
432.673620,3849.070898,-5847.626942,5209.449386
432.673948,2960.823768,-7846.182985,5132.839837
432.674275,-592.164754,-9400.615463,4136.915689
432.674603,-4737.318029,-10584.944971,1838.629195
432.674930,-7031.956449,-11325.150913,842.705048
432.675258,-6735.874072,-10955.047942,1149.143247
432.675585,-3478.967927,-9474.636058,2604.724693
432.675913,296.082377,-7994.224174,4366.744339
432.676240,3108.864956,-7031.956449,5592.497135
432.676567,3923.091493,-7031.956449,5745.716235
432.676895,2220.617826,-8438.347739,4826.401637
432.677222,-1702.473667,-9252.574275,3064.381992
432.677550,-4515.256246,-10584.944971,1532.190996
432.677877,-5033.400406,-11103.089130,919.314598
432.678205,-3775.050304,-10510.924376,1685.410096
432.678532,-888.247130,-9252.574275,2604.724693
432.678860,2738.761985,-8438.347739,4749.792088
432.679187,4441.235652,-8216.285956,4596.572988
432.679515,3182.885551,-8216.285956,4213.525239
432.679842,1850.514855,-9548.656652,3447.429741
432.680170,-370.102971,-9918.759623,2528.115143
432.680497,-1702.473667,-9622.677246,1991.848295
432.680825,-666.185348,-10584.944971,2604.724693
432.681152,592.164754,-9696.697840,3677.258390
432.681480,740.205942,-9474.636058,3370.820191
432.681807,1554.432478,-9548.656652,4060.306139
432.682135,666.185348,-9548.656652,3983.696590
432.682462,-1554.432478,-9252.574275,2834.553343
432.682790,-1258.350101,-9326.594869,2374.896044
432.683117,-888.247130,-9104.533087,1455.581446
432.683445,0.000000,-8660.409521,2221.676944
432.683772,1776.494261,-7772.162391,3140.991542
432.684100,2442.679609,-7476.080014,3830.477490
432.684427,2664.741391,-8438.347739,4366.744339
432.684755,1036.288319,-9400.615463,4673.182538
432.685082,-814.226536,-9400.615463,3753.867940
432.685410,-1998.556043,-10066.800811,3600.648841
432.685737,-2294.638420,-10066.800811,3294.210641
432.686065,-2368.659014,-9770.718434,3753.867940
432.686392,-1258.350101,-9770.718434,3600.648841
432.686720,-592.164754,-9030.512492,3830.477490
432.687047,0.000000,-8438.347739,3830.477490
432.687375,-518.144159,-8512.368333,2911.162892
432.687702,-888.247130,-8438.347739,2911.162892
432.688030,-1110.308913,-8068.244768,2374.896044
432.688357,-1110.308913,-8142.265362,2374.896044
432.688685,-370.102971,-8216.285956,2681.334243
432.689012,0.000000,-8216.285956,3524.039291
432.689339,370.102971,-8734.430116,3983.696590
432.689667,0.000000,-9326.594869,4290.134789
432.689994,-296.082377,-9696.697840,4213.525239
432.690322,-1036.288319,-9992.780217,3753.867940
432.690649,-1110.308913,-9992.780217,3600.648841
432.690977,-888.247130,-9474.636058,3370.820191
432.691304,-592.164754,-8956.491898,3370.820191
432.691632,-148.041188,-8734.430116,3217.601092
432.691959,592.164754,-8586.388927,3217.601092
432.692287,666.185348,-8512.368333,3064.381992
432.692614,296.082377,-8512.368333,2604.724693
432.692942,0.000000,-9104.533087,2451.505594
432.693269,-296.082377,-9400.615463,2068.457845
432.693597,-444.123565,-9400.615463,1762.019645
432.693924,0.000000,-9696.697840,1991.848295
432.694252,0.000000,-9474.636058,2374.896044
432.694579,-296.082377,-9622.677246,1532.190996
432.694907,-592.164754,-9918.759623,2145.067394
432.695234,-962.267725,-9918.759623,1838.629195
432.695562,-1332.370696,-9474.636058,1608.800546
432.695889,-888.247130,-9252.574275,1455.581446
432.696217,0.000000,-8734.430116,1915.238745
432.696544,222.061783,-8660.409521,1225.752797
432.696872,666.185348,-8512.368333,1455.581446
432.697199,814.226536,-8364.327145,1455.581446
432.697527,592.164754,-8808.450710,1302.362347
432.697854,444.123565,-9030.512492,1302.362347
432.698182,0.000000,-9326.594869,919.314598
432.698509,0.000000,-9918.759623,1225.752797
432.698837,370.102971,-10066.800811,1838.629195
432.699164,666.185348,-10140.821405,1838.629195
432.699492,1036.288319,-9474.636058,1991.848295
432.699819,1036.288319,-9696.697840,1762.019645
432.700147,444.123565,-9474.636058,1378.971896
432.700474,0.000000,-9326.594869,1225.752797
432.700802,-962.267725,-9178.553681,689.485948
432.701129,-1258.350101,-9178.553681,995.924147
432.701457,-1184.329507,-9030.512492,689.485948
432.701784,-1184.329507,-9030.512492,995.924147
432.702111,-888.247130,-8882.471304,1072.533697
432.702439,-814.226536,-8660.409521,842.705048
432.702766,-592.164754,-8216.285956,1149.143247
432.703094,-888.247130,-8586.388927,383.047749
432.703421,-814.226536,-8512.368333,383.047749
432.703749,-1036.288319,-8882.471304,306.438199
432.704076,-592.164754,-8734.430116,842.705048
432.704404,-592.164754,-8808.450710,1225.752797
432.704731,0.000000,-9030.512492,919.314598
432.705059,-148.041188,-9104.533087,1532.190996
432.705386,148.041188,-9030.512492,1072.533697
432.705714,148.041188,-8734.430116,919.314598
432.706041,296.082377,-8734.430116,919.314598
432.706369,518.144159,-8586.388927,689.485948
432.706696,518.144159,-9030.512492,842.705048
432.707024,666.185348,-8882.471304,995.924147
432.707351,518.144159,-9178.553681,1149.143247
432.707679,148.041188,-9326.594869,1225.752797
432.708006,0.000000,-8956.491898,842.705048
432.708334,-148.041188,-9178.553681,919.314598
432.708661,-370.102971,-9178.553681,766.095498
432.708989,-814.226536,-9030.512492,842.705048
432.709316,-444.123565,-8808.450710,766.095498
432.709644,-444.123565,-9178.553681,919.314598
432.709971,-740.205942,-8364.327145,766.095498
432.710299,-740.205942,-8660.409521,842.705048
432.710626,-1184.329507,-8882.471304,689.485948
432.710954,-1184.329507,-9030.512492,612.876398
432.711281,-1332.370696,-9104.533087,306.438199
432.711609,-962.267725,-8586.388927,919.314598
432.711936,-592.164754,-8956.491898,229.828649
432.712264,-222.061783,-9104.533087,383.047749
432.712591,0.000000,-9030.512492,536.266849
432.712919,148.041188,-9104.533087,842.705048
432.713246,-370.102971,-9178.553681,1149.143247
432.713574,0.000000,-9548.656652,612.876398
432.713901,-222.061783,-9844.739029,689.485948
432.714229,-148.041188,-10140.821405,766.095498
432.714556,0.000000,-9992.780217,995.924147
432.714884,518.144159,-9844.739029,919.314598
432.715211,666.185348,-9918.759623,459.657299
432.715538,518.144159,-9400.615463,612.876398
432.715866,814.226536,-9252.574275,689.485948
432.716193,148.041188,-9400.615463,459.657299
