#time,accel_x,accel_y,accel_z
443.759091,-222.061783,-9030.512492,919.314598
443.759419,0.000000,-9252.574275,76.609550
443.759747,-222.061783,-9104.533087,612.876398
443.760074,-296.082377,-9178.553681,842.705048
443.760402,-370.102971,-8956.491898,536.266849
443.760730,-592.164754,-9474.636058,459.657299
443.761057,-296.082377,-9104.533087,306.438199
443.761385,-222.061783,-8956.491898,536.266849
443.761713,-222.061783,-9178.553681,612.876398
443.762040,-370.102971,-9178.553681,612.876398
443.762368,-222.061783,-9178.553681,536.266849
443.762696,0.000000,-9030.512492,842.705048
443.763023,-222.061783,-9030.512492,842.705048
443.763351,-148.041188,-9178.553681,612.876398
443.763679,-296.082377,-9030.512492,536.266849
443.764006,-370.102971,-9178.553681,536.266849
443.764334,-518.144159,-8882.471304,919.314598
443.764662,-296.082377,-9178.553681,612.876398
443.764990,-222.061783,-8956.491898,536.266849
443.765317,-222.061783,-8956.491898,612.876398
443.765645,-222.061783,-9178.553681,689.485948
443.765973,-296.082377,-9326.594869,383.047749
443.766300,-370.102971,-8512.368333,919.314598
443.766628,-222.061783,-8956.491898,612.876398
443.766956,-296.082377,-9030.512492,536.266849
443.767283,-296.082377,-9252.574275,536.266849
443.767611,-444.123565,-9178.553681,1149.143247
443.767939,74.020594,-9178.553681,383.047749
443.768266,-222.061783,-8956.491898,536.266849
443.768594,-444.123565,-9252.574275,229.828649
443.768922,-888.247130,-9474.636058,0.000000
443.769250,-1184.329507,-9474.636058,0.000000
443.769577,-1258.350101,-9252.574275,-459.657299
443.769905,-1258.350101,-9104.533087,-153.219100
443.770233,-814.226536,-9178.553681,-229.828649
443.770560,-444.123565,-8956.491898,-229.828649
443.770888,-518.144159,-9104.533087,-612.876398
443.771216,-592.164754,-9252.574275,-842.705048
443.771543,-1036.288319,-9104.533087,-919.314598
443.771871,-1110.308913,-9178.553681,-1532.190996
443.772199,-962.267725,-9326.594869,-1532.190996
443.772526,-740.205942,-9326.594869,-1455.581446
443.772854,-222.061783,-9104.533087,-383.047749
443.773182,0.000000,-8956.491898,-1378.971896
443.773510,0.000000,-9030.512492,-1455.581446
443.773837,0.000000,-9104.533087,-1685.410096
443.774165,0.000000,-9252.574275,-1608.800546
443.774493,0.000000,-9252.574275,-1762.019645
443.774820,444.123565,-9104.533087,-1608.800546
443.775148,74.020594,-9252.574275,-1455.581446
443.775476,148.041188,-9400.615463,-1685.410096
443.775803,370.102971,-9400.615463,-1685.410096
443.776131,518.144159,-9178.553681,-1685.410096
443.776459,370.102971,-9104.533087,-1149.143247
443.776786,222.061783,-9104.533087,-1762.019645
443.777114,0.000000,-9178.553681,-1991.848295
443.777442,74.020594,-9326.594869,-1838.629195
443.777770,0.000000,-9326.594869,-1838.629195
443.778097,0.000000,-9030.512492,-1455.581446
443.778425,148.041188,-9104.533087,-1915.238745
443.778753,-370.102971,-8956.491898,-1915.238745
443.779080,-814.226536,-9104.533087,-1915.238745
443.779408,-1036.288319,-9104.533087,-2068.457845
443.779736,-1184.329507,-8882.471304,-2068.457845
443.780063,-1110.308913,-9474.636058,-2451.505594
443.780391,-1776.494261,-9178.553681,-2834.553343
443.780719,-1924.535449,-9104.533087,-2987.772442
443.781046,-1776.494261,-9030.512492,-3217.601092
443.781374,-2072.576638,-8956.491898,-3370.820191
443.781702,-1776.494261,-8882.471304,-3217.601092
443.782029,-1998.556043,-8956.491898,-3753.867940
443.782357,-1924.535449,-9104.533087,-4060.306139
443.782685,-1702.473667,-8882.471304,-3983.696590
443.783013,-1332.370696,-8882.471304,-4060.306139
443.783340,-814.226536,-8660.409521,-3830.477490
443.783668,74.020594,-9252.574275,-3677.258390
443.783996,740.205942,-8808.450710,-3217.601092
443.784323,1628.453072,-8882.471304,-2834.553343
443.784651,2146.597232,-9178.553681,-2451.505594
443.784979,2368.659014,-8586.388927,-1225.752797
443.785306,2516.700203,-9548.656652,-1991.848295
443.785634,1702.473667,-9770.718434,-2068.457845
443.785962,888.247130,-10214.842000,-2451.505594
443.786289,-296.082377,-10362.883188,-2681.334243
443.786617,-1184.329507,-10510.924376,-3140.991542
443.786945,-1924.535449,-10510.924376,-4749.792088
443.787273,-2368.659014,-10066.800811,-4749.792088
443.787600,-1480.411884,-9326.594869,-5132.839837
443.787928,-370.102971,-8290.306550,-4596.572988
443.788256,1406.391290,-7328.038826,-4136.915689
443.788583,2738.761985,-6661.853478,-3370.820191
443.788911,3108.864956,-7179.997637,-2221.676944
443.789239,2442.679609,-7920.203579,-1915.238745
443.789566,592.164754,-8956.491898,-1838.629195
443.789894,-1406.391290,-10066.800811,-2068.457845
443.790222,-2368.659014,-9992.780217,-1838.629195
443.790549,-1036.288319,-9992.780217,-766.095498
443.790877,1628.453072,-8956.491898,459.657299
443.791205,4663.297435,-7994.224174,1991.848295
443.791533,5329.482782,-8290.306550,2757.943793
443.791860,4737.318029,-8734.430116,2681.334243
443.792188,2220.617826,-9178.553681,2145.067394
443.792516,-370.102971,-9918.759623,766.095498
443.792843,-2886.803174,-10214.842000,-459.657299
443.793171,-5403.503377,-11251.130318,-1532.190996
443.793499,-7031.956449,-11547.212695,-2681.334243
443.793826,-8808.450710,-11251.130318,-3370.820191
443.794154,-8734.430116,-10288.862594,-4213.525239
443.794482,-8216.285956,-8290.306550,-5209.449386
443.794809,-5625.565159,-7476.080014,-5439.278036
443.795137,-3478.967927,-6365.771101,-5132.839837
443.795465,-1924.535449,-5403.503377,-4596.572988
443.795792,-666.185348,-5847.626942,-3447.429741
443.796120,-2294.638420,-7105.977043,-3524.039291
443.796448,-4515.256246,-8660.409521,-4136.915689
443.796776,-6513.812290,-9992.780217,-5132.839837
443.797103,-6217.729913,-10066.800811,-5898.935335
443.797431,-3182.885551,-9474.636058,-5209.449386
443.797759,1850.514855,-7994.224174,-4136.915689
443.798086,7476.080014,-7105.977043,-2528.115143
443.798414,11547.212695,-7254.018232,-689.485948
443.798742,11695.253884,-8364.327145,-1072.533697
443.799069,8512.368333,-10214.842000,-1378.971896
443.799397,5255.462188,-11547.212695,-3064.381992
443.799725,3701.029710,-12139.377449,-3447.429741
443.800052,5255.462188,-11103.089130,-2451.505594
443.800380,7698.141797,-10066.800811,0.000000
443.800708,11325.150913,-9770.718434,2528.115143
443.801036,10658.965565,-9770.718434,2911.162892
443.801363,5255.462188,-10658.965565,2834.553343
443.801691,1776.494261,-11325.150913,536.266849
443.802019,-1628.453072,-10955.047942,-536.266849
443.802346,-3849.070898,-10140.821405,-1378.971896
443.802674,-2738.761985,-9326.594869,-919.314598
443.803002,-3997.112087,-8586.388927,0.000000
443.803329,-6069.688724,-8068.244768,-536.266849
443.803657,-9252.574275,-7328.038826,-2221.676944
443.803985,-10584.944971,-5403.503377,-2757.943793
443.804312,-7328.038826,-4219.173869,-3677.258390
443.804640,-3182.885551,-2516.700203,-2681.334243
443.804968,1406.391290,-2590.720797,0.000000
443.805296,3701.029710,-4589.276840,2757.943793
443.805623,1332.370696,-6735.874072,3983.696590
443.805951,-2516.700203,-9252.574275,5056.230287
443.806279,-6513.812290,-11843.295072,3140.991542
443.806606,-7476.080014,-12509.480420,2757.943793
443.806934,-4959.379811,-12287.418637,3447.429741
443.807262,-1258.350101,-11547.212695,4979.620737
443.807589,3034.844362,-10214.842000,6818.249932
443.807917,4441.235652,-10510.924376,6971.469032
443.808245,3182.885551,-10510.924376,5362.668486
443.808572,814.226536,-10732.986159,3447.429741
443.808900,-888.247130,-10510.924376,1302.362347
443.809228,-1406.391290,-9400.615463,1225.752797
443.809555,1480.411884,-7920.203579,1762.019645
443.809883,3552.988522,-7772.162391,3600.648841
443.810211,1554.432478,-8660.409521,3600.648841
443.810539,-296.082377,-9992.780217,3983.696590
443.810866,-4811.338623,-9770.718434,1991.848295
443.811194,-8586.388927,-11103.089130,306.438199
443.811522,-7328.038826,-11029.068536,-1149.143247
443.811849,-4367.215058,-9548.656652,-995.924147
443.812177,-1480.411884,-9104.533087,536.266849
443.812505,1628.453072,-7624.121203,995.924147
443.812832,666.185348,-7179.997637,1149.143247
443.813160,-2146.597232,-7772.162391,-766.095498
443.813488,-2368.659014,-7994.224174,-2298.286494
443.813815,-1998.556043,-8734.430116,-2987.772442
443.814143,1480.411884,-9400.615463,-2757.943793
443.814471,4663.297435,-9326.594869,-1149.143247
443.814798,6217.729913,-10584.944971,383.047749
443.815126,4441.235652,-11769.274478,1149.143247
443.815453,1332.370696,-12879.583391,766.095498
443.815781,-1702.473667,-13027.624579,-995.924147
443.816109,-1702.473667,-12583.501014,-2451.505594
443.816436,-148.041188,-10658.965565,-2145.067394
443.816764,3108.864956,-9252.574275,-1225.752797
443.817091,4515.256246,-8438.347739,0.000000
443.817419,3997.112087,-8438.347739,689.485948
443.817746,1776.494261,-8586.388927,153.219100
443.818074,-962.267725,-7698.141797,-1532.190996
443.818401,-1184.329507,-7328.038826,-2604.724693
443.818729,740.205942,-6883.915261,-1762.019645
443.819056,3627.009116,-6069.688724,-995.924147
443.819384,3034.844362,-6365.771101,1072.533697
443.819711,2738.761985,-7772.162391,1762.019645
443.820039,-1110.308913,-9104.533087,1762.019645
443.820366,-4441.235652,-9770.718434,76.609550
443.820694,-4663.297435,-9992.780217,-995.924147
443.821022,-2812.782580,-9696.697840,-612.876398
443.821349,0.000000,-8068.244768,153.219100
443.821677,2368.659014,-7772.162391,1072.533697
443.822004,1776.494261,-7698.141797,1838.629195
443.822332,-888.247130,-8068.244768,1762.019645
443.822659,-3404.947333,-8438.347739,842.705048
443.822987,-4219.173869,-8068.244768,-229.828649
443.823314,-1850.514855,-7698.141797,-153.219100
443.823642,740.205942,-7402.059420,995.924147
443.823969,2368.659014,-7476.080014,2374.896044
443.824297,1406.391290,-8512.368333,3064.381992
443.824624,-1332.370696,-9104.533087,3064.381992
443.824952,-4959.379811,-9252.574275,1149.143247
443.825280,-6365.771101,-9400.615463,76.609550
443.825607,-4737.318029,-8290.306550,-229.828649
443.825935,-1184.329507,-7624.121203,306.438199
443.826262,1776.494261,-6735.874072,1608.800546
443.826590,2368.659014,-7402.059420,2145.067394
443.826917,444.123565,-7994.224174,2068.457845
443.827245,-1924.535449,-8734.430116,536.266849
443.827572,-2960.823768,-9030.512492,0.000000
443.827900,-1184.329507,-8586.388927,-306.438199
443.828227,2368.659014,-8660.409521,536.266849
443.828555,4219.173869,-9252.574275,2221.676944
443.828882,3552.988522,-10584.944971,3294.210641
443.829210,962.267725,-11843.295072,3217.601092
443.829537,-2294.638420,-12657.521608,2374.896044
443.829865,-4219.173869,-12287.418637,689.485948
443.830193,-2960.823768,-11769.274478,0.000000
443.830520,518.144159,-10288.862594,229.828649
443.830848,3256.906145,-9252.574275,995.924147
443.831175,3627.009116,-8882.471304,2145.067394
443.831503,1554.432478,-9030.512492,1685.410096
443.831830,-1332.370696,-9400.615463,1149.143247
443.832158,-3330.926739,-9474.636058,-153.219100
443.832485,-2738.761985,-8956.491898,-766.095498
443.832813,-148.041188,-8586.388927,-306.438199
443.833140,2146.597232,-8364.327145,995.924147
443.833468,2442.679609,-9252.574275,1455.581446
443.833795,-370.102971,-10214.842000,1302.362347
443.834123,-4071.132681,-11177.109724,153.219100
443.834451,-6365.771101,-11325.150913,-1072.533697
443.834778,-5847.626942,-10510.924376,-2145.067394
443.835106,-2442.679609,-8808.450710,-2298.286494
443.835433,1258.350101,-8364.327145,-766.095498
443.835761,3182.885551,-8438.347739,76.609550
443.836088,2072.576638,-8882.471304,0.000000
443.836416,-370.102971,-9548.656652,-229.828649
443.836743,-2368.659014,-9474.636058,-1378.971896
443.837071,-1998.556043,-9474.636058,-1685.410096
443.837398,740.205942,-8956.491898,-1149.143247
443.837726,4219.173869,-8290.306550,459.657299
443.838053,5699.585753,-8660.409521,1532.190996
443.838381,4219.173869,-9178.553681,2451.505594
443.838708,1184.329507,-9844.739029,1915.238745
443.839036,-2294.638420,-9918.759623,383.047749
443.839364,-2368.659014,-9474.636058,-536.266849
443.839691,0.000000,-7994.224174,-766.095498
443.840019,2960.823768,-7328.038826,229.828649
443.840346,4959.379811,-7105.977043,1685.410096
443.840674,3997.112087,-7105.977043,1991.848295
443.841001,888.247130,-7994.224174,1608.800546
443.841329,-1702.473667,-8438.347739,306.438199
443.841656,-3182.885551,-8734.430116,-612.876398
443.841984,-1776.494261,-7846.182985,0.000000
443.842311,370.102971,-7846.182985,612.876398
443.842639,1406.391290,-8142.265362,1838.629195
443.842966,370.102971,-9104.533087,2374.896044
443.843294,-2812.782580,-9918.759623,1915.238745
443.843622,-6661.853478,-9696.697840,459.657299
443.843949,-7105.977043,-9474.636058,-459.657299
443.844277,-5181.441594,-8290.306550,-689.485948
443.844604,-1554.432478,-7105.977043,0.000000
443.844932,1406.391290,-6735.874072,842.705048
443.845259,1480.411884,-6735.874072,1608.800546
443.845587,-370.102971,-7772.162391,1072.533697
443.845914,-3256.906145,-8808.450710,153.219100
443.846242,-4071.132681,-8956.491898,-536.266849
443.846569,-1776.494261,-9104.533087,0.000000
443.846897,1702.473667,-8808.450710,995.924147
443.847224,4145.153275,-8882.471304,2298.286494
443.847552,3775.050304,-9918.759623,3294.210641
443.847879,1184.329507,-11103.089130,2604.724693
443.848207,-1998.556043,-11473.192101,1455.581446
443.848535,-3034.844362,-11029.068536,76.609550
443.848862,-1184.329507,-10362.883188,0.000000
443.849190,1406.391290,-9474.636058,306.438199
443.849517,4219.173869,-9030.512492,1149.143247
443.849845,4737.318029,-8734.430116,1455.581446
443.850172,2368.659014,-9178.553681,1455.581446
443.850500,-370.102971,-9474.636058,766.095498
443.850827,-2220.617826,-10140.821405,-459.657299
443.851155,-2072.576638,-10066.800811,-612.876398
443.851482,148.041188,-9622.677246,0.000000
443.851810,1628.453072,-9622.677246,1149.143247
443.852137,1776.494261,-10066.800811,1608.800546
443.852465,-592.164754,-10584.944971,1072.533697
443.852793,-4071.132681,-11029.068536,306.438199
443.853120,-5921.647536,-10658.965565,-689.485948
443.853448,-4885.359217,-9622.677246,-1532.190996
443.853775,-1702.473667,-8290.306550,-1225.752797
443.854103,1702.473667,-7550.100608,-536.266849
443.854430,3108.864956,-7772.162391,459.657299
443.854758,1702.473667,-8956.491898,689.485948
443.855085,-1184.329507,-9252.574275,0.000000
443.855413,-3256.906145,-9696.697840,-919.314598
443.855740,-2368.659014,-9474.636058,-1838.629195
443.856068,0.000000,-9474.636058,0.000000
443.856395,3034.844362,-9252.574275,1149.143247
443.856723,4589.276840,-9326.594869,2374.896044
443.857050,2442.679609,-9844.739029,2528.115143
443.857378,-222.061783,-10658.965565,2221.676944
443.857706,-3034.844362,-10510.924376,153.219100
443.858033,-3034.844362,-9696.697840,-229.828649
443.858361,-518.144159,-8438.347739,0.000000
443.858688,2516.700203,-7179.997637,459.657299
443.859016,4071.132681,-6587.832884,1532.190996
443.859343,3478.967927,-6957.935855,2451.505594
443.859671,74.020594,-7698.141797,1455.581446
443.859998,-2220.617826,-8142.265362,76.609550
443.860326,-2812.782580,-8364.327145,-229.828649
443.860653,-1332.370696,-8216.285956,153.219100
443.860981,1406.391290,-7994.224174,536.266849
443.861308,2294.638420,-8660.409521,2145.067394
443.861636,74.020594,-9400.615463,2298.286494
443.861964,-2442.679609,-10066.800811,1455.581446
443.862291,-5477.523971,-10066.800811,0.000000
443.862619,-5699.585753,-9178.553681,-842.705048
443.862946,-3256.906145,-8216.285956,-1302.362347
443.863274,74.020594,-7328.038826,-536.266849
443.863601,2442.679609,-7105.977043,536.266849
443.863929,1998.556043,-7328.038826,766.095498
443.864256,-444.123565,-8068.244768,0.000000
443.864584,-2738.761985,-8290.306550,-229.828649
443.864911,-3330.926739,-8956.491898,-1225.752797
443.865239,-1184.329507,-8660.409521,-612.876398
443.865566,1998.556043,-8364.327145,536.266849
443.865894,4293.194464,-8734.430116,2374.896044
443.866221,3701.029710,-9548.656652,2604.724693
443.866549,740.205942,-10732.986159,1915.238745
443.866877,-2368.659014,-11251.130318,689.485948
443.867204,-3552.988522,-10881.027347,-612.876398
443.867532,-1480.411884,-10214.842000,-689.485948
443.867859,1554.432478,-9178.553681,76.609550
443.868187,4441.235652,-8586.388927,1302.362347
443.868514,4737.318029,-8808.450710,1838.629195
443.868842,1924.535449,-9918.759623,1455.581446
443.869169,-1258.350101,-9992.780217,229.828649
443.869497,-2664.741391,-10140.821405,-612.876398
443.869824,-1628.453072,-9918.759623,-229.828649
443.870152,666.185348,-9548.656652,536.266849
443.870479,2516.700203,-9770.718434,1762.019645
443.870807,1702.473667,-10140.821405,2298.286494
443.871134,-814.226536,-10362.883188,2068.457845
443.871462,-4367.215058,-10658.965565,1378.971896
443.871790,-5995.668130,-10658.965565,-383.047749
443.872117,-4663.297435,-9400.615463,-766.095498
443.872445,-1554.432478,-8364.327145,-306.438199
443.872772,1406.391290,-7476.080014,459.657299
443.873100,2294.638420,-7624.121203,995.924147
443.873427,0.000000,-8142.265362,919.314598
443.873755,-2516.700203,-8734.430116,229.828649
443.874082,-4219.173869,-8956.491898,-919.314598
443.874410,-2886.803174,-8956.491898,-689.485948
443.874737,962.267725,-8660.409521,612.876398
443.875065,2960.823768,-8216.285956,1915.238745
443.875392,3330.926739,-9178.553681,2681.334243
443.875720,1036.288319,-10288.862594,2374.896044
443.876048,-2220.617826,-11029.068536,1225.752797
443.876375,-3552.988522,-11177.109724,383.047749
443.876703,-2516.700203,-9844.739029,-536.266849
443.877030,0.000000,-8808.450710,0.000000
443.877358,3182.885551,-7772.162391,1455.581446
443.877685,4737.318029,-7624.121203,2068.457845
443.878013,2590.720797,-7328.038826,1991.848295
443.878340,-222.061783,-7920.203579,919.314598
443.878668,-2368.659014,-9104.533087,0.000000
443.878995,-2812.782580,-8586.388927,-612.876398
443.879323,0.000000,-8290.306550,0.000000
443.879650,2516.700203,-8068.244768,1455.581446
443.879978,2960.823768,-8216.285956,2374.896044
443.880305,666.185348,-9178.553681,2221.676944
443.880633,-2368.659014,-9474.636058,919.314598
443.880961,-5329.482782,-9622.677246,-536.266849
443.881288,-4885.359217,-8956.491898,-1072.533697
443.881616,-1850.514855,-7772.162391,-766.095498
443.881943,1332.370696,-7031.956449,0.000000
443.882271,2886.803174,-7105.977043,919.314598
443.882598,1776.494261,-7846.182985,1225.752797
443.882926,-666.185348,-8956.491898,919.314598
443.883253,-3478.967927,-8882.471304,0.000000
443.883581,-3552.988522,-9400.615463,-229.828649
443.883908,-1036.288319,-9252.574275,0.000000
443.884236,1924.535449,-9178.553681,995.924147
443.884563,3404.947333,-9400.615463,2374.896044
443.884891,2072.576638,-9918.759623,2834.553343
443.885219,-1332.370696,-10140.821405,1608.800546
443.885546,-4145.153275,-10732.986159,0.000000
443.885874,-4663.297435,-10214.842000,-1455.581446
443.886201,-1924.535449,-8882.471304,-1072.533697
443.886529,1850.514855,-7846.182985,-612.876398
443.886856,3627.009116,-7402.059420,459.657299
443.887184,3701.029710,-8290.306550,1072.533697
443.887511,444.123565,-9178.553681,612.876398
443.887839,-2294.638420,-9474.636058,-536.266849
443.888166,-2886.803174,-10214.842000,-1532.190996
443.888494,-1184.329507,-9918.759623,-689.485948
443.888821,2220.617826,-9622.677246,153.219100
443.889149,3552.988522,-9474.636058,1532.190996
443.889476,2664.741391,-10584.944971,2068.457845
443.889804,0.000000,-10658.965565,1225.752797
443.890132,-2442.679609,-10955.047942,459.657299
443.890459,-3478.967927,-10658.965565,-766.095498
443.890787,-2072.576638,-9622.677246,-1072.533697
443.891114,1406.391290,-8734.430116,0.000000
443.891442,3997.112087,-8586.388927,612.876398
443.891769,3849.070898,-8364.327145,1072.533697
443.892097,1184.329507,-9252.574275,459.657299
443.892424,-2072.576638,-9770.718434,229.828649
443.892752,-3404.947333,-9770.718434,-536.266849
443.893079,-1850.514855,-9548.656652,-383.047749
443.893407,962.267725,-9178.553681,612.876398
443.893734,3182.885551,-9326.594869,1915.238745
443.894062,2590.720797,-9474.636058,2528.115143
443.894390,-370.102971,-10140.821405,2451.505594
443.894717,-3478.967927,-9918.759623,1072.533697
443.895045,-4885.359217,-9918.759623,0.000000
443.895372,-3923.091493,-8882.471304,0.000000
443.895700,-740.205942,-8216.285956,459.657299
443.896027,1998.556043,-7328.038826,1378.971896
443.896355,2516.700203,-7179.997637,2145.067394
443.896682,666.185348,-7920.203579,1991.848295
443.897010,-1776.494261,-8142.265362,919.314598
443.897337,-3775.050304,-8882.471304,0.000000
443.897665,-2738.761985,-8808.450710,0.000000
443.897992,-370.102971,-8364.327145,689.485948
443.898320,2072.576638,-8290.306550,2068.457845
443.898647,2368.659014,-8734.430116,2987.772442
443.898975,74.020594,-9770.718434,2451.505594
443.899303,-2812.782580,-9844.739029,1149.143247
443.899630,-4811.338623,-9696.697840,0.000000
443.899958,-3775.050304,-9104.533087,-306.438199
443.900285,-740.205942,-7846.182985,-229.828649
443.900613,2664.741391,-6809.894666,766.095498
443.900940,3775.050304,-7031.956449,1455.581446
443.901268,2146.597232,-8068.244768,1532.190996
443.901595,-814.226536,-8364.327145,383.047749
443.901923,-2812.782580,-8882.471304,-306.438199
443.902250,-1850.514855,-8734.430116,-919.314598
443.902578,444.123565,-8660.409521,0.000000
443.902905,2886.803174,-8660.409521,1149.143247
443.903233,3627.009116,-9030.512492,1608.800546
443.903561,1480.411884,-9918.759623,1608.800546
443.903888,-1924.535449,-10436.903782,842.705048
443.904216,-4589.276840,-10584.944971,-1149.143247
443.904543,-4071.132681,-10362.883188,-1762.019645
443.904871,-1702.473667,-9400.615463,-1685.410096
443.905198,1702.473667,-8438.347739,-842.705048
443.905526,2960.823768,-7846.182985,0.000000
443.905853,2590.720797,-8586.388927,0.000000
443.906181,-370.102971,-9252.574275,-612.876398
443.906508,-2960.823768,-9474.636058,-1608.800546
443.906836,-3108.864956,-9770.718434,-1915.238745
443.907163,-1036.288319,-9178.553681,-1225.752797
443.907491,2442.679609,-8660.409521,536.266849
443.907818,4071.132681,-8882.471304,1455.581446
443.908146,2738.761985,-9992.780217,1915.238745
443.908474,0.000000,-10881.027347,1455.581446
443.908801,-3330.926739,-10881.027347,229.828649
443.909129,-3478.967927,-10658.965565,-995.924147
443.909456,-1258.350101,-9548.656652,0.000000
443.909784,2442.679609,-9030.512492,536.266849
443.910111,4441.235652,-8512.368333,1685.410096
443.910439,3627.009116,-8882.471304,2221.676944
443.910766,962.267725,-9252.574275,2374.896044
443.911094,-1998.556043,-9474.636058,1072.533697
443.911421,-2220.617826,-9474.636058,153.219100
443.911749,-370.102971,-9326.594869,919.314598
443.912076,2294.638420,-8882.471304,1838.629195
443.912404,3256.906145,-9030.512492,2987.772442
443.912732,1924.535449,-9400.615463,3370.820191
443.913059,-1850.514855,-10362.883188,2604.724693
443.913387,-5107.421000,-10658.965565,995.924147
443.913714,-6365.771101,-9918.759623,76.609550
443.914042,-4663.297435,-8882.471304,76.609550
443.914369,-1258.350101,-7994.224174,689.485948
443.914697,1036.288319,-6809.894666,1225.752797
443.915024,1110.308913,-6883.915261,1608.800546
443.915352,-1110.308913,-7328.038826,995.924147
443.915679,-4071.132681,-7772.162391,-229.828649
443.916007,-4737.318029,-7624.121203,-766.095498
443.916334,-3108.864956,-7920.203579,-612.876398
443.916662,148.041188,-7624.121203,459.657299
443.916989,2590.720797,-7846.182985,1608.800546
443.917317,2294.638420,-8660.409521,2451.505594
443.917644,148.041188,-9696.697840,2374.896044
443.917972,-3256.906145,-10510.924376,995.924147
443.918299,-4515.256246,-10436.903782,-306.438199
443.918627,-2664.741391,-9622.677246,-766.095498
443.918954,962.267725,-8734.430116,-153.219100
443.919282,4515.256246,-8142.265362,842.705048
443.919609,5477.523971,-7772.162391,1915.238745
443.919937,3256.906145,-8734.430116,1225.752797
443.920265,296.082377,-8882.471304,536.266849
443.920592,-1924.535449,-9474.636058,-612.876398
443.920920,-296.082377,-9474.636058,-459.657299
443.921247,2220.617826,-8882.471304,229.828649
443.921575,3997.112087,-8586.388927,1608.800546
443.921902,3701.029710,-9474.636058,2298.286494
443.922230,1110.308913,-10288.862594,1991.848295
443.922557,-2738.761985,-10732.986159,612.876398
443.922885,-5107.421000,-11029.068536,-995.924147
443.923212,-4959.379811,-9548.656652,-1838.629195
443.923540,-2072.576638,-9030.512492,-1455.581446
443.923867,1036.288319,-7994.224174,-995.924147
443.924195,2368.659014,-7698.141797,153.219100
443.924522,1406.391290,-7994.224174,0.000000
443.924850,-1480.411884,-8660.409521,-153.219100
443.925177,-4071.132681,-9326.594869,-1608.800546
443.925505,-3552.988522,-9474.636058,-2221.676944
443.925832,-888.247130,-9104.533087,-1149.143247
443.926160,2220.617826,-8956.491898,229.828649
443.926487,3330.926739,-9474.636058,2068.457845
443.926815,1776.494261,-10510.924376,2451.505594
443.927142,-1332.370696,-11251.130318,1378.971896
443.927470,-3701.029710,-11399.171507,229.828649
443.927797,-3478.967927,-10807.006753,-459.657299
443.928125,-444.123565,-9548.656652,0.000000
443.928452,3034.844362,-8438.347739,1149.143247
443.928780,5181.441594,-8216.285956,1991.848295
443.929107,4071.132681,-8586.388927,2221.676944
443.929435,1110.308913,-9252.574275,1532.190996
443.929762,-1702.473667,-9474.636058,612.876398
443.930090,-1258.350101,-9474.636058,459.657299
443.930417,666.185348,-9326.594869,1225.752797
443.930745,2738.761985,-8956.491898,2374.896044
443.931072,3256.906145,-9622.677246,3294.210641
443.931400,1110.308913,-10140.821405,3907.087040
443.931727,-2368.659014,-10881.027347,2374.896044
443.932055,-5477.523971,-10658.965565,919.314598
443.932382,-6217.729913,-9770.718434,0.000000
443.932710,-4145.153275,-8734.430116,0.000000
443.933038,-1258.350101,-7254.018232,306.438199
443.933365,222.061783,-6513.812290,1378.971896
443.933693,222.061783,-6809.894666,919.314598
443.934020,-2368.659014,-7402.059420,0.000000
443.934348,-4959.379811,-7698.141797,-1302.362347
443.934675,-5477.523971,-7846.182985,-1991.848295
443.935003,-2960.823768,-7402.059420,-995.924147
443.935330,888.247130,-7402.059420,0.000000
443.935658,3182.885551,-7698.141797,1378.971896
443.935985,2516.700203,-8808.450710,1991.848295
443.936313,0.000000,-9770.718434,1302.362347
443.936640,-3182.885551,-10362.883188,229.828649
443.936968,-4145.153275,-9918.759623,-689.485948
443.937295,-1480.411884,-9326.594869,-919.314598
443.937623,2664.741391,-8142.265362,0.000000
443.937950,6069.688724,-7846.182985,1225.752797
443.938278,6513.812290,-7698.141797,1685.410096
443.938605,4441.235652,-8364.327145,1685.410096
443.938933,740.205942,-9104.533087,612.876398
443.939260,-148.041188,-9178.553681,229.828649
443.939588,1554.432478,-9104.533087,0.000000
443.939915,3108.864956,-9326.594869,1149.143247
443.940243,5181.441594,-9252.574275,2298.286494
443.940570,3775.050304,-9696.697840,3217.601092
443.940898,518.144159,-10436.903782,2681.334243
443.941225,-3034.844362,-10584.944971,1302.362347
443.941553,-5033.400406,-10732.986159,153.219100
443.941880,-4811.338623,-9696.697840,-153.219100
443.942208,-2738.761985,-8586.388927,-766.095498
443.942535,-518.144159,-7994.224174,76.609550
443.942863,-370.102971,-7402.059420,306.438199
443.943190,-2146.597232,-8290.306550,0.000000
443.943518,-4959.379811,-8364.327145,-1072.533697
443.943845,-6809.894666,-8512.368333,-2298.286494
443.944173,-5699.585753,-8438.347739,-2451.505594
443.944500,-2516.700203,-8216.285956,-1762.019645
443.944828,666.185348,-8068.244768,-153.219100
443.945155,1850.514855,-8438.347739,1149.143247
443.945483,296.082377,-10214.842000,1455.581446
443.945811,-3108.864956,-10955.047942,459.657299
443.946138,-4885.359217,-11251.130318,-459.657299
443.946466,-3849.070898,-10658.965565,-1072.533697
443.946793,-148.041188,-9548.656652,-536.266849
443.947121,4145.153275,-8586.388927,1149.143247
443.947448,5995.668130,-8290.306550,1991.848295
443.947776,5255.462188,-8808.450710,2221.676944
443.948103,2664.741391,-9474.636058,1225.752797
443.948431,592.164754,-9770.718434,612.876398
443.948758,740.205942,-9474.636058,0.000000
443.949086,4219.173869,-9474.636058,1762.019645
443.949413,5477.523971,-8882.471304,1838.629195
443.949741,4663.297435,-9548.656652,3217.601092
443.950068,4145.153275,-10288.862594,3294.210641
443.950396,-1776.494261,-10955.047942,2221.676944
443.950723,-3701.029710,-11621.233289,1072.533697
443.951051,-4737.318029,-10510.924376,-383.047749
443.951378,-3034.844362,-9622.677246,229.828649
443.951706,-1258.350101,-7920.203579,-306.438199
443.952033,666.185348,-8882.471304,919.314598
443.952361,0.000000,-8068.244768,689.485948
443.952688,-3775.050304,-8216.285956,-459.657299
443.953016,-6069.688724,-8956.491898,-1225.752797
443.953343,-5995.668130,-7328.038826,-2374.896044
443.953671,-2886.803174,-7846.182985,-919.314598
443.953998,-1110.308913,-7254.018232,-842.705048
443.954326,1480.411884,-8882.471304,1149.143247
443.954653,296.082377,-9030.512492,1149.143247
443.954981,-2442.679609,-10436.903782,612.876398
443.955308,-4959.379811,-11473.192101,0.000000
443.955636,-4737.318029,-10140.821405,-612.876398
443.955963,-1776.494261,-9622.677246,-842.705048
443.956291,2886.803174,-8586.388927,689.485948
443.956618,5625.565159,-8290.306550,1915.238745
443.956946,5181.441594,-9178.553681,2451.505594
443.957273,3108.864956,-8956.491898,1838.629195
443.957601,814.226536,-9548.656652,1072.533697
443.957928,0.000000,-9696.697840,306.438199
443.958256,2146.597232,-9844.739029,766.095498
443.958584,4515.256246,-9474.636058,1455.581446
443.958911,5255.462188,-9548.656652,3064.381992
443.959239,4885.359217,-9252.574275,3447.429741
443.959566,740.205942,-11029.068536,2834.553343
443.959894,-3182.885551,-10955.047942,1762.019645
443.960221,-4589.276840,-10658.965565,0.000000
443.960549,-3034.844362,-9400.615463,0.000000
443.960876,-1258.350101,-8216.285956,0.000000
443.961204,518.144159,-7846.182985,1225.752797
443.961531,-296.082377,-7920.203579,995.924147
443.961859,-2368.659014,-8142.265362,306.438199
443.962186,-5477.523971,-8290.306550,-1149.143247
443.962514,-6809.894666,-8142.265362,-1991.848295
443.962841,-4737.318029,-8142.265362,-1608.800546
443.963169,-1776.494261,-7254.018232,-766.095498
443.963496,1036.288319,-7402.059420,229.828649
443.963824,1110.308913,-8142.265362,919.314598
443.964151,-1110.308913,-9178.553681,1149.143247
443.964479,-3849.070898,-10584.944971,-306.438199
443.964806,-5181.441594,-10584.944971,-919.314598
443.965134,-3182.885551,-9918.759623,-1149.143247
443.965461,666.185348,-8882.471304,-306.438199
443.965789,4737.318029,-8068.244768,995.924147
443.966116,5551.544565,-8364.327145,2374.896044
443.966444,4441.235652,-9030.512492,2221.676944
443.966771,1776.494261,-9400.615463,995.924147
443.967099,370.102971,-9696.697840,153.219100
443.967426,1406.391290,-9474.636058,76.609550
443.967754,4515.256246,-8734.430116,766.095498
443.968081,5847.626942,-8586.388927,1685.410096
443.968409,5107.421000,-9104.533087,2681.334243
443.968736,3923.091493,-9696.697840,2987.772442
443.969064,0.000000,-10140.821405,1838.629195
443.969391,-3552.988522,-9770.718434,1225.752797
443.969719,-2886.803174,-9918.759623,229.828649
443.970046,-1702.473667,-8734.430116,76.609550
443.970374,0.000000,-8364.327145,459.657299
443.970701,1184.329507,-7772.162391,1225.752797
443.971029,-1406.391290,-7920.203579,1072.533697
443.971356,-3849.070898,-8068.244768,0.000000
443.971684,-5921.647536,-8438.347739,-1532.190996
443.972012,-5921.647536,-8142.265362,-1991.848295
443.972339,-3034.844362,-7402.059420,-1532.190996
443.972667,-296.082377,-7254.018232,-229.828649
443.972994,1036.288319,-7550.100608,919.314598
443.973322,-962.267725,-8882.471304,766.095498
443.973649,-4071.132681,-10140.821405,-229.828649
443.973977,-6143.709319,-10658.965565,-1685.410096
443.974304,-5477.523971,-10214.842000,-1762.019645
443.974632,-1776.494261,-9030.512492,-995.924147
443.974959,2146.597232,-8216.285956,76.609550
443.975287,5033.400406,-8290.306550,1455.581446
443.975614,4737.318029,-8734.430116,1838.629195
443.975942,2220.617826,-9400.615463,1532.190996
443.976269,296.082377,-9548.656652,842.705048
443.976597,222.061783,-9918.759623,919.314598
443.976924,3034.844362,-9696.697840,689.485948
443.977252,5773.606348,-9252.574275,2221.676944
443.977579,6291.750507,-9622.677246,3064.381992
443.977907,4811.338623,-10732.986159,4366.744339
443.978234,1850.514855,-11177.109724,2374.896044
443.978562,-3330.926739,-11399.171507,1915.238745
443.978889,-2442.679609,-10732.986159,536.266849
443.979217,-1702.473667,-9992.780217,612.876398
443.979544,0.000000,-9030.512492,995.924147
443.979872,1702.473667,-8438.347739,1225.752797
443.980199,0.000000,-8290.306550,2068.457845
443.980527,-2590.720797,-8364.327145,536.266849
443.980854,-5033.400406,-8734.430116,-153.219100
443.981182,-6513.812290,-8586.388927,-1455.581446
443.981509,-4663.297435,-7920.203579,-1149.143247
443.981837,-1776.494261,-7698.141797,-153.219100
443.982164,-370.102971,-7550.100608,536.266849
443.982492,-666.185348,-8438.347739,1149.143247
443.982819,-3775.050304,-9696.697840,536.266849
443.983147,-6069.688724,-10288.862594,-536.266849
443.983474,-7105.977043,-10066.800811,-1991.848295
443.983802,-4219.173869,-9474.636058,-1762.019645
443.984129,148.041188,-8364.327145,-459.657299
443.984457,3923.091493,-7994.224174,612.876398
443.984785,5181.441594,-8586.388927,1762.019645
443.985112,3404.947333,-9474.636058,1455.581446
443.985440,888.247130,-9918.759623,383.047749
443.985767,0.000000,-10362.883188,0.000000
443.986095,1776.494261,-10362.883188,76.609550
443.986422,4589.276840,-9696.697840,1302.362347
443.986750,6735.874072,-9400.615463,2911.162892
443.987077,6513.812290,-9918.759623,3907.087040
443.987405,4071.132681,-10807.006753,4060.306139
443.987732,444.123565,-10584.944971,1838.629195
443.988060,-3256.906145,-10732.986159,1378.971896
443.988387,-1110.308913,-9030.512492,76.609550
443.988715,148.041188,-9474.636058,842.705048
443.989042,1184.329507,-8290.306550,1072.533697
443.989370,1776.494261,-7994.224174,1302.362347
443.989697,-962.267725,-8586.388927,1378.971896
443.990025,-3849.070898,-8438.347739,-153.219100
443.990352,-5773.606348,-7994.224174,-766.095498
443.990680,-5477.523971,-8068.244768,-1915.238745
443.991007,-2960.823768,-7328.038826,-919.314598
443.991335,-518.144159,-7105.977043,-306.438199
443.991662,-222.061783,-7624.121203,536.266849
443.991990,-1924.535449,-8586.388927,612.876398
443.992317,-5477.523971,-9400.615463,-766.095498
443.992645,-7402.059420,-9400.615463,-1915.238745
443.992972,-5995.668130,-9104.533087,-2145.067394
443.993300,-2146.597232,-8068.244768,-1378.971896
443.993627,2072.576638,-7105.977043,153.219100
443.993955,4367.215058,-7328.038826,919.314598
443.994282,3478.967927,-8438.347739,1455.581446
443.994610,1258.350101,-9474.636058,995.924147
443.994937,-666.185348,-9770.718434,0.000000
443.995265,370.102971,-9622.677246,0.000000
443.995592,3552.988522,-9548.656652,459.657299
443.995920,6439.791695,-9252.574275,2374.896044
443.996247,6957.935855,-9104.533087,3370.820191
443.996575,5255.462188,-9844.739029,3983.696590
443.996902,2516.700203,-10436.903782,3140.991542
443.997230,-2368.659014,-9992.780217,1455.581446
443.997558,-1628.453072,-10362.883188,536.266849
443.997885,0.000000,-8364.327145,459.657299
443.998213,888.247130,-8586.388927,1149.143247
443.998540,2516.700203,-8068.244768,1608.800546
443.998868,1036.288319,-7698.141797,1762.019645
443.999195,-2368.659014,-9252.574275,842.705048
443.999523,-4441.235652,-8808.450710,-612.876398
443.999850,-5551.544565,-9030.512492,-995.924147
444.000178,-4219.173869,-8290.306550,-1225.752797
444.000505,-1406.391290,-7772.162391,306.438199
444.000833,-222.061783,-8142.265362,459.657299
444.001160,-1628.453072,-9104.533087,766.095498
444.001488,-4219.173869,-9548.656652,153.219100
444.001815,-7031.956449,-10066.800811,-1225.752797
444.002143,-7105.977043,-9548.656652,-2451.505594
444.002470,-4145.153275,-8660.409521,-1762.019645
444.002798,518.144159,-7846.182985,-459.657299
444.003125,3330.926739,-7772.162391,383.047749
444.003453,3330.926739,-8956.491898,1302.362347
444.003780,1480.411884,-10140.821405,919.314598
444.004108,-740.205942,-10362.883188,689.485948
444.004435,-1036.288319,-11251.130318,-383.047749
444.004763,1332.370696,-10807.006753,306.438199
444.005090,4737.318029,-10140.821405,1455.581446
444.005418,7105.977043,-9918.759623,2987.772442
444.005745,6513.812290,-9992.780217,3753.867940
444.006073,3478.967927,-10288.862594,3447.429741
444.006400,592.164754,-10955.047942,2681.334243
444.006728,-2220.617826,-10362.883188,229.828649
444.007055,-1406.391290,-9844.739029,689.485948
444.007383,1258.350101,-6809.894666,1225.752797
444.007710,2516.700203,-8068.244768,1915.238745
444.008038,2072.576638,-8142.265362,2374.896044
444.008365,0.000000,-8586.388927,1455.581446
444.008693,-3923.091493,-9104.533087,459.657299
444.009020,-4737.318029,-8290.306550,-766.095498
444.009348,-4663.297435,-8586.388927,-919.314598
444.009675,-2812.782580,-8068.244768,-536.266849
444.010003,-1184.329507,-8216.285956,306.438199
444.010330,-740.205942,-8586.388927,536.266849
444.010658,-3182.885551,-9178.553681,459.657299
444.010986,-5699.585753,-8956.491898,-306.438199
444.011313,-7624.121203,-8956.491898,-1991.848295
444.011641,-5699.585753,-8364.327145,-2221.676944
444.011968,-1924.535449,-7476.080014,-1685.410096
444.012296,2072.576638,-7031.956449,-383.047749
444.012623,3256.906145,-7402.059420,766.095498
444.012951,2294.638420,-8438.347739,995.924147
444.013278,74.020594,-9474.636058,383.047749
444.013606,-962.267725,-9696.697840,-612.876398
444.013933,814.226536,-9696.697840,0.000000
444.014261,4219.173869,-9252.574275,1532.190996
444.014588,6957.935855,-9326.594869,2451.505594
444.014916,7402.059420,-9548.656652,3753.867940
444.015243,5107.421000,-10214.842000,3600.648841
444.015570,1998.556043,-10510.924376,2834.553343
444.015898,148.041188,-10584.944971,2068.457845
444.016225,-1628.453072,-9918.759623,-536.266849
444.016553,370.102971,-9030.512492,995.924147
444.016880,2886.803174,-6735.874072,1455.581446
444.017208,2368.659014,-8068.244768,1915.238745
444.017535,518.144159,-7772.162391,1532.190996
444.017863,-1850.514855,-8364.327145,459.657299
444.018190,-5625.565159,-8808.450710,-536.266849
444.018518,-5181.441594,-8660.409521,-1072.533697
444.018845,-4145.153275,-8290.306550,-383.047749
444.019173,-1776.494261,-8290.306550,76.609550
444.019500,-1110.308913,-7994.224174,1378.971896
444.019827,-2960.823768,-8512.368333,1149.143247
444.020155,-5477.523971,-9326.594869,-383.047749
444.020482,-7624.121203,-9400.615463,-1455.581446
444.020810,-6957.935855,-9030.512492,-2451.505594
444.021137,-3701.029710,-7994.224174,-2068.457845
444.021465,148.041188,-7179.997637,-995.924147
444.021792,3182.885551,-7698.141797,383.047749
444.022120,2812.782580,-8512.368333,536.266849
444.022447,740.205942,-9844.739029,459.657299
444.022775,-1628.453072,-10658.965565,0.000000
444.023102,-888.247130,-10066.800811,-459.657299
444.023430,2072.576638,-10584.944971,383.047749
444.023757,5625.565159,-10288.862594,2221.676944
444.024084,7476.080014,-10436.903782,2987.772442
444.024412,6587.832884,-10807.006753,3753.867940
444.024739,3849.070898,-11399.171507,2987.772442
444.025067,-1110.308913,-11695.253884,612.876398
444.025394,-1258.350101,-11325.150913,1302.362347
444.025722,1110.308913,-10066.800811,229.828649
444.026049,1110.308913,-9474.636058,1149.143247
444.026377,3552.988522,-8734.430116,1532.190996
444.026704,2516.700203,-7994.224174,1762.019645
444.027032,-1332.370696,-8956.491898,1302.362347
444.027359,-3701.029710,-8956.491898,0.000000
444.027686,-5107.421000,-9326.594869,-536.266849
444.028014,-4441.235652,-8142.265362,-995.924147
444.028341,-1554.432478,-8364.327145,-306.438199
444.028669,-518.144159,-8808.450710,1149.143247
444.028996,-1924.535449,-9252.574275,766.095498
444.029324,-3849.070898,-9844.739029,612.876398
444.029651,-7105.977043,-10140.821405,-1302.362347
444.029979,-7550.100608,-9622.677246,-2221.676944
444.030306,-5255.462188,-8956.491898,-2145.067394
444.030634,-1554.432478,-7846.182985,-1608.800546
444.030961,2368.659014,-7698.141797,0.000000
444.031289,2812.782580,-7772.162391,383.047749
444.031616,1850.514855,-9104.533087,689.485948
444.031943,-888.247130,-9400.615463,-306.438199
444.032271,-1480.411884,-9844.739029,-612.876398
444.032598,666.185348,-9696.697840,-229.828649
444.032926,4219.173869,-9326.594869,1455.581446
444.033253,7179.997637,-9548.656652,3064.381992
444.033581,7402.059420,-9696.697840,3983.696590
444.033908,4441.235652,-9918.759623,3677.258390
444.034236,1110.308913,-10140.821405,2298.286494
444.034563,-1998.556043,-9992.780217,-383.047749
444.034891,-1258.350101,-9474.636058,919.314598
444.035218,2368.659014,-7994.224174,229.828649
444.035546,3256.906145,-8512.368333,1762.019645
444.035873,3182.885551,-7328.038826,1915.238745
444.036200,1554.432478,-7994.224174,2221.676944
444.036528,-2368.659014,-8216.285956,842.705048
444.036855,-4663.297435,-7994.224174,-383.047749
444.037183,-3923.091493,-8364.327145,229.828649
444.037510,-2886.803174,-7772.162391,306.438199
444.037838,-1258.350101,-8068.244768,919.314598
444.038165,-1258.350101,-8438.347739,1685.410096
444.038493,-3701.029710,-8586.388927,766.095498
444.038820,-6439.791695,-9252.574275,536.266849
444.039148,-8364.327145,-8882.471304,-1608.800546
444.039475,-7105.977043,-7920.203579,-1762.019645
444.039802,-3552.988522,-7105.977043,-1685.410096
444.040130,0.000000,-6809.894666,-459.657299
444.040457,1924.535449,-6587.832884,0.000000
444.040785,1184.329507,-7476.080014,306.438199
444.041112,-1406.391290,-8734.430116,-229.828649
444.041440,-2886.803174,-9622.677246,-1225.752797
444.041767,-2368.659014,-9844.739029,-919.314598
444.042095,1702.473667,-9918.759623,76.609550
444.042422,5329.482782,-9326.594869,1149.143247
444.042750,7105.977043,-9770.718434,2757.943793
444.043077,5773.606348,-10732.986159,3064.381992
444.043405,2664.741391,-11399.171507,2145.067394
444.043732,222.061783,-11473.192101,919.314598
444.044059,-1332.370696,-11399.171507,-766.095498
444.044387,1110.308913,-10658.965565,229.828649
444.044714,4367.215058,-8956.491898,229.828649
444.045042,4071.132681,-9030.512492,1915.238745
444.045369,4219.173869,-8734.430116,1225.752797
444.045697,592.164754,-9400.615463,1149.143247
444.046024,-2368.659014,-10214.842000,0.000000
444.046352,-2590.720797,-9770.718434,-995.924147
444.046679,-1998.556043,-10066.800811,-76.609550
444.047007,-222.061783,-9252.574275,0.000000
444.047334,592.164754,-9696.697840,1149.143247
444.047662,-814.226536,-10066.800811,995.924147
444.047989,-4663.297435,-10288.862594,153.219100
444.048316,-6883.915261,-9844.739029,-1378.971896
444.048644,-7772.162391,-9104.533087,-2068.457845
444.048971,-4885.359217,-7624.121203,-1991.848295
444.049299,-1924.535449,-7105.977043,-1685.410096
444.049626,888.247130,-6957.935855,-306.438199
444.049954,1258.350101,-7846.182985,76.609550
444.050281,-666.185348,-8586.388927,153.219100
444.050609,-2886.803174,-8882.471304,-766.095498
444.050936,-2738.761985,-9622.677246,-612.876398
444.051264,0.000000,-9252.574275,153.219100
444.051591,3775.050304,-9252.574275,1762.019645
444.051918,6439.791695,-9178.553681,3524.039291
444.052246,5699.585753,-9918.759623,4519.963438
444.052573,3034.844362,-10807.006753,3753.867940
444.052901,-222.061783,-10955.047942,2451.505594
444.053228,-1554.432478,-10436.903782,1225.752797
444.053556,0.000000,-9696.697840,1302.362347
444.053883,3330.926739,-8956.491898,2451.505594
444.054211,4441.235652,-7402.059420,1378.971896
444.054538,2960.823768,-7550.100608,3524.039291
444.054866,1480.411884,-7179.997637,2451.505594
444.055193,-1924.535449,-8660.409521,1532.190996
444.055521,-3701.029710,-8586.388927,76.609550
444.055848,-2886.803174,-8586.388927,536.266849
444.056175,-1924.535449,-8364.327145,919.314598
444.056503,0.000000,-8142.265362,1455.581446
444.056830,-444.123565,-8882.471304,2221.676944
444.057158,-3627.009116,-9326.594869,919.314598
444.057485,-6365.771101,-9178.553681,-306.438199
444.057813,-7624.121203,-8956.491898,-1378.971896
444.058140,-6365.771101,-7772.162391,-2145.067394
444.058468,-2738.761985,-7031.956449,-1455.581446
444.058795,592.164754,-6809.894666,-536.266849
444.059123,1702.473667,-6957.935855,383.047749
444.059450,888.247130,-8734.430116,0.000000
444.059778,-1998.556043,-9104.533087,-842.705048
444.060105,-3256.906145,-9622.677246,-1455.581446
444.060432,-1554.432478,-9992.780217,-1072.533697
444.060760,2368.659014,-9918.759623,229.828649
444.061087,5477.523971,-9696.697840,1608.800546
444.061415,6291.750507,-10658.965565,2681.334243
444.061742,4293.194464,-11399.171507,2451.505594
444.062070,1184.329507,-11769.274478,1838.629195
444.062397,-1258.350101,-11917.315666,0.000000
444.062725,-740.205942,-10510.924376,-306.438199
444.063052,1406.391290,-9770.718434,-919.314598
444.063380,3775.050304,-8882.471304,1302.362347
444.063707,6069.688724,-7698.141797,1378.971896
444.064034,4071.132681,-8956.491898,2068.457845
444.064362,888.247130,-8660.409521,1455.581446
444.064689,-1702.473667,-9696.697840,0.000000
444.065017,-2886.803174,-9474.636058,-612.876398
444.065344,-1850.514855,-9474.636058,0.000000
444.065672,296.082377,-9104.533087,1072.533697
444.065999,666.185348,-9252.574275,2221.676944
444.066327,-1036.288319,-9844.739029,1608.800546
444.066654,-4663.297435,-9918.759623,383.047749
444.066982,-7698.141797,-9622.677246,-1149.143247
444.067309,-6957.935855,-8734.430116,-1991.848295
444.067637,-4663.297435,-7476.080014,-1915.238745
444.067964,-1036.288319,-6735.874072,-612.876398
444.068291,1110.308913,-6735.874072,0.000000
444.068619,518.144159,-7402.059420,612.876398
444.068946,-1628.453072,-8438.347739,-229.828649
444.069274,-3256.906145,-8808.450710,-842.705048
444.069601,-2664.741391,-8956.491898,-919.314598
444.069929,370.102971,-8956.491898,-229.828649
444.070256,3552.988522,-8882.471304,1762.019645
444.070584,5329.482782,-9252.574275,2451.505594
444.070911,4367.215058,-10288.862594,3140.991542
444.071239,1628.453072,-10732.986159,2298.286494
444.071566,-1258.350101,-10807.006753,919.314598
444.071894,-1332.370696,-10658.965565,229.828649
444.072221,592.164754,-9474.636058,229.828649
444.072548,3034.844362,-8586.388927,689.485948
444.072876,5181.441594,-7550.100608,2834.553343
444.073203,5403.503377,-7328.038826,2451.505594
444.073531,814.226536,-8438.347739,1762.019645
444.073858,-1036.288319,-8956.491898,153.219100
444.074186,-2886.803174,-9252.574275,-229.828649
444.074513,-2072.576638,-9030.512492,76.609550
444.074841,148.041188,-8364.327145,842.705048
444.075168,888.247130,-8882.471304,1838.629195
444.075496,-148.041188,-9326.594869,1838.629195
444.075823,-2886.803174,-9696.697840,1149.143247
444.076150,-6217.729913,-9770.718434,0.000000
444.076478,-7179.997637,-9030.512492,-1302.362347
444.076805,-4515.256246,-8660.409521,-1225.752797
444.077133,-1554.432478,-7476.080014,-689.485948
444.077460,1628.453072,-7105.977043,229.828649
444.077788,1628.453072,-7624.121203,612.876398
444.078115,0.000000,-8956.491898,459.657299
444.078443,-2146.597232,-9326.594869,-536.266849
444.078770,-3775.050304,-9696.697840,-919.314598
444.079098,-1628.453072,-9696.697840,-306.438199
444.079425,1776.494261,-9326.594869,612.876398
444.079753,4219.173869,-9548.656652,2298.286494
444.080080,4515.256246,-10140.821405,2987.772442
444.080407,2368.659014,-11177.109724,2451.505594
444.080735,-1036.288319,-11473.192101,1455.581446
444.081062,-2738.761985,-11177.109724,76.609550
444.081390,-2072.576638,-10288.862594,-229.828649
444.081717,1406.391290,-8660.409521,229.828649
444.082045,3701.029710,-7772.162391,919.314598
444.082372,3404.947333,-7920.203579,1685.410096
444.082700,2664.741391,-8438.347739,1532.190996
444.083027,-296.082377,-8660.409521,766.095498
444.083355,-3108.864956,-8956.491898,229.828649
444.083682,-2368.659014,-9178.553681,-995.924147
444.084010,-666.185348,-8734.430116,0.000000
444.084337,814.226536,-8512.368333,1225.752797
444.084664,1776.494261,-8660.409521,2145.067394
444.084992,-666.185348,-9178.553681,2068.457845
444.085319,-3034.844362,-9474.636058,1072.533697
444.085647,-5181.441594,-9400.615463,-306.438199
444.085974,-5181.441594,-9252.574275,-1302.362347
444.086302,-1776.494261,-8290.306550,-536.266849
444.086629,1184.329507,-7402.059420,306.438199
444.086957,2442.679609,-7920.203579,842.705048
444.087284,740.205942,-8586.388927,842.705048
444.087612,-1480.411884,-9104.533087,229.828649
444.087939,-3701.029710,-9400.615463,-612.876398
444.088266,-2738.761985,-8808.450710,-1072.533697
444.088594,222.061783,-8660.409521,766.095498
444.088921,3182.885551,-8438.347739,1455.581446
444.089249,4737.318029,-9030.512492,2451.505594
444.089576,2886.803174,-9622.677246,2757.943793
444.089904,-222.061783,-10362.883188,2068.457845
444.090231,-2812.782580,-10436.903782,536.266849
444.090559,-3404.947333,-9844.739029,-306.438199
444.090886,-1036.288319,-8956.491898,-153.219100
444.091214,1924.535449,-7550.100608,536.266849
444.091541,3775.050304,-7402.059420,1762.019645
444.091869,3256.906145,-7402.059420,2068.457845
444.092196,370.102971,-9030.512492,1685.410096
444.092523,-2590.720797,-9104.533087,-229.828649
444.092851,-3552.988522,-9400.615463,-995.924147
444.093178,-1924.535449,-9326.594869,-383.047749
444.093506,592.164754,-8586.388927,-689.485948
444.093833,2294.638420,-8216.285956,2068.457845
444.094161,1332.370696,-9104.533087,1532.190996
444.094488,-1480.411884,-9844.739029,919.314598
444.094816,-4145.153275,-10362.883188,-612.876398
444.095143,-5033.400406,-9770.718434,-1685.410096
444.095471,-2812.782580,-8734.430116,-1378.971896
444.095798,222.061783,-8364.327145,-766.095498
444.096126,2590.720797,-8216.285956,76.609550
444.096453,2072.576638,-8808.450710,766.095498
444.096780,-222.061783,-9622.677246,0.000000
444.097108,-3034.844362,-9992.780217,-1072.533697
444.097435,-3404.947333,-10066.800811,-1685.410096
444.097763,-962.267725,-9326.594869,-1072.533697
444.098090,2368.659014,-9030.512492,0.000000
444.098418,4959.379811,-9178.553681,1455.581446
444.098745,4219.173869,-9918.759623,1762.019645
444.099073,1628.453072,-10510.924376,1915.238745
444.099400,-1850.514855,-11251.130318,459.657299
444.099728,-3182.885551,-11251.130318,-536.266849
444.100055,-1702.473667,-10584.944971,-612.876398
444.100382,962.267725,-9178.553681,536.266849
444.100710,3775.050304,-8660.409521,1378.971896
444.101037,4219.173869,-8734.430116,1838.629195
444.101365,2072.576638,-9030.512492,1685.410096
444.101692,-888.247130,-9844.739029,766.095498
444.102020,-2738.761985,-10066.800811,-229.828649
444.102347,-2368.659014,-9844.739029,76.609550
444.102675,74.020594,-9400.615463,459.657299
444.103002,2072.576638,-9178.553681,1838.629195
444.103330,1702.473667,-9474.636058,2604.724693
444.103657,-592.164754,-10140.821405,2451.505594
444.103985,-3552.988522,-9992.780217,1608.800546
444.104312,-5107.421000,-9918.759623,383.047749
444.104639,-3627.009116,-9178.553681,0.000000
444.104967,-1110.308913,-8290.306550,766.095498
444.105294,1702.473667,-7698.141797,1455.581446
444.105622,1776.494261,-7328.038826,2451.505594
444.105949,0.000000,-7994.224174,1685.410096
444.106277,-2886.803174,-7994.224174,612.876398
444.106604,-4145.153275,-8364.327145,0.000000
444.106932,-2590.720797,-8438.347739,153.219100
444.107259,296.082377,-7846.182985,1072.533697
444.107587,2886.803174,-7994.224174,2451.505594
444.107914,3108.864956,-9030.512492,2911.162892
444.108242,666.185348,-10140.821405,2681.334243
444.108569,-2960.823768,-10436.903782,766.095498
444.108896,-4811.338623,-10510.924376,-383.047749
444.109224,-3923.091493,-9622.677246,-919.314598
444.109551,-814.226536,-8216.285956,-459.657299
444.109879,2664.741391,-7179.997637,459.657299
444.110206,4145.153275,-6661.853478,1532.190996
444.110534,3034.844362,-7105.977043,1149.143247
444.110861,0.000000,-7994.224174,153.219100
444.111189,-2294.638420,-8364.327145,-459.657299
444.111516,-2664.741391,-8512.368333,-1072.533697
444.111844,-74.020594,-8512.368333,-229.828649
444.112171,2516.700203,-8364.327145,1072.533697
444.112498,3404.947333,-8956.491898,1685.410096
444.112826,2072.576638,-9326.594869,2145.067394
444.113153,-962.267725,-9696.697840,1225.752797
444.113481,-3627.009116,-9844.739029,-612.876398
444.113808,-3701.029710,-9474.636058,-1455.581446
444.114136,-1110.308913,-8290.306550,-689.485948
444.114463,1850.514855,-7624.121203,0.000000
444.114791,3627.009116,-7772.162391,536.266849
444.115118,2220.617826,-8438.347739,612.876398
444.115446,-518.144159,-8956.491898,153.219100
444.115773,-3108.864956,-9400.615463,-766.095498
444.116101,-3330.926739,-9474.636058,-1455.581446
444.116428,-1258.350101,-9252.574275,-919.314598
444.116756,1850.514855,-8956.491898,536.266849
444.117083,3108.864956,-9326.594869,1455.581446
444.117411,1850.514855,-10066.800811,1991.848295
444.117738,-1036.288319,-10807.006753,1072.533697
444.118066,-3849.070898,-10658.965565,-306.438199
444.118393,-4219.173869,-10436.903782,-1378.971896
444.118721,-1998.556043,-9400.615463,-995.924147
444.119048,1332.370696,-8216.285956,0.000000
444.119376,3627.009116,-7920.203579,1149.143247
444.119703,3256.906145,-7920.203579,1378.971896
444.120031,814.226536,-9252.574275,689.485948
444.120358,-2146.597232,-9992.780217,0.000000
444.120686,-3034.844362,-10214.842000,-766.095498
444.121013,-1480.411884,-9992.780217,-306.438199
444.121341,1258.350101,-9400.615463,766.095498
444.121668,2886.803174,-9252.574275,2068.457845
444.121996,2442.679609,-9770.718434,2604.724693
444.122323,0.000000,-10140.821405,2145.067394
444.122651,-3034.844362,-10436.903782,612.876398
444.122978,-3849.070898,-10510.924376,-842.705048
444.123306,-2442.679609,-9252.574275,-306.438199
444.123633,222.061783,-8364.327145,536.266849
444.123961,2368.659014,-7772.162391,1455.581446
444.124288,2294.638420,-8142.265362,1762.019645
444.124616,222.061783,-8290.306550,2068.457845
444.124943,-2294.638420,-8216.285956,76.609550
444.125271,-3404.947333,-8586.388927,0.000000
444.125598,-1998.556043,-8438.347739,76.609550
444.125926,444.123565,-8068.244768,1225.752797
444.126253,2960.823768,-8216.285956,2451.505594
444.126581,2220.617826,-8956.491898,2987.772442
444.126908,-222.061783,-9696.697840,2451.505594
444.127236,-3034.844362,-9918.759623,1302.362347
444.127563,-4589.276840,-10066.800811,153.219100
444.127891,-3478.967927,-9400.615463,-153.219100
444.128218,-666.185348,-7994.224174,612.876398
444.128546,1924.535449,-7550.100608,995.924147
444.128873,2738.761985,-7698.141797,1608.800546
444.129201,666.185348,-8364.327145,1072.533697
444.129528,-2072.576638,-8956.491898,229.828649
444.129856,-3404.947333,-9400.615463,-1072.533697
444.130183,-2812.782580,-8882.471304,-919.314598
444.130511,-222.061783,-8364.327145,-306.438199
444.130838,2442.679609,-8068.244768,842.705048
444.131166,3108.864956,-8512.368333,1685.410096
444.131493,1702.473667,-9326.594869,1608.800546
444.131821,-1184.329507,-9622.677246,1302.362347
444.132148,-3849.070898,-9992.780217,-229.828649
444.132476,-2960.823768,-9770.718434,-1149.143247
444.132803,-222.061783,-9030.512492,-689.485948
444.133131,3034.844362,-8512.368333,612.876398
444.133458,3923.091493,-8438.347739,995.924147
444.133786,2516.700203,-8808.450710,1149.143247
444.134113,0.000000,-9326.594869,0.000000
444.134441,-2146.597232,-9474.636058,-766.095498
444.134768,-1406.391290,-9548.656652,-766.095498
444.135096,962.267725,-8808.450710,-153.219100
444.135423,3627.009116,-8956.491898,1225.752797
444.135750,3997.112087,-9770.718434,2451.505594
444.136078,1480.411884,-10584.944971,2221.676944
444.136405,-1554.432478,-11177.109724,1455.581446
444.136733,-4219.173869,-11399.171507,-459.657299
444.137060,-4367.215058,-10955.047942,-689.485948
444.137388,-2516.700203,-9696.697840,-766.095498
444.137715,74.020594,-8586.388927,0.000000
444.138043,1776.494261,-7846.182985,842.705048
444.138370,1406.391290,-8290.306550,1225.752797
444.138698,-888.247130,-8586.388927,229.828649
444.139025,-3997.112087,-9104.533087,-1302.362347
444.139353,-4145.153275,-9178.553681,-1838.629195
444.139680,-2220.617826,-8956.491898,-1225.752797
444.140008,518.144159,-8068.244768,0.000000
444.140335,2368.659014,-8364.327145,1685.410096
444.140663,1998.556043,-9400.615463,1685.410096
444.140990,-592.164754,-9844.739029,1455.581446
444.141318,-3627.009116,-9770.718434,76.609550
444.141645,-3849.070898,-9918.759623,-766.095498
444.141973,-1258.350101,-9696.697840,-689.485948
444.142300,1776.494261,-8586.388927,76.609550
444.142628,4219.173869,-8512.368333,1302.362347
444.142955,3701.029710,-8586.388927,1608.800546
444.143283,1776.494261,-9252.574275,1378.971896
444.143610,-1406.391290,-9252.574275,306.438199
444.143938,-1332.370696,-9104.533087,0.000000
444.144265,444.123565,-8882.471304,306.438199
444.144593,2812.782580,-9030.512492,1685.410096
444.144920,3849.070898,-8882.471304,2451.505594
444.145248,2368.659014,-9696.697840,2834.553343
444.145575,-592.164754,-10288.862594,2834.553343
444.145903,-3627.009116,-10362.883188,919.314598
444.146230,-4885.359217,-10288.862594,76.609550
444.146558,-3404.947333,-9474.636058,-306.438199
444.146885,-444.123565,-8364.327145,612.876398
444.147213,2220.617826,-7328.038826,1072.533697
444.147540,1554.432478,-7624.121203,1685.410096
444.147868,-444.123565,-8068.244768,919.314598
444.148195,-3108.864956,-8586.388927,-383.047749
444.148523,-3923.091493,-8882.471304,-995.924147
444.148850,-3034.844362,-8438.347739,-459.657299
444.149178,-222.061783,-8586.388927,306.438199
444.149505,1924.535449,-8512.368333,1455.581446
444.149833,1702.473667,-9030.512492,2374.896044
444.150160,0.000000,-10066.800811,2145.067394
444.150488,-2664.741391,-9992.780217,689.485948
444.150815,-3478.967927,-10436.903782,0.000000
444.151143,-2146.597232,-9696.697840,-459.657299
444.151470,888.247130,-8882.471304,306.438199
444.151798,3478.967927,-8290.306550,1378.971896
444.152125,4071.132681,-8438.347739,2298.286494
444.152453,2590.720797,-9178.553681,1685.410096
444.152780,-296.082377,-9474.636058,689.485948
444.153108,-1702.473667,-9770.718434,-153.219100
444.153435,-1258.350101,-9918.759623,76.609550
444.153763,1850.514855,-9474.636058,919.314598
444.154090,3627.009116,-9104.533087,2221.676944
444.154418,2738.761985,-9474.636058,2604.724693
444.154745,518.144159,-10436.903782,2221.676944
444.155073,-2886.803174,-10214.842000,612.876398
444.155400,-5181.441594,-10140.821405,-536.266849
444.155728,-3478.967927,-9696.697840,-842.705048
444.156055,-1924.535449,-8216.285956,-689.485948
444.156383,962.267725,-7402.059420,0.000000
444.156710,2294.638420,-7179.997637,842.705048
444.157038,740.205942,-7920.203579,689.485948
444.157365,-2072.576638,-8142.265362,0.000000
444.157693,-4367.215058,-8660.409521,-1685.410096
444.158020,-4219.173869,-9400.615463,-1685.410096
444.158348,-1628.453072,-8956.491898,-919.314598
444.158675,1184.329507,-8512.368333,229.828649
444.159003,2738.761985,-8438.347739,1455.581446
444.159330,1850.514855,-9326.594869,1991.848295
444.159658,-1036.288319,-9770.718434,842.705048
444.159985,-3552.988522,-10066.800811,-306.438199
444.160313,-3182.885551,-9844.739029,-1302.362347
444.160640,-740.205942,-9030.512492,-1072.533697
444.160968,2738.761985,-7920.203579,0.000000
444.161295,4885.359217,-7772.162391,1378.971896
444.161623,4293.194464,-8068.244768,1608.800546
444.161950,1628.453072,-8660.409521,1378.971896
444.162278,-962.267725,-8734.430116,0.000000
444.162605,-222.061783,-9030.512492,766.095498
444.162933,1406.391290,-8438.347739,766.095498
444.163260,2812.782580,-9104.533087,1991.848295
444.163588,3701.029710,-9548.656652,2604.724693
444.163915,1554.432478,-9918.759623,3447.429741
444.164243,-1406.391290,-10658.965565,2757.943793
444.164570,-3923.091493,-9992.780217,995.924147
444.164898,-4737.318029,-10066.800811,153.219100
444.165225,-3478.967927,-9252.574275,0.000000
444.165553,-740.205942,-7994.224174,229.828649
444.165880,814.226536,-7254.018232,1225.752797
444.166208,74.020594,-7624.121203,1149.143247
444.166535,-2516.700203,-8216.285956,76.609550
444.166863,-4885.359217,-8512.368333,-1378.971896
444.167190,-5329.482782,-8438.347739,-2145.067394
444.167518,-3552.988522,-8142.265362,-1608.800546
444.167845,-370.102971,-7402.059420,-842.705048
444.168173,2146.597232,-8068.244768,1149.143247
444.168500,1850.514855,-9400.615463,1532.190996
444.168828,-370.102971,-10288.862594,995.924147
444.169155,-3256.906145,-10658.965565,76.609550
444.169483,-3849.070898,-11103.089130,-1072.533697
444.169810,-1850.514855,-10066.800811,-995.924147
444.170138,1554.432478,-9548.656652,-229.828649
444.170465,4885.359217,-9178.553681,1072.533697
444.170793,5329.482782,-9326.594869,1915.238745
444.171120,3404.947333,-9474.636058,1378.971896
444.171448,1036.288319,-9770.718434,536.266849
444.171775,-740.205942,-10214.842000,-689.485948
444.172103,1184.329507,-9918.759623,383.047749
444.172430,4441.235652,-9326.594869,1455.581446
444.172758,4885.359217,-9622.677246,2987.772442
444.173085,4071.132681,-10436.903782,3524.039291
444.173413,740.205942,-11029.068536,2987.772442
444.173740,-2886.803174,-10955.047942,1838.629195
444.174068,-4663.297435,-10362.883188,229.828649
444.174395,-3627.009116,-9696.697840,536.266849
444.174723,-1480.411884,-8956.491898,0.000000
444.175050,0.000000,-7772.162391,1072.533697
444.175378,0.000000,-7698.141797,1532.190996
444.175705,-2072.576638,-7772.162391,612.876398
444.176033,-4737.318029,-7994.224174,-842.705048
444.176360,-6291.750507,-7920.203579,-1991.848295
444.176688,-5329.482782,-7328.038826,-1915.238745
444.177015,-2368.659014,-7254.018232,-1149.143247
444.177343,592.164754,-7179.997637,306.438199
444.177670,1258.350101,-7698.141797,1378.971896
444.177998,0.000000,-8956.491898,1072.533697
444.178325,-3108.864956,-9696.697840,459.657299
444.178653,-4441.235652,-10140.821405,-536.266849
444.178980,-3108.864956,-9992.780217,-1072.533697
444.179308,518.144159,-9104.533087,-306.438199
444.179635,4441.235652,-8586.388927,1378.971896
444.179963,5699.585753,-8142.265362,2911.162892
444.180290,5329.482782,-8808.450710,2298.286494
444.180618,2590.720797,-9252.574275,1378.971896
444.180945,444.123565,-9622.677246,459.657299
444.181273,740.205942,-9696.697840,306.438199
444.181600,2442.679609,-8660.409521,689.485948
444.181928,4145.153275,-9104.533087,1991.848295
444.182255,5255.462188,-9326.594869,2681.334243
444.182583,2442.679609,-10214.842000,2604.724693
444.182910,-1332.370696,-9696.697840,1608.800546
444.183238,-3701.029710,-9844.739029,0.000000
444.183565,-4663.297435,-9104.533087,-689.485948
444.183893,-3330.926739,-8808.450710,-689.485948
444.184220,-444.123565,-7624.121203,153.219100
444.184548,74.020594,-7476.080014,229.828649
444.184875,-814.226536,-7550.100608,229.828649
444.185203,-3034.844362,-8068.244768,-536.266849
444.185530,-5625.565159,-8512.368333,-1685.410096
444.185858,-5181.441594,-8586.388927,-2221.676944
444.186185,-3182.885551,-8142.265362,-1608.800546
444.186513,74.020594,-7624.121203,-229.828649
444.186840,2442.679609,-8586.388927,995.924147
444.187168,1258.350101,-9548.656652,1762.019645
444.187495,-1036.288319,-10436.903782,1149.143247
444.187823,-3034.844362,-11103.089130,0.000000
444.188150,-3478.967927,-11029.068536,-536.266849
444.188478,0.000000,-10436.903782,306.438199
444.188805,3034.844362,-9252.574275,306.438199
444.189133,5403.503377,-8734.430116,1762.019645
444.189460,5107.421000,-9030.512492,2451.505594
444.189788,3034.844362,-9622.677246,1685.410096
444.190115,444.123565,-9696.697840,1532.190996
444.190443,0.000000,-9474.636058,306.438199
444.190770,1628.453072,-9622.677246,536.266849
444.191098,2516.700203,-9474.636058,1685.410096
444.191425,4441.235652,-9770.718434,3140.991542
444.191753,2664.741391,-10362.883188,3140.991542
444.192080,-740.205942,-10066.800811,3447.429741
444.192408,-3923.091493,-10510.924376,1225.752797
444.192735,-4959.379811,-10214.842000,459.657299
444.193063,-4589.276840,-9474.636058,-229.828649
444.193390,-1406.391290,-8290.306550,383.047749
444.193718,0.000000,-7402.059420,1685.410096
444.194045,-222.061783,-7179.997637,995.924147
444.194373,-1998.556043,-7698.141797,459.657299
444.194700,-4737.318029,-7846.182985,-689.485948
444.195028,-5551.544565,-7772.162391,-1915.238745
444.195355,-4219.173869,-7624.121203,-1149.143247
444.195683,-1036.288319,-7105.977043,-459.657299
444.196010,1184.329507,-7328.038826,995.924147
444.196338,1258.350101,-8364.327145,1685.410096
444.196665,-518.144159,-9548.656652,1225.752797
444.196993,-2960.823768,-9770.718434,153.219100
444.197320,-4293.194464,-9918.759623,-1149.143247
444.197648,-2590.720797,-9622.677246,-1072.533697
444.197975,1036.288319,-9030.512492,-306.438199
444.198303,4367.215058,-8364.327145,766.095498
444.198630,5625.565159,-8142.265362,1685.410096
444.198958,4219.173869,-8216.285956,1455.581446
444.199285,1850.514855,-8956.491898,919.314598
444.199613,222.061783,-9178.553681,-153.219100
444.199940,1184.329507,-9104.533087,153.219100
444.200268,3849.070898,-8956.491898,1455.581446
444.200595,4367.215058,-8734.430116,1991.848295
444.200923,4737.318029,-9548.656652,3064.381992
444.201250,2220.617826,-9474.636058,2604.724693
444.201578,-2146.597232,-10288.862594,1915.238745
444.201905,-4071.132681,-10214.842000,229.828649
444.202233,-3849.070898,-9474.636058,0.000000
444.202560,-1406.391290,-8660.409521,-306.438199
444.202888,888.247130,-7698.141797,383.047749
444.203215,962.267725,-8068.244768,1149.143247
444.203543,-592.164754,-7920.203579,689.485948
444.203870,-2812.782580,-8734.430116,0.000000
444.204198,-5181.441594,-9030.512492,-1378.971896
444.204525,-5551.544565,-8660.409521,-2068.457845
444.204853,-3034.844362,-8660.409521,-1302.362347
444.205180,-222.061783,-8290.306550,-229.828649
444.205508,666.185348,-8660.409521,842.705048
444.205835,-296.082377,-9844.739029,1608.800546
444.206163,-3108.864956,-10510.924376,153.219100
444.206490,-4737.318029,-11251.130318,-919.314598
444.206818,-4515.256246,-10658.965565,-1608.800546
444.207145,-1258.350101,-9918.759623,-995.924147
444.207473,2886.803174,-9178.553681,842.705048
444.207800,5255.462188,-9178.553681,1149.143247
444.208128,4885.359217,-9400.615463,1685.410096
444.208455,2738.761985,-9918.759623,1149.143247
444.208783,592.164754,-10288.862594,306.438199
444.209110,444.123565,-10362.883188,612.876398
444.209438,2812.782580,-10140.821405,459.657299
444.209765,4293.194464,-9918.759623,1302.362347
444.210093,4663.297435,-10140.821405,3140.991542
444.210420,4145.153275,-10436.903782,3370.820191
444.210748,592.164754,-10584.944971,2604.724693
444.211075,-2294.638420,-10658.965565,1302.362347
444.211403,-3034.844362,-10288.862594,612.876398
444.211730,-2072.576638,-9252.574275,689.485948
444.212058,-296.082377,-8512.368333,1072.533697
444.212385,814.226536,-8142.265362,1838.629195
444.212713,-592.164754,-8290.306550,1378.971896
444.213040,-2812.782580,-8512.368333,919.314598
444.213368,-5699.585753,-8290.306550,-612.876398
444.213695,-6069.688724,-8216.285956,-1378.971896
444.214023,-4367.215058,-7698.141797,-919.314598
444.214350,-1628.453072,-6883.915261,76.609550
444.214678,296.082377,-7031.956449,1072.533697
444.215005,-222.061783,-7846.182985,1532.190996
444.215333,-2738.761985,-8808.450710,689.485948
444.215660,-4959.379811,-9474.636058,0.000000
444.215988,-6069.688724,-8956.491898,-1455.581446
444.216315,-2960.823768,-8512.368333,-459.657299
444.216643,814.226536,-7994.224174,0.000000
444.216970,3997.112087,-7550.100608,1149.143247
444.217298,4959.379811,-7846.182985,1762.019645
444.217625,3701.029710,-8290.306550,1762.019645
444.217953,1702.473667,-8808.450710,153.219100
444.218280,518.144159,-9326.594869,-383.047749
444.218608,1998.556043,-9474.636058,0.000000
444.218935,4663.297435,-9030.512492,995.924147
444.219263,6069.688724,-8808.450710,2528.115143
444.219590,5551.544565,-9400.615463,3677.258390
444.219918,1776.494261,-10288.862594,2298.286494
444.220245,-1184.329507,-10510.924376,1302.362347
444.220572,-2812.782580,-9474.636058,229.828649
444.220900,-3034.844362,-9474.636058,-306.438199
444.221227,-592.164754,-8586.388927,306.438199
444.221555,1554.432478,-7772.162391,306.438199
444.221882,1036.288319,-8216.285956,842.705048
444.222210,-296.082377,-7772.162391,383.047749
444.222537,-3701.029710,-8512.368333,-459.657299
444.222865,-5033.400406,-9178.553681,-1378.971896
444.223192,-4885.359217,-8068.244768,-2374.896044
444.223520,-3108.864956,-8438.347739,-1149.143247
444.223847,0.000000,-8512.368333,0.000000
444.224175,518.144159,-8734.430116,1225.752797
444.224502,-1554.432478,-9696.697840,1225.752797
444.224830,-3775.050304,-10732.986159,-229.828649
444.225157,-5551.544565,-10881.027347,-1455.581446
444.225485,-4663.297435,-10584.944971,-1915.238745
444.225812,-518.144159,-9474.636058,-1072.533697
444.226140,2738.761985,-8734.430116,76.609550
444.226467,5033.400406,-8808.450710,1532.190996
444.226795,4367.215058,-9696.697840,1302.362347
444.227122,1850.514855,-10140.821405,919.314598
444.227450,148.041188,-10584.944971,459.657299
444.227777,592.164754,-10732.986159,306.438199
444.228105,3330.926739,-9992.780217,1685.410096
444.228432,5255.462188,-9622.677246,2604.724693
444.228760,5033.400406,-9992.780217,3524.039291
444.229087,3775.050304,-10584.944971,4366.744339
444.229415,592.164754,-10140.821405,2604.724693
444.229742,-3627.009116,-9696.697840,1915.238745
444.230070,-2220.617826,-9326.594869,766.095498
444.230397,-1776.494261,-8660.409521,842.705048
444.230725,-296.082377,-8068.244768,1149.143247
444.231052,740.205942,-7550.100608,1532.190996
444.231380,-1036.288319,-8216.285956,1685.410096
444.231707,-3627.009116,-8290.306550,0.000000
444.232035,-5847.626942,-8586.388927,-536.266849
444.232362,-6439.791695,-8290.306550,-1532.190996
444.232690,-4293.194464,-7698.141797,-919.314598
444.233017,-1036.288319,-7179.997637,153.219100
444.233345,0.000000,-7476.080014,689.485948
444.233672,-592.164754,-8364.327145,1149.143247
444.234000,-3552.988522,-9252.574275,229.828649
444.234327,-5995.668130,-9400.615463,-1378.971896
444.234655,-5329.482782,-9326.594869,-1838.629195
444.234982,-1924.535449,-7772.162391,-2145.067394
444.235309,1628.453072,-7105.977043,76.609550
444.235637,4811.338623,-7328.038826,842.705048
444.235964,4959.379811,-7994.224174,1302.362347
444.236292,2738.761985,-9030.512492,689.485948
444.236619,814.226536,-9992.780217,0.000000
444.236947,148.041188,-9770.718434,-459.657299
444.237274,2368.659014,-9696.697840,0.000000
444.237602,5107.421000,-9104.533087,1455.581446
444.237929,6735.874072,-9622.677246,2451.505594
444.238257,4737.318029,-10214.842000,2834.553343
444.238584,2220.617826,-10362.883188,2604.724693
444.238912,-740.205942,-10214.842000,612.876398
444.239239,-3923.091493,-10510.924376,0.000000
444.239567,-1776.494261,-9918.759623,-842.705048
444.239894,74.020594,-8660.409521,153.219100
444.240222,888.247130,-8808.450710,919.314598
444.240549,1258.350101,-8142.265362,919.314598
444.240877,-1258.350101,-8586.388927,919.314598
444.241204,-4219.173869,-8734.430116,-459.657299
444.241532,-5773.606348,-9252.574275,-1455.581446
444.241859,-4515.256246,-8290.306550,-1685.410096
444.242187,-2442.679609,-8290.306550,-612.876398
444.242514,0.000000,-8364.327145,153.219100
444.242842,0.000000,-8734.430116,1149.143247
444.243169,-1776.494261,-9474.636058,842.705048
444.243497,-4293.194464,-10140.821405,-229.828649
444.243824,-5403.503377,-10214.842000,-1225.752797
444.244152,-3849.070898,-9844.739029,-1532.190996
444.244479,0.000000,-8956.491898,-689.485948
444.244807,3108.864956,-8660.409521,459.657299
444.245134,4515.256246,-9030.512492,1378.971896
444.245462,3182.885551,-10140.821405,1991.848295
444.245789,666.185348,-10881.027347,689.485948
444.246117,-222.061783,-11103.089130,229.828649
444.246444,1184.329507,-11177.109724,536.266849
444.246772,3701.029710,-10436.903782,1532.190996
444.247099,5477.523971,-9918.759623,2221.676944
444.247427,5551.544565,-10288.862594,3907.087040
444.247754,3627.009116,-10288.862594,3600.648841
444.248082,-814.226536,-10807.006753,2221.676944
444.248409,-1850.514855,-10436.903782,1072.533697
444.248737,-1702.473667,-9400.615463,1225.752797
444.249064,-1036.288319,-9178.553681,1378.971896
444.249392,814.226536,-8512.368333,1532.190996
444.249719,740.205942,-8290.306550,2298.286494
444.250046,-1702.473667,-8512.368333,1532.190996
444.250374,-3552.988522,-8290.306550,229.828649
444.250701,-5995.668130,-8364.327145,-229.828649
444.251029,-5329.482782,-8512.368333,-1072.533697
444.251356,-2442.679609,-7846.182985,0.000000
444.251684,-1036.288319,-7328.038826,919.314598
444.252011,370.102971,-7846.182985,1455.581446
444.252339,-1480.411884,-8438.347739,1455.581446
444.252666,-4663.297435,-9400.615463,0.000000
444.252994,-6143.709319,-9548.656652,-919.314598
444.253321,-5329.482782,-9252.574275,-1532.190996
444.253649,-1924.535449,-8438.347739,-766.095498
444.253976,2146.597232,-7402.059420,0.000000
444.254304,4293.194464,-7328.038826,1149.143247
444.254631,3849.070898,-8068.244768,842.705048
444.254959,1924.535449,-8586.388927,459.657299
444.255286,0.000000,-9030.512492,-383.047749
444.255614,370.102971,-9104.533087,-612.876398
444.255941,3478.967927,-8956.491898,306.438199
444.256269,5625.565159,-8660.409521,1532.190996
444.256596,6587.832884,-9104.533087,2834.553343
444.256924,4885.359217,-9622.677246,3294.210641
444.257251,2146.597232,-10066.800811,3140.991542
444.257579,-2368.659014,-9992.780217,229.828649
444.257906,-2960.823768,-10436.903782,383.047749
444.258234,-1110.308913,-8290.306550,0.000000
444.258561,370.102971,-8290.306550,383.047749
444.258889,1850.514855,-7772.162391,1072.533697
444.259216,1184.329507,-7698.141797,842.705048
444.259544,-2368.659014,-7994.224174,0.000000
444.259871,-4293.194464,-8364.327145,-1455.581446
444.260199,-5403.503377,-8290.306550,-1838.629195
444.260526,-3775.050304,-8068.244768,-2068.457845
444.260854,-1332.370696,-7328.038826,-383.047749
444.261181,444.123565,-7698.141797,689.485948
444.261509,148.041188,-8808.450710,1378.971896
444.261836,-2294.638420,-9326.594869,536.266849
444.262164,-5477.523971,-9844.739029,-689.485948
444.262491,-5699.585753,-9992.780217,-1378.971896
444.262819,-3923.091493,-9548.656652,-1838.629195
444.263146,0.000000,-8586.388927,-536.266849
444.263474,2812.782580,-8142.265362,766.095498
444.263801,3775.050304,-8438.347739,1072.533697
444.264129,2146.597232,-9104.533087,1072.533697
444.264456,0.000000,-9474.636058,-229.828649
444.264783,-444.123565,-10214.842000,-536.266849
444.265111,1258.350101,-10066.800811,-229.828649
444.265438,4071.132681,-9844.739029,1072.533697
444.265766,5921.647536,-9918.759623,2604.724693
444.266093,5773.606348,-10436.903782,3294.210641
444.266421,1998.556043,-11103.089130,2145.067394
444.266748,-518.144159,-11325.150913,2528.115143
444.267076,-1628.453072,-10436.903782,842.705048
444.267403,-2146.597232,-10732.986159,995.924147
444.267731,740.205942,-9326.594869,919.314598
444.268058,2220.617826,-8438.347739,1991.848295
444.268386,1184.329507,-8660.409521,2145.067394
444.268713,-666.185348,-8364.327145,1455.581446
444.269041,-3182.885551,-8882.471304,689.485948
444.269368,-5181.441594,-7698.141797,-536.266849
444.269696,-3849.070898,-8068.244768,0.000000
444.270023,-1702.473667,-7476.080014,0.000000
444.270351,-592.164754,-7846.182985,1149.143247
444.270678,222.061783,-8734.430116,1762.019645
444.271006,-2368.659014,-9474.636058,1532.190996
444.271333,-5181.441594,-9622.677246,0.000000
444.271661,-6957.935855,-9844.739029,-612.876398
444.271988,-5625.565159,-9474.636058,-1149.143247
444.272316,-2072.576638,-8734.430116,-612.876398
444.272643,1480.411884,-7920.203579,689.485948
444.272971,2812.782580,-8068.244768,1302.362347
444.273298,2072.576638,-8512.368333,1378.971896
444.273626,-444.123565,-9252.574275,459.657299
444.273953,-2294.638420,-9622.677246,-459.657299
444.274281,-814.226536,-9696.697840,-459.657299
444.274608,1850.514855,-9178.553681,842.705048
444.274936,4959.379811,-8882.471304,1915.238745
444.275263,5847.626942,-9400.615463,2987.772442
444.275591,3775.050304,-10140.821405,2757.943793
444.275918,0.000000,-10510.924376,1532.190996
444.276246,-1554.432478,-11103.089130,1685.410096
444.276573,-1480.411884,-9844.739029,-306.438199
444.276901,-1332.370696,-8882.471304,229.828649
444.277228,2368.659014,-8068.244768,306.438199
444.277556,3034.844362,-7846.182985,1762.019645
444.277883,1258.350101,-8216.285956,1455.581446
444.278211,-444.123565,-7402.059420,536.266849
444.278538,-3256.906145,-8734.430116,153.219100
444.278866,-3701.029710,-8660.409521,-1225.752797
444.279193,-2368.659014,-8586.388927,-459.657299
444.279520,-370.102971,-8438.347739,153.219100
444.279848,296.082377,-8956.491898,1378.971896
444.280175,-592.164754,-9104.533087,1302.362347
444.280503,-3552.988522,-9696.697840,306.438199
444.280830,-5699.585753,-9400.615463,-1072.533697
444.281158,-5773.606348,-9400.615463,-1838.629195
444.281485,-3182.885551,-8660.409521,-1762.019645
444.281813,592.164754,-7476.080014,-995.924147
444.282140,2516.700203,-7476.080014,76.609550
444.282468,2294.638420,-8216.285956,459.657299
444.282795,518.144159,-9400.615463,0.000000
444.283123,-1702.473667,-9400.615463,-612.876398
444.283450,-1406.391290,-9918.759623,-1072.533697
444.283778,814.226536,-9918.759623,0.000000
444.284105,3923.091493,-9474.636058,995.924147
444.284433,5847.626942,-9918.759623,2374.896044
444.284760,5181.441594,-10510.924376,2681.334243
444.285088,2664.741391,-11029.068536,2451.505594
444.285415,-1184.329507,-11177.109724,689.485948
444.285743,-1554.432478,-10881.027347,612.876398
444.286070,0.000000,-9696.697840,0.000000
444.286398,962.267725,-9104.533087,766.095498
444.286725,3627.009116,-8216.285956,1762.019645
444.287053,2368.659014,-8290.306550,2068.457845
444.287380,0.000000,-8882.471304,1608.800546
444.287708,-2368.659014,-8512.368333,306.438199
444.288035,-4071.132681,-9252.574275,0.000000
444.288363,-3108.864956,-9104.533087,-229.828649
444.288690,-1184.329507,-8512.368333,995.924147
444.289018,0.000000,-8512.368333,1532.190996
444.289345,-740.205942,-9178.553681,1838.629195
444.289673,-2960.823768,-9622.677246,1838.629195
444.290000,-6143.709319,-9178.553681,536.266849
444.290328,-6365.771101,-8882.471304,-689.485948
444.290655,-5107.421000,-8364.327145,-1225.752797
444.290983,-1776.494261,-7550.100608,-536.266849
444.291310,1258.350101,-7254.018232,229.828649
444.291638,1924.535449,-7402.059420,1149.143247
444.291965,814.226536,-8438.347739,1149.143247
444.292293,-1480.411884,-8808.450710,-229.828649
444.292620,-2368.659014,-9474.636058,-536.266849
444.292948,-444.123565,-9548.656652,0.000000
444.293275,2590.720797,-9400.615463,919.314598
444.293603,4959.379811,-8956.491898,2451.505594
444.293930,5699.585753,-10066.800811,3524.039291
444.294257,3404.947333,-10436.903782,2987.772442
444.294585,518.144159,-11103.089130,1838.629195
444.294912,-1110.308913,-10807.006753,842.705048
444.295240,-370.102971,-10214.842000,1072.533697
444.295567,1480.411884,-8586.388927,0.000000
444.295895,2516.700203,-8364.327145,1762.019645
444.296222,3849.070898,-7624.121203,1915.238745
444.296550,1332.370696,-8660.409521,1608.800546
444.296877,-1406.391290,-9030.512492,536.266849
444.297205,-3256.906145,-8808.450710,-612.876398
444.297532,-3997.112087,-9104.533087,-689.485948
444.297860,-1554.432478,-8586.388927,0.000000
444.298187,296.082377,-8512.368333,689.485948
444.298515,592.164754,-9104.533087,1455.581446
444.298842,-1258.350101,-9326.594869,1838.629195
444.299170,-4367.215058,-9622.677246,153.219100
444.299497,-6587.832884,-9548.656652,-1302.362347
444.299825,-6143.709319,-8956.491898,-1915.238745
444.300152,-3256.906145,-8290.306550,-1762.019645
444.300480,0.000000,-7254.018232,-995.924147
444.300807,1850.514855,-7772.162391,-306.438199
444.301135,1110.308913,-8290.306550,229.828649
444.301462,-962.267725,-8956.491898,-459.657299
444.301790,-2516.700203,-9400.615463,-1532.190996
444.302117,-1406.391290,-9548.656652,-1378.971896
444.302445,1702.473667,-9770.718434,-229.828649
444.302772,4515.256246,-9252.574275,1072.533697
444.303100,5921.647536,-9992.780217,2451.505594
444.303427,4737.318029,-10732.986159,2681.334243
444.303755,2368.659014,-11769.274478,2068.457845
444.304082,-740.205942,-10955.047942,919.314598
444.304410,-1480.411884,-10658.965565,-229.828649
444.304737,740.205942,-9770.718434,766.095498
444.305065,3478.967927,-8216.285956,689.485948
444.305392,2960.823768,-7846.182985,1991.848295
444.305720,2664.741391,-7846.182985,1762.019645
444.306047,148.041188,-8216.285956,995.924147
444.306375,-2812.782580,-8660.409521,0.000000
444.306702,-3108.864956,-8660.409521,-689.485948
444.307030,-2220.617826,-9252.574275,153.219100
444.307357,-370.102971,-8956.491898,995.924147
444.307685,1110.308913,-9178.553681,1762.019645
444.308012,-518.144159,-9400.615463,2145.067394
444.308340,-3330.926739,-9548.656652,1149.143247
444.308667,-5773.606348,-9548.656652,0.000000
444.308994,-6217.729913,-9326.594869,-1072.533697
444.309322,-4219.173869,-8216.285956,-995.924147
444.309649,-1332.370696,-7624.121203,-383.047749
444.309977,814.226536,-7328.038826,383.047749
444.310304,962.267725,-7698.141797,995.924147
444.310632,-666.185348,-8216.285956,919.314598
444.310959,-2368.659014,-8438.347739,76.609550
444.311287,-2516.700203,-9030.512492,-383.047749
444.311614,-444.123565,-9326.594869,76.609550
444.311942,2368.659014,-9252.574275,1455.581446
444.312269,4367.215058,-9622.677246,2451.505594
444.312597,4367.215058,-10214.842000,3677.258390
444.312924,1998.556043,-10807.006753,2451.505594
444.313252,-518.144159,-10807.006753,1838.629195
444.313579,-1554.432478,-10955.047942,842.705048
444.313907,-666.185348,-10214.842000,76.609550
444.314234,1702.473667,-9252.574275,1455.581446
444.314562,3923.091493,-8216.285956,1378.971896
444.314889,2368.659014,-8438.347739,2221.676944
444.315217,1110.308913,-8956.491898,1149.143247
444.315544,-1776.494261,-9178.553681,76.609550
444.315872,-3330.926739,-9104.533087,-383.047749
444.316199,-1924.535449,-8660.409521,-383.047749
444.316527,-740.205942,-8882.471304,459.657299
444.316854,1036.288319,-8882.471304,1225.752797
444.317182,888.247130,-9400.615463,1838.629195
444.317509,-1184.329507,-9992.780217,1455.581446
444.317837,-3849.070898,-9918.759623,0.000000
444.318164,-5107.421000,-9918.759623,-842.705048
444.318492,-4515.256246,-8882.471304,-1302.362347
444.318819,-1702.473667,-7846.182985,-612.876398
444.319147,1184.329507,-7105.977043,76.609550
444.319475,2442.679609,-7179.997637,689.485948
444.319802,888.247130,-8364.327145,689.485948
444.320130,-1480.411884,-8734.430116,-536.266849
444.320458,-2960.823768,-9178.553681,-995.924147
444.320785,-1628.453072,-9326.594869,-1225.752797
444.321113,888.247130,-9400.615463,0.000000
444.321441,3923.091493,-9178.553681,1532.190996
444.321768,4145.153275,-9770.718434,2298.286494
444.322096,2516.700203,-10584.944971,2145.067394
444.322424,-740.205942,-10955.047942,1072.533697
444.322751,-2960.823768,-10807.006753,-842.705048
444.323079,-2368.659014,-9918.759623,-459.657299
444.323407,148.041188,-9400.615463,0.000000
444.323734,2664.741391,-7920.203579,153.219100
444.324062,2886.803174,-7698.141797,1838.629195
444.324390,2738.761985,-7698.141797,1685.410096
444.324717,0.000000,-8586.388927,995.924147
444.325045,-2664.741391,-8364.327145,-383.047749
444.325373,-2368.659014,-8734.430116,-536.266849
444.325701,-1258.350101,-8734.430116,306.438199
444.326028,1036.288319,-8512.368333,1225.752797
444.326356,1554.432478,-8586.388927,1838.629195
444.326684,0.000000,-9326.594869,2145.067394
444.327011,-2664.741391,-9548.656652,995.924147
444.327339,-4737.318029,-9548.656652,-229.828649
444.327667,-5033.400406,-9104.533087,-995.924147
444.327994,-2368.659014,-8290.306550,-536.266849
444.328322,518.144159,-7846.182985,383.047749
444.328650,1924.535449,-7698.141797,1378.971896
444.328977,1184.329507,-8290.306550,1608.800546
444.329305,-1184.329507,-8734.430116,536.266849
444.329633,-3182.885551,-8660.409521,153.219100
444.329960,-3182.885551,-9178.553681,-766.095498
444.330288,-962.267725,-8956.491898,0.000000
444.330616,1406.391290,-8882.471304,1072.533697
444.330944,3404.947333,-9474.636058,2374.896044
444.331271,2220.617826,-9696.697840,2528.115143
444.331599,518.144159,-10288.862594,2145.067394
444.331927,-2738.761985,-10510.924376,383.047749
444.332254,-3034.844362,-10214.842000,-689.485948
444.332582,-1776.494261,-9400.615463,-1302.362347
444.332910,1480.411884,-8586.388927,536.266849
444.333237,4293.194464,-7846.182985,1915.238745
444.333565,3182.885551,-8142.265362,1915.238745
444.333893,1184.329507,-8734.430116,1302.362347
444.334220,-1184.329507,-9030.512492,0.000000
444.334548,-2146.597232,-9622.677246,-229.828649
444.334876,-814.226536,-9548.656652,0.000000
444.335203,1258.350101,-9400.615463,1149.143247
444.335531,2072.576638,-9474.636058,1915.238745
444.335859,1776.494261,-10140.821405,2374.896044
444.336186,-592.164754,-10288.862594,1685.410096
444.336514,-3034.844362,-9918.759623,383.047749
444.336842,-3701.029710,-9844.739029,-306.438199
444.337170,-2442.679609,-9178.553681,-612.876398
444.337497,0.000000,-7994.224174,0.000000
444.337825,2220.617826,-7550.100608,536.266849
444.338153,1998.556043,-7772.162391,1072.533697
444.338480,148.041188,-8734.430116,1302.362347
444.338808,-2590.720797,-9030.512492,0.000000
444.339136,-3701.029710,-9474.636058,-459.657299
444.339463,-2368.659014,-9400.615463,-536.266849
444.339791,222.061783,-9178.553681,612.876398
444.340119,1998.556043,-8956.491898,2145.067394
444.340446,2368.659014,-9474.636058,2681.334243
444.340774,148.041188,-10436.903782,2068.457845
444.341102,-2368.659014,-10881.027347,919.314598
444.341429,-3552.988522,-10510.924376,-306.438199
444.341757,-2442.679609,-9326.594869,-229.828649
444.342085,1036.288319,-8660.409521,0.000000
444.342412,2664.741391,-7772.162391,689.485948
444.342740,3404.947333,-7920.203579,1455.581446
444.343068,1850.514855,-8586.388927,1225.752797
444.343396,-814.226536,-8734.430116,459.657299
444.343723,-2886.803174,-9474.636058,-612.876398
444.344051,-2294.638420,-9326.594869,-766.095498
444.344379,-296.082377,-9178.553681,0.000000
444.344706,1924.535449,-8956.491898,1149.143247
444.345034,2294.638420,-9030.512492,1991.848295
444.345362,1036.288319,-9326.594869,2145.067394
444.345689,-2146.597232,-9548.656652,689.485948
444.346017,-4293.194464,-9474.636058,-536.266849
444.346345,-3627.009116,-9030.512492,-1072.533697
444.346672,-814.226536,-8364.327145,-689.485948
444.347000,1850.514855,-7254.018232,612.876398
444.347328,2960.823768,-7550.100608,1149.143247
444.347655,1702.473667,-8438.347739,1378.971896
444.347983,-444.123565,-8956.491898,383.047749
444.348311,-2368.659014,-9178.553681,-459.657299
444.348638,-2220.617826,-9178.553681,-612.876398
444.348966,148.041188,-8882.471304,0.000000
444.349294,2072.576638,-8882.471304,1225.752797
444.349622,2960.823768,-9548.656652,2451.505594
444.349949,1258.350101,-9918.759623,2068.457845
444.350277,-1332.370696,-9992.780217,995.924147
444.350605,-3701.029710,-9844.739029,0.000000
444.350932,-3552.988522,-9696.697840,-689.485948
444.351260,-1184.329507,-8586.388927,-536.266849
444.351588,1036.288319,-8216.285956,229.828649
444.351915,2812.782580,-7550.100608,919.314598
444.352243,1776.494261,-8364.327145,842.705048
444.352571,-888.247130,-8512.368333,536.266849
444.352898,-3034.844362,-9178.553681,-612.876398
444.353226,-3330.926739,-9178.553681,-995.924147
444.353554,-1184.329507,-9030.512492,-383.047749
444.353881,1554.432478,-8956.491898,766.095498
444.354209,2960.823768,-8956.491898,1915.238745
444.354537,1850.514855,-9770.718434,2068.457845
444.354865,-296.082377,-10288.862594,1838.629195
444.355192,-3478.967927,-10584.944971,459.657299
444.355520,-3404.947333,-9918.759623,76.609550
444.355848,-1332.370696,-9548.656652,-306.438199
444.356175,1036.288319,-8734.430116,383.047749
444.356503,2960.823768,-8438.347739,1378.971896
444.356831,2590.720797,-9104.533087,1608.800546
444.357158,518.144159,-9252.574275,689.485948
444.357486,-1628.453072,-9326.594869,383.047749
444.357814,-2368.659014,-9474.636058,-459.657299
444.358141,-1110.308913,-9252.574275,0.000000
444.358469,1406.391290,-9030.512492,1149.143247
444.358797,2590.720797,-8956.491898,2145.067394
444.359124,1924.535449,-9474.636058,2221.676944
444.359452,-666.185348,-9844.739029,1685.410096
444.359780,-3701.029710,-10214.842000,536.266849
444.360107,-4515.256246,-9844.739029,-306.438199
444.360435,-2516.700203,-9030.512492,-612.876398
444.360763,0.000000,-8290.306550,76.609550
444.361091,2368.659014,-7772.162391,1149.143247
444.361418,2220.617826,-7994.224174,1378.971896
444.361746,444.123565,-8512.368333,995.924147
444.362074,-2072.576638,-9178.553681,0.000000
444.362401,-2738.761985,-9474.636058,-612.876398
444.362729,-2072.576638,-8956.491898,0.000000
444.363057,296.082377,-8956.491898,229.828649
444.363384,2146.597232,-8808.450710,1302.362347
444.363712,1998.556043,-9104.533087,1838.629195
444.364040,222.061783,-9844.739029,1685.410096
444.364367,-2664.741391,-9400.615463,306.438199
444.364695,-3849.070898,-9770.718434,-383.047749
444.365023,-2738.761985,-9178.553681,-919.314598
444.365350,222.061783,-8216.285956,0.000000
444.365678,2960.823768,-7698.141797,766.095498
444.366006,3627.009116,-7772.162391,2068.457845
444.366333,1998.556043,-8660.409521,1225.752797
444.366661,-888.247130,-8956.491898,306.438199
444.366989,-2368.659014,-9252.574275,-306.438199
444.367317,-1406.391290,-9474.636058,-153.219100
444.367644,888.247130,-8956.491898,689.485948
444.367972,2738.761985,-8734.430116,1762.019645
444.368300,2738.761985,-9178.553681,2145.067394
444.368627,814.226536,-9918.759623,1838.629195
444.368955,-2146.597232,-9622.677246,766.095498
444.369283,-3849.070898,-9474.636058,-459.657299
444.369610,-3034.844362,-8660.409521,-919.314598
444.369938,-1184.329507,-8364.327145,-689.485948
444.370266,1406.391290,-7698.141797,153.219100
444.370593,2294.638420,-7328.038826,919.314598
444.370921,1184.329507,-8216.285956,842.705048
444.371249,-1184.329507,-8364.327145,76.609550
444.371576,-3034.844362,-8956.491898,-612.876398
444.371904,-2738.761985,-9252.574275,-995.924147
444.372232,-1036.288319,-9104.533087,-306.438199
444.372559,1332.370696,-8808.450710,766.095498
444.372887,2368.659014,-9178.553681,1838.629195
444.373215,1258.350101,-9770.718434,2068.457845
444.373543,-1332.370696,-10214.842000,1225.752797
444.373870,-3478.967927,-10140.821405,0.000000
444.374198,-3330.926739,-9918.759623,-919.314598
444.374526,-1110.308913,-9326.594869,-766.095498
444.374853,2072.576638,-8142.265362,689.485948
444.375181,3404.947333,-8142.265362,1225.752797
444.375509,2590.720797,-8734.430116,1455.581446
444.375836,222.061783,-9178.553681,766.095498
444.376164,-1628.453072,-9548.656652,229.828649
444.376492,-2146.597232,-9770.718434,-153.219100
444.376819,0.000000,-9622.677246,306.438199
444.377147,1776.494261,-9326.594869,1378.971896
444.377475,2738.761985,-9548.656652,2298.286494
444.377802,1184.329507,-10066.800811,2528.115143
444.378130,-1406.391290,-9992.780217,1762.019645
444.378458,-3627.009116,-10436.903782,766.095498
444.378786,-4293.194464,-9992.780217,-306.438199
444.379113,-2664.741391,-9104.533087,-383.047749
444.379441,148.041188,-8216.285956,0.000000
444.379769,1924.535449,-7328.038826,612.876398
444.380096,1480.411884,-7846.182985,1072.533697
444.380424,-222.061783,-8586.388927,459.657299
444.380752,-2664.741391,-9104.533087,-612.876398
444.381079,-3404.947333,-9622.677246,-995.924147
444.381407,-2072.576638,-9400.615463,-919.314598
444.381735,592.164754,-8808.450710,229.828649
444.382062,1998.556043,-9104.533087,1608.800546
444.382390,1850.514855,-9696.697840,2068.457845
444.382718,74.020594,-10214.842000,1685.410096
444.383045,-3108.864956,-10066.800811,459.657299
444.383373,-3627.009116,-9992.780217,-459.657299
444.383701,-2072.576638,-9474.636058,-612.876398
444.384028,888.247130,-8364.327145,0.000000
444.384356,3256.906145,-7698.141797,1378.971896
444.384684,3849.070898,-7994.224174,1838.629195
444.385012,1850.514855,-8586.388927,1378.971896
444.385339,-222.061783,-8808.450710,689.485948
444.385667,-1480.411884,-8882.471304,76.609550
444.385995,-444.123565,-8438.347739,306.438199
444.386322,1776.494261,-8142.265362,1302.362347
444.386650,3256.906145,-8586.388927,2298.286494
444.386978,2146.597232,-9252.574275,2604.724693
444.387305,0.000000,-9770.718434,2221.676944
444.387633,-2664.741391,-10140.821405,1302.362347
444.387961,-4589.276840,-9622.677246,-153.219100
444.388288,-3849.070898,-9696.697840,-459.657299
444.388616,-1850.514855,-8216.285956,76.609550
444.388944,444.123565,-7624.121203,306.438199
444.389271,1332.370696,-7624.121203,1072.533697
444.389599,0.000000,-7920.203579,229.828649
444.389927,-2664.741391,-8364.327145,-306.438199
444.390254,-4367.215058,-8882.471304,-1532.190996
444.390582,-3478.967927,-8734.430116,-1455.581446
444.390910,-1258.350101,-8216.285956,-842.705048
444.391238,1554.432478,-7920.203579,383.047749
444.391565,2146.597232,-8808.450710,1302.362347
444.391893,1036.288319,-9696.697840,1608.800546
444.392221,-2072.576638,-10140.821405,306.438199
444.392548,-3478.967927,-10362.883188,-689.485948
444.392876,-2812.782580,-9844.739029,-1378.971896
444.393204,0.000000,-9178.553681,-612.876398
444.393531,3404.947333,-8438.347739,383.047749
444.393859,4737.318029,-8512.368333,689.485948
444.394187,3923.091493,-8808.450710,1225.752797
444.394514,1480.411884,-9104.533087,766.095498
444.394842,-740.205942,-9696.697840,-229.828649
444.395170,-296.082377,-10066.800811,306.438199
444.395497,2220.617826,-9992.780217,766.095498
444.395825,3108.864956,-9696.697840,1608.800546
444.396153,3478.967927,-10140.821405,2834.553343
444.396480,1480.411884,-10732.986159,3064.381992
444.396808,-1850.514855,-10732.986159,1685.410096
444.397136,-4145.153275,-10807.006753,76.609550
444.397464,-4219.173869,-10214.842000,0.000000
444.397791,-3108.864956,-8808.450710,-229.828649
444.398119,-444.123565,-7698.141797,459.657299
444.398447,814.226536,-7328.038826,995.924147
444.398774,-370.102971,-7550.100608,766.095498
444.399102,-2294.638420,-8290.306550,306.438199
444.399430,-4737.318029,-8660.409521,-995.924147
444.399757,-4885.359217,-8734.430116,-1302.362347
444.400085,-2738.761985,-8290.306550,-612.876398
444.400413,-148.041188,-7698.141797,689.485948
444.400740,1480.411884,-8586.388927,1378.971896
444.401068,1110.308913,-9326.594869,1762.019645
444.401396,-1480.411884,-10066.800811,1149.143247
444.401723,-3627.009116,-10214.842000,0.000000
444.402051,-3701.029710,-9770.718434,-766.095498
444.402379,-592.164754,-9400.615463,-612.876398
444.402707,2516.700203,-8438.347739,536.266849
444.403034,4811.338623,-7846.182985,1532.190996
444.403362,5033.400406,-8290.306550,2068.457845
444.403690,3108.864956,-8808.450710,1991.848295
444.404017,444.123565,-9104.533087,689.485948
444.404345,-888.247130,-9474.636058,0.000000
444.404673,740.205942,-9622.677246,612.876398
444.405000,3404.947333,-9178.553681,1532.190996
444.405328,3182.885551,-9474.636058,2681.334243
444.405656,2812.782580,-9696.697840,3064.381992
444.405983,74.020594,-10066.800811,2757.943793
444.406311,-3182.885551,-9918.759623,1149.143247
444.406639,-4737.318029,-9548.656652,0.000000
444.406966,-3627.009116,-8882.471304,-229.828649
444.407294,-2072.576638,-7476.080014,0.000000
444.407622,222.061783,-7179.997637,0.000000
444.407949,0.000000,-7179.997637,536.266849
444.408277,-1702.473667,-7994.224174,-383.047749
444.408605,-3997.112087,-8142.265362,-995.924147
444.408933,-5255.462188,-8364.327145,-2298.286494
444.409260,-3552.988522,-8364.327145,-1838.629195
444.409588,-1184.329507,-8216.285956,-689.485948
444.409916,1036.288319,-8586.388927,383.047749
444.410243,1850.514855,-9326.594869,1532.190996
444.410571,0.000000,-9992.780217,1149.143247
444.410899,-1924.535449,-10807.006753,459.657299
444.411226,-3701.029710,-10510.924376,-766.095498
444.411554,-2072.576638,-10214.842000,-919.314598
444.411882,1184.329507,-9030.512492,-229.828649
444.412209,4441.235652,-8290.306550,1072.533697
444.412537,5921.647536,-8956.491898,2298.286494
444.412865,4293.194464,-9178.553681,1685.410096
444.413192,1924.535449,-9770.718434,995.924147
444.413520,222.061783,-10066.800811,689.485948
444.413848,814.226536,-10066.800811,459.657299
444.414175,1924.535449,-9252.574275,1072.533697
444.414503,4071.132681,-10066.800811,2757.943793
444.414831,3701.029710,-9992.780217,3064.381992
444.415159,518.144159,-10658.965565,2987.772442
444.415486,-2146.597232,-10807.006753,1225.752797
444.415814,-4441.235652,-10362.883188,306.438199
444.416142,-4885.359217,-9548.656652,-612.876398
444.416469,-2590.720797,-8438.347739,0.000000
444.416797,-814.226536,-7994.224174,536.266849
444.417125,222.061783,-7772.162391,919.314598
444.417452,-1184.329507,-7846.182985,536.266849
444.417780,-3923.091493,-7994.224174,-306.438199
444.418108,-5107.421000,-8660.409521,-1302.362347
444.418435,-5255.462188,-8734.430116,-1455.581446
444.418763,-2664.741391,-8216.285956,-995.924147
444.419091,-296.082377,-8068.244768,76.609550
444.419418,1332.370696,-8512.368333,1455.581446
444.419746,296.082377,-9548.656652,1685.410096
444.420074,-2146.597232,-10066.800811,612.876398
444.420401,-4145.153275,-10362.883188,-689.485948
444.420729,-3478.967927,-9844.739029,-1149.143247
444.421056,-222.061783,-9178.553681,-229.828649
444.421384,3256.906145,-8364.327145,383.047749
444.421712,5551.544565,-8142.265362,1685.410096
444.422039,5181.441594,-8512.368333,1991.848295
444.422367,2886.803174,-9030.512492,1455.581446
444.422695,592.164754,-9474.636058,766.095498
444.423022,148.041188,-9474.636058,306.438199
444.423350,2072.576638,-9252.574275,536.266849
444.423678,3256.906145,-9252.574275,2221.676944
444.424005,5181.441594,-9326.594869,2911.162892
444.424333,2960.823768,-10140.821405,2987.772442
444.424661,-518.144159,-9918.759623,2451.505594
444.424988,-2886.803174,-9918.759623,536.266849
444.425316,-4219.173869,-9918.759623,0.000000
444.425644,-3182.885551,-9104.533087,-459.657299
444.425971,-296.082377,-7846.182985,229.828649
444.426299,370.102971,-7179.997637,1302.362347
444.426627,222.061783,-7254.018232,1072.533697
444.426954,-2220.617826,-7772.162391,76.609550
444.427282,-4737.318029,-7920.203579,-1225.752797
444.427610,-5551.544565,-8142.265362,-1838.629195
444.427937,-4441.235652,-7994.224174,-1455.581446
444.428265,-1628.453072,-7846.182985,-459.657299
444.428593,222.061783,-8364.327145,689.485948
444.428920,222.061783,-9400.615463,919.314598
444.429248,-1850.514855,-10140.821405,536.266849
444.429575,-4219.173869,-10140.821405,-459.657299
444.429903,-4441.235652,-9770.718434,-842.705048
444.430231,-2146.597232,-9252.574275,-1532.190996
444.430558,1628.453072,-8364.327145,-612.876398
444.430886,5033.400406,-7920.203579,766.095498
444.431214,5995.668130,-8216.285956,1762.019645
444.431541,4219.173869,-8660.409521,1378.971896
444.431869,2220.617826,-9252.574275,689.485948
444.432197,814.226536,-10288.862594,536.266849
444.432524,1628.453072,-10066.800811,536.266849
444.432852,3034.844362,-9992.780217,1302.362347
444.433180,4589.276840,-9918.759623,3830.477490
444.433507,4737.318029,-10510.924376,3753.867940
444.433835,1110.308913,-11103.089130,3370.820191
444.434163,-1628.453072,-10658.965565,1991.848295
444.434490,-3330.926739,-10214.842000,842.705048
444.434818,-3701.029710,-9474.636058,76.609550
444.435146,-2146.597232,-7920.203579,383.047749
444.435473,-222.061783,-7476.080014,1149.143247
444.435801,-296.082377,-7550.100608,1149.143247
444.436129,-1998.556043,-7994.224174,536.266849
444.436456,-4737.318029,-8364.327145,-229.828649
444.436784,-6365.771101,-7920.203579,-1149.143247
444.437112,-5329.482782,-8364.327145,-1225.752797
444.437439,-3108.864956,-7994.224174,-306.438199
444.437767,-518.144159,-7772.162391,689.485948
444.438094,296.082377,-8734.430116,1532.190996
444.438422,-1258.350101,-9104.533087,1532.190996
444.438750,-2812.782580,-10362.883188,536.266849
444.439077,-4811.338623,-10436.903782,-612.876398
444.439405,-3404.947333,-9622.677246,-919.314598
444.439733,148.041188,-8956.491898,-612.876398
444.440060,3997.112087,-8216.285956,842.705048
444.440388,5921.647536,-8068.244768,1991.848295
444.440716,5255.462188,-8808.450710,1915.238745
444.441043,2812.782580,-9474.636058,1072.533697
444.441371,888.247130,-9992.780217,383.047749
444.441699,740.205942,-10214.842000,76.609550
444.442026,2590.720797,-9844.739029,842.705048
444.442354,3775.050304,-9252.574275,842.705048
444.442682,4145.153275,-9844.739029,3217.601092
444.443009,3552.988522,-9770.718434,2834.553343
444.443337,0.000000,-10732.986159,1838.629195
444.443665,-3108.864956,-9918.759623,919.314598
444.443992,-3552.988522,-10066.800811,-689.485948
444.444320,-2812.782580,-9104.533087,0.000000
444.444648,-962.267725,-7920.203579,0.000000
444.444975,814.226536,-7476.080014,1072.533697
444.445303,-444.123565,-7402.059420,459.657299
444.445630,-2590.720797,-7920.203579,-306.438199
444.445958,-5699.585753,-8512.368333,-1455.581446
444.446286,-6365.771101,-8438.347739,-1991.848295
444.446613,-4367.215058,-7920.203579,-1991.848295
444.446941,-1924.535449,-7402.059420,-689.485948
444.447269,592.164754,-7698.141797,766.095498
444.447596,0.000000,-9104.533087,689.485948
444.447924,-2294.638420,-9622.677246,0.000000
444.448252,-4219.173869,-10288.862594,-919.314598
444.448579,-4737.318029,-10288.862594,-1762.019645
444.448907,-1924.535449,-9474.636058,-1149.143247
444.449235,2072.576638,-8882.471304,-612.876398
444.449562,5255.462188,-8512.368333,689.485948
444.449890,6291.750507,-9178.553681,1608.800546
444.450218,4589.276840,-9400.615463,1532.190996
444.450545,2516.700203,-10066.800811,536.266849
444.450873,1480.411884,-10214.842000,383.047749
444.451201,2590.720797,-10214.842000,842.705048
444.451528,4885.359217,-9474.636058,1915.238745
444.451856,6513.812290,-9474.636058,2834.553343
444.452184,4293.194464,-9696.697840,3140.991542
444.452511,2368.659014,-10362.883188,3447.429741
444.452839,-1184.329507,-9696.697840,2145.067394
444.453167,-3627.009116,-10288.862594,995.924147
444.453494,-2664.741391,-9844.739029,306.438199
444.453822,-962.267725,-8660.409521,1072.533697
444.454149,-296.082377,-7846.182985,1302.362347
444.454477,0.000000,-7846.182985,1532.190996
444.454805,-2294.638420,-8142.265362,1072.533697
444.455132,-5329.482782,-8660.409521,-153.219100
444.455460,-6661.853478,-8290.306550,-1302.362347
444.455788,-6513.812290,-8142.265362,-1302.362347
444.456115,-2960.823768,-7772.162391,-383.047749
444.456443,-1258.350101,-7772.162391,536.266849
444.456771,-962.267725,-8512.368333,1149.143247
444.457098,-2590.720797,-9548.656652,1072.533697
444.457426,-5551.544565,-10140.821405,459.657299
444.457754,-6365.771101,-10140.821405,-1838.629195
444.458081,-4219.173869,-9474.636058,-1532.190996
444.458409,0.000000,-8438.347739,-536.266849
444.458737,3849.070898,-7698.141797,536.266849
444.459064,5995.668130,-7698.141797,1455.581446
444.459392,4885.359217,-8586.388927,1762.019645
444.459720,2368.659014,-9400.615463,919.314598
444.460047,444.123565,-10510.924376,0.000000
444.460375,1258.350101,-10658.965565,153.219100
444.460703,3923.091493,-9918.759623,1149.143247
444.461030,6513.812290,-9474.636058,2528.115143
444.461358,5625.565159,-9992.780217,2604.724693
444.461686,4145.153275,-10881.027347,3907.087040
444.462013,1776.494261,-10288.862594,2068.457845
444.462341,-2072.576638,-10732.986159,1072.533697
444.462668,-1554.432478,-9770.718434,-306.438199
444.462996,-296.082377,-9104.533087,459.657299
444.463324,888.247130,-8512.368333,1302.362347
444.463651,2072.576638,-7550.100608,1762.019645
444.463979,888.247130,-8216.285956,2451.505594
444.464307,-1850.514855,-8142.265362,1608.800546
444.464634,-4737.318029,-8512.368333,153.219100
444.464962,-5773.606348,-8956.491898,-153.219100
444.465290,-4293.194464,-8216.285956,0.000000
444.465617,-1332.370696,-7920.203579,1302.362347
444.465945,74.020594,-7772.162391,2374.896044
444.466273,-444.123565,-8438.347739,2604.724693
444.466600,-3330.926739,-9326.594869,1838.629195
444.466928,-6439.791695,-9474.636058,229.828649
444.467256,-6365.771101,-9400.615463,-153.219100
444.467583,-4219.173869,-8734.430116,-306.438199
444.467911,-148.041188,-7402.059420,1149.143247
444.468239,3478.967927,-7328.038826,2221.676944
444.468566,4589.276840,-8068.244768,3140.991542
444.468894,2960.823768,-8956.491898,2987.772442
444.469222,222.061783,-10140.821405,2374.896044
444.469549,-1850.514855,-10807.006753,1455.581446
444.469877,-592.164754,-11103.089130,1302.362347
444.470205,1924.535449,-9844.739029,2145.067394
444.470532,5551.544565,-8882.471304,3677.258390
444.470860,7105.977043,-8512.368333,5745.716235
444.471187,6143.709319,-9252.574275,7048.078582
444.471515,2442.679609,-9400.615463,4443.353888
444.471843,-1702.473667,-10362.883188,4213.525239
444.472170,-2664.741391,-9696.697840,2451.505594
444.472498,-3330.926739,-10510.924376,2068.457845
444.472826,-1332.370696,-9030.512492,2757.943793
444.473153,2294.638420,-7772.162391,4060.306139
444.473481,2886.803174,-7328.038826,6052.154434
444.473809,1554.432478,-7328.038826,5745.716235
444.474136,-1554.432478,-8734.430116,4826.401637
444.474464,-5181.441594,-9844.739029,2987.772442
444.474792,-6661.853478,-10140.821405,1685.410096
444.475119,-7254.018232,-9992.780217,536.266849
444.475447,-4663.297435,-9030.512492,1225.752797
444.475775,-1776.494261,-8290.306550,3294.210641
444.476102,0.000000,-7031.956449,4903.011187
444.476430,296.082377,-7031.956449,5669.106685
444.476758,-444.123565,-7698.141797,4673.182538
444.477085,-2368.659014,-9030.512492,3294.210641
444.477413,-3627.009116,-9918.759623,2145.067394
444.477741,-3923.091493,-10584.944971,1225.752797
444.478068,-2590.720797,-10510.924376,1915.238745
444.478396,-518.144159,-9770.718434,3217.601092
444.478724,1628.453072,-9474.636058,4213.525239
444.479051,3849.070898,-8956.491898,5132.839837
444.479379,4219.173869,-8512.368333,4519.963438
444.479706,3923.091493,-9326.594869,4290.134789
444.480034,2960.823768,-9844.739029,2757.943793
444.480362,1702.473667,-10140.821405,2528.115143
444.480689,1628.453072,-10288.862594,2757.943793
444.481017,0.000000,-10584.944971,3447.429741
444.481345,518.144159,-10140.821405,4136.915689
444.481672,592.164754,-9252.574275,4519.963438
444.482000,0.000000,-9326.594869,3447.429741
444.482328,370.102971,-9252.574275,2604.724693
444.482655,518.144159,-8660.409521,2068.457845
444.482983,-592.164754,-9030.512492,1991.848295
444.483311,0.000000,-8068.244768,3294.210641
444.483638,74.020594,-8438.347739,2911.162892
444.483966,444.123565,-8142.265362,3600.648841
444.484294,1184.329507,-8068.244768,4060.306139
444.484621,222.061783,-8216.285956,3753.867940
444.484949,-148.041188,-8364.327145,3600.648841
444.485277,-2220.617826,-9030.512492,4060.306139
444.485604,-3182.885551,-9474.636058,3217.601092
444.485932,-3330.926739,-9474.636058,3140.991542
444.486260,-2590.720797,-9326.594869,3064.381992
444.486587,-1406.391290,-8882.471304,2911.162892
444.486915,-148.041188,-8290.306550,3294.210641
444.487242,296.082377,-8142.265362,3140.991542
444.487570,148.041188,-8364.327145,3370.820191
444.487898,-962.267725,-8586.388927,2987.772442
444.488225,-1258.350101,-8808.450710,2987.772442
444.488553,-518.144159,-9104.533087,3140.991542
444.488881,-666.185348,-8808.450710,3524.039291
444.489208,444.123565,-9030.512492,3907.087040
444.489536,1332.370696,-9326.594869,3907.087040
444.489864,962.267725,-9474.636058,4213.525239
444.490191,296.082377,-9918.759623,4673.182538
444.490519,-740.205942,-9474.636058,3447.429741
444.490847,-814.226536,-9400.615463,3447.429741
444.491174,-666.185348,-9178.553681,2987.772442
444.491502,-370.102971,-8142.265362,2757.943793
444.491830,74.020594,-8216.285956,2604.724693
444.492157,1110.308913,-8290.306550,3064.381992
444.492485,222.061783,-8882.471304,2757.943793
444.492813,-370.102971,-9400.615463,2604.724693
444.493140,-1184.329507,-9474.636058,2451.505594
444.493468,-1036.288319,-9770.718434,2145.067394
444.493796,-518.144159,-9252.574275,1915.238745
444.494123,-518.144159,-9400.615463,1532.190996
444.494451,-296.082377,-9474.636058,1532.190996
444.494779,-592.164754,-9770.718434,2068.457845
444.495106,-1036.288319,-9548.656652,1838.629195
444.495434,-1702.473667,-9474.636058,1685.410096
444.495761,-1628.453072,-9252.574275,1455.581446
444.496089,-814.226536,-9252.574275,1532.190996
444.496417,370.102971,-8882.471304,1072.533697
444.496744,1036.288319,-8364.327145,1302.362347
444.497072,1406.391290,-8512.368333,1685.410096
444.497400,1110.308913,-9252.574275,1455.581446
444.497727,296.082377,-9326.594869,1762.019645
444.498055,296.082377,-9696.697840,1532.190996
444.498383,444.123565,-9992.780217,1378.971896
444.498710,888.247130,-10214.842000,2221.676944
444.499038,1258.350101,-9992.780217,1455.581446
444.499366,1406.391290,-9770.718434,1608.800546
444.499693,1036.288319,-9474.636058,2068.457845
444.500021,888.247130,-9326.594869,1762.019645
444.500349,-296.082377,-9474.636058,1378.971896
444.500676,-888.247130,-9326.594869,1225.752797
444.501004,-1184.329507,-8882.471304,612.876398
444.501332,-1110.308913,-9030.512492,766.095498
444.501659,-1110.308913,-8882.471304,689.485948
444.501987,-962.267725,-9104.533087,1072.533697
444.502315,-1110.308913,-8660.409521,1455.581446
444.502642,-962.267725,-8734.430116,842.705048
444.502970,-1036.288319,-8660.409521,383.047749
444.503298,-1184.329507,-8660.409521,229.828649
444.503625,-592.164754,-8364.327145,76.609550
444.503953,-592.164754,-8364.327145,689.485948
444.504280,-592.164754,-8364.327145,995.924147
444.504608,-518.144159,-8882.471304,1225.752797
444.504936,-222.061783,-9326.594869,1225.752797
444.505263,-222.061783,-9104.533087,1378.971896
444.505591,148.041188,-8808.450710,995.924147
444.505919,666.185348,-8660.409521,612.876398
444.506246,740.205942,-8882.471304,1072.533697
444.506574,814.226536,-8956.491898,766.095498
444.506902,518.144159,-9178.553681,1149.143247
444.507229,444.123565,-9400.615463,1608.800546
444.507557,296.082377,-9696.697840,1838.629195
444.507885,74.020594,-9474.636058,1302.362347
444.508212,0.000000,-9178.553681,766.095498
444.508540,148.041188,-9178.553681,842.705048
444.508868,-148.041188,-8808.450710,383.047749
444.509195,-518.144159,-8808.450710,766.095498
444.509523,-888.247130,-8660.409521,229.828649
444.509851,-888.247130,-8956.491898,919.314598
444.510178,-1406.391290,-8882.471304,689.485948
444.510506,-1406.391290,-8660.409521,612.876398
444.510834,-1406.391290,-8956.491898,689.485948
444.511161,-1258.350101,-8364.327145,536.266849
444.511489,-1036.288319,-8586.388927,306.438199
444.511817,-962.267725,-8734.430116,306.438199
444.512144,-592.164754,-8808.450710,536.266849
444.512472,-296.082377,-8882.471304,612.876398
444.512799,296.082377,-9326.594869,612.876398
444.513127,0.000000,-8956.491898,536.266849
444.513455,0.000000,-9548.656652,536.266849
444.513782,-296.082377,-9844.739029,689.485948
444.514110,-444.123565,-10140.821405,689.485948
444.514438,-296.082377,-10140.821405,459.657299
444.514765,222.061783,-10066.800811,842.705048
444.515093,518.144159,-9918.759623,689.485948
444.515421,740.205942,-9474.636058,536.266849
444.515748,740.205942,-9474.636058,612.876398
444.516076,592.164754,-9400.615463,383.047749
444.516404,148.041188,-9400.615463,153.219100
444.516731,-370.102971,-9326.594869,229.828649
444.517059,0.000000,-9474.636058,612.876398
444.517387,0.000000,-9252.574275,383.047749
444.517714,-222.061783,-9178.553681,-153.219100
444.518042,0.000000,-8808.450710,842.705048
444.518370,0.000000,-9030.512492,0.000000
444.518697,-370.102971,-9104.533087,153.219100
444.519025,-518.144159,-8660.409521,306.438199
444.519353,-296.082377,-8808.450710,612.876398
444.519680,-592.164754,-8956.491898,689.485948
444.520008,-888.247130,-9178.553681,153.219100
444.520336,-1036.288319,-9178.553681,383.047749
444.520663,-888.247130,-9104.533087,459.657299
444.520991,-814.226536,-9252.574275,383.047749
444.521319,-444.123565,-8734.430116,766.095498
444.521646,-370.102971,-8882.471304,842.705048
444.521974,-296.082377,-9030.512492,383.047749
444.522302,0.000000,-8956.491898,459.657299
444.522630,-222.061783,-8882.471304,842.705048
444.522957,-518.144159,-9252.574275,689.485948
444.523285,-1036.288319,-8808.450710,1149.143247
444.523613,-962.267725,-9252.574275,612.876398
444.523940,-1110.308913,-9474.636058,1072.533697
444.524268,-740.205942,-9104.533087,766.095498
444.524596,-518.144159,-8882.471304,842.705048
444.524923,-296.082377,-8068.244768,689.485948
444.525251,0.000000,-8216.285956,612.876398
444.525579,-444.123565,-8512.368333,306.438199
444.525906,-666.185348,-8586.388927,459.657299
444.526234,-888.247130,-8734.430116,919.314598
444.526562,-518.144159,-9252.574275,1378.971896
444.526890,-962.267725,-9326.594869,842.705048
444.527217,-518.144159,-9178.553681,689.485948
444.527545,-296.082377,-9030.512492,689.485948
444.527873,-296.082377,-8734.430116,306.438199
444.528200,148.041188,-8808.450710,536.266849
444.528528,74.020594,-8660.409521,459.657299
444.528856,-222.061783,-8956.491898,459.657299
444.529183,-518.144159,-8956.491898,689.485948
444.529511,-444.123565,-9252.574275,766.095498
444.529839,-518.144159,-9178.553681,919.314598
444.530166,-666.185348,-8808.450710,689.485948
444.530494,0.000000,-9030.512492,459.657299
444.530822,0.000000,-8734.430116,229.828649
444.531149,-222.061783,-8734.430116,383.047749
444.531477,-296.082377,-8512.368333,229.828649
444.531805,-370.102971,-8438.347739,459.657299
444.532133,-814.226536,-8956.491898,383.047749
444.532460,-740.205942,-9252.574275,536.266849
444.532788,-814.226536,-9252.574275,536.266849
444.533116,-814.226536,-9252.574275,306.438199
444.533443,-296.082377,-9252.574275,306.438199
444.533771,0.000000,-8882.471304,-153.219100
444.534099,222.061783,-8956.491898,383.047749
444.534426,444.123565,-9326.594869,459.657299
444.534754,296.082377,-9400.615463,689.485948
444.535082,444.123565,-9400.615463,612.876398
444.535409,0.000000,-9622.677246,919.314598
444.535737,148.041188,-9844.739029,689.485948
444.536065,370.102971,-9770.718434,919.314598
444.536393,444.123565,-9474.636058,612.876398
444.536720,888.247130,-9178.553681,766.095498
444.537048,814.226536,-8882.471304,229.828649
444.537376,296.082377,-8660.409521,536.266849
444.537703,296.082377,-8882.471304,459.657299
444.538031,0.000000,-8734.430116,459.657299
444.538359,0.000000,-8882.471304,766.095498
444.538686,0.000000,-8734.430116,842.705048
444.539014,222.061783,-9030.512492,536.266849
444.539342,74.020594,-9104.533087,306.438199
444.539669,222.061783,-8882.471304,459.657299
444.539997,74.020594,-9104.533087,153.219100
444.540325,-148.041188,-8586.388927,153.219100
444.540653,148.041188,-9326.594869,459.657299
444.540980,0.000000,-9400.615463,612.876398
444.541308,0.000000,-9622.677246,459.657299
444.541636,-296.082377,-9548.656652,459.657299
444.541963,-222.061783,-9918.759623,612.876398
444.542291,74.020594,-8956.491898,536.266849
444.542619,-148.041188,-9326.594869,306.438199
444.542946,-222.061783,-9178.553681,306.438199
444.543274,0.000000,-9104.533087,536.266849
444.543602,148.041188,-8882.471304,689.485948
444.543929,444.123565,-8956.491898,1149.143247
444.544257,-148.041188,-9178.553681,842.705048
444.544585,-296.082377,-9252.574275,842.705048
444.544913,-296.082377,-9252.574275,766.095498
444.545240,-222.061783,-9178.553681,536.266849
444.545568,0.000000,-8956.491898,995.924147
444.545896,-296.082377,-9030.512492,612.876398
444.546223,-222.061783,-9178.553681,536.266849
444.546551,-296.082377,-9252.574275,766.095498
444.546879,-666.185348,-9178.553681,689.485948
444.547206,-444.123565,-9696.697840,995.924147
444.547534,-814.226536,-9400.615463,689.485948
444.547862,-888.247130,-9474.636058,383.047749
444.548189,-740.205942,-9474.636058,536.266849
444.548517,-592.164754,-9474.636058,383.047749
444.548845,-518.144159,-9400.615463,612.876398
444.549172,-592.164754,-9104.533087,383.047749
444.549500,-962.267725,-9474.636058,459.657299
444.549828,-740.205942,-9474.636058,766.095498
444.550156,-740.205942,-9252.574275,919.314598
444.550483,-518.144159,-8808.450710,536.266849
444.550811,-444.123565,-9104.533087,689.485948
444.551139,-592.164754,-9104.533087,536.266849
444.551466,-740.205942,-8956.491898,306.438199
444.551794,-888.247130,-8956.491898,536.266849
444.552122,-518.144159,-8956.491898,459.657299
444.552449,-666.185348,-8364.327145,459.657299
444.552777,-814.226536,-8808.450710,536.266849
444.553105,-592.164754,-8882.471304,459.657299
444.553432,-518.144159,-8734.430116,306.438199
444.553760,-518.144159,-8808.450710,459.657299
444.554088,-518.144159,-8660.409521,766.095498
444.554416,0.000000,-9030.512492,459.657299
444.554743,-296.082377,-9252.574275,306.438199
444.555071,-148.041188,-9252.574275,306.438199
444.555399,-296.082377,-9030.512492,536.266849
444.555726,0.000000,-8808.450710,919.314598
444.556054,-148.041188,-9104.533087,1072.533697
444.556382,-296.082377,-9178.553681,689.485948
444.556709,-370.102971,-8882.471304,766.095498
444.557037,-148.041188,-8956.491898,689.485948
444.557365,0.000000,-9030.512492,383.047749
444.557692,0.000000,-8660.409521,612.876398
444.558020,-148.041188,-8660.409521,689.485948
444.558348,0.000000,-8808.450710,536.266849
444.558676,0.000000,-8660.409521,612.876398
444.559003,0.000000,-8882.471304,459.657299
444.559331,0.000000,-8364.327145,383.047749
444.559659,-148.041188,-9030.512492,766.095498
444.559986,0.000000,-9030.512492,536.266849
444.560314,0.000000,-9178.553681,459.657299
444.560642,0.000000,-9178.553681,459.657299
444.560969,0.000000,-9178.553681,919.314598
444.561297,0.000000,-9104.533087,459.657299
444.561625,0.000000,-8956.491898,306.438199
444.561952,0.000000,-8882.471304,459.657299
444.562280,0.000000,-9030.512492,459.657299
444.562608,-296.082377,-8882.471304,383.047749
444.562936,0.000000,-9474.636058,153.219100
444.563263,0.000000,-9474.636058,383.047749
444.563591,0.000000,-9178.553681,383.047749
444.563919,0.000000,-9030.512492,612.876398
444.564246,0.000000,-9178.553681,229.828649
444.564574,222.061783,-9104.533087,995.924147
444.564902,0.000000,-9104.533087,306.438199
444.565229,0.000000,-9178.553681,612.876398
444.565557,0.000000,-9030.512492,842.705048
444.565885,-222.061783,-9104.533087,612.876398
444.566212,-444.123565,-9252.574275,536.266849
444.566540,148.041188,-9104.533087,153.219100
444.566868,0.000000,-9252.574275,536.266849
444.567195,74.020594,-9400.615463,536.266849
444.567523,-222.061783,-9474.636058,536.266849
444.567851,-444.123565,-9104.533087,612.876398
444.568179,74.020594,-9622.677246,689.485948
444.568506,-370.102971,-9400.615463,766.095498
444.568834,-296.082377,-9400.615463,536.266849
444.569162,-296.082377,-9622.677246,536.266849
444.569489,0.000000,-9104.533087,306.438199
444.569817,0.000000,-9178.553681,536.266849
444.570145,-444.123565,-9030.512492,689.485948
444.570472,-148.041188,-9252.574275,459.657299
444.570800,-518.144159,-9326.594869,459.657299
444.571128,-518.144159,-8956.491898,459.657299
444.571455,-370.102971,-8956.491898,306.438199
444.571783,-222.061783,-9400.615463,612.876398
444.572111,-296.082377,-9252.574275,919.314598
444.572439,-148.041188,-9104.533087,612.876398
444.572766,-148.041188,-9252.574275,689.485948
444.573094,0.000000,-9030.512492,689.485948
444.573422,0.000000,-9400.615463,612.876398
444.573749,-222.061783,-9252.574275,612.876398
444.574077,0.000000,-9474.636058,919.314598
444.574405,0.000000,-9474.636058,766.095498
444.574732,-370.102971,-9474.636058,1225.752797
444.575060,0.000000,-9622.677246,995.924147
444.575388,-370.102971,-9474.636058,612.876398
444.575715,-222.061783,-9252.574275,612.876398
444.576043,-370.102971,-9030.512492,766.095498
444.576371,-296.082377,-8956.491898,459.657299
444.576699,0.000000,-8882.471304,766.095498
444.577026,-370.102971,-8956.491898,689.485948
444.577354,-666.185348,-8882.471304,766.095498
444.577682,-444.123565,-9178.553681,766.095498
444.578009,-444.123565,-8882.471304,995.924147
444.578337,0.000000,-8660.409521,766.095498
444.578665,-518.144159,-8734.430116,612.876398
444.578992,-666.185348,-8882.471304,306.438199
444.579320,-666.185348,-8808.450710,766.095498
444.579648,-592.164754,-8882.471304,612.876398
