#time,accel_x,accel_y,accel_z
522.922712,0.000000,-8956.491898,612.876398
522.923039,-370.102971,-9104.533087,689.485948
522.923367,-370.102971,-9178.553681,459.657299
522.923695,-296.082377,-9104.533087,536.266849
522.924023,-148.041188,-9178.553681,153.219100
522.924351,0.000000,-8882.471304,919.314598
522.924679,-370.102971,-9104.533087,383.047749
522.925006,-148.041188,-9178.553681,459.657299
522.925334,0.000000,-9400.615463,459.657299
522.925662,-296.082377,-9030.512492,459.657299
522.925990,0.000000,-9104.533087,0.000000
522.926318,-148.041188,-9178.553681,229.828649
522.926646,0.000000,-9178.553681,536.266849
522.926974,-444.123565,-9104.533087,536.266849
522.927301,-370.102971,-9178.553681,383.047749
522.927629,-148.041188,-9104.533087,536.266849
522.927957,-222.061783,-9104.533087,689.485948
522.928285,-370.102971,-9178.553681,612.876398
522.928613,-296.082377,-9178.553681,383.047749
522.928941,-296.082377,-9178.553681,459.657299
522.929268,74.020594,-9474.636058,766.095498
522.929596,-296.082377,-8734.430116,459.657299
522.929924,-222.061783,-8956.491898,689.485948
522.930252,-222.061783,-9030.512492,536.266849
522.930580,-296.082377,-9104.533087,612.876398
522.930908,-444.123565,-9104.533087,306.438199
522.931236,-444.123565,-8882.471304,612.876398
522.931563,-296.082377,-9104.533087,536.266849
522.931891,-444.123565,-9178.553681,383.047749
522.932219,-962.267725,-9252.574275,153.219100
522.932547,-1554.432478,-9548.656652,0.000000
522.932875,-1258.350101,-9400.615463,-229.828649
522.933203,-814.226536,-9178.553681,-459.657299
522.933530,-740.205942,-8808.450710,-229.828649
522.933858,-592.164754,-9104.533087,-306.438199
522.934186,-814.226536,-9252.574275,-766.095498
522.934514,-962.267725,-9326.594869,-919.314598
522.934842,-1110.308913,-9104.533087,-842.705048
522.935170,-1036.288319,-9104.533087,-1378.971896
522.935498,-962.267725,-9178.553681,-1149.143247
522.935825,-592.164754,-9104.533087,-1532.190996
522.936153,-148.041188,-8882.471304,-1149.143247
522.936481,0.000000,-8660.409521,-995.924147
522.936809,74.020594,-9252.574275,-1302.362347
522.937137,0.000000,-9326.594869,-1685.410096
522.937465,74.020594,-9252.574275,-1608.800546
522.937792,296.082377,-9474.636058,-1685.410096
522.938120,148.041188,-8956.491898,-1762.019645
522.938448,296.082377,-9474.636058,-1685.410096
522.938776,296.082377,-9252.574275,-1685.410096
522.939104,444.123565,-9178.553681,-1838.629195
522.939432,518.144159,-9252.574275,-1762.019645
522.939759,592.164754,-9400.615463,-1991.848295
522.940087,74.020594,-9400.615463,-1915.238745
522.940415,148.041188,-9400.615463,-1838.629195
522.940743,74.020594,-8956.491898,-1762.019645
522.941071,148.041188,-9252.574275,-1915.238745
522.941399,0.000000,-9400.615463,-1838.629195
522.941727,-296.082377,-9252.574275,-1608.800546
522.942054,-740.205942,-9030.512492,-2068.457845
522.942382,-888.247130,-9030.512492,-2145.067394
522.942710,-1258.350101,-9104.533087,-2298.286494
522.943038,-1110.308913,-9474.636058,-2068.457845
522.943366,-1850.514855,-8882.471304,-2374.896044
522.943694,-1702.473667,-9030.512492,-2834.553343
522.944021,-1924.535449,-9030.512492,-3064.381992
522.944349,-2072.576638,-9030.512492,-3370.820191
522.944677,-1998.556043,-9030.512492,-3677.258390
522.945005,-2294.638420,-8734.430116,-3447.429741
522.945333,-1702.473667,-9030.512492,-4213.525239
522.945661,-1702.473667,-8956.491898,-3983.696590
522.945989,-1554.432478,-8956.491898,-4213.525239
522.946316,-1036.288319,-8956.491898,-3907.087040
522.946644,0.000000,-9104.533087,-2987.772442
522.946972,1036.288319,-9178.553681,-3600.648841
522.947300,1258.350101,-9030.512492,-3217.601092
522.947628,1924.535449,-8956.491898,-2374.896044
522.947956,2368.659014,-9326.594869,-2221.676944
522.948283,2146.597232,-8882.471304,-1991.848295
522.948611,2368.659014,-9474.636058,-2221.676944
522.948939,1184.329507,-9992.780217,-2145.067394
522.949267,0.000000,-10066.800811,-2604.724693
522.949595,-666.185348,-10362.883188,-3294.210641
522.949923,-1406.391290,-10288.862594,-3907.087040
522.950251,-2442.679609,-9770.718434,-4749.792088
522.950578,-1776.494261,-9326.594869,-4903.011187
522.950906,-962.267725,-8586.388927,-4443.353888
522.951234,740.205942,-7772.162391,-3983.696590
522.951562,2146.597232,-7254.018232,-3370.820191
522.951890,2812.782580,-6587.832884,-2834.553343
522.952218,2590.720797,-7624.121203,-2298.286494
522.952545,1406.391290,-8808.450710,-1915.238745
522.952873,-444.123565,-9696.697840,-1991.848295
522.953201,-2664.741391,-10658.965565,-2221.676944
522.953529,-3923.091493,-11177.109724,-2068.457845
522.953857,-3627.009116,-11103.089130,-2374.896044
522.954185,-1258.350101,-9474.636058,-1838.629195
522.954513,3256.906145,-7328.038826,76.609550
522.954840,8290.306550,-5477.523971,2451.505594
522.955168,10732.986159,-5403.503377,4060.306139
522.955496,9030.512492,-7031.956449,4596.572988
522.955824,4219.173869,-9474.636058,3677.258390
522.956152,-1850.514855,-11621.233289,1991.848295
522.956480,-7476.080014,-13249.686362,-459.657299
522.956807,-11103.089130,-14063.912898,-2068.457845
522.957135,-11843.295072,-13767.830521,-3524.039291
522.957463,-11769.274478,-12805.562797,-3677.258390
522.957791,-6661.853478,-9474.636058,-4060.306139
522.958119,-4663.297435,-6513.812290,-2911.162892
522.958447,-666.185348,-3775.050304,-4903.011187
522.958774,1110.308913,-4737.318029,-4366.744339
522.959102,-2812.782580,-5403.503377,-5975.544884
522.959430,-5699.585753,-7179.997637,-6894.859482
522.959758,-10510.924376,-9326.594869,-7737.564530
522.960086,-11991.336260,-9474.636058,-9039.926876
522.960414,-8808.450710,-9474.636058,-7890.783629
522.960742,-4737.318029,-8660.409521,-6665.030833
522.961069,2886.803174,-7624.121203,-5056.230287
522.961397,6735.874072,-6809.894666,-3140.991542
522.961725,8438.347739,-7402.059420,-3677.258390
522.962053,7994.224174,-9474.636058,-3677.258390
522.962381,4737.318029,-10807.006753,-5975.544884
522.962709,4885.359217,-11251.130318,-6281.983084
522.963036,6883.915261,-11029.068536,-5822.325785
522.963364,10362.883188,-9326.594869,-3064.381992
522.963692,12435.459826,-9474.636058,-1149.143247
522.964020,12361.439231,-10066.800811,-229.828649
522.964348,8734.430116,-10881.027347,-1532.190996
522.964676,7328.038826,-11177.109724,-1378.971896
522.965004,6291.750507,-10436.903782,-2221.676944
522.965331,4811.338623,-10658.965565,-1915.238745
522.965659,2960.823768,-11769.274478,-1608.800546
522.965987,-3034.844362,-12139.377449,-3140.991542
522.966315,-9844.739029,-13545.768739,-5515.887586
522.966643,-13471.748144,-10584.944971,-7660.954980
522.966971,-12065.356855,-6217.729913,-7890.783629
522.967298,-7254.018232,-2442.679609,-6894.859482
522.967626,1406.391290,-888.247130,-5132.839837
522.967954,1998.556043,-1036.288319,-2681.334243
522.968282,3182.885551,-1924.535449,-1762.019645
522.968610,0.000000,-4737.318029,-919.314598
522.968938,-3034.844362,-5403.503377,-995.924147
522.969266,-3034.844362,-9030.512492,-536.266849
522.969593,-3997.112087,-11177.109724,612.876398
522.969921,-4293.194464,-11103.089130,1838.629195
522.970249,-2812.782580,-12435.459826,4519.963438
522.970577,-814.226536,-11177.109724,5362.668486
522.970905,1332.370696,-8956.491898,5209.449386
522.971233,3182.885551,-10436.903782,4519.963438
522.971560,1480.411884,-11029.068536,1225.752797
522.971888,-1998.556043,-11843.295072,-766.095498
522.972216,-2442.679609,-11029.068536,-459.657299
522.972544,-1406.391290,-7920.203579,-995.924147
522.972872,1184.329507,-7624.121203,0.000000
522.973200,2294.638420,-7994.224174,459.657299
522.973527,-1036.288319,-9326.594869,-229.828649
522.973855,-4737.318029,-9548.656652,612.876398
522.974183,-4145.153275,-8290.306550,76.609550
522.974511,-3997.112087,-10214.842000,0.000000
522.974839,-4293.194464,-10732.986159,-459.657299
522.975167,-4737.318029,-11843.295072,-1608.800546
522.975495,-5699.585753,-9548.656652,-2911.162892
522.975822,-4071.132681,-7920.203579,-2298.286494
522.976150,-1406.391290,-5625.565159,-1608.800546
522.976478,-444.123565,-5847.626942,-1915.238745
522.976806,1036.288319,-7328.038826,-2757.943793
522.977134,2368.659014,-8216.285956,-3983.696590
522.977462,2960.823768,-8586.388927,-3370.820191
522.977789,4811.338623,-8216.285956,-2298.286494
522.978117,4441.235652,-9918.759623,-2068.457845
522.978445,3775.050304,-13545.768739,-1685.410096
522.978773,2812.782580,-15100.201217,-995.924147
522.979100,1850.514855,-13841.851115,-1378.971896
522.979428,1776.494261,-12435.459826,-689.485948
522.979756,1480.411884,-12065.356855,-536.266849
522.980084,222.061783,-11843.295072,-1072.533697
522.980411,2146.597232,-10881.027347,-612.876398
522.980739,4663.297435,-8586.388927,0.000000
522.981067,4293.194464,-7179.997637,-306.438199
522.981395,2220.617826,-7254.018232,-612.876398
522.981722,0.000000,-7772.162391,-2298.286494
522.982050,-1554.432478,-7179.997637,-2451.505594
522.982378,-444.123565,-6439.791695,-2145.067394
522.982706,-1924.535449,-6365.771101,-1455.581446
522.983034,-2146.597232,-6809.894666,-919.314598
522.983361,-666.185348,-7328.038826,536.266849
522.983689,0.000000,-6883.915261,995.924147
522.984017,370.102971,-7994.224174,1225.752797
522.984345,-296.082377,-9474.636058,1302.362347
522.984672,-3552.988522,-10214.842000,306.438199
522.985000,-3923.091493,-9696.697840,383.047749
522.985328,-3330.926739,-8660.409521,766.095498
522.985656,-2294.638420,-8068.244768,995.924147
522.985983,-296.082377,-8586.388927,1991.848295
522.986311,888.247130,-7476.080014,1991.848295
522.986639,888.247130,-8216.285956,2757.943793
522.986967,148.041188,-8956.491898,2451.505594
522.987294,-1924.535449,-9474.636058,842.705048
522.987622,-3478.967927,-10732.986159,0.000000
522.987950,-3775.050304,-9918.759623,-766.095498
522.988278,-2812.782580,-8216.285956,383.047749
522.988605,-1554.432478,-7031.956449,306.438199
522.988933,592.164754,-6069.688724,919.314598
522.989261,1480.411884,-7105.977043,2145.067394
522.989589,1702.473667,-6957.935855,1838.629195
522.989916,740.205942,-6809.894666,1302.362347
522.990244,-1184.329507,-8512.368333,612.876398
522.990572,-3330.926739,-9548.656652,-383.047749
522.990900,-2886.803174,-9696.697840,-536.266849
522.991227,0.000000,-9474.636058,229.828649
522.991555,1776.494261,-8216.285956,536.266849
522.991883,3330.926739,-8364.327145,2068.457845
522.992211,4441.235652,-9770.718434,2604.724693
522.992538,2146.597232,-10362.883188,2451.505594
522.992866,1850.514855,-10510.924376,2145.067394
522.993194,222.061783,-12287.418637,842.705048
522.993522,-2812.782580,-12805.562797,-459.657299
522.993850,-1776.494261,-11843.295072,-306.438199
522.994177,-740.205942,-10732.986159,-383.047749
522.994505,0.000000,-9770.718434,306.438199
522.994833,1184.329507,-9326.594869,1149.143247
522.995161,1480.411884,-8882.471304,1302.362347
522.995488,0.000000,-7772.162391,995.924147
522.995816,0.000000,-7920.203579,1225.752797
522.996144,-1924.535449,-9030.512492,0.000000
522.996472,-3849.070898,-9992.780217,-612.876398
522.996799,-2738.761985,-10362.883188,0.000000
522.997127,-2516.700203,-9104.533087,0.000000
522.997455,-1110.308913,-8364.327145,842.705048
522.997783,296.082377,-8586.388927,1302.362347
522.998110,74.020594,-8216.285956,536.266849
522.998438,814.226536,-8882.471304,995.924147
522.998766,962.267725,-9030.512492,1149.143247
522.999094,-1036.288319,-9770.718434,153.219100
522.999421,-2220.617826,-11177.109724,0.000000
522.999749,-2072.576638,-11399.171507,229.828649
523.000077,-1628.453072,-11103.089130,383.047749
523.000405,0.000000,-10362.883188,383.047749
523.000732,74.020594,-9696.697840,0.000000
523.001060,296.082377,-9474.636058,229.828649
523.001388,962.267725,-8882.471304,842.705048
523.001716,2146.597232,-7550.100608,1072.533697
523.002043,1628.453072,-8364.327145,1072.533697
523.002371,74.020594,-9474.636058,306.438199
523.002699,-666.185348,-9548.656652,306.438199
523.003027,-592.164754,-8734.430116,536.266849
523.003354,370.102971,-7624.121203,536.266849
523.003682,518.144159,-7402.059420,612.876398
523.004010,666.185348,-7402.059420,766.095498
523.004338,1036.288319,-7105.977043,766.095498
523.004666,1554.432478,-6809.894666,842.705048
523.004993,1036.288319,-7476.080014,612.876398
523.005321,-740.205942,-8660.409521,153.219100
523.005649,-2146.597232,-9844.739029,-536.266849
523.005977,-1776.494261,-9548.656652,-536.266849
523.006304,-1258.350101,-8660.409521,-383.047749
523.006632,-1554.432478,-8438.347739,-612.876398
523.006960,-814.226536,-9400.615463,-229.828649
523.007288,0.000000,-8290.306550,229.828649
523.007615,1036.288319,-7624.121203,689.485948
523.007943,888.247130,-7846.182985,612.876398
523.008271,-370.102971,-9252.574275,229.828649
523.008599,-1406.391290,-10214.842000,689.485948
523.008926,-2146.597232,-9770.718434,459.657299
523.009254,-962.267725,-8734.430116,536.266849
523.009582,-222.061783,-8586.388927,919.314598
523.009910,370.102971,-8512.368333,1302.362347
523.010237,1702.473667,-7994.224174,1762.019645
523.010565,2368.659014,-7105.977043,1685.410096
523.010893,2220.617826,-7698.141797,1915.238745
523.011221,222.061783,-9548.656652,1455.581446
523.011548,-1406.391290,-10807.006753,383.047749
523.011876,-1702.473667,-10436.903782,383.047749
523.012204,-888.247130,-9770.718434,766.095498
523.012532,-888.247130,-9178.553681,612.876398
523.012859,-370.102971,-9622.677246,842.705048
523.013187,444.123565,-9400.615463,1072.533697
523.013515,888.247130,-8512.368333,1378.971896
523.013843,1184.329507,-8734.430116,1378.971896
523.014170,-296.082377,-9992.780217,1072.533697
523.014498,-3552.988522,-11473.192101,229.828649
523.014826,-3701.029710,-11769.274478,153.219100
523.015154,-3478.967927,-10436.903782,76.609550
523.015482,-2442.679609,-8882.471304,383.047749
523.015809,-1850.514855,-8956.491898,689.485948
523.016137,-1406.391290,-9104.533087,536.266849
523.016465,-296.082377,-7994.224174,766.095498
523.016793,518.144159,-7402.059420,766.095498
523.017120,0.000000,-8364.327145,153.219100
523.017448,-1406.391290,-9844.739029,-459.657299
523.017776,-1110.308913,-9844.739029,-536.266849
523.018104,-296.082377,-9178.553681,153.219100
523.018431,666.185348,-9252.574275,459.657299
523.018759,814.226536,-9474.636058,1378.971896
523.019087,1406.391290,-9548.656652,1225.752797
523.019415,2590.720797,-9548.656652,2068.457845
523.019742,2516.700203,-9400.615463,1915.238745
523.020070,1480.411884,-10436.903782,1378.971896
523.020398,-888.247130,-11325.150913,0.000000
523.020726,-814.226536,-11029.068536,383.047749
523.021053,0.000000,-9326.594869,306.438199
523.021381,740.205942,-7994.224174,689.485948
523.021709,1110.308913,-8142.265362,306.438199
523.022037,1406.391290,-8290.306550,612.876398
523.022364,888.247130,-7105.977043,459.657299
523.022692,1406.391290,-7328.038826,766.095498
523.023020,-592.164754,-8956.491898,0.000000
523.023348,-2516.700203,-9918.759623,0.000000
523.023675,-3404.947333,-10881.027347,-383.047749
523.024003,-2590.720797,-9696.697840,0.000000
523.024331,-1258.350101,-8438.347739,0.000000
523.024659,-814.226536,-8586.388927,306.438199
523.024986,-370.102971,-8586.388927,459.657299
523.025314,518.144159,-8068.244768,689.485948
523.025642,962.267725,-7476.080014,459.657299
523.025970,518.144159,-8068.244768,383.047749
523.026298,-1184.329507,-9622.677246,-459.657299
523.026625,-1258.350101,-10807.006753,0.000000
523.026953,-962.267725,-9992.780217,0.000000
523.027281,444.123565,-9178.553681,689.485948
523.027609,814.226536,-9104.533087,383.047749
523.027936,888.247130,-9178.553681,1455.581446
523.028264,1406.391290,-8956.491898,1378.971896
523.028592,962.267725,-8660.409521,1225.752797
523.028920,296.082377,-8808.450710,1072.533697
523.029247,-1258.350101,-9474.636058,229.828649
523.029575,-2072.576638,-9992.780217,153.219100
523.029903,-1628.453072,-9474.636058,0.000000
523.030231,-666.185348,-8068.244768,153.219100
523.030558,222.061783,-7328.038826,459.657299
523.030886,592.164754,-7624.121203,766.095498
523.031214,1480.411884,-7698.141797,1455.581446
523.031542,1776.494261,-7920.203579,995.924147
523.031869,0.000000,-8882.471304,1302.362347
523.032197,-1998.556043,-10140.821405,153.219100
523.032525,-3256.906145,-11177.109724,0.000000
523.032853,-3256.906145,-11029.068536,306.438199
523.033180,-2368.659014,-9918.759623,229.828649
523.033508,-1480.411884,-9474.636058,383.047749
523.033836,-1110.308913,-8882.471304,229.828649
523.034164,-222.061783,-8142.265362,306.438199
523.034491,962.267725,-7624.121203,995.924147
523.034819,1332.370696,-7179.997637,1149.143247
523.035147,0.000000,-8512.368333,383.047749
523.035475,-1110.308913,-10140.821405,153.219100
523.035802,-814.226536,-10066.800811,612.876398
523.036130,-962.267725,-9918.759623,995.924147
523.036458,-222.061783,-9178.553681,1532.190996
523.036786,74.020594,-9474.636058,995.924147
523.037114,1924.535449,-9326.594869,1991.848295
523.037441,2442.679609,-8660.409521,2298.286494
523.037769,2590.720797,-8142.265362,2068.457845
523.038097,1184.329507,-9474.636058,1302.362347
523.038425,-518.144159,-10436.903782,536.266849
523.038752,-1554.432478,-9844.739029,76.609550
523.039080,-888.247130,-9326.594869,0.000000
523.039408,-518.144159,-8808.450710,0.000000
523.039736,-814.226536,-8364.327145,229.828649
523.040063,0.000000,-8660.409521,459.657299
523.040391,296.082377,-8068.244768,459.657299
523.040719,0.000000,-8068.244768,383.047749
523.041047,-1110.308913,-9474.636058,0.000000
523.041374,-2738.761985,-10362.883188,-459.657299
523.041702,-3330.926739,-10288.862594,-1302.362347
523.042030,-2590.720797,-9104.533087,-689.485948
523.042358,-1406.391290,-8216.285956,-383.047749
523.042685,0.000000,-7772.162391,229.828649
523.043013,148.041188,-7920.203579,842.705048
523.043341,1702.473667,-7031.956449,2221.676944
523.043669,2442.679609,-6883.915261,1685.410096
523.043996,1110.308913,-7994.224174,919.314598
523.044324,-814.226536,-9992.780217,383.047749
523.044652,-1702.473667,-10362.883188,229.828649
523.044980,-1110.308913,-9844.739029,536.266849
523.045307,148.041188,-9622.677246,689.485948
523.045635,74.020594,-9548.656652,536.266849
523.045963,962.267725,-9474.636058,459.657299
523.046291,1924.535449,-8808.450710,919.314598
523.046618,2220.617826,-8512.368333,1149.143247
523.046946,2072.576638,-8808.450710,536.266849
523.047274,-1184.329507,-11029.068536,153.219100
523.047602,-1480.411884,-11473.192101,0.000000
523.047930,-1924.535449,-10658.965565,0.000000
523.048257,-1036.288319,-9326.594869,1072.533697
523.048585,-222.061783,-8734.430116,919.314598
523.048913,592.164754,-9030.512492,1685.410096
523.049241,1110.308913,-8142.265362,1991.848295
523.049568,1184.329507,-8290.306550,2221.676944
523.049896,-296.082377,-9030.512492,1149.143247
523.050224,-2516.700203,-10658.965565,995.924147
523.050552,-3849.070898,-10807.006753,-153.219100
523.050879,-3108.864956,-10658.965565,-459.657299
523.051207,-1850.514855,-9474.636058,0.000000
523.051535,-1184.329507,-8660.409521,-306.438199
523.051863,-74.020594,-8586.388927,-229.828649
523.052190,444.123565,-8364.327145,153.219100
523.052518,592.164754,-7550.100608,-153.219100
523.052846,-518.144159,-8586.388927,-229.828649
523.053174,-2294.638420,-10066.800811,-1149.143247
523.053501,-2738.761985,-10066.800811,-1149.143247
523.053829,-1850.514855,-9696.697840,-459.657299
523.054157,0.000000,-8660.409521,459.657299
523.054485,1184.329507,-8068.244768,842.705048
523.054812,2516.700203,-8364.327145,1762.019645
523.055140,3404.947333,-7179.997637,2298.286494
523.055468,3775.050304,-7402.059420,2834.553343
523.055796,2516.700203,-8068.244768,2451.505594
523.056123,0.000000,-9474.636058,1608.800546
523.056451,-888.247130,-10584.944971,1225.752797
523.056779,-666.185348,-9548.656652,1072.533697
523.057107,-296.082377,-8660.409521,1608.800546
523.057434,518.144159,-8660.409521,1149.143247
523.057762,-148.041188,-8290.306550,766.095498
523.058090,370.102971,-8290.306550,1072.533697
523.058418,0.000000,-7402.059420,612.876398
523.058746,-740.205942,-7772.162391,383.047749
523.059073,-3404.947333,-9104.533087,-612.876398
523.059401,-5107.421000,-10436.903782,-1532.190996
523.059729,-4811.338623,-9400.615463,-1302.362347
523.060057,-2812.782580,-7772.162391,-383.047749
523.060384,-1406.391290,-6809.894666,0.000000
523.060712,-444.123565,-7105.977043,306.438199
523.061040,518.144159,-6957.935855,1149.143247
523.061368,1036.288319,-6513.812290,1455.581446
523.061695,518.144159,-7105.977043,1455.581446
523.062023,-814.226536,-8956.491898,689.485948
523.062351,-1184.329507,-10510.924376,0.000000
523.062679,-1332.370696,-11399.171507,306.438199
523.063006,-222.061783,-9622.677246,689.485948
523.063334,1184.329507,-9622.677246,919.314598
523.063662,1036.288319,-9770.718434,383.047749
523.063990,1554.432478,-9696.697840,766.095498
523.064317,2590.720797,-9622.677246,689.485948
523.064645,2220.617826,-9252.574275,153.219100
523.064973,1332.370696,-11177.109724,153.219100
523.065301,0.000000,-12213.398043,-612.876398
523.065628,-1332.370696,-11843.295072,-383.047749
523.065956,0.000000,-11103.089130,-229.828649
523.066284,592.164754,-10066.800811,76.609550
523.066612,74.020594,-9918.759623,306.438199
523.066939,814.226536,-9918.759623,919.314598
523.067267,1998.556043,-9178.553681,1762.019645
523.067595,1776.494261,-9400.615463,1762.019645
523.067923,592.164754,-9918.759623,1302.362347
523.068251,-888.247130,-10658.965565,612.876398
523.068578,-1406.391290,-10362.883188,383.047749
523.068906,-1258.350101,-9918.759623,536.266849
523.069234,-1480.411884,-8586.388927,612.876398
523.069562,-1258.350101,-8956.491898,459.657299
523.069889,-1184.329507,-9178.553681,229.828649
523.070217,-370.102971,-8512.368333,536.266849
523.070545,-296.082377,-8660.409521,536.266849
523.070873,-1332.370696,-9474.636058,0.000000
523.071200,-3404.947333,-11177.109724,-383.047749
523.071528,-3701.029710,-11325.150913,-766.095498
523.071856,-2664.741391,-9844.739029,0.000000
523.072184,-1110.308913,-8882.471304,229.828649
523.072511,74.020594,-8882.471304,842.705048
523.072839,1332.370696,-8068.244768,1608.800546
523.073167,2368.659014,-7031.956449,2298.286494
523.073495,3108.864956,-7031.956449,2834.553343
523.073822,1776.494261,-7920.203579,2451.505594
523.074150,222.061783,-8808.450710,1838.629195
523.074478,-148.041188,-9474.636058,1532.190996
523.074806,0.000000,-7920.203579,1532.190996
523.075133,296.082377,-7328.038826,1915.238745
523.075461,666.185348,-7476.080014,1532.190996
523.075789,518.144159,-7624.121203,1608.800546
523.076117,518.144159,-7105.977043,1532.190996
523.076444,518.144159,-6883.915261,1149.143247
523.076772,-962.267725,-7846.182985,0.000000
523.077100,-3256.906145,-9696.697840,-1072.533697
523.077428,-4145.153275,-9696.697840,-1455.581446
523.077755,-3404.947333,-9030.512492,-1378.971896
523.078083,-2146.597232,-7254.018232,-842.705048
523.078411,-814.226536,-7772.162391,-536.266849
523.078739,-592.164754,-7772.162391,0.000000
523.079067,592.164754,-7105.977043,536.266849
523.079394,1110.308913,-6809.894666,995.924147
523.079722,740.205942,-7994.224174,766.095498
523.080050,-1332.370696,-9622.677246,0.000000
523.080378,-1628.453072,-10584.944971,306.438199
523.080705,-666.185348,-9918.759623,459.657299
523.081033,1258.350101,-9104.533087,1378.971896
523.081361,1332.370696,-8438.347739,1532.190996
523.081689,2072.576638,-9252.574275,1149.143247
523.082016,2368.659014,-8808.450710,1225.752797
523.082344,2442.679609,-8734.430116,689.485948
523.082672,1258.350101,-8956.491898,-383.047749
523.083000,-592.164754,-10658.965565,-1608.800546
523.083328,-1702.473667,-11843.295072,-1532.190996
523.083655,-1184.329507,-11177.109724,-1072.533697
523.083983,-222.061783,-10510.924376,0.000000
523.084311,1184.329507,-9918.759623,306.438199
523.084639,1480.411884,-10140.821405,689.485948
523.084966,1554.432478,-9622.677246,1762.019645
523.085294,1628.453072,-9548.656652,1762.019645
523.085622,1184.329507,-9844.739029,1991.848295
523.085950,-666.185348,-10732.986159,995.924147
523.086278,-1480.411884,-11843.295072,1225.752797
523.086605,-1332.370696,-11325.150913,1762.019645
523.086933,-1184.329507,-9918.759623,1378.971896
523.087261,-962.267725,-9252.574275,1608.800546
523.087589,-1258.350101,-9474.636058,1302.362347
523.087916,-740.205942,-8438.347739,1225.752797
523.088244,0.000000,-8290.306550,1072.533697
523.088572,-962.267725,-8364.327145,229.828649
523.088900,-3034.844362,-9474.636058,-459.657299
523.089228,-4367.215058,-10584.944971,-995.924147
523.089555,-4145.153275,-9770.718434,-766.095498
523.089883,-2294.638420,-8438.347739,-153.219100
523.090211,-1258.350101,-8364.327145,383.047749
523.090539,-1110.308913,-8734.430116,536.266849
523.090866,148.041188,-8586.388927,1302.362347
523.091194,888.247130,-7920.203579,2298.286494
523.091522,1258.350101,-8068.244768,2451.505594
523.091850,740.205942,-8956.491898,2298.286494
523.092178,-592.164754,-10288.862594,1532.190996
523.092505,-740.205942,-9400.615463,1455.581446
523.092833,222.061783,-8216.285956,1838.629195
523.093161,1036.288319,-7254.018232,1838.629195
523.093489,1332.370696,-6957.935855,1455.581446
523.093816,1554.432478,-7105.977043,919.314598
523.094144,2294.638420,-6587.832884,919.314598
523.094472,1850.514855,-6439.791695,612.876398
523.094800,0.000000,-8142.265362,0.000000
523.095127,-2368.659014,-9474.636058,-536.266849
523.095455,-2516.700203,-9918.759623,-1302.362347
523.095783,-2442.679609,-9400.615463,-919.314598
523.096111,-1258.350101,-8734.430116,-842.705048
523.096439,-1480.411884,-8660.409521,-536.266849
523.096766,-740.205942,-9030.512492,-383.047749
523.097094,888.247130,-7624.121203,0.000000
523.097422,1628.453072,-7031.956449,459.657299
523.097750,1480.411884,-7994.224174,229.828649
523.098077,518.144159,-9474.636058,153.219100
523.098405,-370.102971,-9770.718434,0.000000
523.098733,148.041188,-9548.656652,995.924147
523.099061,444.123565,-8882.471304,536.266849
523.099389,518.144159,-9252.574275,612.876398
523.099716,1036.288319,-9326.594869,995.924147
523.100044,1628.453072,-8956.491898,1149.143247
523.100372,1258.350101,-8512.368333,766.095498
523.100700,222.061783,-9992.780217,0.000000
523.101027,-2368.659014,-11399.171507,-383.047749
523.101355,-2368.659014,-11547.212695,-1072.533697
523.101683,-1850.514855,-10288.862594,-995.924147
523.102011,-1036.288319,-8808.450710,-689.485948
523.102339,592.164754,-8660.409521,-383.047749
523.102666,1110.308913,-8660.409521,842.705048
523.102994,1924.535449,-8660.409521,1225.752797
523.103322,2368.659014,-7920.203579,1991.848295
523.103650,1702.473667,-8956.491898,2528.115143
523.103977,-222.061783,-11251.130318,2298.286494
523.104305,-1998.556043,-11843.295072,1838.629195
523.104633,-2368.659014,-11325.150913,1532.190996
523.104961,-1998.556043,-10140.821405,1685.410096
523.105289,-2072.576638,-9696.697840,1225.752797
523.105616,-1036.288319,-9474.636058,1762.019645
523.105944,-444.123565,-7994.224174,1149.143247
523.106272,0.000000,-7254.018232,919.314598
523.106600,-444.123565,-7846.182985,229.828649
523.106927,-2664.741391,-9474.636058,-766.095498
523.107255,-3997.112087,-10510.924376,-1762.019645
523.107583,-3849.070898,-10066.800811,-1378.971896
523.107911,-3182.885551,-9178.553681,-1302.362347
523.108239,-2368.659014,-8956.491898,-766.095498
523.108566,-1332.370696,-8882.471304,-229.828649
523.108894,814.226536,-7698.141797,1149.143247
523.109222,1998.556043,-7624.121203,1072.533697
523.109550,2442.679609,-8142.265362,1685.410096
523.109877,1036.288319,-9474.636058,1302.362347
523.110205,518.144159,-10436.903782,919.314598
523.110533,592.164754,-10288.862594,1072.533697
523.110861,1702.473667,-9178.553681,1225.752797
523.111188,2220.617826,-8734.430116,1378.971896
523.111516,2442.679609,-9178.553681,1608.800546
523.111844,4219.173869,-8956.491898,2068.457845
523.112172,3849.070898,-7624.121203,1762.019645
523.112500,2442.679609,-8734.430116,1608.800546
523.112827,370.102971,-10584.944971,0.000000
523.113155,-2368.659014,-11473.192101,-919.314598
523.113483,-2812.782580,-11103.089130,-995.924147
523.113811,-1998.556043,-9622.677246,-842.705048
523.114138,-1406.391290,-8808.450710,-459.657299
523.114466,-1258.350101,-8734.430116,-612.876398
523.114794,222.061783,-8142.265362,612.876398
523.115122,222.061783,-6513.812290,459.657299
523.115450,888.247130,-6883.915261,919.314598
523.115777,-444.123565,-8512.368333,612.876398
523.116105,-2294.638420,-9252.574275,0.000000
523.116433,-2516.700203,-9622.677246,459.657299
523.116761,-1924.535449,-8882.471304,766.095498
523.117088,-1184.329507,-8438.347739,1302.362347
523.117416,0.000000,-8734.430116,1915.238745
523.117744,740.205942,-8808.450710,1762.019645
523.118072,1406.391290,-7994.224174,2145.067394
523.118400,592.164754,-8364.327145,1532.190996
523.118727,-1406.391290,-9696.697840,536.266849
523.119055,-3182.885551,-10807.006753,-306.438199
523.119383,-2664.741391,-11029.068536,0.000000
523.119711,-2368.659014,-9400.615463,-229.828649
523.120038,-888.247130,-8216.285956,-153.219100
523.120366,222.061783,-7994.224174,0.000000
523.120694,814.226536,-7476.080014,612.876398
523.121022,1776.494261,-7476.080014,306.438199
523.121350,1184.329507,-7179.997637,1225.752797
523.121677,0.000000,-8142.265362,459.657299
523.122005,-2220.617826,-10140.821405,0.000000
523.122333,-2146.597232,-10140.821405,0.000000
523.122661,-1184.329507,-9252.574275,1149.143247
523.122988,296.082377,-8586.388927,1685.410096
523.123316,1776.494261,-8290.306550,1608.800546
523.123644,2146.597232,-8512.368333,1302.362347
523.123972,2442.679609,-7994.224174,1455.581446
523.124299,2072.576638,-8068.244768,1302.362347
523.124627,-518.144159,-9178.553681,0.000000
523.124955,-2516.700203,-10881.027347,-1225.752797
523.125283,-2590.720797,-10955.047942,-1532.190996
523.125611,-1776.494261,-9992.780217,-1302.362347
523.125938,-296.082377,-9178.553681,-612.876398
523.126266,222.061783,-9474.636058,-766.095498
523.126594,814.226536,-9474.636058,153.219100
523.126922,1702.473667,-8512.368333,689.485948
523.127249,2220.617826,-8734.430116,1149.143247
523.127577,1184.329507,-9474.636058,1072.533697
523.127905,-592.164754,-11325.150913,842.705048
523.128233,-1406.391290,-11843.295072,1225.752797
523.128561,-1850.514855,-10658.965565,1532.190996
523.128888,-518.144159,-9844.739029,1915.238745
523.129216,74.020594,-9030.512492,1838.629195
523.129544,962.267725,-8734.430116,1991.848295
523.129872,1924.535449,-7402.059420,1991.848295
523.130199,1480.411884,-7550.100608,1762.019645
523.130527,666.185348,-8216.285956,995.924147
523.130855,-1554.432478,-9474.636058,0.000000
523.131183,-2812.782580,-10362.883188,-536.266849
523.131511,-2294.638420,-9918.759623,-766.095498
523.131838,-2294.638420,-9326.594869,-306.438199
523.132166,-2220.617826,-9474.636058,-229.828649
523.132494,-1924.535449,-9548.656652,0.000000
523.132822,-666.185348,-8364.327145,229.828649
523.133149,1406.391290,-8364.327145,1378.971896
523.133477,814.226536,-8660.409521,1072.533697
523.133805,-1332.370696,-10214.842000,766.095498
523.134133,-2220.617826,-11251.130318,919.314598
523.134461,-2368.659014,-9844.739029,766.095498
523.134788,-1258.350101,-8438.347739,995.924147
523.135116,-148.041188,-8216.285956,919.314598
523.135444,518.144159,-8660.409521,1149.143247
523.135772,1776.494261,-7550.100608,1991.848295
523.136099,2368.659014,-7105.977043,1685.410096
523.136427,1702.473667,-7994.224174,1838.629195
523.136755,-962.267725,-9326.594869,612.876398
523.137083,-2590.720797,-11103.089130,-383.047749
523.137411,-2664.741391,-10584.944971,-612.876398
523.137738,-1998.556043,-9400.615463,-383.047749
523.138066,-1554.432478,-8956.491898,-766.095498
523.138394,-444.123565,-8808.450710,229.828649
523.138722,814.226536,-7994.224174,229.828649
523.139049,2146.597232,-7105.977043,842.705048
523.139377,2368.659014,-7550.100608,919.314598
523.139705,518.144159,-8956.491898,459.657299
523.140033,-1110.308913,-10214.842000,306.438199
523.140360,-1702.473667,-10436.903782,76.609550
523.140688,-1258.350101,-9548.656652,612.876398
523.141016,-222.061783,-8808.450710,919.314598
523.141344,740.205942,-8660.409521,1149.143247
523.141672,1998.556043,-7994.224174,1685.410096
523.141999,2664.741391,-7254.018232,1608.800546
523.142327,1924.535449,-7772.162391,995.924147
523.142655,518.144159,-9400.615463,229.828649
523.142983,-1258.350101,-10732.986159,-689.485948
523.143310,-740.205942,-10955.047942,-536.266849
523.143638,-1258.350101,-9474.636058,-842.705048
523.143966,-222.061783,-9474.636058,-153.219100
523.144294,0.000000,-9474.636058,0.000000
523.144622,592.164754,-9474.636058,612.876398
523.144949,1406.391290,-8734.430116,1225.752797
523.145277,1110.308913,-8586.388927,1378.971896
523.145605,-444.123565,-9696.697840,536.266849
523.145933,-1924.535449,-10955.047942,0.000000
523.146260,-2442.679609,-10658.965565,0.000000
523.146588,-1628.453072,-9770.718434,536.266849
523.146916,0.000000,-8586.388927,536.266849
523.147244,370.102971,-7476.080014,1302.362347
523.147572,1110.308913,-7402.059420,1608.800546
523.147899,1924.535449,-7328.038826,1915.238745
523.148227,1258.350101,-7254.018232,1685.410096
523.148555,-592.164754,-8660.409521,689.485948
523.148883,-2146.597232,-10436.903782,76.609550
523.149210,-3108.864956,-10510.924376,0.000000
523.149538,-2072.576638,-10140.821405,689.485948
523.149866,-1110.308913,-9252.574275,842.705048
523.150194,-740.205942,-9178.553681,1225.752797
523.150522,-444.123565,-8512.368333,1225.752797
523.150849,296.082377,-7846.182985,1685.410096
523.151177,444.123565,-7698.141797,1302.362347
523.151505,-444.123565,-8586.388927,766.095498
523.151833,-2294.638420,-9918.759623,0.000000
523.152160,-3404.947333,-9548.656652,-459.657299
523.152488,-2146.597232,-9400.615463,536.266849
523.152816,-222.061783,-7920.203579,536.266849
523.153144,1036.288319,-7698.141797,995.924147
523.153472,962.267725,-8068.244768,1302.362347
523.153799,1480.411884,-8216.285956,2068.457845
523.154127,740.205942,-7994.224174,1149.143247
523.154455,-444.123565,-8734.430116,612.876398
523.154783,-1998.556043,-10436.903782,-306.438199
523.155110,-2368.659014,-11029.068536,-689.485948
523.155438,-1554.432478,-9844.739029,-306.438199
523.155766,0.000000,-9326.594869,76.609550
523.156094,222.061783,-8512.368333,-153.219100
523.156421,666.185348,-8882.471304,-306.438199
523.156749,1702.473667,-8290.306550,0.000000
523.157077,1702.473667,-8290.306550,-306.438199
523.157405,1036.288319,-9326.594869,-612.876398
523.157733,-740.205942,-10881.027347,-919.314598
523.158060,-1924.535449,-11399.171507,-1149.143247
523.158388,-1258.350101,-11029.068536,-459.657299
523.158716,666.185348,-10362.883188,76.609550
523.159044,1480.411884,-9548.656652,459.657299
523.159371,2220.617826,-9104.533087,1072.533697
523.159699,2368.659014,-8882.471304,1225.752797
523.160027,1998.556043,-8808.450710,1072.533697
523.160355,592.164754,-9474.636058,842.705048
523.160683,-296.082377,-10658.965565,153.219100
523.161010,-740.205942,-11177.109724,0.000000
523.161338,-296.082377,-10362.883188,612.876398
523.161666,296.082377,-9400.615463,995.924147
523.161994,740.205942,-8808.450710,1225.752797
523.162321,962.267725,-8586.388927,1685.410096
523.162649,1406.391290,-7550.100608,1225.752797
523.162977,1628.453072,-8068.244768,1532.190996
523.163305,0.000000,-9178.553681,1608.800546
523.163633,-2294.638420,-10658.965565,919.314598
523.163960,-3775.050304,-11621.233289,612.876398
523.164288,-3330.926739,-10807.006753,766.095498
523.164616,-2812.782580,-9474.636058,1225.752797
523.164944,-1850.514855,-8734.430116,1378.971896
523.165271,-1628.453072,-8512.368333,1378.971896
523.165599,-814.226536,-7846.182985,1532.190996
523.165927,-740.205942,-6957.935855,1532.190996
523.166255,-888.247130,-6735.874072,1455.581446
523.166583,-2146.597232,-8068.244768,383.047749
523.166910,-2442.679609,-9548.656652,383.047749
523.167238,-2664.741391,-8734.430116,306.438199
523.167566,-1776.494261,-7846.182985,919.314598
523.167894,-1184.329507,-8068.244768,919.314598
523.168221,-1110.308913,-8068.244768,612.876398
523.168549,148.041188,-7624.121203,766.095498
523.168877,1480.411884,-6661.853478,842.705048
523.169205,2294.638420,-7772.162391,1225.752797
523.169532,814.226536,-8882.471304,1225.752797
523.169860,-740.205942,-10140.821405,153.219100
523.170188,-962.267725,-9918.759623,153.219100
523.170516,0.000000,-9326.594869,76.609550
523.170844,444.123565,-9400.615463,0.000000
523.171171,74.020594,-9326.594869,229.828649
523.171499,1406.391290,-8956.491898,153.219100
523.171827,2146.597232,-8068.244768,612.876398
523.172155,2220.617826,-7476.080014,842.705048
523.172482,1702.473667,-8808.450710,383.047749
523.172810,814.226536,-10288.862594,0.000000
523.173138,-740.205942,-9844.739029,-306.438199
523.173466,-814.226536,-9474.636058,-153.219100
523.173794,-518.144159,-8512.368333,0.000000
523.174121,-814.226536,-8660.409521,-306.438199
523.174449,740.205942,-8438.347739,229.828649
523.174777,1110.308913,-7698.141797,919.314598
523.175105,1332.370696,-7624.121203,1225.752797
523.175432,296.082377,-8438.347739,689.485948
523.175760,-1628.453072,-9770.718434,-153.219100
523.176088,-1998.556043,-9918.759623,-612.876398
523.176416,-1998.556043,-9548.656652,0.000000
523.176744,-962.267725,-9178.553681,0.000000
523.177071,-740.205942,-9030.512492,153.219100
523.177399,-888.247130,-8808.450710,76.609550
523.177727,518.144159,-8660.409521,995.924147
523.178055,888.247130,-8290.306550,1072.533697
523.178382,0.000000,-8808.450710,536.266849
523.178710,-1776.494261,-10584.944971,0.000000
523.179038,-1554.432478,-10584.944971,0.000000
523.179366,-1480.411884,-9696.697840,-153.219100
523.179694,222.061783,-8734.430116,612.876398
523.180021,814.226536,-8882.471304,689.485948
523.180349,1036.288319,-9030.512492,1532.190996
523.180677,2220.617826,-8808.450710,2068.457845
523.181004,1850.514855,-8512.368333,2298.286494
523.181332,888.247130,-9178.553681,1838.629195
523.181659,-1258.350101,-11621.233289,1302.362347
523.181987,-3256.906145,-11843.295072,383.047749
523.182315,-2960.823768,-10881.027347,76.609550
523.182642,-1480.411884,-9844.739029,536.266849
523.182970,-1184.329507,-8956.491898,229.828649
523.183297,-222.061783,-8956.491898,612.876398
523.183625,74.020594,-8142.265362,612.876398
523.183952,0.000000,-7772.162391,0.000000
523.184280,-740.205942,-7846.182985,-536.266849
523.184607,-2146.597232,-9622.677246,-919.314598
523.184935,-2738.761985,-10066.800811,-766.095498
523.185262,-2590.720797,-10066.800811,-766.095498
523.185590,-1480.411884,-9474.636058,0.000000
523.185917,-666.185348,-9030.512492,383.047749
523.186245,740.205942,-8734.430116,1225.752797
523.186572,2072.576638,-7846.182985,1302.362347
523.186900,2368.659014,-8216.285956,1762.019645
523.187228,1332.370696,-8882.471304,1532.190996
523.187555,-666.185348,-10436.903782,842.705048
523.187883,-1480.411884,-11103.089130,153.219100
523.188210,-518.144159,-9696.697840,76.609550
523.188538,814.226536,-9104.533087,229.828649
523.188865,2072.576638,-8808.450710,919.314598
523.189193,2294.638420,-8586.388927,1072.533697
523.189520,2368.659014,-8512.368333,1685.410096
523.189848,2294.638420,-8364.327145,1838.629195
523.190175,888.247130,-9104.533087,995.924147
523.190503,-1036.288319,-10214.842000,229.828649
523.190830,-1628.453072,-10955.047942,0.000000
523.191158,-1258.350101,-10362.883188,306.438199
523.191485,-888.247130,-9252.574275,995.924147
523.191813,-222.061783,-8660.409521,1608.800546
523.192141,0.000000,-8808.450710,1685.410096
523.192468,962.267725,-7994.224174,1838.629195
523.192796,1480.411884,-7328.038826,2068.457845
523.193123,666.185348,-7994.224174,1455.581446
523.193451,-1554.432478,-8956.491898,919.314598
523.193778,-3404.947333,-10362.883188,153.219100
523.194106,-3701.029710,-9474.636058,0.000000
523.194433,-2516.700203,-8586.388927,153.219100
523.194761,-2072.576638,-8216.285956,0.000000
523.195088,-2220.617826,-8216.285956,0.000000
523.195416,-1110.308913,-8364.327145,0.000000
523.195743,-518.144159,-7772.162391,-229.828649
523.196071,-296.082377,-7920.203579,0.000000
523.196399,-962.267725,-9400.615463,-459.657299
523.196726,-2294.638420,-10881.027347,-383.047749
523.197054,-1628.453072,-10881.027347,-842.705048
523.197381,-888.247130,-9474.636058,-229.828649
523.197709,296.082377,-8512.368333,229.828649
523.198036,888.247130,-8364.327145,383.047749
523.198364,2812.782580,-7772.162391,1149.143247
523.198691,3923.091493,-6957.935855,1302.362347
523.199019,3627.009116,-7402.059420,1991.848295
523.199346,2072.576638,-8808.450710,1991.848295
523.199674,0.000000,-10881.027347,1225.752797
523.200001,-814.226536,-10955.047942,919.314598
523.200329,-148.041188,-10066.800811,766.095498
523.200656,-444.123565,-9548.656652,612.876398
523.200984,0.000000,-9400.615463,306.438199
523.201312,-222.061783,-8364.327145,306.438199
523.201639,1110.308913,-7254.018232,0.000000
523.201967,1184.329507,-7179.997637,383.047749
523.202294,-148.041188,-8142.265362,-766.095498
523.202622,-2516.700203,-9770.718434,-1455.581446
523.202949,-3108.864956,-9918.759623,-1225.752797
523.203277,-2590.720797,-9622.677246,-689.485948
523.203604,-1850.514855,-9030.512492,0.000000
523.203932,-518.144159,-9326.594869,536.266849
523.204259,370.102971,-9104.533087,1378.971896
523.204587,1554.432478,-8660.409521,2298.286494
523.204914,2220.617826,-8364.327145,2451.505594
523.205242,1406.391290,-9770.718434,2451.505594
523.205569,-444.123565,-11399.171507,1302.362347
523.205897,-1554.432478,-11029.068536,1225.752797
523.206225,-1406.391290,-10658.965565,766.095498
523.206552,-444.123565,-9622.677246,842.705048
523.206880,-296.082377,-9622.677246,306.438199
523.207207,148.041188,-9326.594869,0.000000
523.207535,518.144159,-8216.285956,919.314598
523.207862,1036.288319,-8142.265362,383.047749
523.208190,296.082377,-9178.553681,153.219100
523.208517,-2294.638420,-10658.965565,-383.047749
523.208845,-2960.823768,-10955.047942,0.000000
523.209172,-2886.803174,-9992.780217,-306.438199
523.209500,-2072.576638,-9548.656652,76.609550
523.209827,-1110.308913,-9178.553681,766.095498
523.210155,-444.123565,-8586.388927,1072.533697
523.210482,1258.350101,-7550.100608,1838.629195
523.210810,1998.556043,-7254.018232,2298.286494
523.211138,1036.288319,-8216.285956,1838.629195
523.211465,-814.226536,-9548.656652,1072.533697
523.211793,-1332.370696,-9770.718434,689.485948
523.212120,-1258.350101,-9252.574275,153.219100
523.212448,-222.061783,-8586.388927,0.000000
523.212775,370.102971,-8142.265362,383.047749
523.213103,296.082377,-8438.347739,536.266849
523.213430,1184.329507,-7698.141797,383.047749
523.213758,1184.329507,-7994.224174,536.266849
523.214085,444.123565,-8660.409521,459.657299
523.214413,-2294.638420,-10288.862594,-842.705048
523.214740,-2368.659014,-11103.089130,-766.095498
523.215068,-2072.576638,-10288.862594,-766.095498
523.215396,-814.226536,-8882.471304,76.609550
523.215723,592.164754,-7920.203579,689.485948
523.216051,1406.391290,-7846.182985,766.095498
523.216378,2368.659014,-7772.162391,2068.457845
523.216706,2516.700203,-7105.977043,1685.410096
523.217033,1480.411884,-8142.265362,1991.848295
523.217361,0.000000,-9696.697840,1532.190996
523.217688,-1702.473667,-10658.965565,1149.143247
523.218016,-1998.556043,-10658.965565,842.705048
523.218343,-962.267725,-9474.636058,919.314598
523.218671,-222.061783,-8438.347739,689.485948
523.218998,0.000000,-8734.430116,766.095498
523.219326,740.205942,-7698.141797,459.657299
523.219653,222.061783,-7476.080014,76.609550
523.219981,0.000000,-8142.265362,-153.219100
523.220309,-1628.453072,-9178.553681,-689.485948
523.220636,-3849.070898,-10140.821405,-1532.190996
523.220964,-3478.967927,-10288.862594,-689.485948
523.221291,-2516.700203,-9548.656652,-842.705048
523.221619,-1332.370696,-8734.430116,76.609550
523.221946,-296.082377,-9178.553681,1072.533697
523.222274,1036.288319,-8438.347739,1532.190996
523.222601,1184.329507,-8364.327145,2145.067394
523.222929,1776.494261,-8586.388927,2451.505594
523.223256,74.020594,-9474.636058,1225.752797
523.223584,-888.247130,-10510.924376,1072.533697
523.223911,-370.102971,-10732.986159,612.876398
523.224239,222.061783,-9622.677246,1225.752797
523.224566,1924.535449,-8512.368333,1608.800546
523.224894,1702.473667,-9326.594869,1378.971896
523.225222,1332.370696,-9104.533087,1149.143247
523.225549,1332.370696,-8586.388927,689.485948
523.225877,370.102971,-9178.553681,459.657299
523.226204,-1702.473667,-9918.759623,-229.828649
523.226532,-2960.823768,-11399.171507,-1149.143247
523.226859,-3552.988522,-11251.130318,-1302.362347
523.227187,-2294.638420,-10362.883188,-612.876398
523.227514,-296.082377,-8586.388927,-229.828649
523.227842,592.164754,-8068.244768,689.485948
523.228169,1850.514855,-8142.265362,1225.752797
523.228497,1332.370696,-8068.244768,1302.362347
523.228824,1184.329507,-8216.285956,1762.019645
523.229152,148.041188,-9030.512492,1225.752797
523.229479,-1258.350101,-10510.924376,1685.410096
523.229807,-888.247130,-10658.965565,1149.143247
523.230135,-888.247130,-9844.739029,1378.971896
523.230462,-222.061783,-9400.615463,1608.800546
523.230790,-148.041188,-9326.594869,1608.800546
523.231117,-518.144159,-8660.409521,689.485948
523.231445,296.082377,-8438.347739,459.657299
523.231772,518.144159,-8068.244768,76.609550
523.232100,-444.123565,-8882.471304,0.000000
523.232427,-1924.535449,-10214.842000,-383.047749
523.232755,-2738.761985,-10214.842000,-612.876398
523.233082,-2368.659014,-9252.574275,-306.438199
523.233410,-1258.350101,-8882.471304,0.000000
523.233737,-518.144159,-8216.285956,229.828649
523.234065,148.041188,-8068.244768,612.876398
523.234393,1184.329507,-7698.141797,1455.581446
523.234720,1184.329507,-7328.038826,2681.334243
523.235048,740.205942,-7846.182985,2221.676944
523.235375,0.000000,-9474.636058,1915.238745
523.235703,-222.061783,-9770.718434,1532.190996
523.236030,0.000000,-9252.574275,1378.971896
523.236358,74.020594,-8734.430116,1072.533697
523.236685,296.082377,-8216.285956,842.705048
523.237013,0.000000,-8216.285956,536.266849
523.237340,814.226536,-7550.100608,383.047749
523.237668,1036.288319,-8068.244768,306.438199
523.237995,74.020594,-8142.265362,-229.828649
523.238323,-1480.411884,-9696.697840,-536.266849
523.238650,-2590.720797,-10288.862594,-1532.190996
523.238978,-2368.659014,-10066.800811,-1302.362347
523.239306,-2072.576638,-9326.594869,-995.924147
523.239633,-444.123565,-8512.368333,-766.095498
523.239961,0.000000,-8290.306550,-306.438199
523.240288,1628.453072,-8364.327145,1072.533697
523.240616,1998.556043,-8364.327145,1685.410096
523.240943,1554.432478,-8364.327145,1838.629195
523.241271,222.061783,-9252.574275,1378.971896
523.241598,-740.205942,-10140.821405,1225.752797
523.241926,-1332.370696,-9918.759623,1072.533697
523.242253,-740.205942,-9326.594869,919.314598
523.242581,-518.144159,-8808.450710,766.095498
523.242908,74.020594,-9030.512492,919.314598
523.243236,814.226536,-8734.430116,612.876398
523.243563,1184.329507,-8068.244768,766.095498
523.243891,518.144159,-8660.409521,0.000000
523.244219,-1110.308913,-9844.739029,-689.485948
523.244546,-3034.844362,-10881.027347,-995.924147
523.244874,-3701.029710,-10362.883188,-1532.190996
523.245201,-2886.803174,-9548.656652,-383.047749
523.245529,-1332.370696,-9178.553681,-995.924147
523.245856,-1184.329507,-8734.430116,-229.828649
523.246184,222.061783,-8438.347739,536.266849
523.246511,1332.370696,-7698.141797,1149.143247
523.246839,1480.411884,-7402.059420,1149.143247
523.247166,666.185348,-9030.512492,1532.190996
523.247494,-370.102971,-10732.986159,689.485948
523.247821,-962.267725,-10584.944971,536.266849
523.248149,-444.123565,-10214.842000,919.314598
523.248476,148.041188,-8882.471304,995.924147
523.248804,888.247130,-9030.512492,1532.190996
523.249132,2072.576638,-9400.615463,1149.143247
523.249459,1628.453072,-8290.306550,842.705048
523.249787,1480.411884,-8660.409521,766.095498
523.250114,-592.164754,-10066.800811,-383.047749
523.250442,-2368.659014,-11325.150913,-1455.581446
523.250769,-2664.741391,-11103.089130,-1378.971896
523.251097,-1924.535449,-10066.800811,-842.705048
523.251424,-740.205942,-9474.636058,0.000000
523.251752,296.082377,-9474.636058,842.705048
523.252079,888.247130,-8808.450710,306.438199
523.252407,1480.411884,-7772.162391,2221.676944
523.252734,1850.514855,-8364.327145,2221.676944
523.253062,444.123565,-9548.656652,1685.410096
523.253390,-888.247130,-10732.986159,1302.362347
523.253717,-1036.288319,-10510.924376,1225.752797
523.254045,-1332.370696,-9474.636058,1532.190996
523.254372,-222.061783,-9252.574275,2145.067394
523.254700,-222.061783,-9030.512492,1762.019645
523.255027,0.000000,-8956.491898,1762.019645
523.255355,1184.329507,-8216.285956,1762.019645
523.255682,296.082377,-8216.285956,919.314598
523.256010,-1554.432478,-9696.697840,0.000000
523.256337,-3775.050304,-11325.150913,-1072.533697
523.256665,-3627.009116,-11177.109724,-1225.752797
523.256992,-2590.720797,-9770.718434,-1072.533697
523.257320,-740.205942,-8512.368333,-306.438199
523.257647,222.061783,-8290.306550,0.000000
523.257975,740.205942,-8068.244768,229.828649
523.258303,1554.432478,-7698.141797,919.314598
523.258630,1628.453072,-7402.059420,1302.362347
523.258958,1332.370696,-8512.368333,1455.581446
523.259285,-740.205942,-10140.821405,842.705048
523.259613,-814.226536,-10510.924376,1072.533697
523.259940,-814.226536,-9992.780217,1072.533697
523.260268,666.185348,-8882.471304,1378.971896
523.260595,1702.473667,-8216.285956,1378.971896
523.260923,1850.514855,-7698.141797,1378.971896
523.261250,2072.576638,-7105.977043,1072.533697
523.261578,1850.514855,-7179.997637,612.876398
523.261905,962.267725,-8142.265362,153.219100
523.262233,-1036.288319,-9326.594869,-689.485948
523.262560,-2220.617826,-9622.677246,-766.095498
523.262888,-2220.617826,-9326.594869,-1149.143247
523.263216,-1924.535449,-8808.450710,-842.705048
523.263543,-1850.514855,-8808.450710,-842.705048
523.263871,-2072.576638,-8512.368333,-383.047749
523.264198,-518.144159,-7402.059420,766.095498
523.264526,444.123565,-7031.956449,306.438199
523.264853,592.164754,-7105.977043,766.095498
523.265181,-888.247130,-8882.471304,459.657299
523.265508,-1184.329507,-9622.677246,76.609550
523.265836,-814.226536,-8882.471304,612.876398
523.266163,-222.061783,-8512.368333,766.095498
523.266491,222.061783,-7994.224174,612.876398
523.266818,1110.308913,-8808.450710,1225.752797
523.267146,2146.597232,-8290.306550,1455.581446
523.267473,2220.617826,-7550.100608,1149.143247
523.267801,2072.576638,-8956.491898,1455.581446
523.268129,-814.226536,-10658.965565,306.438199
523.268456,-2442.679609,-11473.192101,0.000000
523.268784,-2442.679609,-10807.006753,-766.095498
523.269111,-1924.535449,-9622.677246,-383.047749
523.269439,-962.267725,-9252.574275,766.095498
523.269766,-370.102971,-9104.533087,459.657299
523.270094,370.102971,-8364.327145,995.924147
523.270421,1036.288319,-8216.285956,1685.410096
523.270749,1036.288319,-8734.430116,1762.019645
523.271076,-1406.391290,-9992.780217,766.095498
523.271404,-2294.638420,-10881.027347,536.266849
523.271731,-2738.761985,-10658.965565,689.485948
523.272059,-2072.576638,-9474.636058,1149.143247
523.272387,-1036.288319,-8438.347739,1072.533697
523.272714,-222.061783,-7994.224174,1455.581446
523.273042,888.247130,-7772.162391,1378.971896
523.273369,740.205942,-7031.956449,1378.971896
523.273697,592.164754,-7994.224174,1149.143247
523.274024,-1332.370696,-9474.636058,153.219100
523.274352,-3034.844362,-10362.883188,-612.876398
523.274679,-2442.679609,-10955.047942,-229.828649
523.275007,-2516.700203,-10288.862594,-689.485948
523.275334,-1702.473667,-9992.780217,0.000000
523.275662,-296.082377,-9770.718434,76.609550
523.275989,1110.308913,-9252.574275,689.485948
523.276317,1998.556043,-8142.265362,766.095498
523.276644,2294.638420,-8956.491898,1302.362347
523.276972,222.061783,-9992.780217,459.657299
523.277300,-1184.329507,-10732.986159,229.828649
523.277627,-1258.350101,-10732.986159,153.219100
523.277955,0.000000,-9696.697840,689.485948
523.278282,1110.308913,-8660.409521,1455.581446
523.278610,1998.556043,-8956.491898,1838.629195
523.278937,2294.638420,-8216.285956,2068.457845
523.279265,2368.659014,-7550.100608,2221.676944
523.279592,1332.370696,-7624.121203,1608.800546
523.279920,-370.102971,-9474.636058,689.485948
523.280247,-2664.741391,-10881.027347,0.000000
523.280575,-2886.803174,-10510.924376,-612.876398
523.280902,-2442.679609,-9474.636058,-766.095498
523.281230,-1554.432478,-8512.368333,-689.485948
523.281557,-888.247130,-7920.203579,0.000000
523.281885,0.000000,-7476.080014,0.000000
523.282213,1406.391290,-6735.874072,459.657299
523.282540,740.205942,-7254.018232,459.657299
523.282867,-666.185348,-8586.388927,383.047749
523.283195,-2368.659014,-10658.965565,0.000000
523.283522,-2146.597232,-10288.862594,0.000000
523.283850,-1480.411884,-9326.594869,536.266849
523.284177,0.000000,-8882.471304,1149.143247
523.284504,666.185348,-8586.388927,1302.362347
523.284832,1776.494261,-8512.368333,2298.286494
523.285159,2442.679609,-7402.059420,1685.410096
523.285487,1924.535449,-7920.203579,1302.362347
523.285814,592.164754,-9252.574275,689.485948
523.286142,-1924.535449,-10362.883188,-842.705048
523.286469,-2590.720797,-10436.903782,-383.047749
523.286796,-1110.308913,-9844.739029,-919.314598
523.287124,-592.164754,-9400.615463,-536.266849
523.287451,0.000000,-9178.553681,-459.657299
523.287779,1036.288319,-9104.533087,0.000000
523.288106,1702.473667,-8068.244768,459.657299
523.288433,1702.473667,-8734.430116,919.314598
523.288761,0.000000,-9844.739029,229.828649
523.289088,-2294.638420,-10881.027347,-229.828649
523.289416,-2294.638420,-10955.047942,0.000000
523.289743,-1110.308913,-9326.594869,153.219100
523.290071,148.041188,-8216.285956,995.924147
523.290398,1036.288319,-7920.203579,1302.362347
523.290725,1628.453072,-7772.162391,1455.581446
523.291053,1924.535449,-7328.038826,1302.362347
523.291380,1406.391290,-7846.182985,1378.971896
523.291708,-444.123565,-9030.512492,1455.581446
523.292035,-2368.659014,-10510.924376,-306.438199
523.292363,-2886.803174,-10881.027347,-459.657299
523.292690,-2294.638420,-9844.739029,-306.438199
523.293017,-962.267725,-9326.594869,229.828649
523.293345,0.000000,-8882.471304,766.095498
523.293672,370.102971,-8290.306550,689.485948
523.294000,1406.391290,-8068.244768,1225.752797
523.294327,1258.350101,-8216.285956,1608.800546
523.294654,-148.041188,-9104.533087,1225.752797
523.294982,-1480.411884,-10584.944971,766.095498
523.295309,-2368.659014,-11103.089130,536.266849
523.295637,-1998.556043,-10140.821405,1072.533697
523.295964,-1036.288319,-9696.697840,1455.581446
523.296292,-222.061783,-9474.636058,1532.190996
523.296619,0.000000,-8882.471304,1532.190996
523.296946,962.267725,-8586.388927,1608.800546
523.297274,1480.411884,-7698.141797,1762.019645
523.297601,518.144159,-8586.388927,1532.190996
523.297929,-1110.308913,-10066.800811,689.485948
523.298256,-1924.535449,-10214.842000,306.438199
523.298583,-1480.411884,-9178.553681,76.609550
523.298911,-814.226536,-8660.409521,153.219100
523.299238,-740.205942,-8808.450710,153.219100
523.299566,-962.267725,-8956.491898,76.609550
523.299893,74.020594,-7994.224174,459.657299
523.300221,222.061783,-7105.977043,612.876398
523.300548,296.082377,-8364.327145,995.924147
523.300875,-888.247130,-9918.759623,459.657299
523.301203,-1998.556043,-11029.068536,306.438199
523.301530,-2368.659014,-9918.759623,-229.828649
523.301858,-1480.411884,-9696.697840,689.485948
523.302185,-888.247130,-9474.636058,842.705048
523.302512,-296.082377,-8882.471304,536.266849
523.302840,1480.411884,-8142.265362,689.485948
523.303167,2516.700203,-7179.997637,766.095498
523.303495,2072.576638,-7476.080014,995.924147
523.303822,888.247130,-8586.388927,689.485948
523.304150,-1406.391290,-9918.759623,-536.266849
523.304477,-1184.329507,-9104.533087,-536.266849
523.304804,-592.164754,-9104.533087,-153.219100
523.305132,-370.102971,-8882.471304,76.609550
523.305459,-444.123565,-8512.368333,229.828649
523.305787,592.164754,-7920.203579,919.314598
523.306114,1776.494261,-7476.080014,1072.533697
523.306441,1184.329507,-8216.285956,995.924147
523.306769,-222.061783,-9474.636058,383.047749
523.307096,-1924.535449,-10658.965565,153.219100
523.307424,-1776.494261,-9844.739029,153.219100
523.307751,-1776.494261,-9252.574275,0.000000
523.308079,-444.123565,-9030.512492,459.657299
523.308406,0.000000,-9030.512492,536.266849
523.308733,666.185348,-8290.306550,1072.533697
523.309061,1110.308913,-7254.018232,1455.581446
523.309388,888.247130,-7846.182985,995.924147
523.309716,-666.185348,-9326.594869,383.047749
523.310043,-2220.617826,-10955.047942,0.000000
523.310371,-2368.659014,-9918.759623,-383.047749
523.310698,-1406.391290,-8956.491898,0.000000
523.311025,-592.164754,-8734.430116,689.485948
523.311353,-518.144159,-8734.430116,306.438199
523.311680,148.041188,-8216.285956,919.314598
523.312008,1554.432478,-7328.038826,1302.362347
523.312335,1850.514855,-7698.141797,1225.752797
523.312662,444.123565,-9622.677246,459.657299
523.312990,-2072.576638,-11473.192101,229.828649
523.313317,-1924.535449,-11621.233289,153.219100
523.313645,-1554.432478,-10436.903782,383.047749
523.313972,0.000000,-9770.718434,1149.143247
523.314300,0.000000,-9104.533087,919.314598
523.314627,1036.288319,-9252.574275,1302.362347
523.314954,1776.494261,-8068.244768,1302.362347
523.315282,1332.370696,-8142.265362,1149.143247
523.315609,-148.041188,-9474.636058,689.485948
523.315937,-1998.556043,-10510.924376,76.609550
523.316264,-2294.638420,-10732.986159,-306.438199
523.316591,-1480.411884,-10066.800811,153.219100
523.316919,-444.123565,-9770.718434,689.485948
523.317246,-296.082377,-9474.636058,766.095498
523.317574,666.185348,-8734.430116,1762.019645
523.317901,1332.370696,-7920.203579,995.924147
523.318229,1480.411884,-7772.162391,1072.533697
523.318556,222.061783,-9252.574275,612.876398
523.318883,-1776.494261,-10362.883188,153.219100
523.319211,-2516.700203,-10288.862594,0.000000
523.319538,-1554.432478,-9474.636058,76.609550
523.319866,-740.205942,-8882.471304,383.047749
523.320193,-222.061783,-8882.471304,612.876398
523.320520,0.000000,-8734.430116,536.266849
523.320848,888.247130,-7772.162391,1225.752797
523.321175,1110.308913,-7698.141797,919.314598
523.321503,0.000000,-9178.553681,383.047749
523.321830,-1554.432478,-10732.986159,0.000000
523.322158,-1998.556043,-10881.027347,-153.219100
523.322485,-1184.329507,-10066.800811,306.438199
523.322812,-666.185348,-9030.512492,536.266849
523.323140,0.000000,-9104.533087,689.485948
523.323467,148.041188,-9104.533087,689.485948
523.323795,1406.391290,-7476.080014,1072.533697
523.324122,2072.576638,-7105.977043,995.924147
523.324449,1480.411884,-7994.224174,1302.362347
523.324777,-296.082377,-9252.574275,229.828649
523.325104,-1258.350101,-9918.759623,383.047749
523.325432,-888.247130,-9252.574275,459.657299
523.325759,-592.164754,-8956.491898,766.095498
523.326087,-370.102971,-8734.430116,1532.190996
523.326414,0.000000,-8808.450710,536.266849
523.326741,370.102971,-8068.244768,1149.143247
523.327069,740.205942,-7105.977043,995.924147
523.327396,814.226536,-7994.224174,689.485948
523.327724,0.000000,-9030.512492,689.485948
523.328051,-1406.391290,-10140.821405,459.657299
523.328379,-1702.473667,-9548.656652,0.000000
523.328706,-2146.597232,-9400.615463,0.000000
523.329033,-1554.432478,-9548.656652,229.828649
523.329361,-1554.432478,-9400.615463,459.657299
523.329688,-222.061783,-8216.285956,1072.533697
523.330016,740.205942,-7550.100608,1225.752797
523.330343,592.164754,-8364.327145,1225.752797
523.330670,-148.041188,-9178.553681,766.095498
523.330998,-1554.432478,-10140.821405,459.657299
523.331325,-740.205942,-9400.615463,1225.752797
523.331653,-740.205942,-9030.512492,76.609550
523.331980,-296.082377,-9326.594869,383.047749
523.332308,-370.102971,-9326.594869,306.438199
523.332635,888.247130,-8586.388927,1072.533697
523.332962,1850.514855,-7254.018232,1302.362347
523.333290,1332.370696,-8438.347739,1149.143247
523.333617,74.020594,-9992.780217,766.095498
523.333945,-1776.494261,-11103.089130,-229.828649
523.334272,-1628.453072,-10658.965565,-306.438199
523.334599,-1184.329507,-9696.697840,153.219100
523.334927,-222.061783,-9622.677246,229.828649
523.335254,74.020594,-9030.512492,0.000000
523.335582,1184.329507,-8216.285956,919.314598
523.335909,1924.535449,-6957.935855,1225.752797
523.336237,1998.556043,-7920.203579,1608.800546
523.336564,444.123565,-9474.636058,766.095498
523.336891,-1628.453072,-10807.006753,459.657299
523.337219,-2368.659014,-10732.986159,306.438199
523.337546,-2368.659014,-10288.862594,0.000000
523.337874,-1850.514855,-10214.842000,459.657299
523.338201,-1480.411884,-9696.697840,0.000000
523.338528,-518.144159,-8734.430116,229.828649
523.338856,666.185348,-7698.141797,612.876398
523.339183,1184.329507,-7624.121203,536.266849
523.339511,296.082377,-8290.306550,153.219100
523.339838,-1332.370696,-9474.636058,-306.438199
523.340166,-1924.535449,-9770.718434,0.000000
523.340493,-1406.391290,-9696.697840,76.609550
523.340820,-740.205942,-9918.759623,766.095498
523.341148,-148.041188,-9252.574275,689.485948
523.341475,1036.288319,-8734.430116,1915.238745
523.341803,2590.720797,-7920.203579,2451.505594
523.342130,2664.741391,-7624.121203,2221.676944
523.342457,1776.494261,-9104.533087,1991.848295
523.342785,0.000000,-9992.780217,1302.362347
523.343112,-1628.453072,-10510.924376,766.095498
523.343440,-1628.453072,-9992.780217,76.609550
523.343767,-1110.308913,-9844.739029,766.095498
523.344095,-962.267725,-9548.656652,612.876398
523.344422,-888.247130,-9030.512492,536.266849
523.344749,370.102971,-7772.162391,995.924147
523.345077,74.020594,-6809.894666,919.314598
523.345404,0.000000,-8586.388927,0.000000
523.345732,-2368.659014,-9622.677246,-612.876398
523.346059,-3034.844362,-9770.718434,-1149.143247
523.346387,-2442.679609,-8956.491898,-1149.143247
523.346714,-1258.350101,-9030.512492,-383.047749
523.347041,0.000000,-7698.141797,995.924147
523.347369,814.226536,-8142.265362,1225.752797
523.347696,1998.556043,-7402.059420,1991.848295
523.348024,1776.494261,-7254.018232,2145.067394
523.348351,888.247130,-8660.409521,2221.676944
523.348678,-1110.308913,-9548.656652,1608.800546
523.349006,-1776.494261,-10362.883188,0.000000
523.349333,-1258.350101,-9770.718434,229.828649
523.349661,-962.267725,-9696.697840,306.438199
523.349988,0.000000,-9326.594869,536.266849
523.350316,0.000000,-8068.244768,383.047749
523.350643,1332.370696,-7846.182985,536.266849
523.350970,1702.473667,-7476.080014,0.000000
523.351298,1036.288319,-8586.388927,-153.219100
523.351625,-814.226536,-9992.780217,-612.876398
523.351953,-1702.473667,-10362.883188,-459.657299
523.352280,-1184.329507,-9844.739029,-689.485948
523.352607,-666.185348,-9474.636058,229.828649
523.352935,370.102971,-9030.512492,842.705048
523.353262,962.267725,-8586.388927,1302.362347
523.353590,1850.514855,-7402.059420,1915.238745
523.353917,2886.803174,-7105.977043,2298.286494
523.354245,1332.370696,-8290.306550,1991.848295
523.354572,-370.102971,-9696.697840,1072.533697
523.354899,-1702.473667,-10584.944971,459.657299
523.355227,-1480.411884,-9622.677246,459.657299
523.355554,-1480.411884,-9326.594869,153.219100
523.355882,-592.164754,-9400.615463,306.438199
523.356209,-740.205942,-9104.533087,0.000000
523.356536,-296.082377,-8586.388927,153.219100
523.356864,222.061783,-7624.121203,459.657299
523.357191,0.000000,-8068.244768,766.095498
523.357519,-1258.350101,-9548.656652,0.000000
523.357846,-3034.844362,-10955.047942,-459.657299
523.358174,-2886.803174,-10510.924376,-306.438199
523.358501,-2590.720797,-10140.821405,229.828649
523.358828,-1554.432478,-9548.656652,995.924147
523.359156,-888.247130,-9474.636058,689.485948
523.359483,296.082377,-8882.471304,1608.800546
523.359811,1850.514855,-7550.100608,1685.410096
523.360138,2220.617826,-7772.162391,1838.629195
523.360465,1184.329507,-8438.347739,1762.019645
523.360793,0.000000,-10066.800811,766.095498
523.361120,-518.144159,-10066.800811,612.876398
523.361448,-592.164754,-9770.718434,459.657299
523.361775,-296.082377,-10140.821405,766.095498
523.362103,-444.123565,-10436.903782,689.485948
523.362430,222.061783,-9326.594869,612.876398
523.362757,1184.329507,-8956.491898,995.924147
523.363085,962.267725,-9030.512492,459.657299
523.363412,-518.144159,-9918.759623,0.000000
523.363740,-2294.638420,-10955.047942,-689.485948
523.364067,-2442.679609,-10140.821405,-229.828649
523.364395,-1850.514855,-9400.615463,-766.095498
523.364722,-888.247130,-9030.512492,0.000000
523.365049,-296.082377,-8290.306550,383.047749
523.365377,1036.288319,-7772.162391,919.314598
523.365704,2368.659014,-6513.812290,1991.848295
523.366032,2812.782580,-6513.812290,1991.848295
523.366359,592.164754,-9104.533087,1838.629195
523.366686,-1332.370696,-10436.903782,1225.752797
523.367014,-1998.556043,-10807.006753,689.485948
523.367341,-1258.350101,-9770.718434,919.314598
523.367669,-370.102971,-9548.656652,689.485948
523.367996,-888.247130,-9104.533087,612.876398
523.368324,0.000000,-8364.327145,536.266849
523.368651,666.185348,-7254.018232,919.314598
523.368978,888.247130,-7328.038826,229.828649
523.369306,-222.061783,-8438.347739,0.000000
523.369633,-2738.761985,-10066.800811,-1225.752797
523.369961,-3478.967927,-10288.862594,-1532.190996
523.370288,-2368.659014,-9178.553681,-1149.143247
523.370615,-1184.329507,-8512.368333,0.000000
523.370943,518.144159,-8216.285956,1302.362347
523.371270,1184.329507,-8290.306550,1149.143247
523.371598,2516.700203,-7254.018232,2068.457845
523.371925,1998.556043,-7402.059420,2451.505594
523.372253,1480.411884,-8660.409521,2374.896044
523.372580,-666.185348,-9696.697840,1072.533697
523.372907,-592.164754,-10658.965565,1762.019645
523.373235,-444.123565,-9400.615463,1762.019645
523.373562,0.000000,-8734.430116,1378.971896
523.373890,0.000000,-8586.388927,1149.143247
523.374217,0.000000,-8068.244768,689.485948
523.374544,740.205942,-7624.121203,766.095498
523.374872,814.226536,-7105.977043,153.219100
523.375199,0.000000,-8438.347739,0.000000
523.375527,-2072.576638,-10066.800811,-536.266849
523.375854,-3256.906145,-10510.924376,-842.705048
523.376182,-2368.659014,-9104.533087,0.000000
523.376509,-1110.308913,-8882.471304,153.219100
523.376836,444.123565,-8512.368333,995.924147
523.377164,814.226536,-8364.327145,1455.581446
523.377491,2220.617826,-7772.162391,2374.896044
523.377819,1776.494261,-7328.038826,2298.286494
523.378146,1998.556043,-8438.347739,3600.648841
523.378473,222.061783,-10140.821405,2987.772442
523.378801,-1036.288319,-11251.130318,2834.553343
523.379128,-962.267725,-10436.903782,2604.724693
523.379456,0.000000,-9326.594869,2911.162892
523.379783,0.000000,-8808.450710,2987.772442
523.380111,-148.041188,-9474.636058,2528.115143
523.380438,-444.123565,-9104.533087,2145.067394
523.380765,0.000000,-7846.182985,1685.410096
523.381093,0.000000,-7772.162391,1302.362347
523.381420,-370.102971,-9178.553681,1378.971896
523.381748,-2664.741391,-10955.047942,842.705048
523.382075,-3775.050304,-11547.212695,459.657299
523.382403,-3775.050304,-10807.006753,689.485948
523.382730,-2368.659014,-9770.718434,995.924147
523.383058,-1776.494261,-9474.636058,1302.362347
523.383385,-888.247130,-9622.677246,2068.457845
523.383712,0.000000,-9400.615463,2451.505594
523.384040,962.267725,-8512.368333,2757.943793
523.384367,2368.659014,-8216.285956,3677.258390
523.384695,3256.906145,-9030.512492,4136.915689
523.385022,2516.700203,-10066.800811,4213.525239
523.385350,1776.494261,-10362.883188,4290.134789
523.385677,1702.473667,-9474.636058,4443.353888
523.386004,2072.576638,-8808.450710,4519.963438
523.386332,1776.494261,-9474.636058,4060.306139
523.386659,1480.411884,-10658.965565,4060.306139
523.386987,222.061783,-10584.944971,3753.867940
523.387314,0.000000,-9918.759623,3753.867940
523.387642,1036.288319,-9622.677246,3830.477490
523.387969,962.267725,-10288.862594,4213.525239
523.388297,-666.185348,-11103.089130,4596.572988
523.388624,-3256.906145,-11177.109724,2451.505594
523.388951,-4737.318029,-9844.739029,2068.457845
523.389279,-3923.091493,-8290.306550,2221.676944
523.389606,-2590.720797,-7550.100608,2604.724693
523.389934,-2146.597232,-7179.997637,2451.505594
523.390261,-2738.761985,-8216.285956,2451.505594
523.390589,-3552.988522,-8142.265362,2221.676944
523.390916,-2368.659014,-7254.018232,2528.115143
523.391244,-370.102971,-6735.874072,3140.991542
523.391571,1258.350101,-7179.997637,3370.820191
523.391898,1184.329507,-8142.265362,3830.477490
523.392226,370.102971,-8956.491898,4060.306139
523.392553,-222.061783,-8956.491898,3830.477490
523.392881,444.123565,-8734.430116,4213.525239
523.393208,2368.659014,-8734.430116,4519.963438
523.393536,3552.988522,-9844.739029,5209.449386
523.393863,2812.782580,-10807.006753,4443.353888
523.394191,1332.370696,-11325.150913,4060.306139
523.394518,518.144159,-10436.903782,3830.477490
523.394845,1110.308913,-9474.636058,3370.820191
523.395173,1332.370696,-8438.347739,3600.648841
523.395500,3552.988522,-8660.409521,3830.477490
523.395828,1924.535449,-9178.553681,4366.744339
523.396155,-1406.391290,-9622.677246,3753.867940
523.396483,-3775.050304,-9770.718434,2604.724693
523.396810,-5033.400406,-8956.491898,1991.848295
523.397137,-4441.235652,-9326.594869,995.924147
523.397465,-2072.576638,-8290.306550,1302.362347
523.397792,-148.041188,-7402.059420,2451.505594
523.398120,148.041188,-6661.853478,2834.553343
523.398447,-666.185348,-6365.771101,2911.162892
523.398775,-2220.617826,-7328.038826,2298.286494
523.399102,-3108.864956,-8068.244768,1225.752797
523.399430,-2516.700203,-8216.285956,766.095498
523.399757,-148.041188,-8290.306550,1838.629195
523.400084,2146.597232,-7920.203579,3753.867940
523.400412,4219.173869,-8290.306550,5056.230287
523.400739,4293.194464,-9622.677246,5822.325785
523.401067,2886.803174,-10881.027347,4903.011187
523.401394,444.123565,-11843.295072,3677.258390
523.401722,-1480.411884,-12065.356855,2757.943793
523.402049,-1554.432478,-11843.295072,3140.991542
523.402377,444.123565,-10881.027347,4060.306139
523.402704,2738.761985,-10214.842000,5286.058936
523.403031,4663.297435,-9474.636058,6128.763984
523.403359,3775.050304,-9326.594869,5745.716235
523.403686,-814.226536,-9400.615463,4673.182538
523.404014,-3330.926739,-10140.821405,3370.820191
523.404341,-5847.626942,-9918.759623,1762.019645
523.404669,-4885.359217,-9474.636058,1608.800546
523.404996,-2590.720797,-8068.244768,2221.676944
523.405323,148.041188,-7031.956449,3524.039291
523.405651,1998.556043,-6587.832884,4979.620737
523.405978,1036.288319,-6735.874072,5362.668486
523.406306,-814.226536,-7772.162391,4826.401637
523.406633,-2886.803174,-9178.553681,3294.210641
523.406961,-4737.318029,-9992.780217,1608.800546
523.407288,-5107.421000,-10214.842000,1302.362347
523.407616,-3775.050304,-10140.821405,1685.410096
523.407943,-962.267725,-9178.553681,2757.943793
523.408270,1036.288319,-8364.327145,3677.258390
523.408598,3108.864956,-8142.265362,4213.525239
523.408925,3108.864956,-9104.533087,4213.525239
523.409253,1258.350101,-9252.574275,2987.772442
523.409580,0.000000,-10214.842000,2221.676944
523.409908,-444.123565,-11103.089130,2221.676944
523.410235,-296.082377,-11029.068536,2451.505594
523.410563,666.185348,-10140.821405,3140.991542
523.410890,888.247130,-9326.594869,3600.648841
523.411217,1258.350101,-8882.471304,4060.306139
523.411545,1406.391290,-8882.471304,4060.306139
523.411872,370.102971,-8512.368333,2834.553343
523.412200,0.000000,-7994.224174,2604.724693
523.412527,1332.370696,-7476.080014,3140.991542
523.412855,962.267725,-7920.203579,2834.553343
523.413182,1184.329507,-6883.915261,3294.210641
523.413510,1998.556043,-7476.080014,3677.258390
523.413837,1554.432478,-8216.285956,3983.696590
523.414164,592.164754,-8512.368333,4596.572988
523.414492,74.020594,-9622.677246,3907.087040
523.414819,-1554.432478,-10214.842000,3370.820191
523.415147,-2294.638420,-9844.739029,3370.820191
523.415474,-1998.556043,-10436.903782,2987.772442
523.415802,-2146.597232,-9844.739029,3140.991542
523.416129,-888.247130,-9030.512492,2987.772442
523.416456,-518.144159,-8808.450710,3064.381992
523.416784,-962.267725,-8068.244768,2757.943793
523.417111,-1184.329507,-8438.347739,2681.334243
523.417439,-1480.411884,-8142.265362,2834.553343
523.417766,-1998.556043,-8216.285956,2834.553343
523.418094,-1924.535449,-8216.285956,2681.334243
523.418421,-1332.370696,-8216.285956,3064.381992
523.418749,-296.082377,-8660.409521,3600.648841
523.419076,296.082377,-8660.409521,3983.696590
523.419403,814.226536,-9030.512492,4443.353888
523.419731,-148.041188,-9474.636058,4136.915689
523.420058,-888.247130,-9696.697840,3677.258390
523.420386,-1036.288319,-9474.636058,3294.210641
523.420713,-444.123565,-9400.615463,3217.601092
523.421041,296.082377,-8882.471304,3140.991542
523.421368,814.226536,-9030.512492,3140.991542
523.421696,1554.432478,-9252.574275,3140.991542
523.422023,1406.391290,-9622.677246,3140.991542
523.422350,222.061783,-10066.800811,2757.943793
523.422678,-148.041188,-10140.821405,2451.505594
523.423005,-444.123565,-10658.965565,2068.457845
523.423333,-518.144159,-10584.944971,2221.676944
523.423660,-296.082377,-10066.800811,2374.896044
523.423988,-222.061783,-9992.780217,2145.067394
523.424315,-296.082377,-9548.656652,1915.238745
523.424643,-1184.329507,-9474.636058,1378.971896
523.424970,-1332.370696,-9474.636058,1762.019645
523.425297,-1184.329507,-8956.491898,1455.581446
523.425625,-962.267725,-7994.224174,995.924147
523.425952,-444.123565,-7698.141797,995.924147
523.426280,74.020594,-7550.100608,1762.019645
523.426607,222.061783,-7920.203579,1149.143247
523.426935,0.000000,-8216.285956,1225.752797
523.427262,0.000000,-8660.409521,1378.971896
523.427589,-370.102971,-9252.574275,1302.362347
523.427917,-444.123565,-9696.697840,1455.581446
523.428244,74.020594,-10214.842000,1149.143247
523.428572,888.247130,-10510.924376,1378.971896
523.428899,1110.308913,-10362.883188,1838.629195
523.429227,1332.370696,-10214.842000,2068.457845
523.429554,592.164754,-9474.636058,2068.457845
523.429882,518.144159,-9844.739029,1991.848295
523.430209,0.000000,-9622.677246,1302.362347
523.430536,-666.185348,-9474.636058,1072.533697
523.430864,-296.082377,-9104.533087,995.924147
523.431191,-370.102971,-8734.430116,995.924147
523.431519,-296.082377,-8438.347739,1532.190996
523.431846,-444.123565,-8364.327145,919.314598
523.432174,-444.123565,-7994.224174,919.314598
523.432501,-592.164754,-7624.121203,536.266849
523.432829,-592.164754,-7698.141797,612.876398
523.433156,-518.144159,-7698.141797,612.876398
523.433483,-814.226536,-7846.182985,536.266849
523.433811,-666.185348,-8586.388927,842.705048
523.434138,-740.205942,-9104.533087,995.924147
523.434466,-814.226536,-8956.491898,1149.143247
523.434793,-592.164754,-8586.388927,919.314598
523.435121,0.000000,-9030.512492,1072.533697
523.435448,0.000000,-8956.491898,536.266849
523.435775,0.000000,-9104.533087,383.047749
523.436103,74.020594,-9030.512492,612.876398
523.436430,0.000000,-9252.574275,766.095498
523.436758,0.000000,-9548.656652,612.876398
523.437085,-222.061783,-9770.718434,1072.533697
523.437413,-222.061783,-9696.697840,1072.533697
523.437740,-222.061783,-9622.677246,842.705048
523.438068,-518.144159,-9474.636058,459.657299
523.438395,0.000000,-9104.533087,459.657299
523.438722,0.000000,-8808.450710,459.657299
523.439050,-222.061783,-8882.471304,536.266849
523.439377,-592.164754,-8660.409521,842.705048
523.439705,-296.082377,-8882.471304,766.095498
523.440032,-370.102971,-8586.388927,1532.190996
523.440360,-962.267725,-8660.409521,766.095498
523.440687,-814.226536,-8956.491898,536.266849
523.441015,-666.185348,-9104.533087,229.828649
523.441342,-444.123565,-9178.553681,536.266849
523.441669,-296.082377,-9030.512492,459.657299
523.441997,-222.061783,-8882.471304,612.876398
523.442324,0.000000,-9622.677246,612.876398
523.442652,0.000000,-9622.677246,766.095498
523.442979,0.000000,-9622.677246,383.047749
523.443307,0.000000,-10288.862594,766.095498
523.443634,-148.041188,-9696.697840,766.095498
523.443962,-666.185348,-9992.780217,612.876398
523.444289,-296.082377,-9918.759623,459.657299
523.444616,0.000000,-9844.739029,459.657299
523.444944,148.041188,-9770.718434,612.876398
523.445271,222.061783,-9030.512492,229.828649
523.445599,148.041188,-8956.491898,383.047749
523.445926,222.061783,-8882.471304,919.314598
523.446254,0.000000,-8956.491898,383.047749
523.446581,-222.061783,-9178.553681,766.095498
523.446908,222.061783,-8956.491898,1072.533697
523.447236,-370.102971,-8956.491898,842.705048
523.447563,0.000000,-9252.574275,612.876398
523.447891,74.020594,-9104.533087,459.657299
523.448218,296.082377,-9030.512492,306.438199
523.448546,222.061783,-8956.491898,919.314598
523.448873,-148.041188,-8660.409521,153.219100
523.449201,-444.123565,-9030.512492,229.828649
523.449528,-370.102971,-9326.594869,229.828649
523.449855,-740.205942,-9252.574275,383.047749
523.450183,-666.185348,-8734.430116,536.266849
523.450510,-592.164754,-9178.553681,229.828649
523.450838,-518.144159,-8808.450710,229.828649
523.451165,-444.123565,-9030.512492,383.047749
523.451493,-370.102971,-8660.409521,306.438199
523.451820,-518.144159,-8438.347739,459.657299
523.452148,-222.061783,-8438.347739,229.828649
523.452475,-666.185348,-8586.388927,689.485948
523.452802,-666.185348,-8734.430116,612.876398
523.453130,-888.247130,-9030.512492,766.095498
523.453457,-814.226536,-9104.533087,766.095498
523.453785,-592.164754,-8808.450710,612.876398
523.454112,-666.185348,-8734.430116,766.095498
523.454440,-370.102971,-8808.450710,536.266849
523.454767,-222.061783,-8808.450710,459.657299
523.455095,-148.041188,-8882.471304,689.485948
523.455422,-296.082377,-8734.430116,766.095498
523.455749,-518.144159,-9252.574275,1302.362347
523.456077,-592.164754,-9474.636058,842.705048
523.456404,-740.205942,-9622.677246,536.266849
523.456732,-444.123565,-9622.677246,689.485948
523.457059,-296.082377,-9178.553681,612.876398
523.457387,-518.144159,-8882.471304,919.314598
523.457714,-148.041188,-9104.533087,536.266849
523.458041,-296.082377,-9104.533087,689.485948
523.458369,-592.164754,-8956.491898,766.095498
523.458696,-444.123565,-9104.533087,766.095498
523.459024,-592.164754,-8956.491898,229.828649
523.459351,-444.123565,-9030.512492,536.266849
523.459679,-592.164754,-9104.533087,536.266849
523.460006,-148.041188,-8882.471304,306.438199
523.460334,-222.061783,-8808.450710,459.657299
523.460661,74.020594,-9030.512492,306.438199
523.460988,0.000000,-9104.533087,229.828649
523.461316,-222.061783,-9326.594869,306.438199
523.461643,-222.061783,-9770.718434,536.266849
523.461971,-370.102971,-9474.636058,459.657299
523.462298,-370.102971,-9696.697840,919.314598
523.462626,0.000000,-9844.739029,612.876398
523.462953,-296.082377,-9622.677246,536.266849
523.463281,0.000000,-9474.636058,536.266849
523.463608,-296.082377,-8956.491898,306.438199
523.463935,-370.102971,-8734.430116,306.438199
523.464263,-962.267725,-8438.347739,153.219100
523.464590,-962.267725,-9104.533087,383.047749
523.464918,-1110.308913,-8956.491898,459.657299
523.465245,-962.267725,-8882.471304,842.705048
523.465573,-888.247130,-8808.450710,766.095498
523.465900,0.000000,-8586.388927,612.876398
523.466227,222.061783,-8808.450710,383.047749
523.466555,222.061783,-8216.285956,383.047749
523.466882,296.082377,-8586.388927,536.266849
523.467210,-148.041188,-8808.450710,766.095498
523.467537,-296.082377,-9474.636058,919.314598
523.467865,-592.164754,-9844.739029,995.924147
523.468192,-296.082377,-9844.739029,919.314598
523.468520,-148.041188,-9622.677246,995.924147
523.468847,148.041188,-9326.594869,766.095498
523.469174,592.164754,-8956.491898,229.828649
523.469502,740.205942,-8290.306550,612.876398
523.469829,518.144159,-8068.244768,229.828649
523.470157,0.000000,-8068.244768,229.828649
523.470484,-296.082377,-8734.430116,459.657299
523.470812,-518.144159,-8956.491898,766.095498
523.471139,-518.144159,-9326.594869,1072.533697
523.471467,-370.102971,-9252.574275,995.924147
523.471794,-296.082377,-9030.512492,842.705048
523.472121,74.020594,-8808.450710,459.657299
523.472449,296.082377,-8438.347739,229.828649
523.472776,-222.061783,-8216.285956,842.705048
523.473104,518.144159,-8512.368333,76.609550
523.473431,0.000000,-8734.430116,383.047749
523.473759,-370.102971,-9178.553681,306.438199
523.474086,-518.144159,-9770.718434,459.657299
523.474414,-666.185348,-9400.615463,459.657299
523.474741,-666.185348,-9474.636058,306.438199
523.475068,0.000000,-9178.553681,0.000000
523.475396,0.000000,-9178.553681,-153.219100
523.475723,74.020594,-9030.512492,0.000000
523.476051,444.123565,-9252.574275,0.000000
523.476378,296.082377,-9474.636058,536.266849
523.476706,0.000000,-9770.718434,459.657299
523.477033,0.000000,-10140.821405,536.266849
523.477360,-222.061783,-9992.780217,766.095498
523.477688,0.000000,-9992.780217,919.314598
523.478015,0.000000,-9548.656652,536.266849
523.478343,-222.061783,-9178.553681,459.657299
523.478670,-296.082377,-9178.553681,612.876398
523.478998,-222.061783,-9030.512492,459.657299
523.479325,-370.102971,-9030.512492,536.266849
523.479653,-296.082377,-9252.574275,766.095498
523.479980,-740.205942,-9622.677246,919.314598
523.480307,-444.123565,-9474.636058,842.705048
523.480635,-666.185348,-9474.636058,459.657299
523.480962,-592.164754,-9252.574275,536.266849
523.481290,-222.061783,-9252.574275,459.657299
523.481617,-518.144159,-9326.594869,306.438199
523.481945,-592.164754,-9252.574275,766.095498
523.482272,-370.102971,-9622.677246,1072.533697
523.482600,-370.102971,-9548.656652,1072.533697
523.482927,-518.144159,-9326.594869,1072.533697
523.483254,-592.164754,-9400.615463,766.095498
523.483582,-444.123565,-9326.594869,536.266849
523.483909,-518.144159,-8882.471304,536.266849
523.484237,-518.144159,-8808.450710,536.266849
523.484564,-888.247130,-8586.388927,536.266849
523.484892,-592.164754,-8660.409521,229.828649
523.485219,-592.164754,-8734.430116,612.876398
523.485546,-518.144159,-8808.450710,536.266849
523.485874,-666.185348,-8512.368333,536.266849
523.486201,-370.102971,-8364.327145,459.657299
523.486529,-370.102971,-8142.265362,612.876398
523.486856,-222.061783,-8660.409521,383.047749
523.487184,-444.123565,-8660.409521,306.438199
523.487511,-370.102971,-8660.409521,383.047749
523.487839,-222.061783,-9030.512492,536.266849
523.488166,-370.102971,-9030.512492,536.266849
523.488493,0.000000,-9104.533087,76.609550
523.488821,0.000000,-9178.553681,459.657299
523.489148,74.020594,-9104.533087,689.485948
523.489476,0.000000,-8956.491898,383.047749
523.489803,222.061783,-9104.533087,842.705048
523.490131,222.061783,-9030.512492,153.219100
523.490458,0.000000,-9104.533087,229.828649
523.490786,74.020594,-9252.574275,459.657299
523.491113,0.000000,-9400.615463,766.095498
523.491440,-296.082377,-9178.553681,995.924147
523.491768,0.000000,-8956.491898,383.047749
523.492095,0.000000,-8438.347739,459.657299
523.492423,-148.041188,-8586.388927,306.438199
523.492750,-148.041188,-8438.347739,459.657299
523.493078,-592.164754,-8734.430116,536.266849
523.493405,-518.144159,-8512.368333,1072.533697
523.493732,-444.123565,-9178.553681,1149.143247
523.494060,-592.164754,-9104.533087,612.876398
523.494387,-370.102971,-9326.594869,689.485948
523.494715,0.000000,-9252.574275,842.705048
523.495042,148.041188,-9104.533087,842.705048
523.495370,-74.020594,-9252.574275,995.924147
523.495697,-148.041188,-9030.512492,612.876398
523.496025,0.000000,-9400.615463,612.876398
523.496352,-370.102971,-9474.636058,842.705048
523.496679,-296.082377,-9696.697840,842.705048
523.497007,-518.144159,-9474.636058,919.314598
523.497334,-148.041188,-9252.574275,919.314598
523.497662,-222.061783,-9326.594869,766.095498
523.497989,0.000000,-8956.491898,459.657299
523.498317,0.000000,-9030.512492,459.657299
523.498644,74.020594,-9030.512492,536.266849
523.498972,-222.061783,-8882.471304,306.438199
523.499299,0.000000,-9326.594869,306.438199
523.499626,-296.082377,-9474.636058,689.485948
523.499954,-148.041188,-9400.615463,383.047749
523.500281,74.020594,-9548.656652,383.047749
523.500609,296.082377,-9252.574275,612.876398
523.500936,0.000000,-9252.574275,229.828649
523.501264,222.061783,-9178.553681,76.609550
523.501591,0.000000,-9326.594869,153.219100
523.501918,222.061783,-9252.574275,459.657299
523.502246,74.020594,-9474.636058,612.876398
523.502573,0.000000,-9474.636058,459.657299
523.502901,-148.041188,-9474.636058,612.876398
523.503228,-222.061783,-9474.636058,536.266849
523.503556,-296.082377,-9178.553681,689.485948
523.503883,0.000000,-8956.491898,689.485948
523.504211,-222.061783,-8734.430116,459.657299
523.504538,-296.082377,-8808.450710,536.266849
523.504865,-592.164754,-8734.430116,689.485948
523.505193,-296.082377,-9104.533087,689.485948
523.505520,-666.185348,-8438.347739,689.485948
523.505848,-148.041188,-9104.533087,919.314598
523.506175,-444.123565,-8734.430116,842.705048
523.506503,-518.144159,-8808.450710,842.705048
523.506830,-296.082377,-8956.491898,689.485948
523.507158,-296.082377,-8882.471304,459.657299
523.507485,0.000000,-8734.430116,612.876398
523.507812,-518.144159,-8956.491898,612.876398
523.508140,-444.123565,-9474.636058,766.095498
523.508467,-444.123565,-9474.636058,766.095498
523.508795,-518.144159,-9326.594869,306.438199
523.509122,-296.082377,-8882.471304,1072.533697
523.509450,-296.082377,-9030.512492,612.876398
523.509777,-370.102971,-8956.491898,459.657299
523.510104,-444.123565,-8660.409521,306.438199
523.510432,0.000000,-8660.409521,153.219100
523.510759,296.082377,-9400.615463,842.705048
523.511087,-592.164754,-8882.471304,536.266849
523.511414,-370.102971,-9178.553681,689.485948
523.511742,-444.123565,-9252.574275,612.876398
523.512069,-222.061783,-9252.574275,689.485948
523.512397,-222.061783,-9400.615463,306.438199
523.512724,-148.041188,-9104.533087,689.485948
523.513051,-222.061783,-9030.512492,536.266849
523.513379,-370.102971,-9030.512492,459.657299
523.513706,0.000000,-9326.594869,612.876398
523.514034,-370.102971,-9400.615463,153.219100
523.514361,0.000000,-9104.533087,842.705048
523.514689,-666.185348,-9178.553681,689.485948
523.515016,-666.185348,-9326.594869,306.438199
523.515343,-814.226536,-9252.574275,536.266849
523.515671,-740.205942,-9104.533087,306.438199
523.515998,-518.144159,-8956.491898,459.657299
523.516326,-592.164754,-8956.491898,612.876398
523.516653,-592.164754,-8882.471304,459.657299
523.516981,-740.205942,-8956.491898,383.047749
523.517308,-740.205942,-8956.491898,612.876398
523.517636,-814.226536,-8586.388927,842.705048
523.517963,-814.226536,-8734.430116,689.485948
523.518290,-592.164754,-9030.512492,689.485948
523.518618,-444.123565,-9030.512492,536.266849
523.518945,-296.082377,-9104.533087,689.485948
523.519273,-222.061783,-8882.471304,1149.143247
523.519600,0.000000,-9030.512492,612.876398
523.519928,0.000000,-8956.491898,536.266849
523.520255,0.000000,-9252.574275,689.485948
523.520583,-148.041188,-9030.512492,612.876398
523.520910,0.000000,-8808.450710,612.876398
523.521237,0.000000,-9030.512492,612.876398
523.521565,-444.123565,-9030.512492,383.047749
523.521892,-370.102971,-9104.533087,383.047749
523.522220,-518.144159,-8808.450710,306.438199
523.522547,-518.144159,-8586.388927,766.095498
523.522875,0.000000,-8660.409521,842.705048
523.523202,-444.123565,-8882.471304,229.828649
523.523529,-592.164754,-8808.450710,229.828649
523.523857,-518.144159,-8956.491898,306.438199
523.524184,-370.102971,-9104.533087,229.828649
523.524512,-296.082377,-8586.388927,766.095498
523.524839,0.000000,-8956.491898,306.438199
523.525167,0.000000,-8956.491898,536.266849
523.525494,0.000000,-9030.512492,459.657299
523.525822,0.000000,-8808.450710,459.657299
523.526149,0.000000,-8956.491898,0.000000
523.526476,-222.061783,-8956.491898,383.047749
523.526804,-296.082377,-9252.574275,383.047749
523.527131,-296.082377,-9104.533087,459.657299
523.527459,-296.082377,-9104.533087,689.485948
523.527786,0.000000,-9104.533087,766.095498
523.528114,0.000000,-8512.368333,689.485948
523.528441,0.000000,-9178.553681,689.485948
523.528769,-222.061783,-9104.533087,612.876398
523.529096,-296.082377,-9252.574275,689.485948
523.529423,-370.102971,-8882.471304,919.314598
523.529751,-222.061783,-9474.636058,1455.581446
523.530078,-444.123565,-9548.656652,612.876398
523.530406,-222.061783,-9474.636058,536.266849
523.530733,-222.061783,-9474.636058,383.047749
523.531061,-296.082377,-9474.636058,612.876398
523.531388,-222.061783,-9030.512492,689.485948
523.531715,0.000000,-9252.574275,383.047749
523.532043,0.000000,-9252.574275,536.266849
523.532370,-222.061783,-9400.615463,766.095498
523.532698,0.000000,-9474.636058,689.485948
523.533025,0.000000,-9326.594869,995.924147
523.533353,-148.041188,-9474.636058,536.266849
523.533680,-148.041188,-9474.636058,842.705048
523.534008,-296.082377,-9474.636058,612.876398
523.534335,-296.082377,-9400.615463,612.876398
523.534662,0.000000,-9104.533087,536.266849
523.534990,0.000000,-8956.491898,383.047749
523.535317,-444.123565,-9252.574275,459.657299
523.535645,-444.123565,-9400.615463,766.095498
523.535972,0.000000,-9474.636058,459.657299
523.536300,-296.082377,-9104.533087,153.219100
523.536627,-148.041188,-9474.636058,459.657299
523.536954,-296.082377,-9326.594869,612.876398
523.537282,0.000000,-9252.574275,536.266849
523.537609,148.041188,-9252.574275,383.047749
523.537937,0.000000,-9252.574275,536.266849
523.538264,-296.082377,-9178.553681,229.828649
523.538592,-518.144159,-9252.574275,612.876398
523.538919,-444.123565,-9400.615463,919.314598
523.539247,-296.082377,-9252.574275,536.266849
523.539574,-444.123565,-9104.533087,536.266849
523.539901,-740.205942,-8216.285956,306.438199
523.540229,0.000000,-8882.471304,612.876398
523.540556,-296.082377,-8660.409521,536.266849
523.540884,-518.144159,-8734.430116,383.047749
523.541211,-518.144159,-8734.430116,306.438199
523.541539,0.000000,-8660.409521,229.828649
523.541866,-222.061783,-8660.409521,229.828649
523.542194,-444.123565,-8956.491898,383.047749
523.542521,-444.123565,-9178.553681,536.266849
523.542848,-370.102971,-9030.512492,536.266849
523.543176,0.000000,-8808.450710,612.876398
523.543503,0.000000,-8586.388927,766.095498
523.543831,-148.041188,-8956.491898,229.828649
523.544158,-444.123565,-8882.471304,459.657299
523.544486,-370.102971,-8956.491898,536.266849
523.544813,-518.144159,-8956.491898,459.657299
523.545140,0.000000,-8956.491898,766.095498
523.545468,-222.061783,-8882.471304,842.705048
523.545795,-444.123565,-8660.409521,306.438199
523.546123,-370.102971,-8586.388927,306.438199
523.546450,-222.061783,-8660.409521,459.657299
523.546778,-370.102971,-8364.327145,536.266849
523.547105,-444.123565,-8734.430116,612.876398
523.547433,-666.185348,-9178.553681,612.876398
523.547760,-666.185348,-9178.553681,536.266849
523.548087,-592.164754,-9400.615463,612.876398
523.548415,-444.123565,-8734.430116,306.438199
523.548742,-148.041188,-9104.533087,919.314598
523.549070,0.000000,-8882.471304,459.657299
523.549397,0.000000,-8956.491898,536.266849
523.549725,-296.082377,-8956.491898,306.438199
523.550052,-592.164754,-9104.533087,459.657299
523.550380,-518.144159,-9326.594869,842.705048
523.550707,-296.082377,-9622.677246,766.095498
523.551034,-444.123565,-9622.677246,689.485948
523.551362,-222.061783,-9400.615463,766.095498
523.551689,0.000000,-9252.574275,766.095498
523.552017,0.000000,-9474.636058,306.438199
523.552344,-148.041188,-9104.533087,76.609550
523.552672,0.000000,-9104.533087,383.047749
523.552999,0.000000,-9178.553681,306.438199
523.553326,-148.041188,-9400.615463,919.314598
523.553654,-370.102971,-9252.574275,306.438199
523.553981,-444.123565,-9104.533087,1072.533697
523.554309,-222.061783,-9252.574275,766.095498
523.554636,0.000000,-9326.594869,612.876398
523.554964,0.000000,-9178.553681,459.657299
523.555291,0.000000,-8734.430116,229.828649
523.555619,74.020594,-9030.512492,995.924147
523.555946,-148.041188,-9474.636058,842.705048
523.556273,0.000000,-9622.677246,766.095498
523.556601,0.000000,-9696.697840,842.705048
523.556928,-222.061783,-9622.677246,689.485948
523.557256,-148.041188,-9326.594869,1225.752797
523.557583,-296.082377,-9326.594869,383.047749
523.557911,0.000000,-9252.574275,459.657299
523.558238,0.000000,-8808.450710,459.657299
523.558566,-296.082377,-8956.491898,306.438199
523.558893,-222.061783,-8808.450710,536.266849
523.559220,-296.082377,-9252.574275,536.266849
523.559548,-518.144159,-9104.533087,612.876398
523.559875,-370.102971,-9252.574275,536.266849
523.560203,-222.061783,-9474.636058,612.876398
523.560530,0.000000,-8956.491898,459.657299
523.560858,0.000000,-8734.430116,536.266849
523.561185,74.020594,-9030.512492,229.828649
523.561512,0.000000,-8882.471304,76.609550
523.561840,0.000000,-9326.594869,766.095498
523.562167,0.000000,-9030.512492,306.438199
523.562495,0.000000,-9252.574275,995.924147
523.562822,-148.041188,-9474.636058,612.876398
523.563150,-148.041188,-9326.594869,689.485948
523.563477,0.000000,-9104.533087,306.438199
523.563805,0.000000,-9030.512492,229.828649
523.564132,-296.082377,-8586.388927,153.219100
523.564459,0.000000,-8882.471304,383.047749
523.564787,-148.041188,-8882.471304,306.438199
523.565114,-296.082377,-8956.491898,383.047749
523.565442,-296.082377,-9030.512492,459.657299
523.565769,-370.102971,-8808.450710,612.876398
523.566097,-222.061783,-9252.574275,153.219100
523.566424,-296.082377,-9400.615463,229.828649
523.566751,-444.123565,-9104.533087,306.438199
523.567079,-296.082377,-8882.471304,459.657299
523.567406,0.000000,-9104.533087,229.828649
523.567734,0.000000,-8808.450710,842.705048
523.568061,-148.041188,-9400.615463,842.705048
523.568389,-370.102971,-9252.574275,766.095498
523.568716,-444.123565,-9400.615463,919.314598
523.569044,-592.164754,-9030.512492,1225.752797
523.569371,-370.102971,-9178.553681,1302.362347
523.569698,-518.144159,-9104.533087,536.266849
523.570026,-518.144159,-9030.512492,536.266849
523.570353,-444.123565,-9104.533087,536.266849
523.570681,-444.123565,-8882.471304,612.876398
523.571008,-148.041188,-9030.512492,995.924147
523.571336,-444.123565,-9178.553681,536.266849
523.571663,-518.144159,-9178.553681,919.314598
523.571991,-666.185348,-9178.553681,459.657299
523.572318,-740.205942,-9030.512492,919.314598
523.572645,-518.144159,-8956.491898,459.657299
523.572973,-222.061783,-9252.574275,536.266849
523.573300,-370.102971,-9252.574275,689.485948
523.573628,-370.102971,-9030.512492,612.876398
523.573955,-222.061783,-9178.553681,842.705048
523.574283,0.000000,-9326.594869,383.047749
523.574610,-444.123565,-8586.388927,995.924147
523.574937,-222.061783,-9178.553681,612.876398
523.575265,-222.061783,-9178.553681,536.266849
523.575592,-148.041188,-9252.574275,383.047749
523.575920,-592.164754,-9104.533087,766.095498
523.576247,-296.082377,-9178.553681,153.219100
523.576575,0.000000,-9178.553681,459.657299
523.576902,-296.082377,-8882.471304,459.657299
523.577230,-148.041188,-8956.491898,459.657299
523.577557,-222.061783,-9104.533087,766.095498
523.577884,0.000000,-9252.574275,306.438199
523.578212,-518.144159,-9030.512492,383.047749
523.578539,-296.082377,-9178.553681,229.828649
523.578867,0.000000,-9030.512492,689.485948
523.579194,0.000000,-8956.491898,689.485948
523.579522,74.020594,-9104.533087,76.609550
523.579849,0.000000,-8956.491898,766.095498
523.580177,-148.041188,-9104.533087,536.266849
523.580504,-296.082377,-9030.512492,689.485948
523.580831,-296.082377,-9104.533087,612.876398
523.581159,-370.102971,-9030.512492,229.828649
523.581486,-222.061783,-9104.533087,842.705048
523.581814,-518.144159,-8808.450710,153.219100
523.582141,-518.144159,-8956.491898,459.657299
523.582469,-518.144159,-8808.450710,536.266849
523.582796,-444.123565,-8956.491898,612.876398
523.583123,-444.123565,-8586.388927,612.876398
523.583451,-592.164754,-8956.491898,459.657299
523.583778,-666.185348,-9104.533087,536.266849
523.584106,-370.102971,-9252.574275,689.485948
523.584433,-296.082377,-9252.574275,612.876398
523.584761,0.000000,-9030.512492,919.314598
523.585088,222.061783,-9252.574275,536.266849
523.585416,0.000000,-9400.615463,536.266849
523.585744,-370.102971,-9252.574275,459.657299
523.586071,0.000000,-9474.636058,612.876398
523.586399,-222.061783,-9178.553681,766.095498
523.586726,222.061783,-9474.636058,689.485948
523.587054,0.000000,-9474.636058,536.266849
523.587381,-148.041188,-9326.594869,459.657299
523.587709,0.000000,-9104.533087,459.657299
523.588036,148.041188,-8808.450710,383.047749
523.588364,222.061783,-9252.574275,612.876398
523.588691,-148.041188,-9252.574275,689.485948
523.589019,-370.102971,-9252.574275,459.657299
523.589346,-370.102971,-9474.636058,459.657299
523.589674,-370.102971,-9400.615463,612.876398
523.590001,0.000000,-9326.594869,612.876398
523.590329,0.000000,-9474.636058,459.657299
523.590656,0.000000,-9400.615463,689.485948
523.590984,0.000000,-9178.553681,842.705048
523.591311,0.000000,-9400.615463,459.657299
523.591639,0.000000,-9400.615463,842.705048
523.591966,-148.041188,-9474.636058,536.266849
523.592294,-296.082377,-9326.594869,612.876398
523.592621,-148.041188,-9400.615463,612.876398
523.592949,-666.185348,-9326.594869,766.095498
523.593276,-666.185348,-9104.533087,766.095498
523.593604,0.000000,-9030.512492,842.705048
523.593931,-222.061783,-9030.512492,842.705048
523.594259,-148.041188,-8734.430116,459.657299
523.594586,-296.082377,-9104.533087,536.266849
523.594914,-592.164754,-9104.533087,-153.219100
523.595241,-370.102971,-9104.533087,459.657299
523.595569,-296.082377,-8882.471304,612.876398
523.595896,-296.082377,-9474.636058,536.266849
523.596224,-296.082377,-9474.636058,689.485948
523.596551,-370.102971,-9326.594869,612.876398
523.596879,0.000000,-8660.409521,459.657299
523.597207,0.000000,-8882.471304,153.219100
523.597534,-222.061783,-8956.491898,229.828649
523.597862,-148.041188,-9178.553681,459.657299
523.598189,-296.082377,-9104.533087,536.266849
523.598517,-148.041188,-8734.430116,842.705048
523.598844,-222.061783,-8808.450710,536.266849
523.599172,-666.185348,-9030.512492,612.876398
523.599499,-518.144159,-9030.512492,536.266849
523.599827,-148.041188,-8882.471304,459.657299
523.600154,0.000000,-8364.327145,306.438199
523.600482,-148.041188,-8438.347739,689.485948
523.600809,-296.082377,-8956.491898,383.047749
523.601137,-370.102971,-9030.512492,459.657299
523.601464,-444.123565,-8882.471304,459.657299
523.601792,-444.123565,-8808.450710,306.438199
523.602119,-370.102971,-9104.533087,306.438199
523.602447,-444.123565,-9104.533087,689.485948
523.602774,-296.082377,-8882.471304,306.438199
523.603102,-222.061783,-8882.471304,689.485948
523.603429,0.000000,-8956.491898,459.657299
523.603757,0.000000,-8734.430116,919.314598
523.604084,-444.123565,-8660.409521,689.485948
523.604412,-444.123565,-8956.491898,612.876398
523.604739,-370.102971,-9104.533087,612.876398
523.605067,-518.144159,-9104.533087,612.876398
523.605394,-888.247130,-8808.450710,842.705048
523.605722,-444.123565,-8734.430116,383.047749
523.606049,-444.123565,-8956.491898,306.438199
523.606377,-518.144159,-8956.491898,689.485948
523.606704,-592.164754,-8882.471304,383.047749
523.607032,-666.185348,-8734.430116,1302.362347
523.607359,-296.082377,-9030.512492,459.657299
523.607687,-444.123565,-9178.553681,689.485948
523.608014,-518.144159,-9178.553681,536.266849
523.608342,-444.123565,-9326.594869,689.485948
523.608670,-296.082377,-9622.677246,1149.143247
523.608997,0.000000,-8956.491898,766.095498
523.609325,0.000000,-9326.594869,306.438199
523.609652,0.000000,-9400.615463,459.657299
523.609980,-222.061783,-9326.594869,536.266849
523.610307,-222.061783,-9400.615463,612.876398
523.610635,0.000000,-8808.450710,919.314598
523.610962,-444.123565,-9474.636058,766.095498
523.611290,-148.041188,-9400.615463,612.876398
523.611617,-296.082377,-9178.553681,459.657299
523.611945,0.000000,-9104.533087,459.657299
523.612272,-222.061783,-8586.388927,919.314598
523.612600,0.000000,-8882.471304,306.438199
523.612927,-370.102971,-9178.553681,306.438199
523.613255,-444.123565,-9178.553681,612.876398
523.613582,-592.164754,-9326.594869,689.485948
523.613910,-518.144159,-9252.574275,766.095498
523.614237,-296.082377,-9400.615463,1072.533697
523.614565,0.000000,-9252.574275,766.095498
523.614892,148.041188,-9178.553681,612.876398
523.615220,0.000000,-9252.574275,459.657299
523.615547,0.000000,-9326.594869,383.047749
523.615875,-296.082377,-9178.553681,919.314598
523.616202,0.000000,-9326.594869,612.876398
523.616530,-296.082377,-9474.636058,459.657299
523.616857,-222.061783,-9474.636058,536.266849
523.617185,-296.082377,-9326.594869,612.876398
523.617512,518.144159,-9474.636058,612.876398
523.617840,0.000000,-9030.512492,0.000000
523.618167,-148.041188,-8660.409521,306.438199
523.618495,0.000000,-8808.450710,229.828649
523.618822,-370.102971,-8808.450710,306.438199
523.619150,-296.082377,-8882.471304,536.266849
523.619477,-370.102971,-9104.533087,842.705048
523.619805,-444.123565,-9326.594869,383.047749
523.620133,-148.041188,-9400.615463,612.876398
523.620460,0.000000,-9326.594869,383.047749
523.620788,0.000000,-8808.450710,0.000000
523.621115,0.000000,-9104.533087,306.438199
523.621443,0.000000,-9104.533087,306.438199
523.621770,0.000000,-9252.574275,383.047749
523.622098,-148.041188,-9326.594869,536.266849
523.622425,-444.123565,-9474.636058,536.266849
523.622753,-222.061783,-9252.574275,842.705048
523.623080,-444.123565,-9474.636058,459.657299
523.623408,-444.123565,-9326.594869,306.438199
523.623735,-222.061783,-8956.491898,459.657299
523.624063,-222.061783,-8586.388927,612.876398
523.624390,148.041188,-8660.409521,459.657299
523.624718,-222.061783,-8808.450710,153.219100
523.625045,-518.144159,-8956.491898,459.657299
523.625373,-740.205942,-8808.450710,306.438199
523.625700,-444.123565,-9178.553681,689.485948
523.626028,-370.102971,-9030.512492,919.314598
523.626355,0.000000,-9252.574275,919.314598
523.626683,-148.041188,-8956.491898,536.266849
523.627010,-296.082377,-8734.430116,459.657299
523.627338,-222.061783,-9030.512492,536.266849
523.627665,-222.061783,-8734.430116,536.266849
523.627993,0.000000,-9252.574275,842.705048
523.628320,-296.082377,-9474.636058,842.705048
523.628648,-444.123565,-9474.636058,766.095498
523.628975,-518.144159,-9400.615463,612.876398
523.629303,-370.102971,-9178.553681,766.095498
523.629630,0.000000,-8808.450710,459.657299
523.629958,-222.061783,-8882.471304,536.266849
523.630285,-444.123565,-8956.491898,459.657299
523.630613,-444.123565,-9030.512492,459.657299
523.630940,-444.123565,-8956.491898,766.095498
523.631268,-370.102971,-8956.491898,995.924147
523.631596,-296.082377,-9400.615463,766.095498
523.631923,-444.123565,-9104.533087,766.095498
523.632251,-518.144159,-9104.533087,689.485948
523.632578,-370.102971,-8956.491898,536.266849
523.632906,-444.123565,-8586.388927,383.047749
523.633233,0.000000,-8956.491898,689.485948
523.633561,-148.041188,-9030.512492,612.876398
523.633888,-518.144159,-9178.553681,842.705048
523.634216,-518.144159,-9474.636058,536.266849
523.634543,-666.185348,-9548.656652,76.609550
523.634871,-370.102971,-9252.574275,536.266849
523.635198,-296.082377,-9178.553681,536.266849
523.635526,-296.082377,-9030.512492,536.266849
523.635853,0.000000,-8956.491898,153.219100
523.636181,-222.061783,-8808.450710,383.047749
523.636508,222.061783,-8808.450710,689.485948
523.636836,-518.144159,-8956.491898,536.266849
523.637163,-592.164754,-9104.533087,766.095498
523.637491,-370.102971,-9178.553681,536.266849
523.637818,-296.082377,-9400.615463,306.438199
523.638146,-296.082377,-8660.409521,536.266849
523.638473,0.000000,-9030.512492,383.047749
523.638801,0.000000,-9030.512492,383.047749
523.639128,74.020594,-9030.512492,536.266849
523.639456,-370.102971,-9030.512492,536.266849
523.639783,-592.164754,-9252.574275,766.095498
523.640111,-592.164754,-9252.574275,612.876398
523.640438,-518.144159,-9400.615463,689.485948
523.640766,-370.102971,-9252.574275,306.438199
523.641093,0.000000,-9252.574275,459.657299
523.641421,148.041188,-9104.533087,919.314598
523.641748,0.000000,-8956.491898,612.876398
523.642076,-296.082377,-8808.450710,153.219100
523.642404,-296.082377,-9104.533087,229.828649
523.642731,0.000000,-9178.553681,229.828649
523.643059,0.000000,-9474.636058,612.876398
523.643386,222.061783,-9696.697840,383.047749
523.643714,0.000000,-9326.594869,536.266849
523.644041,0.000000,-9474.636058,536.266849
523.644369,0.000000,-9474.636058,383.047749
523.644696,74.020594,-9178.553681,306.438199
523.645024,0.000000,-8808.450710,76.609550
523.645351,148.041188,-9030.512492,612.876398
523.645679,74.020594,-9474.636058,612.876398
523.646006,0.000000,-9474.636058,689.485948
523.646334,0.000000,-9326.594869,689.485948
523.646661,0.000000,-9252.574275,383.047749
523.646989,-444.123565,-8956.491898,536.266849
523.647316,-444.123565,-9178.553681,306.438199
523.647644,-296.082377,-9178.553681,383.047749
523.647971,-222.061783,-9178.553681,306.438199
523.648299,0.000000,-9474.636058,459.657299
523.648626,-444.123565,-9326.594869,842.705048
523.648954,-296.082377,-9474.636058,689.485948
523.649281,-592.164754,-9548.656652,766.095498
523.649609,-444.123565,-9474.636058,766.095498
523.649936,-370.102971,-9326.594869,612.876398
523.650264,0.000000,-8956.491898,536.266849
523.650591,0.000000,-9178.553681,689.485948
523.650919,-148.041188,-9252.574275,766.095498
523.651246,-296.082377,-9252.574275,689.485948
523.651574,-370.102971,-9178.553681,612.876398
523.651901,0.000000,-8956.491898,919.314598
523.652229,-296.082377,-9030.512492,689.485948
523.652556,-444.123565,-9326.594869,919.314598
523.652884,-518.144159,-9178.553681,995.924147
523.653211,-444.123565,-8734.430116,766.095498
523.653539,-148.041188,-8586.388927,459.657299
523.653867,-74.020594,-8586.388927,995.924147
523.654194,-444.123565,-8956.491898,536.266849
523.654522,-222.061783,-9030.512492,459.657299
523.654849,-296.082377,-9030.512492,612.876398
523.655177,-296.082377,-9178.553681,842.705048
523.655504,-296.082377,-9030.512492,1072.533697
523.655832,-148.041188,-9178.553681,383.047749
523.656159,0.000000,-9178.553681,536.266849
523.656487,0.000000,-9178.553681,306.438199
523.656814,-296.082377,-9474.636058,612.876398
523.657142,0.000000,-9104.533087,1455.581446
523.657469,0.000000,-9178.553681,383.047749
523.657797,0.000000,-9104.533087,383.047749
523.658124,-296.082377,-8956.491898,306.438199
523.658452,-444.123565,-9030.512492,306.438199
523.658779,-444.123565,-8808.450710,919.314598
523.659107,-370.102971,-8660.409521,689.485948
523.659434,-222.061783,-8660.409521,536.266849
523.659762,-296.082377,-8660.409521,536.266849
523.660089,-296.082377,-8882.471304,229.828649
523.660417,-444.123565,-9030.512492,0.000000
523.660744,-296.082377,-9030.512492,842.705048
523.661072,-666.185348,-9030.512492,766.095498
523.661399,-666.185348,-9104.533087,612.876398
523.661727,-592.164754,-9104.533087,689.485948
523.662054,-370.102971,-9104.533087,689.485948
523.662382,0.000000,-8882.471304,1072.533697
523.662709,-444.123565,-9104.533087,612.876398
523.663037,-296.082377,-9178.553681,766.095498
523.663364,-296.082377,-9252.574275,612.876398
523.663692,-444.123565,-8882.471304,536.266849
523.664019,0.000000,-9178.553681,536.266849
523.664347,-444.123565,-8882.471304,383.047749
523.664674,-592.164754,-9178.553681,536.266849
523.665002,-444.123565,-9252.574275,459.657299
523.665330,-296.082377,-9104.533087,459.657299
523.665657,-814.226536,-8586.388927,689.485948
523.665985,0.000000,-9326.594869,383.047749
523.666312,-148.041188,-8882.471304,229.828649
523.666640,-148.041188,-8882.471304,306.438199
523.666967,0.000000,-9104.533087,306.438199
523.667295,0.000000,-8956.491898,229.828649
523.667622,0.000000,-9178.553681,459.657299
523.667950,0.000000,-9474.636058,153.219100
523.668277,0.000000,-9400.615463,229.828649
523.668605,0.000000,-9474.636058,383.047749
523.668932,148.041188,-9474.636058,383.047749
523.669260,148.041188,-9474.636058,153.219100
523.669587,148.041188,-9326.594869,383.047749
523.669915,0.000000,-9474.636058,536.266849
523.670242,-148.041188,-9474.636058,689.485948
523.670570,-148.041188,-9252.574275,612.876398
523.670897,0.000000,-9104.533087,1149.143247
523.671225,0.000000,-9178.553681,383.047749
523.671552,-370.102971,-9104.533087,536.266849
523.671880,-296.082377,-9178.553681,612.876398
523.672207,-444.123565,-8956.491898,842.705048
523.672535,-592.164754,-8734.430116,842.705048
523.672862,0.000000,-8956.491898,766.095498
523.673190,-592.164754,-9104.533087,919.314598
523.673517,-592.164754,-9326.594869,919.314598
523.673845,-296.082377,-9400.615463,1072.533697
523.674172,-296.082377,-9104.533087,689.485948
523.674500,0.000000,-9030.512492,1302.362347
523.674827,-222.061783,-9326.594869,689.485948
523.675155,-370.102971,-9178.553681,842.705048
523.675482,-296.082377,-9030.512492,612.876398
523.675810,-222.061783,-9178.553681,842.705048
523.676137,-148.041188,-9252.574275,766.095498
523.676465,0.000000,-9326.594869,612.876398
523.676793,-370.102971,-9252.574275,919.314598
523.677120,-518.144159,-9252.574275,459.657299
523.677448,-296.082377,-8882.471304,536.266849
523.677775,-148.041188,-8512.368333,689.485948
523.678103,0.000000,-8882.471304,306.438199
523.678430,0.000000,-8956.491898,383.047749
523.678758,-222.061783,-8882.471304,459.657299
523.679085,-296.082377,-9178.553681,229.828649
523.679413,-370.102971,-9104.533087,459.657299
523.679740,0.000000,-8956.491898,383.047749
523.680068,0.000000,-9474.636058,383.047749
523.680395,148.041188,-9104.533087,536.266849
523.680723,222.061783,-9252.574275,383.047749
523.681050,0.000000,-9400.615463,229.828649
523.681378,296.082377,-9252.574275,153.219100
523.681705,-296.082377,-9030.512492,536.266849
523.682033,-222.061783,-9474.636058,153.219100
523.682361,-444.123565,-9326.594869,536.266849
523.682688,-444.123565,-9030.512492,459.657299
523.683016,-518.144159,-8734.430116,689.485948
523.683344,-296.082377,-8734.430116,766.095498
523.683671,-444.123565,-8660.409521,229.828649
523.683999,-370.102971,-8438.347739,383.047749
523.684326,-518.144159,-8734.430116,306.438199
523.684654,-370.102971,-9178.553681,229.828649
523.684982,-740.205942,-8734.430116,842.705048
523.685309,-444.123565,-9104.533087,383.047749
523.685637,-592.164754,-8882.471304,536.266849
523.685964,0.000000,-9178.553681,766.095498
523.686292,-370.102971,-8734.430116,1072.533697
523.686620,0.000000,-8586.388927,1072.533697
523.686947,-222.061783,-9030.512492,536.266849
523.687275,-148.041188,-9104.533087,612.876398
523.687602,-444.123565,-9104.533087,383.047749
523.687930,-370.102971,-9400.615463,689.485948
523.688257,-296.082377,-9252.574275,766.095498
523.688585,-592.164754,-9326.594869,689.485948
523.688913,-666.185348,-9178.553681,612.876398
523.689240,-148.041188,-8808.450710,306.438199
523.689568,-148.041188,-8808.450710,306.438199
523.689895,0.000000,-8660.409521,306.438199
523.690223,-148.041188,-8734.430116,76.609550
523.690551,-444.123565,-9104.533087,536.266849
523.690878,-518.144159,-9326.594869,459.657299
523.691206,-518.144159,-9326.594869,536.266849
523.691533,-370.102971,-9400.615463,842.705048
523.691861,-296.082377,-9400.615463,612.876398
523.692189,0.000000,-9178.553681,766.095498
523.692516,-222.061783,-9030.512492,459.657299
523.692844,-148.041188,-8956.491898,842.705048
523.693171,-296.082377,-8882.471304,536.266849
523.693499,0.000000,-9030.512492,1072.533697
523.693826,-518.144159,-9326.594869,842.705048
523.694154,-296.082377,-9400.615463,766.095498
523.694482,-370.102971,-9548.656652,766.095498
523.694809,-518.144159,-9400.615463,612.876398
523.695137,0.000000,-8660.409521,766.095498
523.695464,0.000000,-8882.471304,612.876398
523.695792,0.000000,-8808.450710,689.485948
523.696120,0.000000,-8956.491898,459.657299
523.696447,-370.102971,-9104.533087,536.266849
523.696775,-370.102971,-8956.491898,689.485948
523.697102,-370.102971,-9474.636058,766.095498
523.697430,-370.102971,-9400.615463,306.438199
523.697758,-148.041188,-9400.615463,766.095498
523.698085,0.000000,-9252.574275,536.266849
523.698413,0.000000,-9030.512492,612.876398
523.698740,222.061783,-9104.533087,689.485948
523.699068,296.082377,-9030.512492,459.657299
523.699395,148.041188,-9474.636058,306.438199
523.699723,0.000000,-9474.636058,306.438199
523.700051,0.000000,-9844.739029,-229.828649
523.700378,148.041188,-9622.677246,306.438199
523.700706,0.000000,-9474.636058,536.266849
523.701033,0.000000,-9178.553681,536.266849
523.701361,0.000000,-8956.491898,306.438199
523.701689,0.000000,-9030.512492,306.438199
523.702016,0.000000,-8660.409521,689.485948
523.702344,-444.123565,-9030.512492,306.438199
523.702671,-370.102971,-9252.574275,612.876398
523.702999,-592.164754,-9326.594869,766.095498
523.703327,-296.082377,-9178.553681,612.876398
523.703654,-518.144159,-8882.471304,842.705048
523.703982,0.000000,-9252.574275,459.657299
523.704309,-296.082377,-8808.450710,689.485948
523.704637,-222.061783,-9030.512492,459.657299
523.704965,-148.041188,-9030.512492,689.485948
523.705292,-222.061783,-9252.574275,536.266849
523.705620,-148.041188,-9178.553681,1225.752797
523.705947,-222.061783,-9400.615463,842.705048
523.706275,-222.061783,-9474.636058,766.095498
523.706602,-296.082377,-9400.615463,612.876398
523.706930,-222.061783,-9104.533087,995.924147
523.707258,0.000000,-8956.491898,766.095498
523.707585,-148.041188,-8882.471304,536.266849
523.707913,-296.082377,-8956.491898,536.266849
523.708240,-370.102971,-8882.471304,459.657299
523.708568,-518.144159,-9178.553681,459.657299
523.708896,0.000000,-9474.636058,842.705048
523.709223,-222.061783,-9326.594869,383.047749
523.709551,-222.061783,-9178.553681,459.657299
523.709878,-222.061783,-9104.533087,306.438199
523.710206,0.000000,-9178.553681,306.438199
523.710534,0.000000,-8808.450710,459.657299
523.710861,-148.041188,-8956.491898,612.876398
523.711189,-296.082377,-9104.533087,459.657299
523.711516,-296.082377,-9252.574275,766.095498
523.711844,-444.123565,-9252.574275,536.266849
523.712171,-222.061783,-9400.615463,306.438199
523.712499,-518.144159,-9178.553681,919.314598
523.712827,-296.082377,-9178.553681,459.657299
523.713154,0.000000,-8956.491898,766.095498
523.713482,-222.061783,-8808.450710,153.219100
523.713809,-296.082377,-8660.409521,306.438199
523.714137,-740.205942,-8660.409521,689.485948
523.714465,-666.185348,-9326.594869,383.047749
523.714792,-740.205942,-9252.574275,612.876398
523.715120,-444.123565,-9252.574275,689.485948
523.715447,-148.041188,-9104.533087,766.095498
523.715775,-148.041188,-9104.533087,766.095498
523.716103,74.020594,-8956.491898,536.266849
523.716430,-222.061783,-9104.533087,536.266849
523.716758,-370.102971,-9104.533087,842.705048
523.717085,-370.102971,-9252.574275,612.876398
523.717413,-666.185348,-8882.471304,842.705048
523.717740,-518.144159,-9252.574275,766.095498
523.718068,-370.102971,-9474.636058,766.095498
523.718396,-296.082377,-9178.553681,536.266849
523.718723,-296.082377,-9030.512492,383.047749
523.719051,0.000000,-8512.368333,459.657299
523.719378,-148.041188,-8660.409521,229.828649
523.719706,-296.082377,-8660.409521,306.438199
523.720034,-296.082377,-8956.491898,76.609550
523.720361,-296.082377,-9104.533087,536.266849
523.720689,-518.144159,-9178.553681,536.266849
523.721016,-148.041188,-9104.533087,995.924147
523.721344,-370.102971,-9474.636058,612.876398
523.721672,0.000000,-9326.594869,229.828649
523.721999,0.000000,-9326.594869,306.438199
523.722327,0.000000,-9178.553681,76.609550
523.722654,0.000000,-9400.615463,919.314598
523.722982,148.041188,-9474.636058,459.657299
523.723309,0.000000,-9548.656652,459.657299
523.723637,0.000000,-9474.636058,536.266849
523.723965,-296.082377,-9326.594869,612.876398
523.724292,-370.102971,-8956.491898,536.266849
523.724620,0.000000,-9326.594869,306.438199
523.724947,-148.041188,-9104.533087,459.657299
523.725275,-222.061783,-8882.471304,536.266849
523.725603,0.000000,-8586.388927,612.876398
523.725930,-518.144159,-8956.491898,383.047749
523.726258,-592.164754,-9252.574275,306.438199
523.726585,-740.205942,-9252.574275,612.876398
523.726913,-444.123565,-9178.553681,612.876398
523.727241,-444.123565,-8956.491898,612.876398
523.727568,-444.123565,-9030.512492,689.485948
523.727896,0.000000,-8956.491898,1302.362347
523.728223,-296.082377,-8956.491898,612.876398
523.728551,-148.041188,-9030.512492,612.876398
523.728878,0.000000,-8956.491898,689.485948
523.729206,-148.041188,-9400.615463,689.485948
523.729534,0.000000,-9400.615463,153.219100
523.729861,-296.082377,-9030.512492,459.657299
523.730189,0.000000,-9326.594869,536.266849
523.730516,-222.061783,-9474.636058,459.657299
523.730844,-296.082377,-9252.574275,459.657299
523.731172,-444.123565,-8586.388927,689.485948
523.731499,74.020594,-9178.553681,536.266849
523.731827,0.000000,-8956.491898,383.047749
523.732154,-370.102971,-9252.574275,306.438199
523.732482,-296.082377,-9178.553681,383.047749
523.732810,0.000000,-8660.409521,306.438199
523.733137,-222.061783,-9104.533087,536.266849
523.733465,-296.082377,-9178.553681,306.438199
523.733792,-296.082377,-9030.512492,306.438199
523.734120,-296.082377,-9178.553681,229.828649
523.734447,-222.061783,-9030.512492,459.657299
523.734775,-148.041188,-9030.512492,0.000000
523.735103,-444.123565,-9252.574275,766.095498
523.735430,-296.082377,-9400.615463,536.266849
523.735758,-296.082377,-9326.594869,612.876398
523.736085,-148.041188,-9400.615463,612.876398
523.736413,-370.102971,-9104.533087,459.657299
523.736741,0.000000,-8956.491898,383.047749
523.737068,-444.123565,-9030.512492,689.485948
523.737396,-592.164754,-8956.491898,536.266849
523.737723,-592.164754,-8882.471304,766.095498
523.738051,-592.164754,-8142.265362,842.705048
523.738379,0.000000,-8956.491898,536.266849
523.738706,-444.123565,-8882.471304,842.705048
523.739034,-740.205942,-9030.512492,612.876398
523.739361,-518.144159,-9030.512492,612.876398
523.739689,-740.205942,-8808.450710,612.876398
523.740016,0.000000,-8882.471304,536.266849
523.740344,-148.041188,-8734.430116,536.266849
523.740672,0.000000,-9030.512492,536.266849
523.740999,-296.082377,-8808.450710,612.876398
523.741327,-222.061783,-8808.450710,536.266849
523.741654,-296.082377,-8734.430116,766.095498
523.741982,-370.102971,-8882.471304,229.828649
523.742310,-370.102971,-9252.574275,689.485948
523.742637,-296.082377,-9178.553681,459.657299
523.742965,-296.082377,-9252.574275,306.438199
523.743292,0.000000,-8512.368333,536.266849
523.743620,74.020594,-8882.471304,459.657299
523.743948,0.000000,-8808.450710,306.438199
523.744275,0.000000,-9030.512492,459.657299
523.744603,-148.041188,-8956.491898,306.438199
523.744930,-222.061783,-8734.430116,459.657299
523.745258,-148.041188,-8882.471304,306.438199
523.745585,0.000000,-9104.533087,612.876398
523.745913,0.000000,-9104.533087,383.047749
523.746241,-148.041188,-9104.533087,536.266849
523.746568,0.000000,-8956.491898,612.876398
523.746896,222.061783,-8734.430116,919.314598
523.747223,-222.061783,-8882.471304,536.266849
523.747551,-518.144159,-8882.471304,536.266849
523.747879,-222.061783,-9178.553681,536.266849
523.748206,-518.144159,-9252.574275,612.876398
523.748534,0.000000,-9030.512492,995.924147
523.748861,-296.082377,-9252.574275,919.314598
523.749189,-370.102971,-9030.512492,612.876398
523.749517,-370.102971,-9104.533087,766.095498
523.749844,-518.144159,-9178.553681,383.047749
523.750172,-444.123565,-8956.491898,689.485948
523.750499,-666.185348,-9252.574275,459.657299
523.750827,-444.123565,-9400.615463,612.876398
523.751154,-444.123565,-9622.677246,842.705048
523.751482,-444.123565,-9474.636058,689.485948
523.751810,-370.102971,-9178.553681,459.657299
523.752137,0.000000,-9326.594869,76.609550
523.752465,0.000000,-9252.574275,612.876398
523.752792,0.000000,-9252.574275,612.876398
523.753120,0.000000,-9326.594869,536.266849
523.753448,0.000000,-9400.615463,612.876398
523.753775,-222.061783,-9252.574275,459.657299
523.754103,-370.102971,-9400.615463,612.876398
523.754430,-222.061783,-9400.615463,689.485948
523.754758,0.000000,-9030.512492,612.876398
523.755086,-222.061783,-8882.471304,383.047749
523.755413,-444.123565,-8734.430116,689.485948
523.755741,-370.102971,-9178.553681,153.219100
523.756068,-444.123565,-9178.553681,76.609550
523.756396,-148.041188,-9104.533087,229.828649
523.756723,-370.102971,-9252.574275,536.266849
