#time,accel_x,accel_y,accel_z
511.158745,-370.102971,-8882.471304,919.314598
511.159073,-148.041188,-9326.594869,766.095498
511.159400,-370.102971,-9178.553681,689.485948
511.159728,-222.061783,-8882.471304,459.657299
511.160056,-148.041188,-9252.574275,689.485948
511.160384,-74.020594,-8956.491898,689.485948
511.160711,-148.041188,-9030.512492,689.485948
511.161039,-222.061783,-9178.553681,689.485948
511.161367,-222.061783,-8882.471304,612.876398
511.161695,-222.061783,-9326.594869,689.485948
511.162022,-148.041188,-9252.574275,766.095498
511.162350,-148.041188,-8956.491898,459.657299
511.162678,-518.144159,-9178.553681,459.657299
511.163006,-296.082377,-9252.574275,459.657299
511.163333,-296.082377,-9178.553681,536.266849
511.163661,-370.102971,-9178.553681,689.485948
511.163989,-296.082377,-8882.471304,306.438199
511.164317,-370.102971,-9030.512492,536.266849
511.164644,-148.041188,-9104.533087,459.657299
511.164972,-148.041188,-9178.553681,459.657299
511.165300,-148.041188,-9326.594869,612.876398
511.165628,-370.102971,-8882.471304,229.828649
511.165955,0.000000,-9030.512492,536.266849
511.166283,-222.061783,-9326.594869,689.485948
511.166611,-370.102971,-9030.512492,766.095498
511.166939,-296.082377,-9326.594869,383.047749
511.167266,-296.082377,-9030.512492,612.876398
511.167594,0.000000,-9178.553681,612.876398
511.167922,0.000000,-9030.512492,612.876398
511.168250,-296.082377,-9400.615463,536.266849
511.168577,-962.267725,-9326.594869,153.219100
511.168905,-1332.370696,-9548.656652,0.000000
511.169233,-1184.329507,-9104.533087,0.000000
511.169561,-1184.329507,-8956.491898,-459.657299
511.169888,-740.205942,-8882.471304,-229.828649
511.170216,-518.144159,-8808.450710,-536.266849
511.170544,-814.226536,-9030.512492,-612.876398
511.170872,-1258.350101,-8808.450710,-536.266849
511.171199,-888.247130,-9252.574275,-995.924147
511.171527,-1184.329507,-9030.512492,-1149.143247
511.171855,-888.247130,-9178.553681,-1685.410096
511.172183,-444.123565,-9400.615463,-1455.581446
511.172510,0.000000,-8956.491898,-995.924147
511.172838,148.041188,-8956.491898,-919.314598
511.173166,0.000000,-9178.553681,-1378.971896
511.173494,0.000000,-9252.574275,-1532.190996
511.173821,0.000000,-9252.574275,-1685.410096
511.174149,0.000000,-9252.574275,-1685.410096
511.174477,370.102971,-9326.594869,-1838.629195
511.174805,0.000000,-9252.574275,-1532.190996
511.175132,222.061783,-9474.636058,-1685.410096
511.175460,518.144159,-9474.636058,-1532.190996
511.175788,592.164754,-9178.553681,-1608.800546
511.176116,444.123565,-9178.553681,-1608.800546
511.176443,296.082377,-9326.594869,-1532.190996
511.176771,0.000000,-9474.636058,-1838.629195
511.177099,148.041188,-9400.615463,-1762.019645
511.177427,0.000000,-9252.574275,-1991.848295
511.177754,0.000000,-9030.512492,-1455.581446
511.178082,-222.061783,-9252.574275,-1991.848295
511.178410,-444.123565,-9252.574275,-1991.848295
511.178738,-814.226536,-9252.574275,-2068.457845
511.179065,-1036.288319,-9104.533087,-2374.896044
511.179393,-1332.370696,-9400.615463,-2451.505594
511.179721,-1184.329507,-9178.553681,-2604.724693
511.180049,-2072.576638,-9030.512492,-3064.381992
511.180376,-2220.617826,-8956.491898,-3064.381992
511.180704,-1998.556043,-8956.491898,-3217.601092
511.181032,-2072.576638,-9030.512492,-3524.039291
511.181360,-1924.535449,-8586.388927,-3447.429741
511.181687,-1850.514855,-9030.512492,-4060.306139
511.182015,-1776.494261,-9104.533087,-4290.134789
511.182343,-1628.453072,-9030.512492,-4366.744339
511.182671,-1184.329507,-9104.533087,-4136.915689
511.182998,-444.123565,-8364.327145,-3370.820191
511.183326,518.144159,-8882.471304,-3447.429741
511.183654,1110.308913,-9030.512492,-2987.772442
511.183982,1850.514855,-8808.450710,-2604.724693
511.184309,2368.659014,-9030.512492,-2451.505594
511.184637,2220.617826,-8808.450710,-1685.410096
511.184965,2368.659014,-9622.677246,-1915.238745
511.185293,1554.432478,-10140.821405,-2298.286494
511.185620,444.123565,-10436.903782,-2528.115143
511.185948,-592.164754,-10436.903782,-3524.039291
511.186276,-1258.350101,-10436.903782,-3753.867940
511.186604,-1332.370696,-10214.842000,-4290.134789
511.186931,-1702.473667,-9844.739029,-4826.401637
511.187259,-962.267725,-8956.491898,-4903.011187
511.187587,296.082377,-7846.182985,-4366.744339
511.187915,1850.514855,-7105.977043,-3753.867940
511.188242,2738.761985,-6883.915261,-2757.943793
511.188570,2960.823768,-7550.100608,-2374.896044
511.188898,1628.453072,-8216.285956,-1915.238745
511.189226,0.000000,-9474.636058,-1838.629195
511.189553,-2220.617826,-10658.965565,-2145.067394
511.189881,-3775.050304,-11251.130318,-2604.724693
511.190209,-4367.215058,-11029.068536,-3370.820191
511.190537,-2516.700203,-10140.821405,-2221.676944
511.190864,2294.638420,-7920.203579,-612.876398
511.191192,7476.080014,-5773.606348,1915.238745
511.191520,10955.047942,-4737.318029,4366.744339
511.191848,10288.862594,-6069.688724,4596.572988
511.192175,5847.626942,-9178.553681,4213.525239
511.192503,-370.102971,-11399.171507,2451.505594
511.192831,-6365.771101,-13323.706956,76.609550
511.193159,-10140.821405,-14582.057057,-1532.190996
511.193486,-12139.377449,-14137.933492,-2528.115143
511.193814,-11399.171507,-12583.501014,-3370.820191
511.194142,-8438.347739,-9474.636058,-4290.134789
511.194470,-3849.070898,-7254.018232,-2451.505594
511.194797,-1554.432478,-4145.153275,-4213.525239
511.195125,1406.391290,-3701.029710,-3677.258390
511.195453,-1924.535449,-5477.523971,-5132.839837
511.195781,-5551.544565,-6883.915261,-6588.421283
511.196108,-10214.842000,-9178.553681,-8044.002729
511.196436,-12509.480420,-9770.718434,-9422.974625
511.196764,-9918.759623,-9770.718434,-8350.440928
511.197092,-6883.915261,-8882.471304,-6894.859482
511.197419,1184.329507,-7698.141797,-5286.058936
511.197747,5329.482782,-6809.894666,-3447.429741
511.198075,8734.430116,-7254.018232,-3370.820191
511.198403,8364.327145,-9104.533087,-4060.306139
511.198730,4885.359217,-10510.924376,-4979.620737
511.199058,4441.235652,-11621.233289,-6205.373534
511.199386,5847.626942,-11473.192101,-5975.544884
511.199714,9030.512492,-9622.677246,-4060.306139
511.200041,12509.480420,-9696.697840,-842.705048
511.200369,12509.480420,-9992.780217,153.219100
511.200697,10881.027347,-9696.697840,0.000000
511.201025,9326.594869,-11177.109724,-842.705048
511.201352,6069.688724,-10732.986159,-2451.505594
511.201680,5773.606348,-10510.924376,-1225.752797
511.202008,5033.400406,-10436.903782,-995.924147
511.202336,-2294.638420,-12361.439231,-3217.601092
511.202663,-7846.182985,-13175.665768,-4903.011187
511.202991,-11917.315666,-12287.418637,-6894.859482
511.203319,-13619.789333,-7105.977043,-8350.440928
511.203647,-7772.162391,-3034.844362,-7124.688131
511.203974,0.000000,-1258.350101,-5439.278036
511.204302,1998.556043,-1480.411884,-2987.772442
511.204630,2960.823768,-1702.473667,-2298.286494
511.204958,1110.308913,-3701.029710,-842.705048
511.205285,-2442.679609,-5477.523971,-1455.581446
511.205613,-3182.885551,-7402.059420,76.609550
511.205941,-4811.338623,-10214.842000,0.000000
511.206269,-4293.194464,-11103.089130,1532.190996
511.206596,-3182.885551,-11621.233289,3983.696590
511.206924,-888.247130,-11103.089130,5745.716235
511.207252,2072.576638,-8956.491898,6128.763984
511.207580,4145.153275,-9400.615463,5286.058936
511.207907,3478.967927,-11177.109724,3370.820191
511.208235,-1036.288319,-12657.521608,1302.362347
511.208563,-2812.782580,-11547.212695,76.609550
511.208891,-2368.659014,-9252.574275,-689.485948
511.209218,666.185348,-7772.162391,1302.362347
511.209546,1850.514855,-7994.224174,1685.410096
511.209874,-1258.350101,-9622.677246,842.705048
511.210202,-4589.276840,-9696.697840,1378.971896
511.210529,-5181.441594,-8586.388927,383.047749
511.210857,-6439.791695,-10288.862594,76.609550
511.211185,-4959.379811,-9770.718434,-612.876398
511.211513,-4589.276840,-11399.171507,-1149.143247
511.211840,-6439.791695,-10510.924376,-1685.410096
511.212168,-6809.894666,-8290.306550,-1685.410096
511.212496,-4219.173869,-5773.606348,-1378.971896
511.212824,-1110.308913,-4589.276840,-1838.629195
511.213151,-370.102971,-6661.853478,-2757.943793
511.213479,296.082377,-8660.409521,-3983.696590
511.213807,592.164754,-8808.450710,-4366.744339
511.214135,3627.009116,-8068.244768,-3064.381992
511.214462,5107.421000,-9178.553681,-1378.971896
511.214790,6291.750507,-11547.212695,-842.705048
511.215118,5699.585753,-14211.954086,-766.095498
511.215446,5403.503377,-14285.974681,0.000000
511.215773,4071.132681,-12287.418637,383.047749
511.216101,3182.885551,-11843.295072,766.095498
511.216429,3330.926739,-12287.418637,842.705048
511.216757,3182.885551,-12583.501014,766.095498
511.217084,4515.256246,-10955.047942,1455.581446
511.217412,5477.523971,-8364.327145,1685.410096
511.217740,4071.132681,-7550.100608,1072.533697
511.218068,1702.473667,-8142.265362,766.095498
511.218395,-740.205942,-8364.327145,-1532.190996
511.218723,-4293.194464,-7994.224174,-1762.019645
511.219051,-3034.844362,-6143.709319,-1762.019645
511.219379,-3256.906145,-5477.523971,-1149.143247
511.219706,-4441.235652,-6735.874072,-842.705048
511.220034,-4219.173869,-7550.100608,-459.657299
511.220362,-2738.761985,-7105.977043,689.485948
511.220690,-1554.432478,-6809.894666,153.219100
511.221017,-2368.659014,-7772.162391,76.609550
511.221345,-5773.606348,-8734.430116,-459.657299
511.221673,-7105.977043,-9252.574275,-536.266849
511.222001,-6217.729913,-8660.409521,-229.828649
511.222328,-3256.906145,-7179.997637,153.219100
511.222656,0.000000,-7328.038826,1762.019645
511.222984,518.144159,-7994.224174,1685.410096
511.223312,814.226536,-8956.491898,2068.457845
511.223639,1924.535449,-9104.533087,2451.505594
511.223967,1924.535449,-8734.430116,1532.190996
511.224295,1258.350101,-9696.697840,1149.143247
511.224623,-592.164754,-10510.924376,459.657299
511.224951,-1332.370696,-10510.924376,383.047749
511.225278,0.000000,-8882.471304,919.314598
511.225606,1924.535449,-7994.224174,1685.410096
511.225934,2886.803174,-8142.265362,1991.848295
511.226262,2516.700203,-7846.182985,1302.362347
511.226589,1998.556043,-8364.327145,1915.238745
511.226917,2294.638420,-7550.100608,1991.848295
511.227245,2146.597232,-8068.244768,2145.067394
511.227573,0.000000,-9030.512492,76.609550
511.227900,-592.164754,-9622.677246,842.705048
511.228228,-222.061783,-8882.471304,536.266849
511.228556,-592.164754,-9252.574275,1608.800546
511.228884,370.102971,-9400.615463,1685.410096
511.229211,-444.123565,-10362.883188,1455.581446
511.229539,-1628.453072,-10658.965565,1302.362347
511.229867,148.041188,-10362.883188,536.266849
511.230195,222.061783,-9696.697840,612.876398
511.230522,-814.226536,-9844.739029,383.047749
511.230850,-2664.741391,-10658.965565,0.000000
511.231178,-4219.173869,-11177.109724,-1072.533697
511.231506,-4515.256246,-9400.615463,-536.266849
511.231833,-2442.679609,-7550.100608,-306.438199
511.232161,-1702.473667,-7254.018232,-536.266849
511.232489,-2072.576638,-8512.368333,-306.438199
511.232817,-1332.370696,-9030.512492,153.219100
511.233144,-222.061783,-8734.430116,459.657299
511.233472,1258.350101,-8068.244768,842.705048
511.233800,1184.329507,-9548.656652,1302.362347
511.234128,-1110.308913,-10881.027347,919.314598
511.234455,-1702.473667,-11769.274478,842.705048
511.234783,-740.205942,-10732.986159,689.485948
511.235111,740.205942,-9622.677246,1455.581446
511.235439,1480.411884,-9326.594869,919.314598
511.235766,1924.535449,-9770.718434,1149.143247
511.236094,2516.700203,-9622.677246,1378.971896
511.236422,3034.844362,-8068.244768,995.924147
511.236750,3108.864956,-8808.450710,1838.629195
511.237078,814.226536,-9770.718434,459.657299
511.237405,-1702.473667,-11029.068536,306.438199
511.237733,-1702.473667,-9474.636058,0.000000
511.238061,-2072.576638,-9548.656652,76.609550
511.238389,-666.185348,-9030.512492,153.219100
511.238716,-592.164754,-9474.636058,306.438199
511.239044,-1036.288319,-9622.677246,612.876398
511.239372,222.061783,-8290.306550,383.047749
511.239700,814.226536,-7624.121203,842.705048
511.240027,962.267725,-6735.874072,459.657299
511.240355,-592.164754,-8068.244768,-459.657299
511.240683,-2146.597232,-8808.450710,-459.657299
511.241011,-2146.597232,-8216.285956,0.000000
511.241338,-1258.350101,-6883.915261,76.609550
511.241666,-296.082377,-6513.812290,536.266849
511.241994,0.000000,-7476.080014,0.000000
511.242322,74.020594,-8586.388927,229.828649
511.242649,666.185348,-8142.265362,459.657299
511.242977,1850.514855,-7994.224174,1225.752797
511.243305,444.123565,-8956.491898,1455.581446
511.243633,-814.226536,-10881.027347,919.314598
511.243960,-2590.720797,-11325.150913,0.000000
511.244288,-1702.473667,-9918.759623,0.000000
511.244616,-370.102971,-8808.450710,306.438199
511.244944,-222.061783,-8512.368333,689.485948
511.245271,-370.102971,-9548.656652,153.219100
511.245599,-444.123565,-9178.553681,0.000000
511.245927,1184.329507,-7698.141797,842.705048
511.246255,2368.659014,-7031.956449,842.705048
511.246582,296.082377,-7920.203579,459.657299
511.246910,148.041188,-9474.636058,306.438199
511.247238,-1184.329507,-8956.491898,306.438199
511.247566,-740.205942,-8068.244768,306.438199
511.247893,370.102971,-8142.265362,995.924147
511.248221,444.123565,-9400.615463,1149.143247
511.248549,0.000000,-9696.697840,1378.971896
511.248877,1036.288319,-9400.615463,1302.362347
511.249204,1406.391290,-9104.533087,1302.362347
511.249532,1776.494261,-9252.574275,1532.190996
511.249860,0.000000,-10584.944971,689.485948
511.250188,-1776.494261,-11103.089130,689.485948
511.250516,-2590.720797,-10436.903782,536.266849
511.250843,-2072.576638,-9474.636058,459.657299
511.251171,-1628.453072,-9548.656652,306.438199
511.251499,-1628.453072,-10066.800811,76.609550
511.251827,-1628.453072,-9844.739029,0.000000
511.252154,-444.123565,-8586.388927,612.876398
511.252482,740.205942,-7772.162391,536.266849
511.252810,222.061783,-8882.471304,1072.533697
511.253138,-1332.370696,-10436.903782,689.485948
511.253465,-3108.864956,-10732.986159,459.657299
511.253793,-2886.803174,-9844.739029,76.609550
511.254121,-1850.514855,-8808.450710,919.314598
511.254449,-1332.370696,-8882.471304,766.095498
511.254776,-1184.329507,-9918.759623,766.095498
511.255104,-444.123565,-9622.677246,919.314598
511.255432,888.247130,-8142.265362,1838.629195
511.255760,2072.576638,-7698.141797,1225.752797
511.256087,1110.308913,-8660.409521,536.266849
511.256415,-666.185348,-9696.697840,-306.438199
511.256743,-1258.350101,-9474.636058,-459.657299
511.257071,-148.041188,-8216.285956,0.000000
511.257398,1258.350101,-7920.203579,612.876398
511.257726,1628.453072,-8956.491898,1072.533697
511.258054,1406.391290,-9770.718434,1608.800546
511.258382,1184.329507,-9622.677246,1225.752797
511.258709,2072.576638,-9326.594869,1915.238745
511.259037,1702.473667,-9252.574275,1762.019645
511.259365,-592.164754,-10362.883188,919.314598
511.259693,-2368.659014,-10584.944971,229.828649
511.260020,-2368.659014,-9696.697840,0.000000
511.260348,-1480.411884,-7846.182985,0.000000
511.260676,-74.020594,-7105.977043,153.219100
511.261004,444.123565,-6957.935855,0.000000
511.261331,-518.144159,-7624.121203,-153.219100
511.261659,0.000000,-7328.038826,-536.266849
511.261987,592.164754,-7179.997637,0.000000
511.262315,222.061783,-8216.285956,-229.828649
511.262643,-814.226536,-9622.677246,-383.047749
511.262970,-1998.556043,-10881.027347,0.000000
511.263298,-2146.597232,-10140.821405,153.219100
511.263626,-444.123565,-9400.615463,689.485948
511.263954,296.082377,-9104.533087,459.657299
511.264281,222.061783,-9548.656652,689.485948
511.264609,518.144159,-9992.780217,842.705048
511.264937,1480.411884,-8956.491898,459.657299
511.265265,2294.638420,-8290.306550,919.314598
511.265592,1628.453072,-8808.450710,536.266849
511.265920,0.000000,-9622.677246,153.219100
511.266248,-888.247130,-10066.800811,-153.219100
511.266576,-592.164754,-9178.553681,76.609550
511.266903,148.041188,-8142.265362,459.657299
511.267231,444.123565,-8512.368333,919.314598
511.267559,148.041188,-10140.821405,842.705048
511.267887,74.020594,-10066.800811,689.485948
511.268214,74.020594,-9030.512492,995.924147
511.268542,148.041188,-9326.594869,1072.533697
511.268870,-1258.350101,-9992.780217,766.095498
511.269198,-2960.823768,-10510.924376,383.047749
511.269525,-3108.864956,-9844.739029,459.657299
511.269853,-2072.576638,-8512.368333,153.219100
511.270181,-888.247130,-7698.141797,459.657299
511.270509,-148.041188,-7920.203579,689.485948
511.270836,0.000000,-8586.388927,229.828649
511.271164,592.164754,-8438.347739,1915.238745
511.271492,888.247130,-8660.409521,1302.362347
511.271820,222.061783,-9474.636058,1225.752797
511.272147,-1776.494261,-10510.924376,842.705048
511.272475,-3330.926739,-11399.171507,536.266849
511.272803,-3552.988522,-10214.842000,766.095498
511.273131,-2368.659014,-9400.615463,459.657299
511.273458,-1702.473667,-8734.430116,536.266849
511.273786,-1480.411884,-8956.491898,153.219100
511.274114,-592.164754,-8586.388927,0.000000
511.274442,1110.308913,-7328.038826,0.000000
511.274770,2368.659014,-6883.915261,536.266849
511.275097,2072.576638,-7698.141797,536.266849
511.275425,518.144159,-9474.636058,229.828649
511.275753,-592.164754,-9918.759623,76.609550
511.276081,-222.061783,-9326.594869,689.485948
511.276408,222.061783,-9104.533087,1455.581446
511.276736,814.226536,-10066.800811,1685.410096
511.277064,666.185348,-10436.903782,1532.190996
511.277392,2220.617826,-10288.862594,2068.457845
511.277719,2960.823768,-9030.512492,2068.457845
511.278047,3627.009116,-8956.491898,2604.724693
511.278375,1702.473667,-9622.677246,1455.581446
511.278703,-370.102971,-10436.903782,383.047749
511.279030,-1776.494261,-9474.636058,0.000000
511.279358,-1776.494261,-8438.347739,0.000000
511.279686,-1258.350101,-7179.997637,612.876398
511.280014,-1036.288319,-7920.203579,-306.438199
511.280341,-1480.411884,-8586.388927,-459.657299
511.280669,-1110.308913,-7920.203579,-153.219100
511.280997,0.000000,-6957.935855,0.000000
511.281325,74.020594,-6661.853478,0.000000
511.281652,-1850.514855,-8586.388927,-766.095498
511.281980,-3701.029710,-9400.615463,-612.876398
511.282308,-3404.947333,-8882.471304,-459.657299
511.282636,-2738.761985,-7476.080014,0.000000
511.282963,-1776.494261,-7698.141797,76.609550
511.283291,-592.164754,-8142.265362,229.828649
511.283619,-444.123565,-9252.574275,536.266849
511.283947,1628.453072,-8216.285956,919.314598
511.284274,2664.741391,-7550.100608,1225.752797
511.284602,2442.679609,-8364.327145,1378.971896
511.284930,518.144159,-10955.047942,689.485948
511.285258,-1332.370696,-11251.130318,229.828649
511.285585,-1332.370696,-10066.800811,76.609550
511.285913,148.041188,-9474.636058,612.876398
511.286241,370.102971,-9696.697840,229.828649
511.286569,0.000000,-10658.965565,689.485948
511.286897,962.267725,-10066.800811,766.095498
511.287224,1998.556043,-8586.388927,766.095498
511.287552,2368.659014,-8216.285956,1378.971896
511.287880,1258.350101,-9400.615463,612.876398
511.288208,-1184.329507,-10436.903782,612.876398
511.288535,-2146.597232,-9918.759623,0.000000
511.288863,-1480.411884,-8734.430116,229.828649
511.289191,-814.226536,-8290.306550,766.095498
511.289519,-148.041188,-8882.471304,919.314598
511.289846,222.061783,-8808.450710,919.314598
511.290174,666.185348,-8438.347739,1378.971896
511.290502,2146.597232,-8512.368333,1762.019645
511.290830,1480.411884,-9178.553681,1608.800546
511.291157,-592.164754,-10807.006753,919.314598
511.291485,-2812.782580,-12065.356855,459.657299
511.291813,-3256.906145,-11695.253884,306.438199
511.292141,-3108.864956,-10584.944971,0.000000
511.292468,-1776.494261,-9696.697840,0.000000
511.292796,-2072.576638,-9918.759623,-306.438199
511.293124,-1258.350101,-10288.862594,-229.828649
511.293452,-370.102971,-9104.533087,153.219100
511.293779,740.205942,-8142.265362,0.000000
511.294107,222.061783,-8438.347739,-153.219100
511.294435,-1406.391290,-9474.636058,-689.485948
511.294763,-2442.679609,-9474.636058,-766.095498
511.295090,-2072.576638,-7698.141797,-153.219100
511.295418,592.164754,-6957.935855,766.095498
511.295746,2072.576638,-6883.915261,1455.581446
511.296074,2738.761985,-7920.203579,2068.457845
511.296401,3330.926739,-7846.182985,2757.943793
511.296729,3997.112087,-7476.080014,3217.601092
511.297057,3923.091493,-8068.244768,3370.820191
511.297385,2072.576638,-9104.533087,2528.115143
511.297712,0.000000,-10436.903782,1838.629195
511.298040,-1554.432478,-9992.780217,1378.971896
511.298368,-962.267725,-9104.533087,1455.581446
511.298696,-222.061783,-8290.306550,1455.581446
511.299023,-740.205942,-8438.347739,842.705048
511.299351,-1184.329507,-9474.636058,689.485948
511.299679,-1480.411884,-9030.512492,229.828649
511.300007,-1776.494261,-7476.080014,0.000000
511.300335,-1850.514855,-7550.100608,306.438199
511.300662,-3478.967927,-9030.512492,-919.314598
511.300990,-5625.565159,-8808.450710,-1838.629195
511.301318,-5107.421000,-8290.306550,-1532.190996
511.301646,-3627.009116,-7179.997637,-842.705048
511.301973,-2368.659014,-5551.544565,-459.657299
511.302301,-740.205942,-6883.915261,0.000000
511.302629,-222.061783,-7624.121203,306.438199
511.302957,74.020594,-7031.956449,76.609550
511.303284,2146.597232,-7698.141797,1532.190996
511.303612,1184.329507,-7846.182985,-153.219100
511.303940,296.082377,-9844.739029,0.000000
511.304268,-444.123565,-10881.027347,0.000000
511.304595,148.041188,-10807.006753,0.000000
511.304923,1924.535449,-9770.718434,536.266849
511.305251,2664.741391,-9474.636058,76.609550
511.305579,3182.885551,-11029.068536,153.219100
511.305906,2368.659014,-11843.295072,0.000000
511.306234,2738.761985,-11325.150913,842.705048
511.306562,2294.638420,-10807.006753,0.000000
511.306890,814.226536,-11251.130318,-229.828649
511.307217,-592.164754,-11769.274478,-612.876398
511.307545,-2368.659014,-11473.192101,-919.314598
511.307873,-1998.556043,-9770.718434,-612.876398
511.308201,370.102971,-8586.388927,0.000000
511.308528,296.082377,-8364.327145,612.876398
511.308856,444.123565,-8438.347739,1149.143247
511.309184,1184.329507,-8956.491898,1455.581446
511.309512,888.247130,-8364.327145,1455.581446
511.309839,1036.288319,-8660.409521,1838.629195
511.310167,296.082377,-9474.636058,1608.800546
511.310495,-1702.473667,-10214.842000,842.705048
511.310823,-2072.576638,-9770.718434,1532.190996
511.311150,-1924.535449,-9400.615463,1302.362347
511.311478,-1924.535449,-9474.636058,1149.143247
511.311806,-2368.659014,-10510.924376,766.095498
511.312134,-2516.700203,-10955.047942,306.438199
511.312462,-2220.617826,-9918.759623,919.314598
511.312789,-592.164754,-9474.636058,1072.533697
511.313117,-592.164754,-9770.718434,919.314598
511.313445,-2220.617826,-10288.862594,459.657299
511.313773,-3182.885551,-10584.944971,0.000000
511.314100,-2812.782580,-9178.553681,306.438199
511.314428,-1258.350101,-7476.080014,536.266849
511.314756,148.041188,-7550.100608,1378.971896
511.315084,296.082377,-7994.224174,1532.190996
511.315411,1184.329507,-7698.141797,1991.848295
511.315739,2294.638420,-6957.935855,2834.553343
511.316066,3330.926739,-6291.750507,3370.820191
511.316394,2368.659014,-7254.018232,2911.162892
511.316721,740.205942,-8290.306550,2145.067394
511.317049,-444.123565,-8882.471304,1455.581446
511.317376,-444.123565,-7105.977043,1302.362347
511.317704,1110.308913,-7254.018232,1915.238745
511.318031,592.164754,-8216.285956,995.924147
511.318359,0.000000,-9104.533087,383.047749
511.318686,0.000000,-9030.512492,76.609550
511.319014,296.082377,-8660.409521,0.000000
511.319341,444.123565,-8068.244768,306.438199
511.319669,-1110.308913,-9474.636058,-1302.362347
511.319996,-3552.988522,-10732.986159,-1532.190996
511.320324,-4441.235652,-10140.821405,-2145.067394
511.320652,-3478.967927,-8216.285956,-1915.238745
511.320979,-2220.617826,-6883.915261,-2145.067394
511.321307,-1776.494261,-7105.977043,-1225.752797
511.321634,-1258.350101,-8290.306550,-1149.143247
511.321962,0.000000,-7254.018232,-306.438199
511.322289,1628.453072,-6587.832884,383.047749
511.322617,2294.638420,-6513.812290,919.314598
511.322944,1702.473667,-8364.327145,459.657299
511.323272,296.082377,-9770.718434,229.828649
511.323599,444.123565,-9622.677246,689.485948
511.323927,1628.453072,-9326.594869,919.314598
511.324254,2368.659014,-9548.656652,1072.533697
511.324582,1998.556043,-10955.047942,766.095498
511.324909,1036.288319,-11621.233289,459.657299
511.325237,1258.350101,-10955.047942,459.657299
511.325564,2368.659014,-10584.944971,766.095498
511.325892,1628.453072,-10658.965565,-306.438199
511.326219,-1184.329507,-11843.295072,-612.876398
511.326547,-1850.514855,-12065.356855,-919.314598
511.326874,-2442.679609,-10510.924376,-995.924147
511.327202,-1036.288319,-9548.656652,0.000000
511.327529,-592.164754,-9474.636058,0.000000
511.327857,-740.205942,-9622.677246,1072.533697
511.328184,-222.061783,-9326.594869,1455.581446
511.328512,962.267725,-8586.388927,1915.238745
511.328839,814.226536,-7994.224174,2068.457845
511.329167,-518.144159,-9178.553681,1762.019645
511.329494,-1998.556043,-9992.780217,1455.581446
511.329822,-2886.803174,-9326.594869,842.705048
511.330149,-1776.494261,-8438.347739,1532.190996
511.330477,-666.185348,-8068.244768,1762.019645
511.330804,-814.226536,-9030.512492,1608.800546
511.331132,-962.267725,-9770.718434,1378.971896
511.331459,0.000000,-9400.615463,2145.067394
511.331787,0.000000,-8734.430116,1455.581446
511.332114,0.000000,-9844.739029,1378.971896
511.332442,-1924.535449,-11177.109724,306.438199
511.332769,-3849.070898,-11769.274478,0.000000
511.333097,-3552.988522,-10362.883188,306.438199
511.333424,-2146.597232,-8438.347739,766.095498
511.333752,-740.205942,-8216.285956,766.095498
511.334080,-518.144159,-8734.430116,1072.533697
511.334407,0.000000,-8438.347739,1302.362347
511.334735,444.123565,-7254.018232,2298.286494
511.335062,1554.432478,-6809.894666,2528.115143
511.335390,1036.288319,-7179.997637,2298.286494
511.335717,0.000000,-8216.285956,1455.581446
511.336045,-888.247130,-7994.224174,1532.190996
511.336372,-592.164754,-6883.915261,1149.143247
511.336700,444.123565,-6217.729913,1378.971896
511.337027,1036.288319,-7031.956449,1225.752797
511.337355,148.041188,-8068.244768,842.705048
511.337682,0.000000,-8364.327145,229.828649
511.338010,814.226536,-8438.347739,383.047749
511.338337,1110.308913,-8364.327145,0.000000
511.338665,-666.185348,-9622.677246,-536.266849
511.338992,-2886.803174,-11103.089130,-1455.581446
511.339320,-3478.967927,-10584.944971,-1915.238745
511.339647,-2812.782580,-9178.553681,-1608.800546
511.339975,-370.102971,-8438.347739,-842.705048
511.340302,0.000000,-8438.347739,-1149.143247
511.340630,-222.061783,-9400.615463,-919.314598
511.340957,518.144159,-9178.553681,-536.266849
511.341285,1554.432478,-8068.244768,-229.828649
511.341612,2368.659014,-7698.141797,-383.047749
511.341940,1184.329507,-9104.533087,153.219100
511.342267,148.041188,-10140.821405,0.000000
511.342595,74.020594,-9548.656652,0.000000
511.342922,1332.370696,-8364.327145,689.485948
511.343250,2442.679609,-8438.347739,995.924147
511.343577,2220.617826,-9104.533087,1532.190996
511.343905,1998.556043,-10362.883188,612.876398
511.344232,2146.597232,-10066.800811,766.095498
511.344560,2368.659014,-9696.697840,919.314598
511.344887,888.247130,-10807.006753,306.438199
511.345215,-1332.370696,-12139.377449,-612.876398
511.345542,-3108.864956,-12065.356855,-766.095498
511.345870,-2960.823768,-10807.006753,-995.924147
511.346197,-1628.453072,-9548.656652,-612.876398
511.346525,-444.123565,-9696.697840,0.000000
511.346852,-1110.308913,-9548.656652,153.219100
511.347180,-814.226536,-9400.615463,919.314598
511.347508,148.041188,-8808.450710,1225.752797
511.347835,444.123565,-8142.265362,1762.019645
511.348163,0.000000,-8808.450710,1838.629195
511.348490,-1480.411884,-9474.636058,1991.848295
511.348818,-2516.700203,-9178.553681,1762.019645
511.349145,-2812.782580,-8290.306550,1838.629195
511.349473,-1850.514855,-7476.080014,1915.238745
511.349800,-1480.411884,-8216.285956,1225.752797
511.350128,-1480.411884,-8808.450710,1149.143247
511.350455,-1110.308913,-8216.285956,919.314598
511.350783,0.000000,-7254.018232,1149.143247
511.351110,444.123565,-7772.162391,995.924147
511.351438,-962.267725,-9400.615463,459.657299
511.351765,-2886.803174,-10658.965565,0.000000
511.352093,-3627.009116,-9770.718434,0.000000
511.352420,-2590.720797,-9326.594869,-306.438199
511.352748,-1628.453072,-8808.450710,229.828649
511.353075,-1406.391290,-9696.697840,0.000000
511.353403,-444.123565,-9696.697840,459.657299
511.353730,1480.411884,-8734.430116,919.314598
511.354058,2442.679609,-7254.018232,2298.286494
511.354385,3182.885551,-7328.038826,2145.067394
511.354713,1924.535449,-8512.368333,1685.410096
511.355040,592.164754,-8956.491898,1225.752797
511.355368,888.247130,-8290.306550,1378.971896
511.355695,1036.288319,-7476.080014,1915.238745
511.356023,1184.329507,-7994.224174,995.924147
511.356350,1110.308913,-9178.553681,995.924147
511.356678,1258.350101,-9252.574275,536.266849
511.357005,2072.576638,-8882.471304,919.314598
511.357333,2368.659014,-8364.327145,995.924147
511.357660,1110.308913,-9548.656652,229.828649
511.357988,-1406.391290,-11473.192101,-689.485948
511.358315,-3108.864956,-11399.171507,-1608.800546
511.358643,-3404.947333,-10510.924376,-1762.019645
511.358970,-2294.638420,-9474.636058,-1532.190996
511.359298,-1850.514855,-9622.677246,-1532.190996
511.359625,-2146.597232,-10140.821405,-1762.019645
511.359953,-666.185348,-9474.636058,-842.705048
511.360280,888.247130,-8068.244768,0.000000
511.360608,2442.679609,-7846.182985,383.047749
511.360935,1776.494261,-8216.285956,689.485948
511.361263,370.102971,-9770.718434,689.485948
511.361591,-1184.329507,-9474.636058,842.705048
511.361918,-814.226536,-8956.491898,1302.362347
511.362246,148.041188,-9104.533087,1532.190996
511.362573,370.102971,-9474.636058,2068.457845
511.362901,518.144159,-10066.800811,1532.190996
511.363228,1406.391290,-9252.574275,2068.457845
511.363556,2368.659014,-8586.388927,2068.457845
511.363883,1480.411884,-9104.533087,1455.581446
511.364211,-1406.391290,-10584.944971,383.047749
511.364538,-2886.803174,-10955.047942,-306.438199
511.364866,-3552.988522,-10066.800811,-766.095498
511.365193,-2738.761985,-8808.450710,-536.266849
511.365521,-1480.411884,-8216.285956,-383.047749
511.365848,-1258.350101,-8956.491898,-306.438199
511.366176,-814.226536,-9104.533087,689.485948
511.366503,-148.041188,-7772.162391,689.485948
511.366831,222.061783,-7402.059420,1302.362347
511.367158,0.000000,-8068.244768,1302.362347
511.367486,-1480.411884,-9252.574275,383.047749
511.367813,-3108.864956,-8364.327145,536.266849
511.368141,-2072.576638,-7624.121203,919.314598
511.368468,-1036.288319,-6661.853478,1149.143247
511.368796,518.144159,-7105.977043,1225.752797
511.369123,740.205942,-7920.203579,995.924147
511.369451,962.267725,-7920.203579,995.924147
511.369778,2368.659014,-7550.100608,1378.971896
511.370106,2368.659014,-8068.244768,919.314598
511.370433,444.123565,-9474.636058,0.000000
511.370761,-1406.391290,-11251.130318,-766.095498
511.371088,-2368.659014,-11103.089130,-1149.143247
511.371416,-1258.350101,-9548.656652,-689.485948
511.371743,296.082377,-9474.636058,383.047749
511.372071,74.020594,-10214.842000,0.000000
511.372398,296.082377,-10584.944971,383.047749
511.372726,814.226536,-9030.512492,459.657299
511.373053,2294.638420,-8956.491898,1149.143247
511.373381,1924.535449,-8956.491898,1225.752797
511.373708,370.102971,-10066.800811,766.095498
511.374036,-1184.329507,-10510.924376,536.266849
511.374363,-1332.370696,-8808.450710,612.876398
511.374691,-296.082377,-7994.224174,1685.410096
511.375019,814.226536,-7624.121203,1225.752797
511.375346,1184.329507,-8290.306550,1532.190996
511.375674,888.247130,-8586.388927,1532.190996
511.376001,1480.411884,-8364.327145,1302.362347
511.376329,1850.514855,-8660.409521,1378.971896
511.376656,370.102971,-9548.656652,612.876398
511.376984,-2294.638420,-10658.965565,-306.438199
511.377311,-3701.029710,-11177.109724,-842.705048
511.377639,-3552.988522,-9992.780217,-842.705048
511.377966,-2368.659014,-9400.615463,-459.657299
511.378294,-1554.432478,-9326.594869,0.000000
511.378621,-1628.453072,-9918.759623,-383.047749
511.378949,-666.185348,-9844.739029,76.609550
511.379276,0.000000,-9104.533087,689.485948
511.379604,1110.308913,-8660.409521,536.266849
511.379931,148.041188,-9104.533087,1608.800546
511.380259,-1332.370696,-10881.027347,1072.533697
511.380586,-2294.638420,-10140.821405,766.095498
511.380914,-1702.473667,-8882.471304,1149.143247
511.381241,0.000000,-7994.224174,1838.629195
511.381569,222.061783,-7772.162391,1455.581446
511.381896,370.102971,-9400.615463,1532.190996
511.382224,1258.350101,-8882.471304,2068.457845
511.382551,1776.494261,-7624.121203,1991.848295
511.382879,1776.494261,-8512.368333,1762.019645
511.383206,814.226536,-9474.636058,1149.143247
511.383534,-2072.576638,-10732.986159,76.609550
511.383861,-2368.659014,-9844.739029,0.000000
511.384189,-1406.391290,-9104.533087,0.000000
511.384516,-1406.391290,-9252.574275,153.219100
511.384844,-962.267725,-9770.718434,1378.971896
511.385171,-888.247130,-10214.842000,76.609550
511.385499,148.041188,-9030.512492,229.828649
511.385826,1332.370696,-8290.306550,919.314598
511.386154,1628.453072,-8216.285956,1072.533697
511.386481,148.041188,-8882.471304,383.047749
511.386809,-962.267725,-9252.574275,153.219100
511.387136,-1776.494261,-8586.388927,153.219100
511.387464,-666.185348,-7624.121203,459.657299
511.387791,0.000000,-7772.162391,689.485948
511.388119,74.020594,-8216.285956,383.047749
511.388446,1110.308913,-8364.327145,995.924147
511.388774,2072.576638,-7550.100608,842.705048
511.389102,2664.741391,-7402.059420,689.485948
511.389429,1924.535449,-8586.388927,306.438199
511.389757,-222.061783,-10140.821405,-612.876398
511.390084,-1554.432478,-10362.883188,-536.266849
511.390412,-888.247130,-9474.636058,-766.095498
511.390739,74.020594,-9474.636058,-153.219100
511.391067,296.082377,-9918.759623,153.219100
511.391394,0.000000,-10510.924376,153.219100
511.391722,222.061783,-10066.800811,0.000000
511.392049,1184.329507,-9178.553681,919.314598
511.392377,1702.473667,-9104.533087,1072.533697
511.392704,592.164754,-9400.615463,919.314598
511.393032,-1258.350101,-9992.780217,229.828649
511.393359,-2220.617826,-9030.512492,153.219100
511.393687,-1554.432478,-7846.182985,1302.362347
511.394014,-1110.308913,-7105.977043,919.314598
511.394342,-814.226536,-7476.080014,612.876398
511.394669,-296.082377,-8290.306550,919.314598
511.394997,222.061783,-7254.018232,383.047749
511.395324,740.205942,-7476.080014,1532.190996
511.395652,370.102971,-8068.244768,919.314598
511.395979,-1776.494261,-9474.636058,459.657299
511.396307,-3330.926739,-10288.862594,0.000000
511.396634,-3182.885551,-9844.739029,0.000000
511.396962,-1924.535449,-8364.327145,536.266849
511.397289,-518.144159,-9252.574275,995.924147
511.397617,-592.164754,-10214.842000,1072.533697
511.397944,-740.205942,-10140.821405,1225.752797
511.398272,0.000000,-9252.574275,1149.143247
511.398599,1776.494261,-8586.388927,1762.019645
511.398927,814.226536,-8808.450710,1302.362347
511.399254,-1036.288319,-10288.862594,842.705048
511.399582,-2146.597232,-10066.800811,536.266849
511.399909,-1554.432478,-8882.471304,459.657299
511.400237,148.041188,-7624.121203,919.314598
511.400564,1332.370696,-7772.162391,1072.533697
511.400892,740.205942,-9178.553681,995.924147
511.401219,814.226536,-9030.512492,1532.190996
511.401547,666.185348,-8068.244768,1225.752797
511.401874,1110.308913,-8142.265362,1532.190996
511.402202,370.102971,-9548.656652,919.314598
511.402530,-1924.535449,-10732.986159,0.000000
511.402857,-2368.659014,-9992.780217,0.000000
511.403185,-1258.350101,-9104.533087,229.828649
511.403512,-518.144159,-8808.450710,153.219100
511.403840,-962.267725,-9918.759623,-459.657299
511.404167,-888.247130,-10214.842000,-459.657299
511.404495,0.000000,-9992.780217,-153.219100
511.404822,1036.288319,-9326.594869,76.609550
511.405150,1110.308913,-9548.656652,306.438199
511.405477,592.164754,-10436.903782,0.000000
511.405805,-1406.391290,-11177.109724,-153.219100
511.406132,-1998.556043,-10362.883188,-229.828649
511.406460,-666.185348,-9474.636058,0.000000
511.406787,0.000000,-9104.533087,153.219100
511.407115,444.123565,-9844.739029,229.828649
511.407442,518.144159,-9474.636058,153.219100
511.407770,1332.370696,-8882.471304,689.485948
511.408097,2738.761985,-8586.388927,1302.362347
511.408425,2072.576638,-8956.491898,842.705048
511.408752,518.144159,-9622.677246,459.657299
511.409080,-592.164754,-9918.759623,766.095498
511.409407,0.000000,-9326.594869,919.314598
511.409735,148.041188,-8882.471304,995.924147
511.410062,518.144159,-8956.491898,842.705048
511.410390,0.000000,-9844.739029,689.485948
511.410717,666.185348,-10140.821405,1378.971896
511.411045,1110.308913,-8956.491898,1455.581446
511.411372,1776.494261,-8956.491898,1915.238745
511.411700,222.061783,-9548.656652,1455.581446
511.412027,-1924.535449,-10732.986159,995.924147
511.412355,-3404.947333,-9992.780217,306.438199
511.412682,-3182.885551,-8660.409521,153.219100
511.413010,-2368.659014,-7772.162391,229.828649
511.413337,-2220.617826,-7994.224174,459.657299
511.413665,-2368.659014,-8290.306550,459.657299
511.413992,-1628.453072,-7550.100608,919.314598
511.414320,-518.144159,-6735.874072,842.705048
511.414647,-296.082377,-6661.853478,459.657299
511.414975,-2146.597232,-8216.285956,-229.828649
511.415302,-3182.885551,-9178.553681,-383.047749
511.415630,-2812.782580,-8364.327145,-536.266849
511.415958,-296.082377,-7254.018232,459.657299
511.416285,592.164754,-7772.162391,766.095498
511.416613,814.226536,-8660.409521,612.876398
511.416940,1110.308913,-9474.636058,842.705048
511.417268,1850.514855,-8512.368333,1225.752797
511.417595,2664.741391,-7994.224174,1685.410096
511.417922,2220.617826,-9474.636058,1225.752797
511.418250,370.102971,-10436.903782,536.266849
511.418577,-1036.288319,-10955.047942,229.828649
511.418905,148.041188,-9696.697840,459.657299
511.419232,962.267725,-8586.388927,842.705048
511.419560,962.267725,-8438.347739,1225.752797
511.419887,518.144159,-9252.574275,766.095498
511.420215,444.123565,-9622.677246,689.485948
511.420542,962.267725,-8068.244768,383.047749
511.420870,1776.494261,-7402.059420,383.047749
511.421197,740.205942,-8142.265362,612.876398
511.421524,-1036.288319,-9548.656652,0.000000
511.421852,-2220.617826,-9474.636058,0.000000
511.422179,-1998.556043,-8364.327145,306.438199
511.422507,-814.226536,-7772.162391,1072.533697
511.422834,-962.267725,-8660.409521,612.876398
511.423162,-962.267725,-9252.574275,383.047749
511.423489,-740.205942,-9400.615463,919.314598
511.423817,74.020594,-8586.388927,1149.143247
511.424144,296.082377,-8882.471304,689.485948
511.424472,-1036.288319,-9622.677246,1149.143247
511.424799,-2220.617826,-10732.986159,76.609550
511.425127,-2220.617826,-9696.697840,0.000000
511.425454,-1184.329507,-8734.430116,76.609550
511.425781,0.000000,-8660.409521,383.047749
511.426109,592.164754,-9104.533087,995.924147
511.426436,666.185348,-9844.739029,766.095498
511.426764,814.226536,-9326.594869,995.924147
511.427091,1036.288319,-8734.430116,1072.533697
511.427419,666.185348,-9104.533087,1072.533697
511.427746,-962.267725,-9770.718434,612.876398
511.428074,-1702.473667,-10066.800811,459.657299
511.428401,-1406.391290,-9252.574275,229.828649
511.428729,222.061783,-7846.182985,766.095498
511.429056,1406.391290,-7846.182985,995.924147
511.429383,666.185348,-8734.430116,995.924147
511.429711,1110.308913,-9030.512492,1378.971896
511.430038,1406.391290,-8734.430116,1149.143247
511.430366,2072.576638,-8660.409521,1762.019645
511.430693,592.164754,-9918.759623,1532.190996
511.431021,-1480.411884,-11695.253884,1149.143247
511.431348,-3182.885551,-11473.192101,766.095498
511.431676,-3404.947333,-9622.677246,76.609550
511.432003,-2146.597232,-9104.533087,229.828649
511.432331,-1924.535449,-9474.636058,0.000000
511.432658,-2220.617826,-9844.739029,-459.657299
511.432986,-1406.391290,-9178.553681,0.000000
511.433313,-444.123565,-7698.141797,-536.266849
511.433640,222.061783,-7328.038826,-459.657299
511.433968,-518.144159,-8290.306550,-536.266849
511.434295,-1776.494261,-9326.594869,-689.485948
511.434623,-2220.617826,-8660.409521,-919.314598
511.434950,-1110.308913,-8512.368333,-229.828649
511.435278,-296.082377,-8290.306550,-153.219100
511.435605,-370.102971,-9178.553681,229.828649
511.435933,592.164754,-9770.718434,842.705048
511.436260,1998.556043,-9104.533087,1225.752797
511.436588,3923.091493,-8512.368333,1915.238745
511.436915,3775.050304,-8438.347739,1991.848295
511.437242,2442.679609,-10214.842000,1608.800546
511.437570,222.061783,-11251.130318,842.705048
511.437897,148.041188,-10066.800811,612.876398
511.438225,592.164754,-8660.409521,612.876398
511.438552,592.164754,-9178.553681,612.876398
511.438880,518.144159,-9918.759623,612.876398
511.439207,370.102971,-10584.944971,1149.143247
511.439535,666.185348,-9178.553681,919.314598
511.439862,1702.473667,-8882.471304,1685.410096
511.440190,518.144159,-9252.574275,689.485948
511.440517,-1554.432478,-9992.780217,383.047749
511.440845,-2442.679609,-9474.636058,229.828649
511.441172,-2368.659014,-8364.327145,306.438199
511.441499,-1850.514855,-7846.182985,842.705048
511.441827,-1332.370696,-8290.306550,766.095498
511.442154,-1776.494261,-8660.409521,842.705048
511.442482,-592.164754,-8216.285956,1378.971896
511.442809,814.226536,-7402.059420,1838.629195
511.443137,1258.350101,-7846.182985,2068.457845
511.443464,148.041188,-8660.409521,1762.019645
511.443792,-1924.535449,-9844.739029,459.657299
511.444119,-2812.782580,-9622.677246,0.000000
511.444447,-2590.720797,-8882.471304,229.828649
511.444774,-1332.370696,-9178.553681,383.047749
511.445101,-1406.391290,-9474.636058,229.828649
511.445429,-814.226536,-10214.842000,0.000000
511.445756,-518.144159,-9622.677246,383.047749
511.446084,296.082377,-9030.512492,383.047749
511.446411,74.020594,-9400.615463,383.047749
511.446739,-740.205942,-9992.780217,-612.876398
511.447066,-1776.494261,-10214.842000,-766.095498
511.447394,-1924.535449,-9474.636058,-612.876398
511.447721,-222.061783,-8142.265362,76.609550
511.448049,1258.350101,-7476.080014,383.047749
511.448376,1998.556043,-8438.347739,842.705048
511.448704,2516.700203,-8216.285956,1149.143247
511.449031,2960.823768,-7402.059420,1685.410096
511.449358,3108.864956,-7772.162391,1762.019645
511.449686,1924.535449,-8734.430116,1915.238745
511.450013,-222.061783,-10584.944971,1149.143247
511.450341,-1332.370696,-10732.986159,842.705048
511.450668,-1332.370696,-9992.780217,689.485948
511.450996,-518.144159,-9104.533087,536.266849
511.451323,74.020594,-8956.491898,766.095498
511.451651,-222.061783,-9474.636058,0.000000
511.451978,-370.102971,-8660.409521,-842.705048
511.452306,296.082377,-7476.080014,-153.219100
511.452633,0.000000,-7920.203579,-612.876398
511.452961,-1258.350101,-8660.409521,-766.095498
511.453288,-2886.803174,-9918.759623,-1225.752797
511.453615,-3552.988522,-9104.533087,-612.876398
511.453943,-2516.700203,-8438.347739,-229.828649
511.454270,-962.267725,-8808.450710,766.095498
511.454598,-592.164754,-8586.388927,995.924147
511.454925,222.061783,-9400.615463,1608.800546
511.455253,1036.288319,-9030.512492,2298.286494
511.455580,2220.617826,-8290.306550,2757.943793
511.455908,2442.679609,-9178.553681,2528.115143
511.456235,1036.288319,-9770.718434,1838.629195
511.456563,-518.144159,-9992.780217,919.314598
511.456890,-592.164754,-9474.636058,689.485948
511.457217,0.000000,-8364.327145,229.828649
511.457545,592.164754,-9030.512492,919.314598
511.457872,518.144159,-9844.739029,153.219100
511.458200,0.000000,-10658.965565,306.438199
511.458527,0.000000,-9844.739029,229.828649
511.458855,0.000000,-9326.594869,1072.533697
511.459182,-148.041188,-9918.759623,459.657299
511.459510,-2146.597232,-10510.924376,0.000000
511.459837,-3182.885551,-10362.883188,-153.219100
511.460165,-3256.906145,-9030.512492,0.000000
511.460492,-2072.576638,-7994.224174,306.438199
511.460820,-1258.350101,-7920.203579,689.485948
511.461147,-962.267725,-8438.347739,689.485948
511.461474,0.000000,-7994.224174,842.705048
511.461802,1258.350101,-7105.977043,1532.190996
511.462129,2072.576638,-7550.100608,1838.629195
511.462457,1332.370696,-7994.224174,2068.457845
511.462784,-370.102971,-9326.594869,842.705048
511.463112,-1628.453072,-9548.656652,536.266849
511.463439,-1406.391290,-9104.533087,306.438199
511.463767,-296.082377,-9252.574275,306.438199
511.464094,-592.164754,-9844.739029,459.657299
511.464422,-370.102971,-10584.944971,0.000000
511.464749,296.082377,-10140.821405,153.219100
511.465076,962.267725,-9474.636058,306.438199
511.465404,1184.329507,-9548.656652,383.047749
511.465731,0.000000,-10140.821405,0.000000
511.466059,-1406.391290,-10214.842000,-1149.143247
511.466386,-1924.535449,-9622.677246,-995.924147
511.466714,-296.082377,-8364.327145,-229.828649
511.467041,1036.288319,-7476.080014,383.047749
511.467369,1036.288319,-7846.182985,689.485948
511.467696,1776.494261,-8660.409521,1532.190996
511.468024,1850.514855,-7920.203579,1762.019645
511.468351,2368.659014,-7624.121203,2451.505594
511.468679,1702.473667,-8586.388927,1838.629195
511.469006,74.020594,-9622.677246,1149.143247
511.469333,-2368.659014,-9844.739029,995.924147
511.469661,-2072.576638,-9474.636058,153.219100
511.469988,-888.247130,-8808.450710,612.876398
511.470316,0.000000,-8882.471304,459.657299
511.470643,-888.247130,-9696.697840,612.876398
511.470971,-1480.411884,-9992.780217,229.828649
511.471298,-518.144159,-8956.491898,-306.438199
511.471626,-222.061783,-8290.306550,0.000000
511.471953,-962.267725,-8734.430116,-306.438199
511.472281,-2368.659014,-9918.759623,-766.095498
511.472608,-2960.823768,-10140.821405,-306.438199
511.472935,-3034.844362,-8734.430116,0.000000
511.473263,-1924.535449,-8142.265362,306.438199
511.473590,-1332.370696,-8734.430116,383.047749
511.473918,-888.247130,-9252.574275,766.095498
511.474245,444.123565,-8364.327145,1302.362347
511.474573,2146.597232,-6957.935855,1762.019645
511.474900,3108.864956,-7402.059420,2374.896044
511.475228,2368.659014,-8364.327145,1991.848295
511.475555,592.164754,-9326.594869,1225.752797
511.475883,370.102971,-9400.615463,1149.143247
511.476210,666.185348,-8438.347739,1302.362347
511.476538,962.267725,-8808.450710,995.924147
511.476865,74.020594,-9992.780217,1225.752797
511.477192,0.000000,-10955.047942,536.266849
511.477520,0.000000,-10510.924376,536.266849
511.477847,444.123565,-9474.636058,766.095498
511.478175,-222.061783,-10584.944971,-383.047749
511.478502,-2516.700203,-11251.130318,-766.095498
511.478830,-3775.050304,-11103.089130,-1532.190996
511.479157,-3701.029710,-9844.739029,-1532.190996
511.479485,-1850.514855,-8290.306550,-306.438199
511.479812,0.000000,-7402.059420,0.000000
511.480140,814.226536,-8364.327145,306.438199
511.480467,740.205942,-8438.347739,612.876398
511.480794,1628.453072,-7994.224174,1225.752797
511.481122,1998.556043,-8364.327145,1991.848295
511.481449,962.267725,-8734.430116,1072.533697
511.481777,-962.267725,-10436.903782,995.924147
511.482104,-1406.391290,-10288.862594,612.876398
511.482432,-814.226536,-9622.677246,1302.362347
511.482759,814.226536,-8882.471304,1532.190996
511.483087,1702.473667,-8956.491898,1762.019645
511.483414,1184.329507,-10214.842000,1072.533697
511.483742,592.164754,-9918.759623,76.609550
511.484069,740.205942,-9474.636058,229.828649
511.484397,370.102971,-9622.677246,153.219100
511.484724,-962.267725,-10362.883188,0.000000
511.485051,-2368.659014,-11251.130318,-459.657299
511.485379,-3256.906145,-10288.862594,-689.485948
511.485706,-2368.659014,-9104.533087,-229.828649
511.486034,-740.205942,-8068.244768,459.657299
511.486361,-222.061783,-7994.224174,1378.971896
511.486689,0.000000,-8068.244768,919.314598
511.487016,148.041188,-7920.203579,1302.362347
511.487344,370.102971,-7624.121203,1685.410096
511.487671,370.102971,-7624.121203,1608.800546
511.487999,-222.061783,-8142.265362,1378.971896
511.488326,-1110.308913,-8512.368333,1378.971896
511.488654,-444.123565,-7624.121203,1378.971896
511.488981,592.164754,-7031.956449,1302.362347
511.489308,1406.391290,-7328.038826,1455.581446
511.489636,962.267725,-8438.347739,1149.143247
511.489963,370.102971,-9030.512492,1225.752797
511.490291,-74.020594,-9400.615463,459.657299
511.490618,222.061783,-9696.697840,383.047749
511.490946,-666.185348,-9918.759623,0.000000
511.491273,-2294.638420,-10881.027347,-536.266849
511.491601,-3404.947333,-10510.924376,-1532.190996
511.491928,-2590.720797,-9030.512492,-1455.581446
511.492256,-1258.350101,-8364.327145,-459.657299
511.492583,0.000000,-7846.182985,0.000000
511.492910,148.041188,-8438.347739,0.000000
511.493238,1184.329507,-8808.450710,612.876398
511.493565,1554.432478,-8142.265362,1608.800546
511.493893,1924.535449,-7994.224174,1762.019645
511.494220,1258.350101,-8882.471304,1991.848295
511.494548,-370.102971,-9474.636058,1378.971896
511.494875,-962.267725,-9548.656652,1302.362347
511.495203,-444.123565,-8364.327145,1608.800546
511.495530,592.164754,-8216.285956,1378.971896
511.495858,814.226536,-9030.512492,842.705048
511.496185,0.000000,-10140.821405,229.828649
511.496513,74.020594,-10140.821405,459.657299
511.496840,148.041188,-9178.553681,-536.266849
511.497167,666.185348,-9548.656652,-153.219100
511.497495,-1332.370696,-10584.944971,-536.266849
511.497822,-3034.844362,-10955.047942,-1532.190996
511.498150,-3627.009116,-10140.821405,-1532.190996
511.498477,-2664.741391,-8956.491898,-536.266849
511.498805,-1480.411884,-9030.512492,-306.438199
511.499132,-1332.370696,-9548.656652,-306.438199
511.499460,-518.144159,-9622.677246,0.000000
511.499787,148.041188,-8586.388927,766.095498
511.500115,2220.617826,-8364.327145,1378.971896
511.500442,2146.597232,-8216.285956,1991.848295
511.500769,814.226536,-9252.574275,1455.581446
511.501097,-296.082377,-9252.574275,1072.533697
511.501424,-370.102971,-8660.409521,919.314598
511.501752,148.041188,-8290.306550,1378.971896
511.502079,518.144159,-8512.368333,1225.752797
511.502407,1110.308913,-9992.780217,612.876398
511.502734,1110.308913,-10066.800811,689.485948
511.503062,1110.308913,-9178.553681,689.485948
511.503389,1850.514855,-9104.533087,1149.143247
511.503717,444.123565,-9622.677246,383.047749
511.504044,-1110.308913,-11029.068536,-383.047749
511.504372,-2664.741391,-11325.150913,-919.314598
511.504699,-2738.761985,-9992.780217,-536.266849
511.505026,-2146.597232,-9474.636058,-229.828649
511.505354,-1628.453072,-10140.821405,76.609550
511.505681,-814.226536,-9696.697840,153.219100
511.506009,148.041188,-8586.388927,1149.143247
511.506336,1554.432478,-7550.100608,1532.190996
511.506664,2146.597232,-7772.162391,1838.629195
511.506991,962.267725,-8438.347739,1838.629195
511.507319,-370.102971,-8512.368333,1455.581446
511.507646,-592.164754,-8438.347739,1378.971896
511.507974,-592.164754,-8216.285956,1532.190996
511.508301,-222.061783,-8882.471304,1762.019645
511.508628,-740.205942,-9770.718434,1072.533697
511.508956,-740.205942,-9696.697840,1378.971896
511.509283,74.020594,-9474.636058,1225.752797
511.509611,518.144159,-9474.636058,1225.752797
511.509938,222.061783,-9992.780217,612.876398
511.510266,-2072.576638,-11325.150913,-612.876398
511.510593,-3108.864956,-11251.130318,-1378.971896
511.510921,-2886.803174,-9770.718434,-1532.190996
511.511248,-1406.391290,-8882.471304,-536.266849
511.511576,0.000000,-8956.491898,-536.266849
511.511903,666.185348,-9326.594869,229.828649
511.512231,1258.350101,-8512.368333,689.485948
511.512558,1776.494261,-7772.162391,1378.971896
511.512885,2220.617826,-7846.182985,1532.190996
511.513213,1036.288319,-8734.430116,1455.581446
511.513540,-222.061783,-9548.656652,995.924147
511.513868,0.000000,-9622.677246,919.314598
511.514195,148.041188,-8216.285956,1149.143247
511.514523,962.267725,-7402.059420,1302.362347
511.514850,1184.329507,-8068.244768,995.924147
511.515178,814.226536,-8734.430116,459.657299
511.515505,1184.329507,-7920.203579,459.657299
511.515833,814.226536,-8216.285956,0.000000
511.516160,1036.288319,-8364.327145,76.609550
511.516487,-814.226536,-9474.636058,-459.657299
511.516815,-2590.720797,-10436.903782,-919.314598
511.517142,-3182.885551,-9474.636058,-1149.143247
511.517470,-2368.659014,-8586.388927,-612.876398
511.517797,-1850.514855,-8808.450710,-306.438199
511.518125,-1702.473667,-9400.615463,0.000000
511.518452,-1702.473667,-8882.471304,0.000000
511.518780,-370.102971,-7994.224174,229.828649
511.519107,962.267725,-7550.100608,612.876398
511.519435,1110.308913,-7179.997637,1455.581446
511.519762,-296.082377,-8290.306550,919.314598
511.520090,-592.164754,-8808.450710,766.095498
511.520418,-666.185348,-7698.141797,536.266849
511.520745,740.205942,-7254.018232,1225.752797
511.521073,1924.535449,-8068.244768,995.924147
511.521400,1776.494261,-9030.512492,1302.362347
511.521728,1776.494261,-9252.574275,1608.800546
511.522055,2220.617826,-8734.430116,1838.629195
511.522383,1850.514855,-9548.656652,1762.019645
511.522710,740.205942,-11103.089130,919.314598
511.523038,-2368.659014,-11621.233289,76.609550
511.523366,-3108.864956,-11251.130318,-612.876398
511.523693,-2664.741391,-9992.780217,-459.657299
511.524021,-1850.514855,-9252.574275,0.000000
511.524348,-962.267725,-8956.491898,76.609550
511.524676,-888.247130,-9696.697840,919.314598
511.525003,-370.102971,-9030.512492,459.657299
511.525331,0.000000,-8364.327145,1072.533697
511.525658,222.061783,-8734.430116,1378.971896
511.525986,-1258.350101,-9474.636058,1225.752797
511.526314,-2220.617826,-10140.821405,1302.362347
511.526641,-2590.720797,-9104.533087,995.924147
511.526969,-1924.535449,-8290.306550,1378.971896
511.527296,-592.164754,-7698.141797,1378.971896
511.527624,-370.102971,-8216.285956,1225.752797
511.527951,-296.082377,-7994.224174,1302.362347
511.528279,666.185348,-8216.285956,766.095498
511.528606,1406.391290,-8438.347739,1072.533697
511.528934,1110.308913,-9030.512492,842.705048
511.529261,-148.041188,-10510.924376,459.657299
511.529589,-1258.350101,-11029.068536,0.000000
511.529917,-1924.535449,-10584.944971,-459.657299
511.530244,-1702.473667,-10288.862594,0.000000
511.530572,-1480.411884,-10881.027347,0.000000
511.530899,-962.267725,-10658.965565,-229.828649
511.531227,-370.102971,-10362.883188,689.485948
511.531554,1702.473667,-8882.471304,612.876398
511.531882,2294.638420,-8586.388927,1302.362347
511.532209,1776.494261,-8956.491898,1072.533697
511.532537,296.082377,-8956.491898,229.828649
511.532865,-444.123565,-8660.409521,536.266849
511.533192,-814.226536,-8216.285956,995.924147
511.533520,0.000000,-7624.121203,842.705048
511.533847,222.061783,-8216.285956,1072.533697
511.534175,518.144159,-8734.430116,1149.143247
511.534502,814.226536,-8512.368333,1302.362347
511.534830,1850.514855,-8512.368333,1378.971896
511.535157,1554.432478,-8808.450710,1762.019645
511.535485,74.020594,-9844.739029,919.314598
511.535813,-1924.535449,-10807.006753,0.000000
511.536140,-2960.823768,-10140.821405,-612.876398
511.536468,-2738.761985,-9178.553681,-612.876398
511.536795,-2072.576638,-9030.512492,-383.047749
511.537123,-1702.473667,-9104.533087,-766.095498
511.537450,-1258.350101,-9326.594869,0.000000
511.537778,0.000000,-7772.162391,-229.828649
511.538105,1776.494261,-7920.203579,689.485948
511.538433,1702.473667,-7920.203579,689.485948
511.538761,370.102971,-9030.512492,536.266849
511.539088,-666.185348,-9474.636058,459.657299
511.539416,-962.267725,-8512.368333,459.657299
511.539743,-222.061783,-8438.347739,919.314598
511.540071,296.082377,-8068.244768,995.924147
511.540398,814.226536,-8512.368333,995.924147
511.540726,1554.432478,-8808.450710,1302.362347
511.541053,2220.617826,-8290.306550,1608.800546
511.541381,1850.514855,-8142.265362,1608.800546
511.541709,1406.391290,-9178.553681,842.705048
511.542036,-740.205942,-9918.759623,-536.266849
511.542364,-2516.700203,-10362.883188,-1225.752797
511.542691,-2220.617826,-9548.656652,-1072.533697
511.543019,-1110.308913,-9844.739029,-689.485948
511.543346,-370.102971,-9992.780217,-153.219100
511.543674,-740.205942,-10362.883188,153.219100
511.544001,-222.061783,-10066.800811,229.828649
511.544329,370.102971,-9622.677246,536.266849
511.544656,592.164754,-10214.842000,842.705048
511.544984,-814.226536,-10066.800811,612.876398
511.545312,-1776.494261,-9918.759623,383.047749
511.545639,-1628.453072,-9252.574275,306.438199
511.545967,-888.247130,-7550.100608,383.047749
511.546294,370.102971,-7254.018232,842.705048
511.546622,740.205942,-7698.141797,1149.143247
511.546949,1110.308913,-7846.182985,1685.410096
511.547277,1258.350101,-8142.265362,1455.581446
511.547604,1480.411884,-8512.368333,1225.752797
511.547932,962.267725,-9326.594869,1149.143247
511.548260,-518.144159,-10658.965565,459.657299
511.548587,-1702.473667,-10436.903782,153.219100
511.548915,-1702.473667,-10140.821405,76.609550
511.549242,-1184.329507,-9696.697840,612.876398
511.549570,0.000000,-9548.656652,612.876398
511.549897,0.000000,-9844.739029,689.485948
511.550225,-148.041188,-9844.739029,766.095498
511.550552,0.000000,-8734.430116,1225.752797
511.550880,666.185348,-9104.533087,1225.752797
511.551208,-222.061783,-9696.697840,919.314598
511.551535,-1776.494261,-9696.697840,383.047749
511.551863,-2294.638420,-9326.594869,536.266849
511.552190,-1702.473667,-8216.285956,612.876398
511.552518,-518.144159,-7772.162391,1072.533697
511.552845,148.041188,-8216.285956,1455.581446
511.553173,0.000000,-8438.347739,1378.971896
511.553500,740.205942,-8068.244768,1378.971896
511.553828,814.226536,-7772.162391,1608.800546
511.554156,666.185348,-8586.388927,1378.971896
511.554483,-518.144159,-9474.636058,995.924147
511.554811,-1924.535449,-10066.800811,229.828649
511.555138,-2294.638420,-9326.594869,-229.828649
511.555466,-888.247130,-8438.347739,-229.828649
511.555793,0.000000,-8660.409521,0.000000
511.556121,-148.041188,-8586.388927,0.000000
511.556448,222.061783,-9474.636058,229.828649
511.556776,74.020594,-9030.512492,153.219100
511.557103,814.226536,-8512.368333,766.095498
511.557431,814.226536,-8956.491898,842.705048
511.557759,-296.082377,-9918.759623,459.657299
511.558086,-1924.535449,-10214.842000,306.438199
511.558414,-1924.535449,-9326.594869,153.219100
511.558741,-1110.308913,-8660.409521,306.438199
511.559069,-592.164754,-8586.388927,612.876398
511.559396,-444.123565,-9252.574275,536.266849
511.559724,0.000000,-8364.327145,76.609550
511.560051,888.247130,-7179.997637,306.438199
511.560379,1850.514855,-7254.018232,995.924147
511.560707,1332.370696,-7624.121203,842.705048
511.561034,296.082377,-9030.512492,76.609550
511.561362,-1110.308913,-8882.471304,0.000000
511.561689,-1110.308913,-8364.327145,0.000000
511.562017,-814.226536,-9030.512492,153.219100
511.562344,-592.164754,-9548.656652,0.000000
511.562672,-962.267725,-10214.842000,76.609550
511.562999,-296.082377,-10066.800811,383.047749
511.563327,518.144159,-9326.594869,766.095498
511.563655,1110.308913,-9474.636058,1149.143247
511.563982,814.226536,-9474.636058,536.266849
511.564310,-592.164754,-9474.636058,306.438199
511.564637,-1628.453072,-9326.594869,0.000000
511.564965,-1628.453072,-8438.347739,153.219100
511.565292,-962.267725,-8364.327145,459.657299
511.565620,-666.185348,-8438.347739,842.705048
511.565947,-592.164754,-8882.471304,612.876398
511.566275,296.082377,-8364.327145,383.047749
511.566603,888.247130,-7994.224174,1072.533697
511.566930,1258.350101,-8660.409521,1149.143247
511.567258,0.000000,-9548.656652,842.705048
511.567585,-1036.288319,-9474.636058,0.000000
511.567913,-1184.329507,-8882.471304,0.000000
511.568240,-814.226536,-8512.368333,229.828649
511.568568,74.020594,-9252.574275,612.876398
511.568895,148.041188,-9622.677246,766.095498
511.569223,518.144159,-9178.553681,842.705048
511.569550,1258.350101,-9178.553681,1225.752797
511.569878,1628.453072,-9474.636058,1685.410096
511.570206,740.205942,-10436.903782,1378.971896
511.570533,-888.247130,-11029.068536,1072.533697
511.570861,-1850.514855,-11029.068536,383.047749
511.571188,-2368.659014,-9474.636058,612.876398
511.571516,-1258.350101,-9400.615463,766.095498
511.571843,-888.247130,-9030.512492,229.828649
511.572171,-740.205942,-9030.512492,229.828649
511.572498,-222.061783,-8438.347739,459.657299
511.572826,148.041188,-7179.997637,536.266849
511.573154,888.247130,-7476.080014,842.705048
511.573481,296.082377,-8216.285956,76.609550
511.573809,-1184.329507,-9326.594869,76.609550
511.574136,-1998.556043,-9030.512492,229.828649
511.574464,-1924.535449,-8586.388927,995.924147
511.574791,-888.247130,-9252.574275,842.705048
511.575119,-1036.288319,-9844.739029,995.924147
511.575446,-666.185348,-10214.842000,766.095498
511.575774,0.000000,-9400.615463,612.876398
511.576102,1258.350101,-8734.430116,766.095498
511.576429,2146.597232,-9326.594869,842.705048
511.576757,666.185348,-9696.697840,383.047749
511.577084,-296.082377,-10066.800811,0.000000
511.577412,-888.247130,-9400.615463,-306.438199
511.577739,-740.205942,-8956.491898,153.219100
511.578067,-296.082377,-8364.327145,153.219100
511.578394,0.000000,-9622.677246,153.219100
511.578722,0.000000,-9400.615463,229.828649
511.579050,370.102971,-8660.409521,842.705048
511.579377,1036.288319,-8586.388927,1225.752797
511.579705,222.061783,-8586.388927,1608.800546
511.580032,-592.164754,-9992.780217,383.047749
511.580360,-1702.473667,-9696.697840,153.219100
511.580687,-2146.597232,-8586.388927,76.609550
511.581015,-1036.288319,-8364.327145,153.219100
511.581342,-222.061783,-8364.327145,383.047749
511.581670,0.000000,-8660.409521,383.047749
511.581997,444.123565,-8438.347739,612.876398
511.582325,1258.350101,-7846.182985,1072.533697
511.582653,1776.494261,-8512.368333,1225.752797
511.582980,1184.329507,-9326.594869,995.924147
511.583308,-962.267725,-9844.739029,0.000000
511.583635,-1776.494261,-10140.821405,76.609550
511.583963,-1702.473667,-9474.636058,306.438199
511.584290,-1110.308913,-9400.615463,842.705048
511.584618,-740.205942,-9474.636058,689.485948
511.584945,-444.123565,-9770.718434,689.485948
511.585273,148.041188,-8734.430116,766.095498
511.585601,592.164754,-8068.244768,1072.533697
511.585928,370.102971,-8290.306550,766.095498
511.586256,-444.123565,-9178.553681,612.876398
511.586583,-1258.350101,-9326.594869,76.609550
511.586911,-1850.514855,-8512.368333,0.000000
511.587238,-1036.288319,-8290.306550,536.266849
511.587566,-222.061783,-8586.388927,842.705048
511.587893,0.000000,-9030.512492,919.314598
511.588221,666.185348,-9400.615463,766.095498
511.588549,1110.308913,-8438.347739,1608.800546
511.588876,1406.391290,-8808.450710,1532.190996
511.589204,888.247130,-9474.636058,1455.581446
511.589531,-666.185348,-10436.903782,612.876398
511.589859,-1702.473667,-10214.842000,383.047749
511.590186,-1628.453072,-9400.615463,383.047749
511.590514,-1036.288319,-8808.450710,689.485948
511.590841,-370.102971,-9252.574275,383.047749
511.591169,-370.102971,-9326.594869,383.047749
511.591497,444.123565,-9030.512492,76.609550
511.591824,296.082377,-8142.265362,383.047749
511.592152,740.205942,-8586.388927,842.705048
511.592479,148.041188,-9622.677246,689.485948
511.592807,-1406.391290,-10066.800811,153.219100
511.593134,-1998.556043,-9622.677246,229.828649
511.593462,-1998.556043,-8808.450710,0.000000
511.593789,-1702.473667,-8882.471304,306.438199
511.594117,-1036.288319,-9178.553681,153.219100
511.594445,-888.247130,-9178.553681,0.000000
511.594772,148.041188,-8512.368333,153.219100
511.595100,1776.494261,-8068.244768,536.266849
511.595427,2442.679609,-8512.368333,995.924147
511.595755,888.247130,-9474.636058,536.266849
511.596082,-518.144159,-9918.759623,229.828649
511.596410,-1702.473667,-9770.718434,0.000000
511.596737,-1406.391290,-9622.677246,306.438199
511.597065,-518.144159,-9844.739029,0.000000
511.597392,-962.267725,-10140.821405,76.609550
511.597720,-370.102971,-10140.821405,0.000000
511.598048,370.102971,-9326.594869,229.828649
511.598375,1850.514855,-8882.471304,1225.752797
511.598703,1480.411884,-8438.347739,1072.533697
511.599030,740.205942,-9252.574275,536.266849
511.599358,-592.164754,-10066.800811,229.828649
511.599685,-1480.411884,-9252.574275,229.828649
511.600013,-1110.308913,-9030.512492,536.266849
511.600340,-222.061783,-8882.471304,1302.362347
511.600668,0.000000,-9030.512492,612.876398
511.600996,666.185348,-8512.368333,1072.533697
511.601323,1850.514855,-7698.141797,1532.190996
511.601651,2368.659014,-7624.121203,1915.238745
511.601978,1924.535449,-8882.471304,1532.190996
511.602306,0.000000,-9326.594869,919.314598
511.602633,-1998.556043,-9770.718434,689.485948
511.602961,-2590.720797,-9622.677246,306.438199
511.603288,-2442.679609,-9326.594869,536.266849
511.603616,-2146.597232,-9696.697840,842.705048
511.603944,-2146.597232,-9696.697840,612.876398
511.604271,-1628.453072,-9030.512492,612.876398
511.604599,-814.226536,-8142.265362,459.657299
511.604926,0.000000,-8068.244768,536.266849
511.605254,0.000000,-8882.471304,0.000000
511.605581,-1406.391290,-8956.491898,-306.438199
511.605909,-2516.700203,-8512.368333,-536.266849
511.606236,-2072.576638,-8364.327145,0.000000
511.606564,-1258.350101,-8586.388927,229.828649
511.606892,-592.164754,-8586.388927,536.266849
511.607219,222.061783,-8660.409521,1149.143247
511.607547,1554.432478,-8512.368333,1455.581446
511.607874,2146.597232,-8364.327145,2145.067394
511.608202,2516.700203,-9252.574275,1915.238745
511.608529,1480.411884,-9770.718434,1455.581446
511.608857,0.000000,-10140.821405,766.095498
511.609184,74.020594,-9918.759623,153.219100
511.609512,-666.185348,-9326.594869,383.047749
511.609839,0.000000,-9252.574275,306.438199
511.610167,0.000000,-10066.800811,153.219100
511.610495,0.000000,-9770.718434,536.266849
511.610822,814.226536,-8734.430116,306.438199
511.611150,1110.308913,-9178.553681,383.047749
511.611477,0.000000,-9622.677246,0.000000
511.611805,-1554.432478,-10362.883188,-153.219100
511.612132,-2368.659014,-10066.800811,-612.876398
511.612460,-1998.556043,-8364.327145,-459.657299
511.612787,-1036.288319,-8142.265362,-229.828649
511.613115,74.020594,-8216.285956,459.657299
511.613443,296.082377,-8068.244768,383.047749
511.613770,1258.350101,-7476.080014,1302.362347
511.614098,2072.576638,-7550.100608,2221.676944
511.614425,1850.514855,-8068.244768,1991.848295
511.614753,370.102971,-9400.615463,1149.143247
511.615080,-814.226536,-10214.842000,766.095498
511.615408,-1554.432478,-10288.862594,612.876398
511.615735,-1332.370696,-9400.615463,766.095498
511.616063,-666.185348,-9326.594869,919.314598
511.616391,-592.164754,-9622.677246,536.266849
511.616718,-444.123565,-9918.759623,229.828649
511.617046,-370.102971,-9548.656652,459.657299
511.617373,0.000000,-8882.471304,153.219100
511.617701,148.041188,-9178.553681,-153.219100
511.618028,-1628.453072,-9918.759623,0.000000
511.618356,-3182.885551,-10362.883188,-689.485948
511.618683,-3256.906145,-9252.574275,-153.219100
511.619011,-2220.617826,-8512.368333,0.000000
511.619339,-592.164754,-8364.327145,842.705048
511.619666,-666.185348,-8364.327145,1149.143247
511.619994,518.144159,-8734.430116,1378.971896
511.620319,1110.308913,-7698.141797,1378.971896
511.620647,2146.597232,-8068.244768,1838.629195
511.620974,1702.473667,-8438.347739,1302.362347
511.621302,148.041188,-9474.636058,1378.971896
511.621629,-518.144159,-10140.821405,766.095498
511.621957,-666.185348,-9252.574275,689.485948
511.622284,-592.164754,-9474.636058,766.095498
511.622612,0.000000,-9992.780217,1149.143247
511.622939,0.000000,-10214.842000,0.000000
511.623267,0.000000,-10584.944971,459.657299
511.623594,148.041188,-10140.821405,229.828649
511.623922,444.123565,-9844.739029,383.047749
511.624249,-296.082377,-10436.903782,0.000000
511.624577,-1184.329507,-10732.986159,-536.266849
511.624904,-2294.638420,-9844.739029,-842.705048
511.625232,-2072.576638,-8364.327145,-383.047749
511.625559,-1036.288319,-8068.244768,-229.828649
511.625887,-592.164754,-8216.285956,0.000000
511.626214,222.061783,-8438.347739,0.000000
511.626542,666.185348,-7328.038826,995.924147
511.626869,1924.535449,-7328.038826,1608.800546
511.627197,2220.617826,-8512.368333,1838.629195
511.627524,666.185348,-9474.636058,1685.410096
511.627852,0.000000,-9770.718434,1915.238745
511.628179,-962.267725,-8956.491898,1149.143247
511.628507,-962.267725,-9178.553681,1072.533697
511.628834,-888.247130,-9474.636058,612.876398
511.629162,-814.226536,-9992.780217,612.876398
511.629489,-592.164754,-9770.718434,766.095498
511.629817,74.020594,-8512.368333,306.438199
511.630144,296.082377,-8808.450710,153.219100
511.630472,296.082377,-9400.615463,153.219100
511.630799,-1036.288319,-9918.759623,0.000000
511.631126,-2368.659014,-10288.862594,-689.485948
511.631454,-2812.782580,-9030.512492,-766.095498
511.631781,-1924.535449,-8290.306550,-229.828649
511.632109,-888.247130,-8216.285956,76.609550
511.632436,-370.102971,-8512.368333,536.266849
511.632764,222.061783,-8364.327145,1072.533697
511.633091,1554.432478,-7254.018232,1838.629195
511.633419,1998.556043,-7328.038826,2451.505594
511.633746,1776.494261,-7994.224174,2145.067394
511.634074,888.247130,-9252.574275,1455.581446
511.634401,-296.082377,-8734.430116,1378.971896
511.634729,148.041188,-8068.244768,1455.581446
511.635056,0.000000,-7846.182985,1378.971896
511.635384,0.000000,-9030.512492,1225.752797
511.635711,-962.267725,-9992.780217,689.485948
511.636039,0.000000,-9474.636058,383.047749
511.636366,518.144159,-8586.388927,536.266849
511.636694,962.267725,-9178.553681,766.095498
511.637021,-518.144159,-10362.883188,76.609550
511.637349,-2368.659014,-11029.068536,-306.438199
511.637676,-2516.700203,-9918.759623,-459.657299
511.638004,-2516.700203,-8586.388927,-766.095498
511.638331,-1184.329507,-7846.182985,383.047749
511.638659,-814.226536,-8512.368333,229.828649
511.638986,-740.205942,-8216.285956,536.266849
511.639314,74.020594,-7328.038826,995.924147
511.639641,1184.329507,-6957.935855,1225.752797
511.639969,1850.514855,-7698.141797,1455.581446
511.640296,-296.082377,-8734.430116,1072.533697
511.640624,-1110.308913,-9770.718434,689.485948
511.640951,-1184.329507,-9178.553681,689.485948
511.641279,148.041188,-8586.388927,1378.971896
511.641606,1628.453072,-8882.471304,1762.019645
511.641934,1184.329507,-9474.636058,1915.238745
511.642261,740.205942,-10066.800811,1302.362347
511.642589,740.205942,-9770.718434,1302.362347
511.642916,1480.411884,-9474.636058,1302.362347
511.643244,518.144159,-10510.924376,919.314598
511.643571,-518.144159,-11621.233289,536.266849
511.643899,-2220.617826,-11621.233289,383.047749
511.644226,-2516.700203,-10436.903782,383.047749
511.644554,-962.267725,-9548.656652,1608.800546
511.644881,74.020594,-9178.553681,2221.676944
511.645208,962.267725,-9178.553681,2374.896044
511.645536,740.205942,-9252.574275,2451.505594
511.645863,814.226536,-8660.409521,2987.772442
511.646191,1628.453072,-7920.203579,3447.429741
511.646518,1850.514855,-8216.285956,3907.087040
511.646846,962.267725,-9030.512492,3830.477490
511.647173,-740.205942,-9844.739029,3294.210641
511.647501,-1924.535449,-9178.553681,3524.039291
511.647828,-1258.350101,-8734.430116,3447.429741
511.648156,-888.247130,-8586.388927,3064.381992
511.648483,-1258.350101,-9400.615463,2987.772442
511.648811,-2146.597232,-10807.006753,1762.019645
511.649138,-2368.659014,-9918.759623,1838.629195
511.649466,-814.226536,-8956.491898,2374.896044
511.649793,888.247130,-8660.409521,3140.991542
511.650121,592.164754,-9696.697840,3140.991542
511.650448,-962.267725,-10732.986159,3217.601092
511.650776,-3330.926739,-11251.130318,2221.676944
511.651103,-3775.050304,-9770.718434,2221.676944
511.651431,-1702.473667,-8512.368333,2911.162892
511.651758,0.000000,-8364.327145,3064.381992
511.652086,1036.288319,-8808.450710,3600.648841
511.652413,74.020594,-9252.574275,3140.991542
511.652741,0.000000,-8290.306550,3447.429741
511.653068,1480.411884,-6883.915261,3983.696590
511.653396,3404.947333,-6883.915261,4673.182538
511.653723,3849.070898,-7476.080014,5132.839837
511.654051,2516.700203,-8808.450710,4749.792088
511.654378,222.061783,-9770.718434,4366.744339
511.654706,-814.226536,-9696.697840,3983.696590
511.655033,-222.061783,-9400.615463,4290.134789
511.655361,1184.329507,-9696.697840,4366.744339
511.655688,1184.329507,-10066.800811,4519.963438
511.656016,-370.102971,-10955.047942,3677.258390
511.656343,-2590.720797,-10732.986159,2528.115143
511.656671,-3627.009116,-9696.697840,2374.896044
511.656998,-2368.659014,-8512.368333,2298.286494
511.657326,-296.082377,-7328.038826,2145.067394
511.657653,814.226536,-7920.203579,3140.991542
511.657981,0.000000,-8512.368333,3370.820191
511.658308,-2442.679609,-8956.491898,2681.334243
511.658636,-4589.276840,-9104.533087,2145.067394
511.658963,-4737.318029,-8882.471304,995.924147
511.659291,-3182.885551,-8512.368333,1378.971896
511.659618,-370.102971,-7920.203579,2068.457845
511.659945,1628.453072,-7328.038826,3370.820191
511.660273,1702.473667,-7254.018232,3983.696590
511.660600,962.267725,-7846.182985,4366.744339
511.660928,0.000000,-8438.347739,2911.162892
511.661255,-666.185348,-9696.697840,1685.410096
511.661583,0.000000,-9770.718434,1455.581446
511.661910,2072.576638,-9030.512492,2757.943793
511.662238,4293.194464,-8512.368333,4903.011187
511.662565,5107.421000,-9178.553681,5439.278036
511.662893,3775.050304,-10584.944971,5209.449386
511.663220,2294.638420,-11251.130318,4443.353888
511.663548,0.000000,-11547.212695,3140.991542
511.663875,-2146.597232,-11695.253884,2604.724693
511.664203,-1702.473667,-11177.109724,2604.724693
511.664530,296.082377,-10214.842000,3830.477490
511.664858,2442.679609,-9178.553681,4979.620737
511.665185,2738.761985,-8660.409521,5822.325785
511.665513,962.267725,-8438.347739,5286.058936
511.665840,-2738.761985,-8216.285956,3677.258390
511.666168,-5551.544565,-8882.471304,2451.505594
511.666495,-6661.853478,-8734.430116,1302.362347
511.666823,-4885.359217,-8068.244768,1149.143247
511.667150,-2368.659014,-7328.038826,2451.505594
511.667478,0.000000,-5773.606348,3677.258390
511.667805,1036.288319,-6439.791695,4903.011187
511.668133,370.102971,-7105.977043,4903.011187
511.668460,-1332.370696,-8734.430116,3830.477490
511.668788,-3404.947333,-9992.780217,2374.896044
511.669115,-4737.318029,-10658.965565,1455.581446
511.669443,-4071.132681,-10807.006753,1225.752797
511.669770,-2072.576638,-10584.944971,2681.334243
511.670098,888.247130,-9696.697840,3677.258390
511.670425,2960.823768,-9252.574275,4443.353888
511.670753,3923.091493,-8882.471304,4443.353888
511.671080,3552.988522,-9474.636058,4596.572988
511.671408,1702.473667,-9548.656652,3217.601092
511.671735,1110.308913,-10436.903782,2911.162892
511.672063,518.144159,-10214.842000,2681.334243
511.672390,666.185348,-10140.821405,3600.648841
511.672718,1184.329507,-9622.677246,4060.306139
511.673045,740.205942,-8512.368333,4443.353888
511.673373,222.061783,-8808.450710,3524.039291
511.673700,-296.082377,-8660.409521,2834.553343
511.674027,-740.205942,-8364.327145,2221.676944
511.674355,-444.123565,-7624.121203,1685.410096
511.674682,74.020594,-7698.141797,2374.896044
511.675010,888.247130,-7402.059420,2451.505594
511.675337,1332.370696,-7550.100608,3217.601092
511.675665,1554.432478,-8068.244768,3753.867940
511.675992,1110.308913,-8882.471304,3830.477490
511.676320,148.041188,-9622.677246,3600.648841
511.676647,-1554.432478,-10066.800811,3447.429741
511.676975,-1998.556043,-10436.903782,3294.210641
511.677302,-1924.535449,-10436.903782,3064.381992
511.677630,-1998.556043,-10140.821405,2987.772442
511.677957,-962.267725,-9474.636058,3370.820191
511.678285,-444.123565,-9030.512492,3447.429741
511.678612,-148.041188,-8290.306550,3140.991542
511.678940,0.000000,-7994.224174,3140.991542
511.679267,-592.164754,-7920.203579,2987.772442
511.679595,-740.205942,-7772.162391,2604.724693
511.679922,-1036.288319,-8142.265362,3064.381992
511.680250,-1036.288319,-8142.265362,3064.381992
511.680577,-444.123565,-8438.347739,3600.648841
511.680905,74.020594,-8956.491898,3830.477490
511.681232,444.123565,-9030.512492,4366.744339
511.681560,148.041188,-9474.636058,4213.525239
511.681887,-296.082377,-9992.780217,3907.087040
511.682215,-1332.370696,-9770.718434,3753.867940
511.682542,-740.205942,-9622.677246,3447.429741
511.682870,-518.144159,-9474.636058,3064.381992
511.683197,296.082377,-8882.471304,2911.162892
511.683525,962.267725,-8956.491898,3294.210641
511.683852,666.185348,-9178.553681,2681.334243
511.684180,74.020594,-9622.677246,2757.943793
511.684507,-370.102971,-10214.842000,2604.724693
511.684835,-1184.329507,-9548.656652,2451.505594
511.685162,-666.185348,-9992.780217,1915.238745
511.685490,-518.144159,-9622.677246,2145.067394
511.685817,-444.123565,-9474.636058,1915.238745
511.686145,-296.082377,-9400.615463,2145.067394
511.686472,-592.164754,-9474.636058,1532.190996
511.686800,-1184.329507,-9252.574275,1915.238745
511.687127,-1480.411884,-9030.512492,1685.410096
511.687455,-1480.411884,-8734.430116,1149.143247
511.687782,-666.185348,-8586.388927,1225.752797
511.688110,74.020594,-8216.285956,1072.533697
511.688437,888.247130,-7920.203579,919.314598
511.688764,814.226536,-8438.347739,1225.752797
511.689092,740.205942,-8956.491898,1302.362347
511.689419,666.185348,-9622.677246,1149.143247
511.689747,296.082377,-9992.780217,1225.752797
511.690074,962.267725,-10214.842000,1532.190996
511.690402,1258.350101,-10436.903782,1608.800546
511.690729,1406.391290,-10510.924376,1838.629195
511.691057,1776.494261,-10288.862594,1838.629195
511.691384,1258.350101,-9992.780217,1685.410096
511.691712,740.205942,-9622.677246,1608.800546
511.692039,-296.082377,-9400.615463,995.924147
511.692367,-444.123565,-9104.533087,919.314598
511.692694,-962.267725,-8808.450710,689.485948
511.693022,-740.205942,-8512.368333,689.485948
511.693349,-666.185348,-8364.327145,919.314598
511.693677,-370.102971,-8142.265362,1378.971896
511.694004,-962.267725,-7920.203579,919.314598
511.694332,-1184.329507,-7846.182985,459.657299
511.694659,-1184.329507,-8068.244768,536.266849
511.694987,-1332.370696,-8142.265362,306.438199
511.695314,-1184.329507,-8142.265362,153.219100
511.695642,-962.267725,-8290.306550,612.876398
511.695969,-888.247130,-8956.491898,919.314598
511.696297,-888.247130,-9030.512492,1149.143247
511.696624,-444.123565,-9104.533087,1302.362347
511.696952,-444.123565,-9104.533087,1149.143247
511.697279,0.000000,-9030.512492,1225.752797
511.697607,0.000000,-9104.533087,919.314598
511.697934,148.041188,-9252.574275,842.705048
511.698262,370.102971,-9474.636058,919.314598
511.698589,0.000000,-9104.533087,1838.629195
511.698917,814.226536,-9622.677246,1225.752797
511.699244,0.000000,-9400.615463,1225.752797
511.699572,0.000000,-9474.636058,1225.752797
511.699899,222.061783,-9178.553681,1072.533697
511.700227,0.000000,-9030.512492,1072.533697
511.700554,0.000000,-8882.471304,919.314598
511.700882,-296.082377,-8882.471304,766.095498
511.701209,-592.164754,-8882.471304,919.314598
511.701537,-592.164754,-8808.450710,842.705048
511.701864,-666.185348,-8734.430116,766.095498
511.702192,-592.164754,-8586.388927,612.876398
511.702519,-1258.350101,-8956.491898,459.657299
511.702846,-1036.288319,-9252.574275,306.438199
511.703174,-1036.288319,-9326.594869,76.609550
511.703501,-740.205942,-9252.574275,689.485948
511.703829,-444.123565,-9178.553681,612.876398
511.704156,0.000000,-9548.656652,689.485948
511.704484,0.000000,-9474.636058,689.485948
511.704811,0.000000,-9548.656652,383.047749
511.705139,-222.061783,-9548.656652,536.266849
511.705466,-74.020594,-9474.636058,689.485948
511.705794,-518.144159,-9844.739029,536.266849
511.706121,-444.123565,-9844.739029,842.705048
511.706449,-148.041188,-9622.677246,689.485948
511.706776,148.041188,-9548.656652,766.095498
511.707104,148.041188,-9252.574275,612.876398
511.707431,592.164754,-9326.594869,306.438199
511.707759,592.164754,-8808.450710,536.266849
511.708086,296.082377,-8734.430116,536.266849
511.708414,0.000000,-8956.491898,383.047749
511.708741,-222.061783,-9326.594869,536.266849
511.709069,0.000000,-9178.553681,306.438199
511.709396,-222.061783,-9400.615463,383.047749
511.709724,74.020594,-9326.594869,229.828649
511.710051,74.020594,-9178.553681,306.438199
511.710379,0.000000,-9104.533087,153.219100
511.710706,0.000000,-8808.450710,306.438199
511.711034,-296.082377,-8882.471304,0.000000
511.711361,-592.164754,-8660.409521,229.828649
511.711689,-592.164754,-8882.471304,153.219100
511.712016,-740.205942,-9104.533087,383.047749
511.712344,-518.144159,-9030.512492,306.438199
511.712671,-814.226536,-8734.430116,383.047749
511.712999,-518.144159,-8586.388927,229.828649
511.713326,-370.102971,-8660.409521,306.438199
511.713654,-370.102971,-8512.368333,383.047749
511.713981,-592.164754,-8364.327145,536.266849
511.714309,-370.102971,-8290.306550,689.485948
511.714636,-444.123565,-8808.450710,383.047749
511.714964,-740.205942,-9104.533087,842.705048
511.715291,-962.267725,-9474.636058,995.924147
511.715619,-666.185348,-9474.636058,919.314598
511.715946,-222.061783,-9030.512492,459.657299
511.716274,-370.102971,-8808.450710,612.876398
511.716601,-222.061783,-9104.533087,612.876398
511.716929,-222.061783,-8660.409521,536.266849
511.717256,-296.082377,-8808.450710,612.876398
511.717583,0.000000,-8734.430116,229.828649
511.717911,-666.185348,-9326.594869,919.314598
511.718238,-814.226536,-9474.636058,689.485948
511.718566,-518.144159,-9474.636058,842.705048
511.718893,-444.123565,-9400.615463,689.485948
511.719221,-296.082377,-9326.594869,842.705048
511.719548,-148.041188,-8808.450710,766.095498
511.719876,-296.082377,-8956.491898,536.266849
511.720203,-296.082377,-8956.491898,689.485948
511.720531,-666.185348,-8956.491898,306.438199
511.720858,-444.123565,-8882.471304,306.438199
511.721186,-592.164754,-8956.491898,919.314598
511.721513,-592.164754,-9030.512492,612.876398
511.721841,-370.102971,-9252.574275,383.047749
511.722168,-444.123565,-8956.491898,383.047749
511.722496,-296.082377,-9030.512492,612.876398
511.722823,0.000000,-8882.471304,76.609550
511.723151,0.000000,-9326.594869,459.657299
511.723478,-222.061783,-9474.636058,306.438199
511.723806,-518.144159,-9622.677246,536.266849
511.724133,-444.123565,-9622.677246,689.485948
511.724461,-296.082377,-9696.697840,536.266849
511.724788,-518.144159,-9326.594869,459.657299
511.725116,-148.041188,-9474.636058,459.657299
511.725443,-444.123565,-8956.491898,383.047749
511.725771,-592.164754,-8660.409521,229.828649
511.726098,-666.185348,-8882.471304,459.657299
511.726426,-666.185348,-8290.306550,459.657299
511.726753,-962.267725,-8660.409521,383.047749
511.727081,-962.267725,-8586.388927,536.266849
511.727408,-814.226536,-9030.512492,689.485948
511.727736,-518.144159,-8734.430116,383.047749
511.728063,0.000000,-8438.347739,689.485948
511.728391,222.061783,-8586.388927,459.657299
511.728718,296.082377,-8660.409521,229.828649
511.729046,148.041188,-9030.512492,306.438199
511.729373,0.000000,-9178.553681,766.095498
511.729701,-148.041188,-9474.636058,842.705048
511.730028,0.000000,-9992.780217,689.485948
511.730356,-296.082377,-9918.759623,919.314598
511.730683,0.000000,-9548.656652,766.095498
511.731011,222.061783,-9474.636058,919.314598
511.731338,518.144159,-8290.306550,383.047749
511.731666,518.144159,-8068.244768,229.828649
511.731993,518.144159,-8364.327145,153.219100
511.732321,148.041188,-8290.306550,153.219100
511.732648,-370.102971,-8512.368333,383.047749
511.732975,-370.102971,-9104.533087,612.876398
511.733303,-592.164754,-8660.409521,1149.143247
511.733630,-518.144159,-9178.553681,766.095498
511.733958,-148.041188,-9104.533087,383.047749
511.734285,0.000000,-8660.409521,306.438199
511.734613,148.041188,-8290.306550,383.047749
511.734940,296.082377,-8586.388927,383.047749
511.735268,296.082377,-8808.450710,76.609550
511.735595,74.020594,-8882.471304,306.438199
511.735923,-148.041188,-9252.574275,383.047749
511.736250,-444.123565,-9696.697840,536.266849
511.736578,-666.185348,-9622.677246,766.095498
511.736905,0.000000,-9770.718434,612.876398
511.737233,0.000000,-9474.636058,536.266849
511.737560,74.020594,-9400.615463,306.438199
511.737888,222.061783,-9178.553681,0.000000
511.738215,222.061783,-9104.533087,153.219100
511.738543,370.102971,-9030.512492,459.657299
511.738870,296.082377,-9622.677246,612.876398
511.739198,0.000000,-9770.718434,689.485948
511.739525,0.000000,-9844.739029,766.095498
511.739853,0.000000,-9844.739029,612.876398
511.740180,0.000000,-9252.574275,689.485948
511.740508,0.000000,-9326.594869,306.438199
511.740835,-148.041188,-9252.574275,153.219100
511.741163,-370.102971,-9252.574275,459.657299
511.741490,-222.061783,-9474.636058,766.095498
511.741818,-222.061783,-9252.574275,919.314598
511.742145,-444.123565,-9548.656652,766.095498
511.742473,-370.102971,-9548.656652,612.876398
511.742800,-370.102971,-9548.656652,536.266849
511.743128,-592.164754,-9326.594869,383.047749
511.743455,-518.144159,-9400.615463,1378.971896
511.743783,-962.267725,-9252.574275,229.828649
511.744110,-888.247130,-9474.636058,536.266849
511.744438,-962.267725,-9400.615463,612.876398
511.744765,-888.247130,-9548.656652,612.876398
511.745093,-222.061783,-9844.739029,842.705048
511.745420,-592.164754,-9178.553681,919.314598
511.745748,-518.144159,-9178.553681,689.485948
511.746075,-518.144159,-8882.471304,689.485948
511.746403,-592.164754,-8882.471304,612.876398
511.746730,-296.082377,-9030.512492,306.438199
511.747058,-592.164754,-8660.409521,459.657299
511.747385,-592.164754,-9104.533087,689.485948
511.747713,-740.205942,-8882.471304,842.705048
511.748040,-740.205942,-8808.450710,919.314598
511.748368,-444.123565,-8882.471304,459.657299
511.748695,-222.061783,-8586.388927,1225.752797
511.749022,-518.144159,-8290.306550,536.266849
511.749350,-370.102971,-8512.368333,612.876398
511.749677,-296.082377,-8586.388927,306.438199
511.750005,-592.164754,-8808.450710,612.876398
511.750332,-444.123565,-8808.450710,229.828649
511.750660,-814.226536,-8882.471304,306.438199
511.750987,-518.144159,-9252.574275,612.876398
511.751315,-370.102971,-9030.512492,689.485948
511.751642,0.000000,-8808.450710,612.876398
511.751970,74.020594,-8660.409521,766.095498
511.752297,518.144159,-8882.471304,689.485948
511.752625,0.000000,-8882.471304,536.266849
511.752952,74.020594,-9104.533087,536.266849
511.753280,0.000000,-9178.553681,612.876398
511.753607,-222.061783,-9326.594869,1149.143247
511.753935,296.082377,-9178.553681,612.876398
511.754262,0.000000,-9104.533087,383.047749
511.754590,74.020594,-8882.471304,459.657299
511.754917,0.000000,-8586.388927,459.657299
511.755245,0.000000,-8808.450710,536.266849
511.755572,0.000000,-8734.430116,76.609550
511.755900,-296.082377,-8734.430116,229.828649
511.756227,-296.082377,-8956.491898,459.657299
511.756555,-592.164754,-8956.491898,459.657299
511.756882,-518.144159,-9104.533087,459.657299
511.757210,-370.102971,-9178.553681,229.828649
511.757537,-370.102971,-9178.553681,459.657299
511.757865,-222.061783,-9400.615463,459.657299
511.758192,0.000000,-9104.533087,383.047749
511.758520,0.000000,-9326.594869,612.876398
511.758847,-148.041188,-8808.450710,919.314598
511.759175,0.000000,-9400.615463,995.924147
511.759502,0.000000,-9474.636058,766.095498
511.759830,0.000000,-9548.656652,689.485948
511.760157,0.000000,-9622.677246,612.876398
511.760485,0.000000,-9326.594869,842.705048
511.760812,0.000000,-9104.533087,383.047749
511.761140,148.041188,-9104.533087,459.657299
511.761467,0.000000,-9030.512492,459.657299
511.761795,0.000000,-9178.553681,459.657299
511.762122,0.000000,-9252.574275,536.266849
511.762450,-148.041188,-9918.759623,842.705048
511.762777,-370.102971,-9326.594869,612.876398
511.763105,-444.123565,-9474.636058,459.657299
511.763432,-370.102971,-9326.594869,383.047749
511.763760,-296.082377,-9400.615463,459.657299
511.764087,74.020594,-9622.677246,229.828649
511.764415,592.164754,-9104.533087,153.219100
511.764742,0.000000,-9178.553681,306.438199
511.765069,0.000000,-9326.594869,459.657299
511.765397,0.000000,-9326.594869,612.876398
511.765724,0.000000,-9030.512492,612.876398
511.766052,-370.102971,-9104.533087,919.314598
511.766379,-518.144159,-9474.636058,306.438199
511.766707,-296.082377,-9474.636058,612.876398
511.767034,-370.102971,-9326.594869,689.485948
511.767362,-148.041188,-8956.491898,1149.143247
511.767689,0.000000,-8882.471304,766.095498
511.768017,-222.061783,-8882.471304,612.876398
511.768344,-148.041188,-9030.512492,536.266849
511.768672,-370.102971,-8882.471304,689.485948
511.768999,-518.144159,-8734.430116,536.266849
511.769327,-444.123565,-8882.471304,612.876398
511.769654,-740.205942,-9178.553681,459.657299
511.769982,-444.123565,-9326.594869,612.876398
511.770309,-518.144159,-9178.553681,536.266849
511.770637,-518.144159,-9030.512492,689.485948
511.770964,-296.082377,-9178.553681,919.314598
511.771292,0.000000,-9252.574275,536.266849
511.771619,-296.082377,-9030.512492,459.657299
511.771947,-148.041188,-9104.533087,612.876398
511.772274,-296.082377,-9326.594869,1072.533697
511.772602,-592.164754,-9326.594869,1072.533697
511.772929,-814.226536,-8734.430116,766.095498
511.773257,-148.041188,-8882.471304,612.876398
511.773584,-296.082377,-8956.491898,536.266849
511.773912,-296.082377,-9030.512492,689.485948
511.774239,-296.082377,-9104.533087,612.876398
511.774567,-148.041188,-8808.450710,995.924147
511.774894,-518.144159,-8586.388927,689.485948
511.775222,-592.164754,-8808.450710,612.876398
511.775549,-592.164754,-8956.491898,536.266849
511.775877,-296.082377,-9104.533087,459.657299
511.776204,-370.102971,-8956.491898,689.485948
511.776532,-518.144159,-8956.491898,612.876398
511.776859,-296.082377,-9252.574275,536.266849
511.777187,-296.082377,-9326.594869,612.876398
511.777514,-296.082377,-9178.553681,306.438199
511.777842,-296.082377,-8956.491898,612.876398
511.778169,-222.061783,-9178.553681,0.000000
511.778497,-370.102971,-9252.574275,536.266849
511.778824,-296.082377,-9400.615463,612.876398
511.779152,-222.061783,-9252.574275,689.485948
511.779479,0.000000,-9252.574275,919.314598
511.779807,-370.102971,-9104.533087,612.876398
511.780134,-666.185348,-8956.491898,459.657299
511.780462,-444.123565,-8882.471304,536.266849
511.780789,-592.164754,-8882.471304,842.705048
511.781116,-296.082377,-8586.388927,842.705048
511.781444,-592.164754,-8512.368333,766.095498
511.781771,-444.123565,-8586.388927,459.657299
511.782099,-444.123565,-8586.388927,536.266849
511.782426,-370.102971,-8734.430116,306.438199
511.782754,-666.185348,-8734.430116,229.828649
511.783081,0.000000,-8660.409521,1149.143247
511.783409,-592.164754,-9030.512492,229.828649
511.783736,-444.123565,-9030.512492,383.047749
511.784064,-518.144159,-9178.553681,766.095498
511.784391,-296.082377,-9400.615463,689.485948
511.784719,-296.082377,-8956.491898,766.095498
511.785046,0.000000,-9400.615463,229.828649
511.785374,0.000000,-9178.553681,536.266849
511.785701,74.020594,-9178.553681,536.266849
511.786029,-148.041188,-9030.512492,459.657299
511.786356,0.000000,-8734.430116,383.047749
511.786684,-222.061783,-8660.409521,229.828649
511.787011,-296.082377,-8808.450710,612.876398
511.787339,-222.061783,-8734.430116,459.657299
511.787666,-592.164754,-8586.388927,383.047749
511.787994,-444.123565,-9030.512492,383.047749
511.788321,-296.082377,-8290.306550,536.266849
511.788649,-518.144159,-8734.430116,536.266849
511.788976,-444.123565,-8734.430116,383.047749
511.789304,-518.144159,-8882.471304,229.828649
511.789631,-296.082377,-9104.533087,459.657299
511.789959,-222.061783,-8882.471304,842.705048
511.790286,0.000000,-9178.553681,383.047749
511.790614,74.020594,-9326.594869,766.095498
511.790941,148.041188,-9474.636058,459.657299
511.791269,370.102971,-9548.656652,612.876398
511.791596,0.000000,-9252.574275,1149.143247
511.791924,74.020594,-9178.553681,383.047749
511.792251,0.000000,-9474.636058,536.266849
511.792579,0.000000,-9622.677246,689.485948
511.792906,0.000000,-9622.677246,689.485948
511.793234,0.000000,-9548.656652,536.266849
511.793561,222.061783,-9400.615463,306.438199
511.793889,-222.061783,-9400.615463,459.657299
511.794216,-148.041188,-9104.533087,306.438199
511.794544,-370.102971,-9030.512492,459.657299
511.794871,-148.041188,-9178.553681,459.657299
511.795199,-222.061783,-9178.553681,766.095498
511.795526,-148.041188,-9104.533087,612.876398
511.795854,-444.123565,-9622.677246,536.266849
511.796181,-370.102971,-9622.677246,612.876398
511.796509,-444.123565,-9622.677246,919.314598
511.796836,0.000000,-9622.677246,1532.190996
511.797163,0.000000,-9622.677246,459.657299
511.797491,148.041188,-9548.656652,306.438199
511.797818,0.000000,-9474.636058,612.876398
511.798146,0.000000,-9474.636058,612.876398
511.798473,0.000000,-9178.553681,689.485948
511.798801,74.020594,-9474.636058,229.828649
511.799128,-444.123565,-9474.636058,689.485948
511.799456,-444.123565,-9326.594869,459.657299
511.799783,-518.144159,-9326.594869,536.266849
511.800111,-296.082377,-8734.430116,383.047749
511.800438,0.000000,-8734.430116,995.924147
511.800766,-518.144159,-8660.409521,459.657299
511.801093,-370.102971,-8586.388927,536.266849
511.801421,-370.102971,-8808.450710,536.266849
511.801748,-518.144159,-8734.430116,612.876398
511.802076,-666.185348,-8808.450710,383.047749
511.802403,-888.247130,-8808.450710,459.657299
511.802731,-814.226536,-9030.512492,459.657299
511.803058,-296.082377,-9030.512492,536.266849
511.803386,0.000000,-8808.450710,536.266849
511.803713,222.061783,-8808.450710,1149.143247
511.804041,-222.061783,-8882.471304,459.657299
511.804368,-444.123565,-9326.594869,536.266849
511.804696,-444.123565,-9030.512492,536.266849
511.805023,-444.123565,-9178.553681,383.047749
511.805351,-518.144159,-9030.512492,689.485948
511.805678,-148.041188,-8734.430116,842.705048
511.806006,-592.164754,-8660.409521,536.266849
511.806333,-222.061783,-8438.347739,459.657299
511.806661,-444.123565,-8438.347739,153.219100
511.806988,-518.144159,-8290.306550,383.047749
511.807316,-148.041188,-8216.285956,995.924147
511.807643,-518.144159,-8438.347739,612.876398
511.807971,-740.205942,-8438.347739,383.047749
511.808298,-666.185348,-8808.450710,459.657299
511.808626,-740.205942,-8882.471304,612.876398
511.808953,-814.226536,-8734.430116,306.438199
511.809281,0.000000,-9030.512492,306.438199
511.809608,0.000000,-8956.491898,536.266849
511.809936,0.000000,-9030.512492,536.266849
511.810263,-148.041188,-9326.594869,766.095498
511.810591,0.000000,-9252.574275,689.485948
511.810918,-592.164754,-9252.574275,536.266849
511.811246,-444.123565,-9548.656652,766.095498
511.811573,-518.144159,-9474.636058,842.705048
511.811901,-592.164754,-9474.636058,689.485948
511.812228,-222.061783,-9178.553681,919.314598
511.812556,0.000000,-9104.533087,306.438199
511.812883,-148.041188,-8882.471304,459.657299
511.813210,0.000000,-8882.471304,536.266849
511.813538,-296.082377,-9104.533087,459.657299
511.813865,-1036.288319,-9252.574275,612.876398
511.814193,-370.102971,-9474.636058,766.095498
511.814520,-592.164754,-9104.533087,689.485948
511.814848,-370.102971,-9178.553681,919.314598
511.815175,-370.102971,-8882.471304,536.266849
511.815503,-222.061783,-9104.533087,612.876398
511.815830,370.102971,-9104.533087,842.705048
511.816158,74.020594,-9030.512492,459.657299
511.816485,0.000000,-9178.553681,536.266849
511.816813,0.000000,-9474.636058,689.485948
511.817140,0.000000,-9548.656652,689.485948
511.817468,0.000000,-9400.615463,842.705048
511.817795,148.041188,-9474.636058,536.266849
511.818123,0.000000,-9622.677246,689.485948
511.818450,0.000000,-9400.615463,842.705048
511.818778,0.000000,-9474.636058,459.657299
511.819105,0.000000,-8882.471304,306.438199
511.819433,0.000000,-8808.450710,842.705048
511.819760,0.000000,-9104.533087,766.095498
511.820088,0.000000,-9326.594869,766.095498
511.820415,0.000000,-9326.594869,842.705048
511.820743,0.000000,-9104.533087,766.095498
511.821071,-592.164754,-9104.533087,612.876398
511.821398,-296.082377,-9178.553681,612.876398
511.821726,0.000000,-9030.512492,306.438199
511.822053,148.041188,-8882.471304,459.657299
511.822381,148.041188,-8808.450710,383.047749
511.822708,0.000000,-8660.409521,229.828649
511.823036,-222.061783,-9474.636058,919.314598
511.823364,-296.082377,-9474.636058,612.876398
511.823691,-222.061783,-9622.677246,612.876398
511.824019,-222.061783,-9326.594869,766.095498
511.824346,0.000000,-9400.615463,153.219100
511.824674,-222.061783,-9326.594869,842.705048
511.825001,0.000000,-9326.594869,459.657299
511.825329,-222.061783,-8956.491898,306.438199
511.825657,0.000000,-9178.553681,306.438199
511.825984,0.000000,-9252.574275,536.266849
511.826312,-592.164754,-9030.512492,689.485948
511.826639,-444.123565,-9104.533087,383.047749
511.826967,-296.082377,-9252.574275,459.657299
511.827294,-518.144159,-9104.533087,536.266849
511.827622,-444.123565,-8956.491898,383.047749
511.827950,-370.102971,-8808.450710,383.047749
511.828277,148.041188,-9030.512492,153.219100
511.828605,-222.061783,-8956.491898,766.095498
511.828932,0.000000,-9030.512492,612.876398
511.829260,-296.082377,-9252.574275,383.047749
511.829587,0.000000,-9474.636058,842.705048
511.829915,-370.102971,-9104.533087,459.657299
511.830243,-444.123565,-9252.574275,229.828649
511.830570,-370.102971,-9178.553681,306.438199
511.830898,-370.102971,-9400.615463,383.047749
511.831225,0.000000,-8586.388927,689.485948
511.831553,0.000000,-8660.409521,306.438199
511.831880,-222.061783,-9104.533087,612.876398
511.832208,-444.123565,-8734.430116,689.485948
511.832536,-518.144159,-8956.491898,612.876398
511.832863,-592.164754,-8512.368333,536.266849
511.833191,-592.164754,-8808.450710,766.095498
511.833518,-444.123565,-8808.450710,536.266849
511.833846,-444.123565,-9104.533087,536.266849
511.834173,-518.144159,-8734.430116,536.266849
511.834501,-592.164754,-8808.450710,459.657299
511.834829,-148.041188,-8734.430116,919.314598
511.835156,-444.123565,-8808.450710,536.266849
511.835484,-370.102971,-8882.471304,536.266849
511.835811,-370.102971,-8882.471304,612.876398
511.836139,-518.144159,-9104.533087,612.876398
511.836466,-148.041188,-9326.594869,459.657299
511.836794,-592.164754,-8808.450710,766.095498
511.837122,-296.082377,-9326.594869,766.095498
511.837449,0.000000,-9326.594869,766.095498
511.837777,-296.082377,-8956.491898,842.705048
511.838104,-592.164754,-8734.430116,229.828649
511.838432,-518.144159,-8882.471304,1532.190996
511.838759,-296.082377,-9104.533087,612.876398
511.839087,-592.164754,-9104.533087,612.876398
511.839415,-518.144159,-9104.533087,689.485948
511.839742,-370.102971,-8956.491898,842.705048
511.840070,-148.041188,-9252.574275,842.705048
511.840397,-444.123565,-9030.512492,612.876398
511.840725,-296.082377,-9104.533087,383.047749
511.841052,-296.082377,-9104.533087,536.266849
511.841380,0.000000,-9104.533087,459.657299
511.841708,0.000000,-8882.471304,612.876398
511.842035,0.000000,-9400.615463,689.485948
511.842363,0.000000,-9326.594869,536.266849
511.842690,0.000000,-9548.656652,383.047749
511.843018,-296.082377,-9474.636058,153.219100
511.843345,-222.061783,-9400.615463,612.876398
511.843673,0.000000,-9400.615463,153.219100
511.844001,-296.082377,-9104.533087,153.219100
511.844328,-148.041188,-9474.636058,306.438199
511.844656,-296.082377,-9252.574275,229.828649
511.844983,0.000000,-8808.450710,612.876398
511.845311,0.000000,-9030.512492,0.000000
511.845638,-444.123565,-9178.553681,459.657299
511.845966,-444.123565,-9178.553681,229.828649
511.846294,-222.061783,-9178.553681,536.266849
511.846621,0.000000,-8956.491898,536.266849
511.846949,0.000000,-9178.553681,0.000000
511.847276,-296.082377,-9252.574275,306.438199
511.847604,-222.061783,-9104.533087,459.657299
511.847931,-148.041188,-9178.553681,459.657299
511.848259,-222.061783,-9178.553681,612.876398
511.848587,0.000000,-9104.533087,689.485948
511.848914,-296.082377,-9326.594869,689.485948
511.849242,-148.041188,-9474.636058,536.266849
511.849569,-296.082377,-9400.615463,459.657299
511.849897,-296.082377,-9104.533087,459.657299
511.850224,0.000000,-9252.574275,536.266849
511.850552,-370.102971,-8956.491898,766.095498
511.850880,-296.082377,-9104.533087,612.876398
511.851207,-370.102971,-9178.553681,306.438199
511.851535,-444.123565,-9178.553681,766.095498
511.851862,-296.082377,-9400.615463,383.047749
511.852190,-518.144159,-8956.491898,689.485948
511.852517,-296.082377,-9178.553681,689.485948
511.852845,-444.123565,-9326.594869,766.095498
511.853173,-296.082377,-9400.615463,536.266849
511.853500,-296.082377,-8882.471304,995.924147
511.853828,0.000000,-8882.471304,459.657299
511.854155,0.000000,-9104.533087,536.266849
511.854483,-148.041188,-9252.574275,612.876398
511.854810,0.000000,-9474.636058,536.266849
511.855138,148.041188,-9326.594869,306.438199
511.855466,0.000000,-8808.450710,536.266849
511.855793,0.000000,-9178.553681,612.876398
511.856121,-148.041188,-9252.574275,689.485948
511.856448,-370.102971,-9326.594869,612.876398
511.856776,-370.102971,-9252.574275,383.047749
511.857103,-222.061783,-9400.615463,536.266849
511.857431,-222.061783,-9104.533087,459.657299
511.857759,-222.061783,-9030.512492,459.657299
511.858086,-370.102971,-8956.491898,459.657299
511.858414,-296.082377,-8882.471304,766.095498
511.858741,-148.041188,-8734.430116,76.609550
511.859069,-740.205942,-8808.450710,459.657299
511.859396,-518.144159,-9104.533087,459.657299
511.859724,-444.123565,-9326.594869,306.438199
511.860052,-296.082377,-8956.491898,383.047749
511.860379,0.000000,-9104.533087,383.047749
511.860707,0.000000,-9104.533087,536.266849
511.861034,0.000000,-9178.553681,612.876398
511.861362,-148.041188,-8956.491898,689.485948
511.861689,-148.041188,-9030.512492,536.266849
511.862017,-370.102971,-9178.553681,536.266849
511.862345,-296.082377,-9548.656652,459.657299
511.862672,-370.102971,-8956.491898,766.095498
511.863000,-444.123565,-8956.491898,459.657299
511.863327,-444.123565,-9030.512492,612.876398
511.863655,-370.102971,-8882.471304,689.485948
511.863982,-296.082377,-8734.430116,76.609550
511.864310,-444.123565,-8290.306550,536.266849
511.864638,-518.144159,-8808.450710,459.657299
511.864965,-592.164754,-8660.409521,536.266849
511.865293,-444.123565,-8882.471304,612.876398
511.865620,-740.205942,-8734.430116,459.657299
511.865948,-592.164754,-8956.491898,995.924147
511.866275,-592.164754,-9178.553681,459.657299
511.866603,-592.164754,-8882.471304,536.266849
511.866931,-370.102971,-8956.491898,536.266849
511.867258,-148.041188,-8734.430116,766.095498
511.867586,-296.082377,-8882.471304,995.924147
511.867913,-222.061783,-8956.491898,383.047749
511.868241,-592.164754,-8956.491898,383.047749
511.868568,-592.164754,-8956.491898,612.876398
511.868896,-592.164754,-9326.594869,612.876398
511.869224,-296.082377,-9104.533087,689.485948
511.869551,-370.102971,-9178.553681,919.314598
511.869879,-444.123565,-8882.471304,612.876398
511.870206,-444.123565,-9030.512492,536.266849
511.870534,-296.082377,-9030.512492,536.266849
511.870861,0.000000,-8808.450710,842.705048
511.871189,0.000000,-8882.471304,612.876398
511.871517,-444.123565,-9104.533087,459.657299
511.871844,-518.144159,-9252.574275,612.876398
511.872172,-518.144159,-9326.594869,536.266849
511.872499,-222.061783,-8956.491898,459.657299
511.872827,0.000000,-9326.594869,306.438199
511.873154,0.000000,-9178.553681,306.438199
511.873482,0.000000,-9030.512492,536.266849
511.873810,0.000000,-9326.594869,536.266849
511.874137,0.000000,-9252.574275,383.047749
511.874465,74.020594,-9030.512492,612.876398
511.874792,-222.061783,-9326.594869,689.485948
511.875120,-370.102971,-9474.636058,842.705048
511.875447,0.000000,-9474.636058,689.485948
511.875775,0.000000,-9400.615463,536.266849
511.876103,-148.041188,-9252.574275,842.705048
511.876430,0.000000,-9030.512492,229.828649
511.876758,0.000000,-8882.471304,459.657299
511.877085,-148.041188,-9030.512492,383.047749
511.877413,-444.123565,-9326.594869,536.266849
511.877740,-370.102971,-9548.656652,995.924147
511.878068,-296.082377,-9326.594869,536.266849
511.878396,-370.102971,-9474.636058,536.266849
511.878723,-296.082377,-9326.594869,459.657299
511.879051,0.000000,-9400.615463,536.266849
511.879378,0.000000,-8808.450710,612.876398
511.879706,0.000000,-8808.450710,536.266849
511.880033,0.000000,-9104.533087,459.657299
511.880361,0.000000,-9178.553681,536.266849
511.880689,-370.102971,-9252.574275,383.047749
511.881016,-148.041188,-9474.636058,612.876398
511.881344,0.000000,-9474.636058,1149.143247
511.881671,0.000000,-9178.553681,459.657299
511.881999,0.000000,-9104.533087,612.876398
511.882326,0.000000,-9104.533087,306.438199
511.882654,0.000000,-9030.512492,459.657299
511.882982,-222.061783,-8586.388927,612.876398
511.883309,74.020594,-8882.471304,76.609550
511.883637,-148.041188,-9104.533087,612.876398
511.883964,-444.123565,-9326.594869,689.485948
511.884292,-148.041188,-9326.594869,536.266849
511.884619,-222.061783,-9030.512492,919.314598
511.884947,-148.041188,-9178.553681,612.876398
511.885275,-296.082377,-9326.594869,306.438199
511.885602,-148.041188,-9178.553681,536.266849
511.885930,0.000000,-9104.533087,383.047749
511.886257,74.020594,-8808.450710,153.219100
511.886585,-148.041188,-9104.533087,766.095498
511.886912,-444.123565,-9252.574275,919.314598
511.887240,-518.144159,-9326.594869,536.266849
511.887568,-666.185348,-9104.533087,919.314598
511.887895,-592.164754,-9326.594869,612.876398
511.888223,-222.061783,-8734.430116,689.485948
511.888550,-296.082377,-9030.512492,612.876398
511.888878,-444.123565,-8734.430116,459.657299
511.889205,-296.082377,-8882.471304,689.485948
511.889533,-518.144159,-8586.388927,612.876398
511.889861,-296.082377,-9178.553681,1149.143247
511.890188,-592.164754,-9030.512492,766.095498
511.890516,-888.247130,-8882.471304,766.095498
511.890843,-962.267725,-8882.471304,842.705048
511.891171,-592.164754,-9030.512492,842.705048
511.891498,-740.205942,-8956.491898,536.266849
511.891826,0.000000,-8956.491898,1149.143247
511.892154,-296.082377,-9178.553681,842.705048
511.892481,-370.102971,-9252.574275,842.705048
511.892809,-296.082377,-9104.533087,536.266849
511.893136,-518.144159,-9252.574275,0.000000
511.893464,-296.082377,-8956.491898,536.266849
511.893791,-222.061783,-9252.574275,612.876398
511.894119,-222.061783,-9326.594869,383.047749
511.894447,-444.123565,-9326.594869,459.657299
511.894774,-444.123565,-9104.533087,459.657299
511.895102,-296.082377,-8586.388927,459.657299
511.895429,-148.041188,-8882.471304,229.828649
511.895757,0.000000,-8882.471304,459.657299
511.896084,0.000000,-8882.471304,153.219100
511.896412,-444.123565,-9104.533087,383.047749
511.896740,0.000000,-8734.430116,153.219100
511.897067,-296.082377,-8956.491898,306.438199
511.897395,-296.082377,-9104.533087,306.438199
511.897722,0.000000,-9400.615463,76.609550
511.898050,0.000000,-9252.574275,383.047749
511.898377,0.000000,-9030.512492,612.876398
511.898705,0.000000,-9104.533087,536.266849
511.899033,0.000000,-9178.553681,459.657299
511.899360,0.000000,-9400.615463,536.266849
511.899688,0.000000,-9474.636058,766.095498
511.900015,0.000000,-9252.574275,76.609550
511.900343,-222.061783,-9400.615463,536.266849
511.900670,-444.123565,-9474.636058,689.485948
511.900998,-148.041188,-9400.615463,766.095498
511.901326,-370.102971,-9326.594869,536.266849
511.901653,-222.061783,-9178.553681,689.485948
511.901981,-370.102971,-8364.327145,536.266849
511.902308,-222.061783,-8882.471304,612.876398
511.902636,-370.102971,-8956.491898,842.705048
511.902963,-296.082377,-9252.574275,995.924147
511.903291,-518.144159,-9252.574275,919.314598
511.903619,-370.102971,-9178.553681,1225.752797
511.903946,-740.205942,-9474.636058,306.438199
511.904274,-444.123565,-9252.574275,689.485948
511.904601,-222.061783,-9252.574275,766.095498
511.904929,0.000000,-9178.553681,689.485948
511.905256,74.020594,-9400.615463,766.095498
511.905584,148.041188,-8808.450710,995.924147
511.905912,-222.061783,-9474.636058,536.266849
511.906239,-518.144159,-9474.636058,612.876398
511.906567,-222.061783,-9622.677246,766.095498
511.906894,0.000000,-9474.636058,536.266849
511.907222,148.041188,-9474.636058,459.657299
511.907549,0.000000,-9474.636058,459.657299
511.907877,0.000000,-9178.553681,459.657299
511.908205,74.020594,-9030.512492,383.047749
511.908532,-222.061783,-8956.491898,306.438199
511.908860,74.020594,-9326.594869,689.485948
511.909187,-222.061783,-9400.615463,536.266849
511.909515,-370.102971,-9252.574275,306.438199
511.909842,-370.102971,-9178.553681,459.657299
511.910170,-148.041188,-9178.553681,689.485948
511.910498,-222.061783,-8956.491898,919.314598
511.910825,0.000000,-8956.491898,0.000000
511.911153,0.000000,-8882.471304,383.047749
511.911480,-444.123565,-8956.491898,459.657299
511.911808,-296.082377,-9030.512492,383.047749
511.912135,-444.123565,-9400.615463,153.219100
511.912463,-444.123565,-9030.512492,766.095498
511.912791,-370.102971,-9474.636058,842.705048
511.913118,-592.164754,-9400.615463,459.657299
511.913446,-370.102971,-9178.553681,306.438199
511.913773,-296.082377,-8956.491898,536.266849
511.914101,0.000000,-8734.430116,612.876398
511.914428,0.000000,-8438.347739,612.876398
511.914756,-148.041188,-8808.450710,612.876398
511.915084,-666.185348,-8882.471304,536.266849
511.915411,-666.185348,-9104.533087,459.657299
511.915739,-444.123565,-8808.450710,536.266849
511.916066,-666.185348,-9104.533087,766.095498
511.916394,-222.061783,-9030.512492,536.266849
511.916721,-148.041188,-9030.512492,306.438199
511.917049,0.000000,-8882.471304,459.657299
511.917377,148.041188,-8808.450710,0.000000
511.917704,74.020594,-8660.409521,459.657299
511.918032,0.000000,-8956.491898,536.266849
511.918359,-296.082377,-9326.594869,459.657299
511.918687,-222.061783,-9474.636058,842.705048
511.919014,-222.061783,-9178.553681,1149.143247
511.919342,0.000000,-8882.471304,76.609550
511.919670,0.000000,-9030.512492,229.828649
511.919997,-296.082377,-9178.553681,459.657299
511.920325,-296.082377,-8956.491898,306.438199
511.920652,-370.102971,-8586.388927,459.657299
511.920980,0.000000,-8290.306550,383.047749
511.921307,-592.164754,-8808.450710,459.657299
511.921635,-814.226536,-9178.553681,612.876398
511.921963,-518.144159,-9252.574275,689.485948
511.922290,-444.123565,-8956.491898,459.657299
511.922618,-74.020594,-8956.491898,689.485948
511.922945,-592.164754,-8956.491898,76.609550
511.923273,-370.102971,-9252.574275,306.438199
511.923601,0.000000,-9104.533087,536.266849
511.923928,0.000000,-8660.409521,689.485948
511.924256,-222.061783,-9178.553681,306.438199
511.924583,-518.144159,-8808.450710,842.705048
511.924911,-370.102971,-9622.677246,842.705048
511.925239,-296.082377,-9474.636058,766.095498
511.925566,-370.102971,-9178.553681,536.266849
511.925894,-74.020594,-8882.471304,766.095498
511.926221,0.000000,-9178.553681,1072.533697
511.926549,-370.102971,-9178.553681,306.438199
511.926877,-370.102971,-9030.512492,306.438199
511.927204,-518.144159,-8956.491898,536.266849
511.927532,-592.164754,-8956.491898,383.047749
511.927859,-296.082377,-8956.491898,383.047749
511.928187,-518.144159,-9178.553681,306.438199
511.928515,-370.102971,-9178.553681,536.266849
511.928842,-296.082377,-8956.491898,306.438199
511.929170,-444.123565,-9178.553681,306.438199
511.929497,-296.082377,-8882.471304,0.000000
511.929825,0.000000,-9178.553681,383.047749
511.930152,-222.061783,-9326.594869,536.266849
511.930480,0.000000,-9252.574275,306.438199
511.930808,-148.041188,-9400.615463,536.266849
511.931135,-296.082377,-9252.574275,306.438199
511.931463,0.000000,-8882.471304,612.876398
511.931790,-222.061783,-9178.553681,459.657299
511.932118,-148.041188,-9326.594869,459.657299
511.932446,-518.144159,-9326.594869,536.266849
511.932773,-296.082377,-9104.533087,383.047749
511.933101,-518.144159,-8364.327145,919.314598
511.933428,-370.102971,-8956.491898,842.705048
511.933756,-592.164754,-9104.533087,689.485948
511.934084,-740.205942,-9104.533087,766.095498
511.934411,-666.185348,-8882.471304,536.266849
511.934739,-370.102971,-8882.471304,1455.581446
511.935066,-518.144159,-9178.553681,612.876398
511.935394,-370.102971,-9326.594869,689.485948
511.935722,-592.164754,-9030.512492,612.876398
511.936049,-444.123565,-9252.574275,689.485948
511.936377,-148.041188,-9326.594869,919.314598
511.936704,0.000000,-9178.553681,76.609550
511.937032,0.000000,-9252.574275,689.485948
511.937360,0.000000,-9474.636058,612.876398
511.937687,0.000000,-9400.615463,612.876398
511.938015,-222.061783,-9474.636058,766.095498
511.938342,-592.164754,-9030.512492,689.485948
511.938670,0.000000,-9400.615463,383.047749
511.938997,0.000000,-9400.615463,383.047749
511.939325,0.000000,-9474.636058,612.876398
511.939653,-148.041188,-9252.574275,612.876398
511.939980,-222.061783,-8734.430116,842.705048
511.940308,0.000000,-9030.512492,153.219100
511.940635,0.000000,-9104.533087,383.047749
511.940963,-444.123565,-9252.574275,229.828649
511.941291,0.000000,-9178.553681,229.828649
511.941618,0.000000,-9326.594869,229.828649
511.941946,-222.061783,-9104.533087,153.219100
511.942273,0.000000,-9252.574275,459.657299
511.942601,0.000000,-8956.491898,459.657299
511.942929,0.000000,-9104.533087,383.047749
511.943256,222.061783,-8734.430116,842.705048
511.943584,0.000000,-9104.533087,76.609550
511.943911,-222.061783,-9030.512492,459.657299
511.944239,-296.082377,-9252.574275,766.095498
511.944567,-296.082377,-9178.553681,383.047749
511.944894,-296.082377,-9326.594869,612.876398
511.945222,-592.164754,-9178.553681,1302.362347
511.945549,-740.205942,-9030.512492,766.095498
511.945877,-666.185348,-8956.491898,612.876398
511.946205,-740.205942,-9104.533087,459.657299
511.946532,-518.144159,-8882.471304,612.876398
511.946860,-518.144159,-8290.306550,459.657299
511.947187,-592.164754,-8586.388927,536.266849
511.947515,-740.205942,-8808.450710,689.485948
511.947842,-740.205942,-8956.491898,459.657299
511.948170,-814.226536,-9030.512492,612.876398
511.948498,-370.102971,-8882.471304,229.828649
511.948825,-666.185348,-8734.430116,919.314598
511.949153,-518.144159,-9104.533087,842.705048
511.949480,-370.102971,-9104.533087,766.095498
511.949808,-296.082377,-8808.450710,766.095498
511.950136,-148.041188,-9030.512492,459.657299
511.950463,74.020594,-9178.553681,1072.533697
511.950791,-370.102971,-9474.636058,766.095498
511.951118,-370.102971,-9252.574275,383.047749
511.951446,0.000000,-9252.574275,612.876398
511.951774,0.000000,-8956.491898,842.705048
511.952101,0.000000,-9178.553681,842.705048
511.952429,74.020594,-9252.574275,612.876398
511.952756,0.000000,-8956.491898,536.266849
511.953084,-222.061783,-8660.409521,229.828649
511.953412,-296.082377,-8956.491898,306.438199
511.953739,-592.164754,-8512.368333,459.657299
511.954067,0.000000,-9030.512492,383.047749
511.954394,-370.102971,-8956.491898,306.438199
511.954722,-296.082377,-9400.615463,536.266849
511.955050,-370.102971,-9326.594869,536.266849
511.955377,0.000000,-9474.636058,766.095498
511.955705,148.041188,-9252.574275,459.657299
511.956032,0.000000,-9030.512492,612.876398
511.956360,0.000000,-9326.594869,306.438199
511.956687,-222.061783,-9548.656652,383.047749
511.957015,-370.102971,-9622.677246,689.485948
511.957343,148.041188,-9326.594869,689.485948
511.957670,-222.061783,-9400.615463,612.876398
511.957998,-370.102971,-9400.615463,383.047749
511.958325,-444.123565,-9326.594869,383.047749
511.958653,-296.082377,-9030.512492,766.095498
511.958981,0.000000,-8808.450710,612.876398
511.959308,-370.102971,-8882.471304,459.657299
511.959636,-518.144159,-9030.512492,612.876398
511.959963,-592.164754,-9326.594869,306.438199
511.960291,-518.144159,-9252.574275,383.047749
511.960619,-296.082377,-9104.533087,689.485948
511.960946,-296.082377,-9252.574275,383.047749
511.961274,0.000000,-9252.574275,919.314598
511.961601,0.000000,-9104.533087,459.657299
511.961929,74.020594,-8882.471304,842.705048
511.962257,518.144159,-9474.636058,459.657299
511.962584,0.000000,-9104.533087,536.266849
511.962912,0.000000,-9252.574275,766.095498
511.963239,0.000000,-9770.718434,1072.533697
511.963567,0.000000,-9474.636058,536.266849
511.963895,0.000000,-9622.677246,459.657299
511.964222,0.000000,-9178.553681,1225.752797
511.964550,0.000000,-9252.574275,612.876398
511.964877,-222.061783,-8956.491898,459.657299
511.965205,-296.082377,-8956.491898,383.047749
511.965533,0.000000,-8882.471304,306.438199
511.965860,-518.144159,-8808.450710,995.924147
511.966188,-444.123565,-8808.450710,536.266849
511.966515,-592.164754,-9104.533087,612.876398
511.966843,-518.144159,-9104.533087,689.485948
511.967170,-666.185348,-8882.471304,766.095498
511.967498,-666.185348,-8364.327145,1072.533697
511.967826,-296.082377,-9030.512492,612.876398
511.968153,0.000000,-8882.471304,536.266849
511.968481,0.000000,-8956.491898,459.657299
511.968808,0.000000,-9030.512492,536.266849
511.969136,0.000000,-8734.430116,612.876398
511.969464,-444.123565,-8882.471304,612.876398
511.969791,-518.144159,-9400.615463,536.266849
511.970119,-370.102971,-9474.636058,612.876398
511.970446,-370.102971,-9252.574275,766.095498
511.970774,148.041188,-9474.636058,536.266849
511.971102,0.000000,-9104.533087,306.438199
511.971429,-148.041188,-8956.491898,536.266849
511.971757,-370.102971,-8956.491898,459.657299
511.972084,-518.144159,-8882.471304,383.047749
511.972412,-444.123565,-8882.471304,919.314598
511.972740,-370.102971,-9030.512492,1072.533697
511.973067,-592.164754,-9104.533087,536.266849
511.973395,-518.144159,-9030.512492,459.657299
511.973722,-444.123565,-8956.491898,536.266849
511.974050,-296.082377,-8734.430116,383.047749
511.974378,222.061783,-8586.388927,1302.362347
511.974705,148.041188,-9030.512492,306.438199
511.975033,0.000000,-8956.491898,536.266849
511.975360,0.000000,-9400.615463,383.047749
511.975688,0.000000,-9474.636058,306.438199
511.976015,0.000000,-9400.615463,612.876398
511.976343,74.020594,-9326.594869,612.876398
511.976671,-296.082377,-9326.594869,383.047749
511.976998,-148.041188,-9326.594869,612.876398
511.977326,0.000000,-9252.574275,536.266849
511.977653,0.000000,-8808.450710,766.095498
511.977981,0.000000,-9030.512492,0.000000
511.978309,-370.102971,-8808.450710,536.266849
511.978636,-296.082377,-8808.450710,306.438199
511.978964,-444.123565,-9178.553681,306.438199
511.979291,-592.164754,-9104.533087,383.047749
511.979619,-666.185348,-9178.553681,229.828649
511.979947,-370.102971,-9030.512492,459.657299
511.980274,-370.102971,-9030.512492,536.266849
511.980602,-296.082377,-9104.533087,842.705048
511.980929,-222.061783,-9252.574275,842.705048
511.981257,0.000000,-9178.553681,766.095498
511.981585,-148.041188,-9104.533087,766.095498
511.981912,-370.102971,-9030.512492,689.485948
511.982240,-222.061783,-9400.615463,536.266849
511.982567,-444.123565,-9252.574275,536.266849
511.982895,0.000000,-9474.636058,459.657299
511.983223,-518.144159,-8586.388927,919.314598
511.983550,0.000000,-9400.615463,612.876398
511.983878,0.000000,-9178.553681,536.266849
511.984205,-296.082377,-9178.553681,459.657299
511.984533,-296.082377,-8882.471304,0.000000
511.984860,0.000000,-9030.512492,766.095498
511.985188,-444.123565,-9104.533087,536.266849
511.985516,-444.123565,-9178.553681,842.705048
511.985843,-222.061783,-9474.636058,612.876398
511.986171,-222.061783,-9474.636058,689.485948
511.986498,0.000000,-9030.512492,766.095498
511.986826,0.000000,-9104.533087,459.657299
511.987154,0.000000,-8956.491898,612.876398
511.987481,0.000000,-9030.512492,459.657299
511.987809,0.000000,-9030.512492,383.047749
511.988136,0.000000,-8956.491898,459.657299
511.988464,-222.061783,-9326.594869,536.266849
511.988792,-518.144159,-9326.594869,689.485948
511.989119,-370.102971,-9474.636058,612.876398
511.989447,-148.041188,-9400.615463,536.266849
511.989774,0.000000,-9030.512492,459.657299
511.990102,0.000000,-9178.553681,536.266849
511.990430,-370.102971,-9104.533087,306.438199
511.990757,-518.144159,-9030.512492,459.657299
511.991085,-444.123565,-8956.491898,459.657299
511.991412,-370.102971,-8956.491898,306.438199
511.991740,-592.164754,-8734.430116,1225.752797
511.992068,-444.123565,-9178.553681,766.095498
511.992395,-444.123565,-9104.533087,612.876398
511.992723,-370.102971,-9178.553681,536.266849
511.993050,-444.123565,-9030.512492,612.876398
511.993378,0.000000,-8956.491898,842.705048
511.993705,0.000000,-8956.491898,536.266849
511.994033,0.000000,-9104.533087,536.266849
511.994361,-296.082377,-9326.594869,536.266849
