#time,accel_x,accel_y,accel_z
531.446743,0.000000,-9178.553681,459.657299
531.447071,222.061783,-9326.594869,306.438199
531.447399,-148.041188,-9030.512492,536.266849
531.447727,-296.082377,-9252.574275,536.266849
531.448055,0.000000,-9252.574275,689.485948
531.448382,-222.061783,-9030.512492,459.657299
531.448710,0.000000,-8808.450710,1072.533697
531.449038,-296.082377,-9030.512492,0.000000
531.449366,-370.102971,-9252.574275,689.485948
531.449694,-222.061783,-8956.491898,612.876398
531.450022,-222.061783,-8882.471304,842.705048
531.450349,-518.144159,-9400.615463,-459.657299
531.450677,-740.205942,-8808.450710,689.485948
531.451005,-296.082377,-9252.574275,612.876398
531.451333,-222.061783,-8808.450710,612.876398
531.451661,0.000000,-8956.491898,459.657299
531.451989,-148.041188,-8956.491898,842.705048
531.452317,-296.082377,-8956.491898,612.876398
531.452644,-148.041188,-9178.553681,306.438199
531.452972,-370.102971,-8882.471304,459.657299
531.453300,-222.061783,-9178.553681,689.485948
531.453628,-370.102971,-9178.553681,612.876398
531.453956,0.000000,-8882.471304,919.314598
531.454284,-296.082377,-8956.491898,689.485948
531.454612,-148.041188,-8956.491898,536.266849
531.454939,-296.082377,-9252.574275,459.657299
531.455267,-444.123565,-9030.512492,536.266849
531.455595,-148.041188,-9030.512492,229.828649
531.455923,74.020594,-8734.430116,536.266849
531.456251,0.000000,-9104.533087,383.047749
531.456579,0.000000,-9252.574275,229.828649
531.456906,-444.123565,-9178.553681,612.876398
531.457234,-592.164754,-8660.409521,153.219100
531.457562,-370.102971,-9030.512492,919.314598
531.457890,0.000000,-9326.594869,536.266849
531.458218,-296.082377,-9104.533087,842.705048
531.458546,0.000000,-9252.574275,459.657299
531.458874,-222.061783,-9252.574275,689.485948
531.459201,0.000000,-8882.471304,306.438199
531.459529,0.000000,-9030.512492,689.485948
531.459857,-222.061783,-9030.512492,689.485948
531.460185,-370.102971,-9178.553681,383.047749
531.460513,-814.226536,-9326.594869,76.609550
531.460841,-962.267725,-9400.615463,536.266849
531.461168,-1332.370696,-9252.574275,0.000000
531.461496,-1258.350101,-9104.533087,-383.047749
531.461824,-888.247130,-9030.512492,-306.438199
531.462152,-666.185348,-9030.512492,-536.266849
531.462480,-592.164754,-9474.636058,-383.047749
531.462808,-1184.329507,-8734.430116,-612.876398
531.463136,-1110.308913,-8882.471304,-1149.143247
531.463463,-1258.350101,-9104.533087,-1302.362347
531.463791,-814.226536,-9104.533087,-1455.581446
531.464119,-592.164754,-9178.553681,-1378.971896
531.464447,-666.185348,-9030.512492,-1225.752797
531.464775,-222.061783,-9178.553681,-1532.190996
531.465103,-148.041188,-9030.512492,-1378.971896
531.465430,0.000000,-9252.574275,-1532.190996
531.465758,0.000000,-9104.533087,-1608.800546
531.466086,74.020594,-9326.594869,-1608.800546
531.466414,222.061783,-9252.574275,-1762.019645
531.466742,296.082377,-9252.574275,-1532.190996
531.467070,222.061783,-9474.636058,-1762.019645
531.467398,370.102971,-9326.594869,-1915.238745
531.467725,592.164754,-9178.553681,-1455.581446
531.468053,518.144159,-9400.615463,-1915.238745
531.468381,370.102971,-9400.615463,-1762.019645
531.468709,296.082377,-9400.615463,-1915.238745
531.469037,222.061783,-9252.574275,-1762.019645
531.469365,222.061783,-9178.553681,-2068.457845
531.469693,370.102971,-9252.574275,-1608.800546
531.470020,-296.082377,-9252.574275,-1838.629195
531.470348,-666.185348,-9178.553681,-2145.067394
531.470676,-1036.288319,-9030.512492,-1838.629195
531.471004,-962.267725,-9104.533087,-2221.676944
531.471332,-1628.453072,-8956.491898,-1915.238745
531.471660,-1480.411884,-9104.533087,-2451.505594
531.471987,-1702.473667,-9252.574275,-2528.115143
531.472315,-1924.535449,-9104.533087,-3064.381992
531.472643,-1998.556043,-9030.512492,-3140.991542
531.472971,-1850.514855,-8364.327145,-3294.210641
531.473299,-1554.432478,-8882.471304,-3753.867940
531.473627,-1702.473667,-9030.512492,-3983.696590
531.473955,-1628.453072,-8808.450710,-3983.696590
531.474282,-1628.453072,-8808.450710,-4136.915689
531.474610,-888.247130,-8438.347739,-3294.210641
531.474938,-296.082377,-8882.471304,-3753.867940
531.475266,0.000000,-9104.533087,-3294.210641
531.475594,740.205942,-9104.533087,-2987.772442
531.475922,1628.453072,-9104.533087,-2834.553343
531.476249,2516.700203,-9178.553681,-2451.505594
531.476577,2368.659014,-9178.553681,-1915.238745
531.476905,2146.597232,-9474.636058,-1762.019645
531.477233,1258.350101,-9844.739029,-1915.238745
531.477561,666.185348,-9992.780217,-2451.505594
531.477889,-518.144159,-10066.800811,-3140.991542
531.478217,-962.267725,-10140.821405,-3524.039291
531.478544,-1554.432478,-10140.821405,-4519.963438
531.478872,-1702.473667,-9696.697840,-4903.011187
531.479200,-1036.288319,-8660.409521,-4749.792088
531.479528,148.041188,-7920.203579,-4519.963438
531.479856,1258.350101,-7994.224174,-3753.867940
531.480184,2220.617826,-7402.059420,-3217.601092
531.480512,2442.679609,-7476.080014,-2451.505594
531.480839,1702.473667,-8364.327145,-2068.457845
531.481167,148.041188,-9104.533087,-1838.629195
531.481495,-1998.556043,-10362.883188,-2068.457845
531.481823,-3478.967927,-10881.027347,-2374.896044
531.482151,-3849.070898,-11177.109724,-2604.724693
531.482479,-3256.906145,-10140.821405,-2681.334243
531.482806,-1332.370696,-9474.636058,-2451.505594
531.483134,888.247130,-7846.182985,-1685.410096
531.483462,4885.359217,-6439.791695,0.000000
531.483790,8734.430116,-5255.462188,1685.410096
531.484118,10658.965565,-5255.462188,3600.648841
531.484446,8808.450710,-7328.038826,4213.525239
531.484774,3330.926739,-11029.068536,4290.134789
531.485101,-3701.029710,-13101.645173,2145.067394
531.485429,-8956.491898,-14285.974681,-229.828649
531.485757,-11547.212695,-14730.098246,-1225.752797
531.486085,-9844.739029,-13027.624579,-2451.505594
531.486413,-8364.327145,-11399.171507,-2068.457845
531.486741,-1332.370696,-7994.224174,-2068.457845
531.487068,-1184.329507,-5625.565159,-689.485948
531.487396,-222.061783,-4219.173869,-3217.601092
531.487724,-2960.823768,-5921.647536,-4749.792088
531.488052,-8734.430116,-7105.977043,-7507.735880
531.488380,-11843.295072,-8512.368333,-9806.022374
531.488708,-14063.912898,-8660.409521,-9882.631924
531.489036,-11103.089130,-7846.182985,-9576.193725
531.489363,-6069.688724,-7994.224174,-7354.516781
531.489691,1258.350101,-6439.791695,-5362.668486
531.490019,3256.906145,-6513.812290,-4519.963438
531.490347,5403.503377,-7402.059420,-3830.477490
531.490675,2664.741391,-9844.739029,-5745.716235
531.491003,1702.473667,-11399.171507,-6741.640382
531.491330,2516.700203,-10807.006753,-7124.688131
531.491658,6217.729913,-10436.903782,-5745.716235
531.491986,11325.150913,-9252.574275,-4290.134789
531.492314,12879.583391,-9474.636058,-1685.410096
531.492642,12657.521608,-9918.759623,-766.095498
531.492970,11695.253884,-9474.636058,-1608.800546
531.493298,11473.192101,-9400.615463,-1378.971896
531.493625,11251.130318,-9696.697840,-3600.648841
531.493953,8956.491898,-11103.089130,-1991.848295
531.494281,6735.874072,-12879.583391,-2834.553343
531.494609,-1924.535449,-14582.057057,-4290.134789
531.494937,-10140.821405,-13545.768739,-6665.030833
531.495265,-9252.574275,-11621.233289,-7354.516781
531.495593,-5329.482782,-5033.400406,-6971.469032
531.495920,-148.041188,-2960.823768,-4596.572988
531.496248,4293.194464,-2516.700203,-2528.115143
531.496576,2146.597232,-2442.679609,-1915.238745
531.496904,-444.123565,-3923.091493,-1072.533697
531.497232,-2072.576638,-4737.318029,-1225.752797
531.497560,-5477.523971,-6069.688724,-1762.019645
531.497887,-4293.194464,-7994.224174,-1149.143247
531.498215,-4959.379811,-9992.780217,919.314598
531.498543,-5995.668130,-9844.739029,2068.457845
531.498871,-3701.029710,-9844.739029,3753.867940
531.499199,-2146.597232,-8290.306550,4290.134789
531.499527,-518.144159,-8364.327145,3064.381992
531.499855,-1628.453072,-10807.006753,1378.971896
531.500182,-3627.009116,-11843.295072,-766.095498
531.500510,-6143.709319,-11547.212695,-1532.190996
531.500838,-4219.173869,-9770.718434,-536.266849
531.501166,-1554.432478,-8142.265362,-689.485948
531.501494,1110.308913,-8068.244768,0.000000
531.501822,962.267725,-9474.636058,766.095498
531.502149,-1628.453072,-10066.800811,459.657299
531.502477,-3997.112087,-8660.409521,229.828649
531.502805,-3108.864956,-9326.594869,229.828649
531.503133,-1776.494261,-11325.150913,-306.438199
531.503461,-2960.823768,-11991.336260,-689.485948
531.503789,-3330.926739,-11621.233289,-2068.457845
531.504117,-4589.276840,-9326.594869,-1149.143247
531.504444,-1110.308913,-6069.688724,-1455.581446
531.504772,444.123565,-6587.832884,-995.924147
531.505100,1702.473667,-6513.812290,-3064.381992
531.505428,3775.050304,-7476.080014,-3600.648841
531.505756,4441.235652,-7550.100608,-3064.381992
531.506084,5107.421000,-7846.182985,-2834.553343
531.506411,4737.318029,-9326.594869,-2451.505594
531.506739,4367.215058,-12509.480420,-2145.067394
531.507067,3256.906145,-14211.954086,-2068.457845
531.507395,2886.803174,-13323.706956,-1072.533697
531.507723,3478.967927,-12213.398043,-689.485948
531.508050,2146.597232,-11991.336260,-919.314598
531.508378,518.144159,-11843.295072,-1072.533697
531.508706,1628.453072,-11473.192101,0.000000
531.509034,1554.432478,-9992.780217,-919.314598
531.509361,1184.329507,-8290.306550,-842.705048
531.509689,0.000000,-8438.347739,-1685.410096
531.510017,-2516.700203,-8290.306550,-2911.162892
531.510345,-2368.659014,-7624.121203,-3064.381992
531.510672,-1628.453072,-6735.874072,-2834.553343
531.511000,-2294.638420,-5625.565159,-3294.210641
531.511328,-1628.453072,-5921.647536,-1455.581446
531.511656,-888.247130,-5699.585753,-842.705048
531.511983,-814.226536,-6069.688724,306.438199
531.512311,-444.123565,-7772.162391,153.219100
531.512639,-1998.556043,-8808.450710,536.266849
531.512967,-3034.844362,-9474.636058,0.000000
531.513294,-3256.906145,-9622.677246,459.657299
531.513622,-3330.926739,-8586.388927,229.828649
531.513950,-1776.494261,-8734.430116,536.266849
531.514278,74.020594,-8290.306550,1915.238745
531.514605,2220.617826,-7254.018232,1608.800546
531.514933,3108.864956,-8290.306550,2834.553343
531.515261,1480.411884,-9474.636058,1991.848295
531.515589,-740.205942,-10214.842000,1072.533697
531.515916,-444.123565,-10881.027347,919.314598
531.516244,-888.247130,-9844.739029,612.876398
531.516572,-1258.350101,-9104.533087,306.438199
531.516900,296.082377,-8586.388927,1072.533697
531.517227,1332.370696,-7550.100608,1915.238745
531.517555,2442.679609,-6661.853478,2451.505594
531.517883,2886.803174,-7328.038826,2834.553343
531.518211,-814.226536,-8438.347739,1838.629195
531.518538,-3997.112087,-9030.512492,229.828649
531.518866,-3849.070898,-9400.615463,76.609550
531.519194,-2960.823768,-8438.347739,153.219100
531.519522,-1480.411884,-7105.977043,383.047749
531.519849,1776.494261,-8068.244768,1532.190996
531.520177,2516.700203,-7698.141797,1532.190996
531.520505,1702.473667,-7624.121203,2221.676944
531.520833,296.082377,-10288.862594,1838.629195
531.521160,-3182.885551,-11769.274478,459.657299
531.521488,-5107.421000,-12287.418637,-766.095498
531.521816,-3849.070898,-12509.480420,-995.924147
531.522144,-2516.700203,-10881.027347,-689.485948
531.522471,-814.226536,-9548.656652,0.000000
531.522799,1258.350101,-9770.718434,1149.143247
531.523127,1332.370696,-8956.491898,1378.971896
531.523455,1036.288319,-8586.388927,1455.581446
531.523782,0.000000,-9400.615463,612.876398
531.524110,-2960.823768,-10214.842000,-995.924147
531.524438,-3404.947333,-10584.944971,-995.924147
531.524766,-2072.576638,-10732.986159,-459.657299
531.525093,148.041188,-9252.574275,306.438199
531.525421,2442.679609,-8068.244768,1608.800546
531.525749,4515.256246,-7550.100608,2451.505594
531.526077,4589.276840,-7402.059420,2604.724693
531.526404,2812.782580,-8068.244768,1532.190996
531.526732,222.061783,-9844.739029,766.095498
531.527060,-2220.617826,-11177.109724,-689.485948
531.527388,-2516.700203,-11399.171507,-612.876398
531.527715,-1406.391290,-11473.192101,0.000000
531.528043,148.041188,-10584.944971,689.485948
531.528371,592.164754,-9918.759623,1762.019645
531.528699,1776.494261,-8956.491898,1225.752797
531.529026,1702.473667,-8512.368333,995.924147
531.529354,296.082377,-9104.533087,306.438199
531.529682,-2294.638420,-10584.944971,-689.485948
531.530010,-3478.967927,-10362.883188,-689.485948
531.530337,-3478.967927,-9770.718434,-1149.143247
531.530665,-1850.514855,-9030.512492,229.828649
531.530993,-444.123565,-7846.182985,536.266849
531.531321,740.205942,-7105.977043,1149.143247
531.531648,2368.659014,-6143.709319,1532.190996
531.531976,1628.453072,-6069.688724,919.314598
531.532304,-740.205942,-6957.935855,-229.828649
531.532632,-2812.782580,-8882.471304,-1225.752797
531.532959,-3552.988522,-9178.553681,-1608.800546
531.533287,-1924.535449,-8660.409521,-383.047749
531.533615,0.000000,-8216.285956,76.609550
531.533943,1332.370696,-8068.244768,689.485948
531.534270,2442.679609,-7846.182985,919.314598
531.534598,3256.906145,-7550.100608,1302.362347
531.534926,2738.761985,-7624.121203,1225.752797
531.535254,740.205942,-8660.409521,766.095498
531.535581,-518.144159,-10362.883188,-229.828649
531.535909,-1036.288319,-10510.924376,-306.438199
531.536237,-444.123565,-9992.780217,0.000000
531.536565,1184.329507,-9474.636058,1532.190996
531.536892,1628.453072,-8808.450710,1608.800546
531.537220,2294.638420,-8586.388927,2528.115143
531.537548,1924.535449,-7698.141797,2068.457845
531.537876,370.102971,-8438.347739,1991.848295
531.538203,-1406.391290,-8882.471304,1149.143247
531.538531,-3108.864956,-9400.615463,1072.533697
531.538859,-2886.803174,-9400.615463,459.657299
531.539187,-1702.473667,-9030.512492,842.705048
531.539514,-1110.308913,-8734.430116,919.314598
531.539842,-962.267725,-8142.265362,919.314598
531.540170,296.082377,-7179.997637,995.924147
531.540498,370.102971,-6291.750507,1608.800546
531.540825,0.000000,-7550.100608,842.705048
531.541153,-1776.494261,-9474.636058,383.047749
531.541481,-3849.070898,-10732.986159,0.000000
531.541809,-4219.173869,-11325.150913,-536.266849
531.542136,-3404.947333,-10807.006753,689.485948
531.542464,-3108.864956,-10362.883188,612.876398
531.542792,-2072.576638,-11103.089130,919.314598
531.543120,-296.082377,-9622.677246,842.705048
531.543447,592.164754,-8586.388927,766.095498
531.543775,1036.288319,-8586.388927,766.095498
531.544103,-148.041188,-9474.636058,153.219100
531.544431,-888.247130,-10140.821405,-153.219100
531.544758,-518.144159,-9992.780217,-153.219100
531.545086,-148.041188,-10288.862594,383.047749
531.545414,444.123565,-9918.759623,229.828649
531.545742,1036.288319,-9474.636058,1072.533697
531.546069,2960.823768,-9326.594869,1685.410096
531.546397,2812.782580,-8882.471304,1378.971896
531.546725,2220.617826,-9844.739029,1225.752797
531.547053,148.041188,-10658.965565,1302.362347
531.547380,-592.164754,-10584.944971,459.657299
531.547708,-370.102971,-10732.986159,0.000000
531.548036,0.000000,-10140.821405,229.828649
531.548364,0.000000,-9918.759623,76.609550
531.548691,1850.514855,-8290.306550,306.438199
531.549019,2442.679609,-8142.265362,766.095498
531.549347,1924.535449,-8142.265362,919.314598
531.549675,444.123565,-8808.450710,229.828649
531.550002,-1480.411884,-9770.718434,-536.266849
531.550330,-1998.556043,-10214.842000,-536.266849
531.550658,-1924.535449,-9918.759623,0.000000
531.550986,-2294.638420,-9770.718434,229.828649
531.551313,-1258.350101,-9474.636058,383.047749
531.551641,-148.041188,-8438.347739,1302.362347
531.551969,740.205942,-7476.080014,1532.190996
531.552297,518.144159,-7105.977043,1608.800546
531.552624,-814.226536,-7772.162391,153.219100
531.552952,-2146.597232,-8882.471304,-306.438199
531.553280,-2368.659014,-9326.594869,-459.657299
531.553608,-1850.514855,-9252.574275,0.000000
531.553935,-1406.391290,-8956.491898,0.000000
531.554263,74.020594,-9400.615463,689.485948
531.554591,1332.370696,-8660.409521,1532.190996
531.554919,1850.514855,-8068.244768,1915.238745
531.555246,1110.308913,-7994.224174,1378.971896
531.555574,-74.020594,-8808.450710,1149.143247
531.555902,-1258.350101,-9548.656652,76.609550
531.556230,-1480.411884,-9992.780217,306.438199
531.556557,-1184.329507,-9252.574275,229.828649
531.556885,-148.041188,-8808.450710,1072.533697
531.557213,1258.350101,-8216.285956,1608.800546
531.557541,2442.679609,-7328.038826,2145.067394
531.557868,2220.617826,-7772.162391,1991.848295
531.558196,74.020594,-8142.265362,995.924147
531.558524,-1776.494261,-9030.512492,0.000000
531.558852,-2812.782580,-9474.636058,-459.657299
531.559179,-2886.803174,-9400.615463,-459.657299
531.559507,-2368.659014,-9770.718434,-459.657299
531.559835,-1850.514855,-9474.636058,-153.219100
531.560163,0.000000,-8290.306550,229.828649
531.560490,1184.329507,-7402.059420,536.266849
531.560818,1332.370696,-7476.080014,612.876398
531.561146,-222.061783,-8216.285956,0.000000
531.561474,-1406.391290,-9474.636058,-766.095498
531.561801,-1332.370696,-9770.718434,-612.876398
531.562129,-1332.370696,-10436.903782,76.609550
531.562457,-296.082377,-10658.965565,842.705048
531.562785,1036.288319,-9992.780217,1532.190996
531.563112,3330.926739,-9474.636058,2757.943793
531.563440,3404.947333,-9474.636058,2681.334243
531.563768,1998.556043,-9622.677246,2374.896044
531.564096,-814.226536,-9918.759623,689.485948
531.564423,-1554.432478,-9918.759623,153.219100
531.564751,-1332.370696,-9770.718434,-153.219100
531.565079,-1628.453072,-9548.656652,-306.438199
531.565407,-518.144159,-9104.533087,76.609550
531.565734,666.185348,-8438.347739,536.266849
531.566062,1628.453072,-7476.080014,1378.971896
531.566390,740.205942,-7624.121203,1225.752797
531.566718,-814.226536,-8734.430116,306.438199
531.567045,-3330.926739,-9548.656652,-995.924147
531.567373,-3997.112087,-9770.718434,-919.314598
531.567701,-3923.091493,-9696.697840,-536.266849
531.568029,-2886.803174,-9326.594869,306.438199
531.568356,-592.164754,-9622.677246,1149.143247
531.568684,888.247130,-8512.368333,1608.800546
531.569012,2516.700203,-7846.182985,2298.286494
531.569340,2072.576638,-7624.121203,2145.067394
531.569667,-148.041188,-8142.265362,842.705048
531.569995,-2072.576638,-9548.656652,-459.657299
531.570323,-2442.679609,-9474.636058,-689.485948
531.570651,-1480.411884,-9474.636058,-306.438199
531.570978,-296.082377,-9622.677246,306.438199
531.571306,1184.329507,-9400.615463,1302.362347
531.571634,2442.679609,-8808.450710,1685.410096
531.571962,3182.885551,-8438.347739,1915.238745
531.572289,2294.638420,-8512.368333,1302.362347
531.572617,74.020594,-9474.636058,229.828649
531.572945,-1332.370696,-10214.842000,0.000000
531.573273,-1776.494261,-10436.903782,0.000000
531.573600,-1036.288319,-10288.862594,459.657299
531.573928,0.000000,-9474.636058,1378.971896
531.574256,1776.494261,-8882.471304,2451.505594
531.574584,2886.803174,-8142.265362,2604.724693
531.574911,2368.659014,-7994.224174,2604.724693
531.575239,518.144159,-8956.491898,1991.848295
531.575567,-2516.700203,-10066.800811,536.266849
531.575895,-3775.050304,-10436.903782,-229.828649
531.576222,-3627.009116,-10658.965565,-306.438199
531.576550,-3182.885551,-10807.006753,459.657299
531.576878,-2664.741391,-9918.759623,229.828649
531.577206,-1406.391290,-9252.574275,459.657299
531.577533,0.000000,-7698.141797,459.657299
531.577861,74.020594,-7254.018232,0.000000
531.578189,-666.185348,-8142.265362,-1455.581446
531.578517,-2886.803174,-8364.327145,-1685.410096
531.578844,-2812.782580,-8734.430116,-1608.800546
531.579172,-1924.535449,-8734.430116,-766.095498
531.579500,-518.144159,-8882.471304,459.657299
531.579828,296.082377,-8586.388927,1455.581446
531.580155,2960.823768,-8586.388927,2298.286494
531.580483,3256.906145,-7624.121203,2681.334243
531.580811,3108.864956,-7698.141797,2528.115143
531.581139,1850.514855,-8882.471304,1838.629195
531.581466,222.061783,-9252.574275,1455.581446
531.581794,0.000000,-10288.862594,536.266849
531.582122,-1110.308913,-9918.759623,306.438199
531.582450,-444.123565,-10066.800811,766.095498
531.582777,74.020594,-9326.594869,306.438199
531.583105,1184.329507,-8364.327145,842.705048
531.583433,1628.453072,-7550.100608,689.485948
531.583761,1036.288319,-7772.162391,459.657299
531.584088,-1332.370696,-8734.430116,-1378.971896
531.584416,-3034.844362,-9030.512492,-1685.410096
531.584744,-3330.926739,-9326.594869,-1302.362347
531.585072,-2738.761985,-9252.574275,-995.924147
531.585399,-1702.473667,-8882.471304,-153.219100
531.585727,-814.226536,-8142.265362,612.876398
531.586055,1184.329507,-7846.182985,1149.143247
531.586383,740.205942,-6513.812290,1225.752797
531.586710,-666.185348,-7179.997637,1685.410096
531.587038,-1554.432478,-8068.244768,-153.219100
531.587366,-2886.803174,-8956.491898,-1455.581446
531.587694,-1332.370696,-9696.697840,-383.047749
531.588021,0.000000,-9252.574275,229.828649
531.588349,444.123565,-9548.656652,153.219100
531.588677,3182.885551,-9844.739029,1532.190996
531.589005,3478.967927,-9252.574275,1608.800546
531.589332,2220.617826,-9696.697840,689.485948
531.589660,740.205942,-10955.047942,0.000000
531.589988,-1480.411884,-11547.212695,-919.314598
531.590316,-1924.535449,-11843.295072,-919.314598
531.590643,-1406.391290,-11843.295072,0.000000
531.590971,370.102971,-11103.089130,689.485948
531.591299,1332.370696,-10066.800811,1532.190996
531.591627,3701.029710,-9474.636058,2681.334243
531.591954,3256.906145,-8512.368333,2834.553343
531.592282,1924.535449,-9178.553681,2681.334243
531.592610,370.102971,-9770.718434,1685.410096
531.592938,-1702.473667,-10436.903782,1149.143247
531.593265,-2294.638420,-10362.883188,766.095498
531.593593,-1998.556043,-10436.903782,1608.800546
531.593921,-2442.679609,-9992.780217,2068.457845
531.594249,-1850.514855,-9918.759623,1685.410096
531.594576,-592.164754,-8734.430116,1608.800546
531.594904,-370.102971,-8290.306550,995.924147
531.595232,-1184.329507,-9400.615463,153.219100
531.595559,-2960.823768,-9400.615463,-1455.581446
531.595887,-4441.235652,-9622.677246,-1532.190996
531.596215,-3701.029710,-9844.739029,-1225.752797
531.596543,-2220.617826,-9474.636058,0.000000
531.596870,-1184.329507,-9326.594869,919.314598
531.597198,888.247130,-8586.388927,842.705048
531.597526,1924.535449,-7698.141797,2221.676944
531.597854,2294.638420,-7698.141797,2145.067394
531.598181,740.205942,-8438.347739,1225.752797
531.598509,-740.205942,-9030.512492,689.485948
531.598837,-296.082377,-9178.553681,0.000000
531.599165,0.000000,-8216.285956,766.095498
531.599492,1184.329507,-8734.430116,1378.971896
531.599820,1776.494261,-8142.265362,1378.971896
531.600148,2294.638420,-7402.059420,1149.143247
531.600476,2738.761985,-6513.812290,2068.457845
531.600803,2220.617826,-6883.915261,995.924147
531.601131,-1036.288319,-8290.306550,-842.705048
531.601459,-3034.844362,-8882.471304,-2298.286494
531.601787,-2664.741391,-8956.491898,-1838.629195
531.602114,-1924.535449,-8734.430116,-1072.533697
531.602442,-592.164754,-7846.182985,-766.095498
531.602770,666.185348,-8068.244768,459.657299
531.603098,2294.638420,-7846.182985,919.314598
531.603425,1406.391290,-7402.059420,689.485948
531.603753,148.041188,-7994.224174,919.314598
531.604081,-1554.432478,-8956.491898,-153.219100
531.604409,-2220.617826,-9474.636058,-459.657299
531.604736,-2072.576638,-9844.739029,-229.828649
531.605064,-222.061783,-8882.471304,842.705048
531.605392,592.164754,-8438.347739,995.924147
531.605720,1850.514855,-8512.368333,1685.410096
531.606047,1998.556043,-7994.224174,1838.629195
531.606375,1406.391290,-7920.203579,842.705048
531.606703,-296.082377,-8586.388927,0.000000
531.607031,-2146.597232,-9770.718434,-1608.800546
531.607358,-2516.700203,-9844.739029,-1532.190996
531.607686,-1850.514855,-10436.903782,-689.485948
531.608014,0.000000,-10362.883188,612.876398
531.608342,888.247130,-9770.718434,1225.752797
531.608669,2220.617826,-9844.739029,2298.286494
531.608996,3108.864956,-9622.677246,2298.286494
531.609324,2146.597232,-9252.574275,2757.943793
531.609651,814.226536,-10436.903782,1762.019645
531.609979,-1036.288319,-11325.150913,1302.362347
531.610306,-1406.391290,-11843.295072,1762.019645
531.610634,-1406.391290,-11547.212695,1915.238745
531.610961,-1702.473667,-10955.047942,2068.457845
531.611289,-1406.391290,-10658.965565,1455.581446
531.611616,-518.144159,-9696.697840,1838.629195
531.611944,222.061783,-8956.491898,1378.971896
531.612271,-592.164754,-8734.430116,612.876398
531.612598,-1850.514855,-9252.574275,-766.095498
531.612926,-3849.070898,-9474.636058,-1608.800546
531.613253,-3775.050304,-8882.471304,-1302.362347
531.613581,-2738.761985,-8512.368333,-536.266849
531.613908,-1850.514855,-8660.409521,76.609550
531.614236,-962.267725,-9104.533087,919.314598
531.614563,296.082377,-8068.244768,1685.410096
531.614891,592.164754,-8290.306550,2068.457845
531.615218,444.123565,-8660.409521,2068.457845
531.615546,-1036.288319,-9252.574275,1302.362347
531.615873,-1036.288319,-10288.862594,995.924147
531.616201,-1036.288319,-9696.697840,766.095498
531.616528,-148.041188,-9326.594869,1302.362347
531.616856,222.061783,-8364.327145,919.314598
531.617183,1184.329507,-8216.285956,842.705048
531.617510,2368.659014,-7624.121203,1149.143247
531.617838,1924.535449,-6661.853478,459.657299
531.618165,1184.329507,-7624.121203,0.000000
531.618493,-888.247130,-8290.306550,-1072.533697
531.618820,-2220.617826,-9252.574275,-1225.752797
531.619148,-1628.453072,-9548.656652,-1455.581446
531.619475,-1110.308913,-9548.656652,-612.876398
531.619803,-888.247130,-8956.491898,-459.657299
531.620130,370.102971,-8808.450710,459.657299
531.620458,1332.370696,-7772.162391,842.705048
531.620785,1924.535449,-7105.977043,919.314598
531.621113,1406.391290,-7698.141797,536.266849
531.621440,296.082377,-7920.203579,-229.828649
531.621768,0.000000,-8364.327145,-153.219100
531.622095,0.000000,-9104.533087,306.438199
531.622422,-444.123565,-9030.512492,0.000000
531.622750,0.000000,-9252.574275,536.266849
531.623077,1258.350101,-8142.265362,689.485948
531.623405,1850.514855,-8216.285956,689.485948
531.623732,888.247130,-8512.368333,0.000000
531.624060,-962.267725,-9844.739029,-919.314598
531.624387,-2590.720797,-10362.883188,-1149.143247
531.624715,-2664.741391,-9474.636058,-1072.533697
531.625042,-1184.329507,-9992.780217,-766.095498
531.625370,-296.082377,-9400.615463,-153.219100
531.625697,962.267725,-9178.553681,536.266849
531.626025,1998.556043,-8512.368333,1762.019645
531.626352,2886.803174,-8586.388927,2451.505594
531.626680,2072.576638,-8586.388927,2528.115143
531.627007,-296.082377,-9992.780217,1838.629195
531.627334,-1702.473667,-10436.903782,1225.752797
531.627662,-2368.659014,-10732.986159,1225.752797
531.627989,-1998.556043,-10881.027347,1532.190996
531.628317,-1628.453072,-9844.739029,1532.190996
531.628644,-370.102971,-9474.636058,1915.238745
531.628972,962.267725,-8216.285956,1685.410096
531.629299,222.061783,-7920.203579,1072.533697
531.629627,-1406.391290,-8882.471304,0.000000
531.629954,-3701.029710,-9622.677246,-1302.362347
531.630282,-4367.215058,-10066.800811,-1455.581446
531.630609,-3997.112087,-9696.697840,-1455.581446
531.630937,-2664.741391,-9474.636058,-919.314598
531.631264,-888.247130,-9400.615463,153.219100
531.631592,1036.288319,-8956.491898,1838.629195
531.631919,1480.411884,-8216.285956,1991.848295
531.632246,1184.329507,-8364.327145,2221.676944
531.632574,-296.082377,-9326.594869,1378.971896
531.632901,-1036.288319,-10066.800811,766.095498
531.633229,-592.164754,-10066.800811,919.314598
531.633556,0.000000,-9844.739029,1532.190996
531.633884,888.247130,-9696.697840,1838.629195
531.634211,2220.617826,-9622.677246,2451.505594
531.634539,3627.009116,-8882.471304,2757.943793
531.634866,3404.947333,-8512.368333,1762.019645
531.635194,2664.741391,-9474.636058,1225.752797
531.635521,-370.102971,-10214.842000,-229.828649
531.635849,-2738.761985,-11103.089130,-842.705048
531.636176,-2368.659014,-10881.027347,-1378.971896
531.636504,-1480.411884,-10214.842000,-536.266849
531.636831,-370.102971,-9696.697840,0.000000
531.637158,888.247130,-9252.574275,536.266849
531.637486,1628.453072,-8512.368333,1225.752797
531.637813,1184.329507,-7846.182985,995.924147
531.638141,74.020594,-7920.203579,229.828649
531.638468,-1998.556043,-8364.327145,153.219100
531.638796,-2072.576638,-9474.636058,-536.266849
531.639123,-2146.597232,-9104.533087,0.000000
531.639451,-1184.329507,-8438.347739,689.485948
531.639778,444.123565,-8216.285956,1685.410096
531.640106,1924.535449,-8438.347739,2834.553343
531.640433,2368.659014,-7698.141797,2145.067394
531.640761,962.267725,-7846.182985,1378.971896
531.641088,-1554.432478,-9030.512492,306.438199
531.641415,-4071.132681,-9474.636058,-1225.752797
531.641743,-4071.132681,-9696.697840,-1762.019645
531.642070,-2960.823768,-8956.491898,-766.095498
531.642398,-1332.370696,-7920.203579,-766.095498
531.642725,148.041188,-7698.141797,0.000000
531.643053,1258.350101,-7031.956449,459.657299
531.643380,2368.659014,-6587.832884,1225.752797
531.643708,1406.391290,-7254.018232,1225.752797
531.644035,-444.123565,-7994.224174,459.657299
531.644363,-2220.617826,-9474.636058,0.000000
531.644690,-2368.659014,-9992.780217,0.000000
531.645018,-2146.597232,-9844.739029,842.705048
531.645345,-296.082377,-8956.491898,1685.410096
531.645673,962.267725,-8882.471304,2145.067394
531.646000,2516.700203,-8438.347739,2451.505594
531.646327,2516.700203,-7920.203579,1838.629195
531.646655,1110.308913,-8438.347739,536.266849
531.646982,-1332.370696,-8660.409521,-995.924147
531.647310,-2072.576638,-9326.594869,-1378.971896
531.647637,-1480.411884,-9326.594869,-2068.457845
531.647965,-962.267725,-9474.636058,-1225.752797
531.648292,0.000000,-9622.677246,-306.438199
531.648620,962.267725,-9104.533087,459.657299
531.648947,2220.617826,-8068.244768,1455.581446
531.649275,2442.679609,-8586.388927,1608.800546
531.649602,1406.391290,-9474.636058,919.314598
531.649930,-1036.288319,-11103.089130,612.876398
531.650257,-1850.514855,-11621.233289,612.876398
531.650585,-1776.494261,-11325.150913,842.705048
531.650912,-1702.473667,-10881.027347,1532.190996
531.651239,0.000000,-9918.759623,1838.629195
531.651567,1554.432478,-9326.594869,2298.286494
531.651894,2294.638420,-8068.244768,2068.457845
531.652222,2294.638420,-7846.182985,2068.457845
531.652549,148.041188,-7994.224174,229.828649
531.652877,-2220.617826,-9104.533087,-689.485948
531.653204,-2516.700203,-9622.677246,-1225.752797
531.653532,-3034.844362,-9918.759623,-842.705048
531.653859,-2368.659014,-10214.842000,0.000000
531.654187,-2294.638420,-9622.677246,0.000000
531.654514,-592.164754,-9178.553681,995.924147
531.654842,814.226536,-8290.306550,1608.800546
531.655169,962.267725,-8808.450710,1685.410096
531.655497,-814.226536,-9992.780217,766.095498
531.655824,-2368.659014,-10881.027347,459.657299
531.656151,-3108.864956,-10362.883188,459.657299
531.656479,-2442.679609,-10436.903782,612.876398
531.656806,-740.205942,-9696.697840,1225.752797
531.657134,666.185348,-9326.594869,1225.752797
531.657461,3256.906145,-8808.450710,1838.629195
531.657789,2812.782580,-7031.956449,2451.505594
531.658116,1036.288319,-8216.285956,1225.752797
531.658444,-962.267725,-9030.512492,306.438199
531.658771,-2368.659014,-9770.718434,-842.705048
531.659099,-1850.514855,-10140.821405,-306.438199
531.659426,-1702.473667,-9326.594869,-536.266849
531.659754,-814.226536,-9474.636058,0.000000
531.660081,592.164754,-9178.553681,842.705048
531.660409,1850.514855,-7328.038826,1378.971896
531.660736,2368.659014,-7328.038826,1225.752797
531.661063,518.144159,-7550.100608,306.438199
531.661391,-1924.535449,-8364.327145,-1072.533697
531.661718,-2664.741391,-9844.739029,-689.485948
531.662046,-2368.659014,-9844.739029,-229.828649
531.662373,-1184.329507,-8808.450710,0.000000
531.662701,1480.411884,-8660.409521,1072.533697
531.663028,2960.823768,-8068.244768,1455.581446
531.663356,2960.823768,-7254.018232,1608.800546
531.663683,1998.556043,-7698.141797,1149.143247
531.664011,-444.123565,-8956.491898,-229.828649
531.664338,-1998.556043,-9400.615463,-1225.752797
531.664666,-2146.597232,-9918.759623,-1302.362347
531.664993,-1406.391290,-9696.697840,-995.924147
531.665321,148.041188,-9326.594869,76.609550
531.665648,1702.473667,-9178.553681,766.095498
531.665975,2368.659014,-8438.347739,2068.457845
531.666303,2886.803174,-8068.244768,2145.067394
531.666630,1184.329507,-9030.512492,842.705048
531.666958,-1480.411884,-9548.656652,0.000000
531.667285,-3182.885551,-9844.739029,-536.266849
531.667613,-2886.803174,-10214.842000,-306.438199
531.667940,-1554.432478,-9474.636058,766.095498
531.668268,222.061783,-8512.368333,1838.629195
531.668595,1702.473667,-7624.121203,2068.457845
531.668923,2738.761985,-6809.894666,2145.067394
531.669250,2072.576638,-7846.182985,1991.848295
531.669578,-222.061783,-8882.471304,842.705048
531.669905,-3404.947333,-9030.512492,-306.438199
531.670233,-3775.050304,-9770.718434,-536.266849
531.670560,-2812.782580,-9696.697840,0.000000
531.670887,-2146.597232,-9326.594869,766.095498
531.671215,-962.267725,-9992.780217,1225.752797
531.671542,962.267725,-8956.491898,1991.848295
531.671870,1184.329507,-7846.182985,2145.067394
531.672197,1406.391290,-8216.285956,1762.019645
531.672525,-518.144159,-9178.553681,612.876398
531.672852,-2442.679609,-9474.636058,0.000000
531.673180,-3404.947333,-9770.718434,383.047749
531.673507,-2590.720797,-9622.677246,536.266849
531.673835,-962.267725,-8734.430116,1149.143247
531.674162,148.041188,-9178.553681,1685.410096
531.674490,1480.411884,-8660.409521,1991.848295
531.674817,1554.432478,-7994.224174,1532.190996
531.675145,592.164754,-8290.306550,919.314598
531.675472,-1110.308913,-9030.512492,-306.438199
531.675799,-2294.638420,-9548.656652,-689.485948
531.676127,-1554.432478,-9844.739029,-995.924147
531.676454,-962.267725,-10288.862594,0.000000
531.676782,0.000000,-9770.718434,0.000000
531.677109,518.144159,-9474.636058,536.266849
531.677437,962.267725,-9252.574275,536.266849
531.677764,1406.391290,-9252.574275,842.705048
531.678092,1036.288319,-9400.615463,229.828649
531.678419,-1258.350101,-10436.903782,-995.924147
531.678747,-1702.473667,-10955.047942,-1455.581446
531.679074,-1924.535449,-10807.006753,-1149.143247
531.679402,-740.205942,-10510.924376,-306.438199
531.679729,444.123565,-10807.006753,612.876398
531.680056,1850.514855,-8956.491898,459.657299
531.680384,3034.844362,-8586.388927,689.485948
531.680711,2368.659014,-8808.450710,919.314598
531.681039,1258.350101,-9696.697840,536.266849
531.681366,0.000000,-10066.800811,0.000000
531.681694,-296.082377,-9844.739029,383.047749
531.682021,222.061783,-10510.924376,306.438199
531.682349,0.000000,-10362.883188,995.924147
531.682676,-296.082377,-9992.780217,1378.971896
531.683004,740.205942,-8882.471304,1762.019645
531.683331,1480.411884,-7698.141797,2451.505594
531.683659,1036.288319,-8586.388927,1608.800546
531.683986,-1184.329507,-9178.553681,306.438199
531.684314,-3034.844362,-10066.800811,-459.657299
531.684641,-2812.782580,-9622.677246,-153.219100
531.684968,-2294.638420,-9252.574275,383.047749
531.685296,-1184.329507,-8734.430116,995.924147
531.685623,-148.041188,-8882.471304,1608.800546
531.685951,518.144159,-8364.327145,2068.457845
531.686278,0.000000,-7772.162391,1991.848295
531.686606,-962.267725,-8068.244768,1378.971896
531.686933,-2664.741391,-8586.388927,229.828649
531.687261,-2812.782580,-9030.512492,-229.828649
531.687588,-2590.720797,-8882.471304,0.000000
531.687916,-1924.535449,-9104.533087,229.828649
531.688243,-1258.350101,-8808.450710,689.485948
531.688571,0.000000,-7105.977043,1302.362347
531.688898,1776.494261,-6439.791695,1225.752797
531.689226,2294.638420,-6291.750507,1378.971896
531.689553,1332.370696,-7179.997637,1149.143247
531.689880,-370.102971,-8512.368333,0.000000
531.690208,-2220.617826,-8808.450710,383.047749
531.690535,-1258.350101,-9474.636058,536.266849
531.690863,-592.164754,-9696.697840,689.485948
531.691190,-296.082377,-10066.800811,766.095498
531.691518,814.226536,-9400.615463,919.314598
531.691845,1628.453072,-8216.285956,919.314598
531.692173,1554.432478,-7772.162391,766.095498
531.692500,666.185348,-7846.182985,76.609550
531.692828,-518.144159,-8956.491898,-766.095498
531.693155,-740.205942,-9178.553681,-1072.533697
531.693483,-1036.288319,-9178.553681,-612.876398
531.693810,-222.061783,-8734.430116,229.828649
531.694138,148.041188,-8882.471304,612.876398
531.694465,1850.514855,-8512.368333,1455.581446
531.694792,2072.576638,-8364.327145,1455.581446
531.695120,1332.370696,-8586.388927,1072.533697
531.695447,-1184.329507,-9178.553681,306.438199
531.695775,-1850.514855,-9844.739029,0.000000
531.696102,-2368.659014,-9992.780217,-383.047749
531.696430,-1258.350101,-9770.718434,0.000000
531.696757,74.020594,-9696.697840,229.828649
531.697085,1110.308913,-8882.471304,1378.971896
531.697412,1998.556043,-8660.409521,1378.971896
531.697740,1110.308913,-8142.265362,1149.143247
531.698067,518.144159,-8512.368333,536.266849
531.698395,-1702.473667,-9548.656652,-612.876398
531.698722,-2442.679609,-9622.677246,-1302.362347
531.699050,-1850.514855,-10362.883188,-689.485948
531.699377,-1184.329507,-9548.656652,0.000000
531.699704,296.082377,-9622.677246,919.314598
531.700032,1258.350101,-9104.533087,1685.410096
531.700359,2590.720797,-9178.553681,2604.724693
531.700687,2368.659014,-9326.594869,2298.286494
531.701014,0.000000,-9770.718434,1608.800546
531.701342,-2664.741391,-11177.109724,689.485948
531.701669,-3552.988522,-11325.150913,0.000000
531.701997,-3775.050304,-11103.089130,0.000000
531.702324,-2072.576638,-10066.800811,536.266849
531.702652,-962.267725,-9178.553681,229.828649
531.702979,148.041188,-8734.430116,1149.143247
531.703307,444.123565,-7772.162391,689.485948
531.703634,518.144159,-7550.100608,153.219100
531.703962,-740.205942,-7550.100608,-689.485948
531.704289,-1628.453072,-8586.388927,-1685.410096
531.704616,-2072.576638,-9252.574275,-1608.800546
531.704944,-1850.514855,-9770.718434,-766.095498
531.705271,-1628.453072,-9992.780217,76.609550
531.705599,-296.082377,-9696.697840,0.000000
531.705926,1628.453072,-9178.553681,1225.752797
531.706254,2738.761985,-8586.388927,2145.067394
531.706581,2368.659014,-8882.471304,1915.238745
531.706909,370.102971,-9696.697840,1072.533697
531.707236,-1406.391290,-10066.800811,459.657299
531.707564,-370.102971,-9400.615463,153.219100
531.707891,-148.041188,-9474.636058,536.266849
531.708218,518.144159,-9178.553681,842.705048
531.708546,1480.411884,-8808.450710,995.924147
531.708873,2368.659014,-7846.182985,1838.629195
531.709200,2590.720797,-7476.080014,1685.410096
531.709528,1702.473667,-7994.224174,1149.143247
531.709855,222.061783,-9104.533087,383.047749
531.710183,-962.267725,-9326.594869,153.219100
531.710510,-1110.308913,-9844.739029,536.266849
531.710837,-1036.288319,-10362.883188,1532.190996
531.711165,-740.205942,-9770.718434,1378.971896
531.711492,0.000000,-9474.636058,2145.067394
531.711820,888.247130,-8216.285956,2604.724693
531.712147,1110.308913,-7920.203579,2298.286494
531.712474,-592.164754,-8586.388927,1838.629195
531.712802,-2664.741391,-9178.553681,76.609550
531.713129,-3701.029710,-8882.471304,-612.876398
531.713456,-3478.967927,-8808.450710,-919.314598
531.713784,-2590.720797,-8660.409521,-842.705048
531.714111,-2146.597232,-8660.409521,-689.485948
531.714439,-1036.288319,-8290.306550,0.000000
531.714766,74.020594,-7402.059420,229.828649
531.715093,74.020594,-7846.182985,383.047749
531.715421,-666.185348,-8438.347739,-536.266849
531.715748,-1924.535449,-9992.780217,-1149.143247
531.716076,-1628.453072,-10362.883188,-842.705048
531.716403,-888.247130,-9992.780217,-612.876398
531.716730,0.000000,-9474.636058,0.000000
531.717058,1554.432478,-8956.491898,995.924147
531.717385,3775.050304,-7920.203579,1991.848295
531.717713,4737.318029,-7328.038826,2221.676944
531.718040,3404.947333,-8216.285956,2374.896044
531.718367,740.205942,-9474.636058,1072.533697
531.718695,-1184.329507,-10288.862594,76.609550
531.719022,-1480.411884,-10288.862594,229.828649
531.719349,-222.061783,-10066.800811,536.266849
531.719677,518.144159,-9622.677246,306.438199
531.720004,1258.350101,-8956.491898,919.314598
531.720332,2294.638420,-7920.203579,1455.581446
531.720659,1258.350101,-7698.141797,842.705048
531.720986,-518.144159,-7994.224174,0.000000
531.721314,-2368.659014,-9104.533087,-766.095498
531.721641,-3849.070898,-9400.615463,-1685.410096
531.721969,-3182.885551,-9400.615463,-1149.143247
531.722296,-2368.659014,-9622.677246,-153.219100
531.722623,-962.267725,-9326.594869,919.314598
531.722951,888.247130,-8364.327145,2374.896044
531.723278,2072.576638,-8068.244768,2834.553343
531.723606,1110.308913,-8216.285956,2451.505594
531.723933,-592.164754,-9696.697840,1532.190996
531.724260,-2960.823768,-10140.821405,229.828649
531.724588,-2812.782580,-9844.739029,383.047749
531.724915,-1776.494261,-10436.903782,383.047749
531.725242,-444.123565,-9918.759623,919.314598
531.725570,518.144159,-9918.759623,1608.800546
531.725897,1702.473667,-9326.594869,1532.190996
531.726225,1628.453072,-8734.430116,1685.410096
531.726552,1480.411884,-9326.594869,459.657299
531.726879,-1184.329507,-9696.697840,-766.095498
531.727207,-2960.823768,-10510.924376,-1225.752797
531.727534,-2442.679609,-9844.739029,-1072.533697
531.727862,-1850.514855,-9696.697840,0.000000
531.728189,0.000000,-9252.574275,995.924147
531.728516,1184.329507,-8512.368333,1915.238745
531.728844,2812.782580,-8364.327145,2681.334243
531.729171,2146.597232,-8364.327145,2451.505594
531.729499,444.123565,-8512.368333,1302.362347
531.729826,-1776.494261,-9474.636058,153.219100
531.730153,-2368.659014,-9770.718434,-459.657299
531.730481,-2368.659014,-9548.656652,-383.047749
531.730808,-1110.308913,-9326.594869,0.000000
531.731135,148.041188,-8808.450710,229.828649
531.731463,814.226536,-7994.224174,1149.143247
531.731790,1628.453072,-7402.059420,536.266849
531.732118,888.247130,-7846.182985,0.000000
531.732445,0.000000,-8512.368333,-459.657299
531.732772,-1850.514855,-9326.594869,-1378.971896
531.733100,-2146.597232,-9400.615463,-1532.190996
531.733427,-1480.411884,-8808.450710,-842.705048
531.733755,-740.205942,-9252.574275,306.438199
531.734082,518.144159,-8734.430116,995.924147
531.734409,1998.556043,-8438.347739,2068.457845
531.734737,2368.659014,-7994.224174,2374.896044
531.735064,2294.638420,-8364.327145,2374.896044
531.735392,0.000000,-9030.512492,766.095498
531.735719,-1036.288319,-9252.574275,459.657299
531.736046,-1184.329507,-9696.697840,229.828649
531.736374,-962.267725,-9992.780217,689.485948
531.736701,-444.123565,-9252.574275,842.705048
531.737028,-666.185348,-8808.450710,842.705048
531.737356,740.205942,-7994.224174,995.924147
531.737683,1110.308913,-7476.080014,689.485948
531.738011,296.082377,-7772.162391,0.000000
531.738338,-1110.308913,-8586.388927,-766.095498
531.738665,-2294.638420,-9326.594869,-612.876398
531.738993,-2516.700203,-9474.636058,-1072.533697
531.739320,-2442.679609,-9770.718434,-383.047749
531.739648,-1480.411884,-9474.636058,536.266849
531.739975,0.000000,-9104.533087,1225.752797
531.740302,1702.473667,-8808.450710,2374.896044
531.740630,1776.494261,-8512.368333,2298.286494
531.740957,1184.329507,-8438.347739,1685.410096
531.741284,-592.164754,-9622.677246,919.314598
531.741612,-1258.350101,-9844.739029,459.657299
531.741939,-1480.411884,-9844.739029,459.657299
531.742267,-592.164754,-9696.697840,229.828649
531.742594,-222.061783,-9770.718434,459.657299
531.742921,1110.308913,-9770.718434,1072.533697
531.743249,1406.391290,-8734.430116,995.924147
531.743576,1332.370696,-8956.491898,459.657299
531.743904,0.000000,-8956.491898,76.609550
531.744231,-1702.473667,-9918.759623,-1072.533697
531.744558,-3034.844362,-10362.883188,-1685.410096
531.744886,-2368.659014,-10362.883188,-1378.971896
531.745213,-1406.391290,-9844.739029,-229.828649
531.745541,74.020594,-9548.656652,612.876398
531.745868,1776.494261,-8660.409521,1378.971896
531.746195,2590.720797,-8882.471304,2145.067394
531.746523,1998.556043,-8734.430116,1991.848295
531.746850,222.061783,-9326.594869,995.924147
531.747177,-518.144159,-10362.883188,153.219100
531.747505,-1036.288319,-10140.821405,383.047749
531.747832,-962.267725,-10807.006753,766.095498
531.748160,0.000000,-10362.883188,1225.752797
531.748487,-148.041188,-9770.718434,1532.190996
531.748814,1184.329507,-8512.368333,1225.752797
531.749142,814.226536,-7772.162391,1532.190996
531.749469,444.123565,-8512.368333,689.485948
531.749797,-1702.473667,-8734.430116,-612.876398
531.750124,-2812.782580,-9474.636058,-1225.752797
531.750451,-2960.823768,-9326.594869,-1455.581446
531.750779,-2812.782580,-9178.553681,-842.705048
531.751106,-1776.494261,-8586.388927,-76.609550
531.751434,74.020594,-7772.162391,612.876398
531.751761,1998.556043,-7550.100608,1838.629195
531.752088,1628.453072,-7402.059420,2145.067394
531.752416,666.185348,-7920.203579,1915.238745
531.752743,-1258.350101,-8512.368333,766.095498
531.753070,-1110.308913,-9252.574275,689.485948
531.753398,-1184.329507,-9326.594869,689.485948
531.753725,-888.247130,-9104.533087,842.705048
531.754053,518.144159,-8882.471304,1225.752797
531.754380,888.247130,-8512.368333,1225.752797
531.754707,1628.453072,-7624.121203,1455.581446
531.755035,1110.308913,-7476.080014,612.876398
531.755362,0.000000,-7846.182985,-459.657299
531.755690,-1998.556043,-8734.430116,-1532.190996
531.756017,-2072.576638,-9252.574275,-1915.238745
531.756344,-2072.576638,-9622.677246,-1455.581446
531.756672,0.000000,-9030.512492,-306.438199
531.756999,1480.411884,-8882.471304,919.314598
531.757327,2886.803174,-8586.388927,1838.629195
531.757654,2812.782580,-8586.388927,2681.334243
531.757981,1110.308913,-9178.553681,2145.067394
531.758309,-1184.329507,-9252.574275,1072.533697
531.758636,-2294.638420,-9844.739029,306.438199
531.758963,-1628.453072,-9918.759623,229.828649
531.759291,-1036.288319,-8808.450710,536.266849
531.759618,444.123565,-9178.553681,1532.190996
531.759946,740.205942,-8660.409521,1455.581446
531.760273,1776.494261,-8142.265362,1762.019645
531.760600,888.247130,-8068.244768,689.485948
531.760928,-592.164754,-8956.491898,0.000000
531.761255,-3256.906145,-9844.739029,-1991.848295
531.761583,-4441.235652,-10066.800811,-2298.286494
531.761910,-3849.070898,-9992.780217,-1608.800546
531.762237,-2294.638420,-9622.677246,-536.266849
531.762565,-962.267725,-8808.450710,153.219100
531.762892,1258.350101,-8808.450710,1225.752797
531.763220,2442.679609,-8586.388927,1532.190996
531.763547,1628.453072,-8438.347739,1685.410096
531.763874,370.102971,-8956.491898,766.095498
531.764202,-1184.329507,-9696.697840,-229.828649
531.764529,-1406.391290,-10066.800811,76.609550
531.764856,-666.185348,-10807.006753,919.314598
531.765184,0.000000,-9918.759623,1302.362347
531.765511,1258.350101,-9474.636058,1685.410096
531.765839,2516.700203,-9326.594869,1991.848295
531.766166,2442.679609,-8512.368333,1532.190996
531.766493,1776.494261,-9030.512492,536.266849
531.766821,-1110.308913,-9474.636058,-612.876398
531.767148,-2368.659014,-10214.842000,-1915.238745
531.767476,-2664.741391,-10214.842000,-1685.410096
531.767803,-1628.453072,-9696.697840,-306.438199
531.768130,-370.102971,-9770.718434,0.000000
531.768458,1480.411884,-9474.636058,1149.143247
531.768785,1924.535449,-8586.388927,1915.238745
531.769112,1628.453072,-8808.450710,2221.676944
531.769440,296.082377,-9104.533087,1532.190996
531.769767,-1554.432478,-9918.759623,689.485948
531.770095,-2516.700203,-10436.903782,383.047749
531.770422,-1924.535449,-9844.739029,536.266849
531.770749,-888.247130,-9844.739029,995.924147
531.771077,592.164754,-9474.636058,1991.848295
531.771404,740.205942,-8808.450710,1762.019645
531.771732,1850.514855,-8734.430116,2451.505594
531.772059,666.185348,-8956.491898,1455.581446
531.772386,-1184.329507,-9548.656652,153.219100
531.772714,-3330.926739,-10881.027347,-1225.752797
531.773041,-3478.967927,-10436.903782,-1608.800546
531.773369,-2516.700203,-9918.759623,-766.095498
531.773696,-888.247130,-8882.471304,0.000000
531.774023,962.267725,-8438.347739,766.095498
531.774351,1776.494261,-8142.265362,1302.362347
531.774678,2294.638420,-6587.832884,1915.238745
531.775005,1924.535449,-7402.059420,1838.629195
531.775333,592.164754,-8734.430116,1378.971896
531.775660,-1036.288319,-9400.615463,689.485948
531.775988,-1110.308913,-10140.821405,1072.533697
531.776315,-1036.288319,-9770.718434,1302.362347
531.776642,-444.123565,-9400.615463,1302.362347
531.776970,0.000000,-9252.574275,1455.581446
531.777297,1184.329507,-8512.368333,1225.752797
531.777625,1850.514855,-7328.038826,766.095498
531.777952,1628.453072,-7846.182985,536.266849
531.778279,-962.267725,-8586.388927,-459.657299
531.778607,-1850.514855,-8956.491898,-1225.752797
531.778934,-2072.576638,-8438.347739,-1838.629195
531.779262,-1850.514855,-8808.450710,-1302.362347
531.779589,-1406.391290,-8956.491898,-919.314598
531.779916,-1628.453072,-8290.306550,-612.876398
531.780244,518.144159,-7994.224174,383.047749
531.780571,1184.329507,-7402.059420,766.095498
531.780898,1258.350101,-7624.121203,689.485948
531.781226,-592.164754,-8660.409521,153.219100
531.781553,-740.205942,-8956.491898,612.876398
531.781881,-1184.329507,-8364.327145,536.266849
531.782208,-296.082377,-9030.512492,766.095498
531.782535,148.041188,-8586.388927,1072.533697
531.782863,1554.432478,-8586.388927,1532.190996
531.783190,3034.844362,-7994.224174,2221.676944
531.783518,2220.617826,-7254.018232,1762.019645
531.783845,592.164754,-8956.491898,689.485948
531.784172,-1850.514855,-9696.697840,-383.047749
531.784500,-2812.782580,-9918.759623,-995.924147
531.784827,-2664.741391,-9548.656652,-1149.143247
531.785155,-1776.494261,-9622.677246,-153.219100
531.785482,-1110.308913,-9622.677246,153.219100
531.785809,0.000000,-9178.553681,1302.362347
531.786137,1110.308913,-8216.285956,2145.067394
531.786464,666.185348,-8364.327145,2145.067394
531.786791,-296.082377,-9252.574275,1532.190996
531.787119,-2442.679609,-9844.739029,842.705048
531.787446,-2960.823768,-10584.944971,383.047749
531.787774,-2664.741391,-10214.842000,536.266849
531.788101,-1998.556043,-9474.636058,1072.533697
531.788428,-666.185348,-9252.574275,1455.581446
531.788756,1628.453072,-7624.121203,2068.457845
531.789083,2146.597232,-7402.059420,1991.848295
531.789411,1258.350101,-7624.121203,1455.581446
531.789738,-666.185348,-8956.491898,0.000000
531.790065,-2738.761985,-9474.636058,-536.266849
531.790393,-2442.679609,-10436.903782,-995.924147
531.790720,-3182.885551,-11029.068536,-842.705048
531.791048,-1776.494261,-10955.047942,-306.438199
531.791375,-518.144159,-10362.883188,536.266849
531.791702,1998.556043,-9400.615463,1685.410096
531.792030,2886.803174,-8364.327145,1685.410096
531.792357,1702.473667,-9178.553681,1608.800546
531.792684,74.020594,-10140.821405,689.485948
531.793012,-1480.411884,-10140.821405,0.000000
531.793339,-1184.329507,-10807.006753,459.657299
531.793667,-666.185348,-10732.986159,612.876398
531.793994,814.226536,-10140.821405,1378.971896
531.794321,1332.370696,-9474.636058,1838.629195
531.794649,3404.947333,-8512.368333,2987.772442
531.794976,2294.638420,-8142.265362,2221.676944
531.795304,148.041188,-8808.450710,459.657299
531.795631,-1850.514855,-9548.656652,76.609550
531.795958,-2960.823768,-9770.718434,-1072.533697
531.796286,-2664.741391,-9844.739029,-1149.143247
531.796613,-2368.659014,-9030.512492,-995.924147
531.796940,-592.164754,-8586.388927,-995.924147
531.797268,518.144159,-7328.038826,536.266849
531.797595,2442.679609,-6809.894666,995.924147
531.797923,1702.473667,-7402.059420,612.876398
531.798250,148.041188,-8586.388927,76.609550
531.798577,-2146.597232,-9474.636058,-536.266849
531.798905,-2368.659014,-9252.574275,0.000000
531.799232,-1998.556043,-9696.697840,0.000000
531.799560,-518.144159,-9178.553681,766.095498
531.799887,814.226536,-9030.512492,1302.362347
531.800214,2812.782580,-8290.306550,2298.286494
531.800542,3108.864956,-7254.018232,1838.629195
531.800869,1850.514855,-7698.141797,1302.362347
531.801197,-814.226536,-9104.533087,-459.657299
531.801524,-2738.761985,-9696.697840,-1532.190996
531.801851,-2368.659014,-9400.615463,-1991.848295
531.802179,-1924.535449,-9622.677246,-1149.143247
531.802506,-518.144159,-9030.512492,-306.438199
531.802833,1258.350101,-8882.471304,689.485948
531.803161,2590.720797,-8068.244768,1378.971896
531.803488,2442.679609,-8660.409521,1532.190996
531.803816,592.164754,-9474.636058,842.705048
531.804143,-1924.535449,-9918.759623,0.000000
531.804470,-2590.720797,-9474.636058,-766.095498
531.804798,-1850.514855,-9252.574275,-459.657299
531.805125,-444.123565,-9104.533087,459.657299
531.805453,592.164754,-8660.409521,1225.752797
531.805780,2590.720797,-8142.265362,2681.334243
531.806107,2664.741391,-7328.038826,2451.505594
531.806435,1406.391290,-7920.203579,1302.362347
531.806762,-1110.308913,-9400.615463,0.000000
531.807090,-2590.720797,-9992.780217,-1072.533697
531.807417,-2368.659014,-10214.842000,-1225.752797
531.807744,-2146.597232,-9030.512492,-459.657299
531.808072,-518.144159,-9548.656652,229.828649
531.808399,370.102971,-9474.636058,689.485948
531.808727,2072.576638,-8808.450710,2145.067394
531.809054,2220.617826,-7328.038826,1608.800546
531.809381,370.102971,-8290.306550,1378.971896
531.809709,-1406.391290,-9992.780217,383.047749
531.810036,-3108.864956,-10140.821405,0.000000
531.810364,-2664.741391,-9992.780217,306.438199
531.810691,-1554.432478,-9918.759623,1838.629195
531.811019,0.000000,-10214.842000,1838.629195
531.811346,1258.350101,-9548.656652,2374.896044
531.811673,2220.617826,-8438.347739,2604.724693
531.812001,1776.494261,-8660.409521,2604.724693
531.812328,148.041188,-9474.636058,1532.190996
531.812656,-2738.761985,-9622.677246,689.485948
531.812983,-2368.659014,-9474.636058,0.000000
531.813311,-1924.535449,-9474.636058,76.609550
531.813638,-1258.350101,-8808.450710,153.219100
531.813965,-370.102971,-9030.512492,383.047749
531.814293,592.164754,-8956.491898,1302.362347
531.814620,1332.370696,-7179.997637,1685.410096
531.814948,592.164754,-7846.182985,1225.752797
531.815275,-1036.288319,-9178.553681,459.657299
531.815603,-2664.741391,-9844.739029,0.000000
531.815930,-3034.844362,-9918.759623,-229.828649
531.816258,-2368.659014,-9474.636058,0.000000
531.816585,-1480.411884,-9696.697840,1072.533697
531.816912,-444.123565,-9696.697840,919.314598
531.817240,814.226536,-8438.347739,1685.410096
531.817567,2220.617826,-7550.100608,1455.581446
531.817895,1998.556043,-7846.182985,1915.238745
531.818222,0.000000,-8808.450710,0.000000
531.818550,-1702.473667,-9178.553681,-689.485948
531.818877,-888.247130,-8956.491898,-612.876398
531.819204,-666.185348,-9030.512492,-229.828649
531.819532,-148.041188,-9030.512492,383.047749
531.819859,740.205942,-9252.574275,536.266849
531.820187,1406.391290,-7994.224174,1225.752797
531.820514,2072.576638,-7772.162391,1302.362347
531.820842,1110.308913,-8660.409521,766.095498
531.821169,-444.123565,-9104.533087,-229.828649
531.821496,-1554.432478,-9844.739029,-689.485948
531.821824,-962.267725,-9400.615463,-229.828649
531.822151,-1036.288319,-9474.636058,0.000000
531.822479,0.000000,-9474.636058,536.266849
531.822806,740.205942,-8956.491898,842.705048
531.823134,1628.453072,-7328.038826,1455.581446
531.823461,1554.432478,-7476.080014,1149.143247
531.823789,296.082377,-8734.430116,306.438199
531.824116,-1702.473667,-9326.594869,-612.876398
531.824443,-2146.597232,-9178.553681,-995.924147
531.824771,-1480.411884,-8734.430116,0.000000
531.825098,-1036.288319,-9474.636058,-306.438199
531.825426,-666.185348,-9104.533087,76.609550
531.825753,222.061783,-8364.327145,919.314598
531.826081,1776.494261,-7254.018232,1302.362347
531.826408,1480.411884,-8290.306550,1608.800546
531.826735,444.123565,-9474.636058,766.095498
531.827063,-2146.597232,-10584.944971,-229.828649
531.827390,-2072.576638,-10584.944971,-306.438199
531.827718,-1554.432478,-10140.821405,153.219100
531.828045,-666.185348,-9770.718434,919.314598
531.828373,370.102971,-9770.718434,1532.190996
531.828700,2146.597232,-8808.450710,1915.238745
531.829028,1998.556043,-7550.100608,1302.362347
531.829355,1258.350101,-8512.368333,1149.143247
531.829682,-1258.350101,-9548.656652,76.609550
531.830010,-2738.761985,-9696.697840,-459.657299
531.830337,-1776.494261,-9844.739029,0.000000
531.830665,-1036.288319,-9918.759623,306.438199
531.830992,-444.123565,-9770.718434,1302.362347
531.831320,444.123565,-9770.718434,1915.238745
531.831647,1628.453072,-8660.409521,2451.505594
531.831974,1406.391290,-8586.388927,1762.019645
531.832302,0.000000,-9252.574275,1378.971896
531.832629,-2146.597232,-10214.842000,-153.219100
531.832957,-3330.926739,-9992.780217,-383.047749
531.833284,-2368.659014,-9622.677246,0.000000
531.833612,-1628.453072,-9252.574275,153.219100
531.833939,-444.123565,-9326.594869,766.095498
531.834266,518.144159,-8882.471304,1455.581446
531.834594,1332.370696,-8364.327145,1685.410096
531.834921,518.144159,-8068.244768,1225.752797
531.835249,-518.144159,-9326.594869,766.095498
531.835576,-2294.638420,-10288.862594,-612.876398
531.835904,-2294.638420,-10140.821405,-383.047749
531.836231,-1184.329507,-9770.718434,0.000000
531.836559,-814.226536,-9992.780217,689.485948
531.836886,296.082377,-9770.718434,1302.362347
531.837213,1184.329507,-8808.450710,1608.800546
531.837541,2368.659014,-7920.203579,2068.457845
531.837868,2220.617826,-8068.244768,1608.800546
531.838196,592.164754,-9030.512492,536.266849
531.838523,-962.267725,-9474.636058,76.609550
531.838851,-666.185348,-9400.615463,0.000000
531.839178,-814.226536,-9400.615463,153.219100
531.839505,-962.267725,-9696.697840,612.876398
531.839833,-518.144159,-9548.656652,689.485948
531.840160,1110.308913,-8068.244768,1072.533697
531.840488,1702.473667,-7179.997637,689.485948
531.840815,814.226536,-7846.182985,689.485948
531.841143,-370.102971,-8808.450710,0.000000
531.841470,-1184.329507,-9030.512492,-459.657299
531.841797,-1258.350101,-8808.450710,-229.828649
531.842125,-1480.411884,-9030.512492,306.438199
531.842452,-1480.411884,-9474.636058,536.266849
531.842780,-518.144159,-9326.594869,1072.533697
531.843107,888.247130,-8068.244768,1149.143247
531.843435,518.144159,-7920.203579,1072.533697
531.843762,-370.102971,-8364.327145,842.705048
531.844090,-1776.494261,-9400.615463,-612.876398
531.844417,-2146.597232,-9030.512492,-995.924147
531.844744,-888.247130,-8734.430116,-612.876398
531.845072,-222.061783,-9030.512492,0.000000
531.845399,0.000000,-8734.430116,766.095498
531.845727,1258.350101,-8438.347739,842.705048
531.846054,2294.638420,-7698.141797,1378.971896
531.846382,1258.350101,-8438.347739,995.924147
531.846709,-148.041188,-9770.718434,383.047749
531.847036,-1924.535449,-10436.903782,-229.828649
531.847364,-1702.473667,-10288.862594,-229.828649
531.847691,-1628.453072,-9992.780217,0.000000
531.848019,-666.185348,-9918.759623,306.438199
531.848346,518.144159,-9474.636058,842.705048
531.848674,1998.556043,-8290.306550,1685.410096
531.849001,3256.906145,-7105.977043,1838.629195
531.849328,2146.597232,-7772.162391,1608.800546
531.849656,0.000000,-9252.574275,459.657299
531.849983,-1554.432478,-9622.677246,76.609550
531.850311,-1998.556043,-9548.656652,-306.438199
531.850638,-2220.617826,-10362.883188,383.047749
531.850966,-1998.556043,-10881.027347,76.609550
531.851293,-1702.473667,-10362.883188,459.657299
531.851621,-296.082377,-8586.388927,1149.143247
531.851948,1184.329507,-8068.244768,1072.533697
531.852275,1036.288319,-8142.265362,995.924147
531.852603,-370.102971,-9104.533087,0.000000
531.852930,-1628.453072,-9400.615463,-536.266849
531.853258,-1776.494261,-9400.615463,-153.219100
531.853585,-1480.411884,-9770.718434,459.657299
531.853913,-888.247130,-9474.636058,1225.752797
531.854240,518.144159,-8956.491898,1685.410096
531.854567,2294.638420,-7994.224174,2298.286494
531.854895,2368.659014,-8068.244768,2604.724693
531.855222,444.123565,-9400.615463,1762.019645
531.855550,-1628.453072,-9844.739029,689.485948
531.855877,-2220.617826,-10510.924376,536.266849
531.856205,-1998.556043,-9918.759623,153.219100
531.856532,-1628.453072,-10436.903782,612.876398
531.856860,-962.267725,-10140.821405,612.876398
531.857187,518.144159,-8734.430116,1378.971896
531.857514,1776.494261,-7994.224174,1762.019645
531.857842,1258.350101,-8068.244768,1072.533697
531.858169,-814.226536,-8882.471304,0.000000
531.858497,-2738.761985,-9548.656652,-842.705048
531.858824,-2442.679609,-8956.491898,-919.314598
531.859152,-2368.659014,-8438.347739,-229.828649
531.859479,-814.226536,-9400.615463,383.047749
531.859806,592.164754,-9030.512492,1302.362347
531.860134,2072.576638,-8364.327145,2451.505594
531.860461,2516.700203,-7402.059420,2604.724693
531.860789,1628.453072,-8438.347739,2451.505594
531.861116,-148.041188,-9252.574275,766.095498
531.861444,-2220.617826,-9622.677246,0.000000
531.861771,-2072.576638,-9474.636058,-383.047749
531.862098,-1776.494261,-9696.697840,-153.219100
531.862426,-1554.432478,-9622.677246,0.000000
531.862753,-666.185348,-8808.450710,153.219100
531.863081,1258.350101,-7698.141797,536.266849
531.863408,1258.350101,-7550.100608,0.000000
531.863736,296.082377,-8438.347739,-459.657299
531.864063,-1406.391290,-9474.636058,-1378.971896
531.864391,-2220.617826,-9252.574275,-1532.190996
531.864718,-1628.453072,-8882.471304,-1762.019645
531.865045,-814.226536,-9326.594869,0.000000
531.865373,740.205942,-9178.553681,919.314598
531.865700,1850.514855,-8438.347739,1991.848295
531.866028,3552.988522,-7402.059420,3064.381992
531.866355,2960.823768,-7550.100608,2451.505594
531.866683,666.185348,-8956.491898,1532.190996
531.867010,-1184.329507,-9992.780217,459.657299
531.867337,-1554.432478,-9696.697840,0.000000
531.867665,-1258.350101,-9474.636058,-229.828649
531.867992,-444.123565,-9474.636058,459.657299
531.868320,74.020594,-9548.656652,459.657299
531.868647,1184.329507,-8882.471304,995.924147
531.868975,1554.432478,-7698.141797,1072.533697
531.869302,370.102971,-7994.224174,0.000000
531.869629,-1776.494261,-9252.574275,-766.095498
531.869957,-3849.070898,-9992.780217,-1378.971896
531.870284,-3701.029710,-9622.677246,-1378.971896
531.870612,-2368.659014,-9622.677246,-306.438199
531.870939,-444.123565,-9400.615463,1072.533697
531.871267,740.205942,-8956.491898,1915.238745
531.871594,1850.514855,-8364.327145,2068.457845
531.871922,1776.494261,-8290.306550,2604.724693
531.872249,-222.061783,-9030.512492,1915.238745
531.872576,-2146.597232,-9622.677246,612.876398
531.872904,-2368.659014,-9696.697840,153.219100
531.873231,-2072.576638,-9474.636058,76.609550
531.873559,-1406.391290,-10140.821405,383.047749
531.873886,0.000000,-10066.800811,766.095498
531.874214,962.267725,-9622.677246,1072.533697
531.874541,2590.720797,-8956.491898,1915.238745
531.874868,2294.638420,-8512.368333,1302.362347
531.875196,370.102971,-9844.739029,-153.219100
531.875523,-1702.473667,-11029.068536,-919.314598
531.875851,-2146.597232,-10436.903782,-842.705048
531.876178,-1850.514855,-9696.697840,-383.047749
531.876506,-592.164754,-9770.718434,1225.752797
531.876833,0.000000,-9696.697840,919.314598
531.877160,1332.370696,-8586.388927,1838.629195
531.877488,2294.638420,-7698.141797,2451.505594
531.877815,1924.535449,-8068.244768,2298.286494
531.878143,370.102971,-9104.533087,1838.629195
531.878470,-962.267725,-9696.697840,689.485948
531.878798,-1776.494261,-9548.656652,383.047749
531.879125,-1406.391290,-9548.656652,612.876398
531.879453,-1480.411884,-9548.656652,842.705048
531.879780,-1036.288319,-9252.574275,919.314598
531.880107,0.000000,-8438.347739,689.485948
531.880435,666.185348,-7179.997637,842.705048
531.880762,222.061783,-8290.306550,0.000000
531.881090,-1628.453072,-9178.553681,-995.924147
531.881417,-2812.782580,-9326.594869,-1378.971896
531.881745,-2220.617826,-8660.409521,-995.924147
531.882072,-1924.535449,-8586.388927,-383.047749
531.882399,-666.185348,-8882.471304,306.438199
531.882727,518.144159,-8808.450710,1225.752797
531.883054,2072.576638,-8364.327145,2145.067394
531.883382,2294.638420,-7476.080014,2681.334243
531.883709,1702.473667,-8512.368333,2145.067394
531.884037,-222.061783,-9622.677246,1225.752797
531.884364,-1110.308913,-9548.656652,842.705048
531.884692,-740.205942,-9252.574275,766.095498
531.885019,-296.082377,-8364.327145,1149.143247
531.885346,518.144159,-8512.368333,1378.971896
531.885674,1850.514855,-8364.327145,1838.629195
531.886001,3108.864956,-7105.977043,2451.505594
531.886329,3108.864956,-7031.956449,2221.676944
531.886656,1406.391290,-8142.265362,1302.362347
531.886984,-814.226536,-9474.636058,766.095498
531.887311,-2294.638420,-9474.636058,153.219100
531.887638,-2072.576638,-9178.553681,306.438199
531.887966,-1258.350101,-9326.594869,1302.362347
531.888293,-222.061783,-9400.615463,2145.067394
531.888621,518.144159,-8586.388927,3600.648841
531.888948,1332.370696,-7476.080014,3753.867940
531.889276,1258.350101,-7402.059420,3907.087040
531.889603,74.020594,-8734.430116,2911.162892
531.889930,-2146.597232,-10066.800811,1991.848295
531.890258,-2812.782580,-10214.842000,2451.505594
531.890585,-2368.659014,-9474.636058,1838.629195
531.890913,-2072.576638,-9104.533087,2451.505594
531.891240,-1850.514855,-9178.553681,2604.724693
531.891568,-1554.432478,-9326.594869,2604.724693
531.891895,-1332.370696,-8142.265362,2374.896044
531.892223,-1184.329507,-7328.038826,1532.190996
531.892550,-1184.329507,-8438.347739,766.095498
531.892877,-3330.926739,-9770.718434,0.000000
531.893205,-3701.029710,-10881.027347,0.000000
531.893532,-2516.700203,-9844.739029,536.266849
531.893860,-296.082377,-9622.677246,1685.410096
531.894187,1702.473667,-9474.636058,2528.115143
531.894515,2812.782580,-10214.842000,3677.258390
531.894842,3552.988522,-9844.739029,4213.525239
531.895169,4071.132681,-9474.636058,4826.401637
531.895497,4441.235652,-9770.718434,4749.792088
531.895824,3627.009116,-10510.924376,4979.620737
531.896152,2590.720797,-11769.274478,5056.230287
531.896479,2368.659014,-11769.274478,5669.106685
531.896807,2220.617826,-10732.986159,5975.544884
531.897134,2664.741391,-10066.800811,6435.202183
531.897461,1332.370696,-10362.883188,5515.887586
531.897789,-592.164754,-10732.986159,4290.134789
531.898116,-1332.370696,-9770.718434,3524.039291
531.898444,-1924.535449,-8512.368333,3140.991542
531.898771,-1406.391290,-8142.265362,3140.991542
531.899099,-814.226536,-8882.471304,3830.477490
531.899426,-3330.926739,-10510.924376,2987.772442
531.899754,-5921.647536,-10732.986159,2451.505594
531.900081,-6957.935855,-9770.718434,2068.457845
531.900408,-6069.688724,-8364.327145,1685.410096
531.900736,-4663.297435,-7920.203579,1685.410096
531.901063,-3701.029710,-7476.080014,1455.581446
531.901391,-3478.967927,-7624.121203,1532.190996
531.901718,-2664.741391,-7105.977043,2145.067394
531.902046,-296.082377,-6661.853478,2834.553343
531.902373,1924.535449,-6735.874072,4290.134789
531.902700,4145.153275,-7994.224174,4673.182538
531.903028,3404.947333,-9252.574275,4903.011187
531.903355,2072.576638,-10140.821405,4673.182538
531.903683,1110.308913,-10140.821405,4136.915689
531.904010,2664.741391,-9474.636058,4826.401637
531.904338,4589.276840,-9400.615463,4979.620737
531.904665,5477.523971,-9844.739029,5286.058936
531.904992,4441.235652,-10732.986159,5209.449386
531.905320,2664.741391,-11473.192101,4903.011187
531.905647,0.000000,-10362.883188,3217.601092
531.905975,74.020594,-9252.574275,3524.039291
531.906302,1110.308913,-7772.162391,3217.601092
531.906630,962.267725,-8438.347739,3140.991542
531.906957,-222.061783,-8364.327145,3370.820191
531.907285,-2146.597232,-8364.327145,2757.943793
531.907612,-5403.503377,-7920.203579,2374.896044
531.907939,-5625.565159,-8068.244768,1225.752797
531.908267,-5699.585753,-8216.285956,919.314598
531.908594,-3478.967927,-7920.203579,995.924147
531.908922,-2368.659014,-6883.915261,1762.019645
531.909249,-1850.514855,-6217.729913,2757.943793
531.909577,-1702.473667,-6439.791695,2451.505594
531.909904,-2220.617826,-7031.956449,1838.629195
531.910232,-2368.659014,-7476.080014,842.705048
531.910559,-1258.350101,-8216.285956,842.705048
531.910887,370.102971,-8216.285956,2374.896044
531.911215,2738.761985,-8808.450710,4060.306139
531.911542,4293.194464,-9400.615463,5362.668486
531.911870,4737.318029,-10584.944971,5362.668486
531.912198,3627.009116,-11621.233289,4903.011187
531.912525,1998.556043,-12361.439231,4519.963438
531.912853,444.123565,-12213.398043,3600.648841
531.913180,222.061783,-12065.356855,3677.258390
531.913508,1998.556043,-11029.068536,4673.182538
531.913836,4293.194464,-10066.800811,5056.230287
531.914163,3701.029710,-9622.677246,5975.544884
531.914491,3404.947333,-9474.636058,5209.449386
531.914819,-666.185348,-9400.615463,4136.915689
531.915146,-4145.153275,-9696.697840,2528.115143
531.915474,-5033.400406,-9844.739029,1149.143247
531.915802,-4515.256246,-8882.471304,1455.581446
531.916129,-2516.700203,-7994.224174,2298.286494
531.916457,296.082377,-6883.915261,3907.087040
531.916784,444.123565,-6513.812290,5362.668486
531.917112,0.000000,-7254.018232,5132.839837
531.917440,-1850.514855,-8438.347739,4443.353888
531.917767,-3997.112087,-9474.636058,2528.115143
531.918095,-5107.421000,-10140.821405,1685.410096
531.918423,-5181.441594,-10436.903782,1455.581446
531.918750,-3330.926739,-9992.780217,2145.067394
531.919078,-370.102971,-9474.636058,3524.039291
531.919406,1850.514855,-8438.347739,3983.696590
531.919733,3256.906145,-8660.409521,4060.306139
531.920061,2516.700203,-9104.533087,4136.915689
531.920388,1184.329507,-9844.739029,2987.772442
531.920716,222.061783,-10881.027347,2451.505594
531.921044,74.020594,-11029.068536,2298.286494
531.921371,1258.350101,-11103.089130,3064.381992
531.921699,1332.370696,-10214.842000,4136.915689
531.922027,1406.391290,-9696.697840,4596.572988
531.922354,1036.288319,-9400.615463,4366.744339
531.922682,0.000000,-8586.388927,3370.820191
531.923010,-592.164754,-8734.430116,2528.115143
531.923337,814.226536,-8068.244768,2451.505594
531.923665,740.205942,-7846.182985,2221.676944
531.923993,666.185348,-6957.935855,2911.162892
531.924320,1776.494261,-7105.977043,3064.381992
531.924648,1554.432478,-6883.915261,3983.696590
531.924975,1258.350101,-7698.141797,3677.258390
531.925303,592.164754,-8438.347739,3907.087040
531.925631,-1110.308913,-9474.636058,3677.258390
531.925958,-1480.411884,-9918.759623,3064.381992
531.926286,-1850.514855,-9696.697840,3217.601092
531.926614,-1554.432478,-9992.780217,3524.039291
531.926941,-740.205942,-9844.739029,3294.210641
531.927269,-814.226536,-9400.615463,3140.991542
531.927597,-666.185348,-9030.512492,2757.943793
531.927924,-740.205942,-8512.368333,2757.943793
531.928252,-666.185348,-8068.244768,2528.115143
531.928579,-1332.370696,-8068.244768,2374.896044
531.928907,-1184.329507,-8068.244768,2528.115143
531.929235,-1110.308913,-8068.244768,2681.334243
531.929562,0.000000,-8068.244768,3294.210641
531.929890,222.061783,-8808.450710,3294.210641
531.930218,296.082377,-8882.471304,3753.867940
531.930545,222.061783,-9474.636058,4213.525239
531.930873,0.000000,-9844.739029,3907.087040
531.931201,-1036.288319,-9696.697840,3830.477490
531.931528,-962.267725,-9918.759623,3524.039291
531.931856,-148.041188,-8734.430116,3907.087040
531.932184,518.144159,-9326.594869,3447.429741
531.932511,444.123565,-9104.533087,2834.553343
531.932839,888.247130,-9474.636058,2681.334243
531.933166,814.226536,-9104.533087,2451.505594
531.933494,-444.123565,-9770.718434,2681.334243
531.933822,-518.144159,-10288.862594,2451.505594
531.934149,-444.123565,-10066.800811,1838.629195
531.934477,-962.267725,-9770.718434,2221.676944
531.934805,-370.102971,-9696.697840,2068.457845
531.935132,-444.123565,-9770.718434,2374.896044
531.935460,-888.247130,-9844.739029,2145.067394
531.935788,-1184.329507,-9696.697840,1685.410096
531.936115,-1628.453072,-9474.636058,1532.190996
531.936443,-962.267725,-8734.430116,1225.752797
531.936770,-444.123565,-8216.285956,2374.896044
531.937098,-222.061783,-8216.285956,1225.752797
531.937426,222.061783,-7846.182985,919.314598
531.937753,444.123565,-7920.203579,1149.143247
531.938081,222.061783,-8438.347739,1149.143247
531.938409,296.082377,-9178.553681,1455.581446
531.938736,148.041188,-9474.636058,1455.581446
531.939064,444.123565,-10510.924376,1532.190996
531.939392,666.185348,-10658.965565,1685.410096
531.939719,1332.370696,-10584.944971,2068.457845
531.940047,1554.432478,-10658.965565,2145.067394
531.940375,1110.308913,-10288.862594,2451.505594
531.940702,740.205942,-10140.821405,1762.019645
531.941030,-370.102971,-9918.759623,1302.362347
531.941357,-296.082377,-9474.636058,842.705048
531.941685,-592.164754,-9474.636058,995.924147
531.942013,-666.185348,-8438.347739,1302.362347
531.942340,-148.041188,-8586.388927,995.924147
531.942668,-518.144159,-7846.182985,919.314598
531.942996,-962.267725,-8068.244768,919.314598
531.943323,-1036.288319,-7698.141797,689.485948
531.943651,-1184.329507,-8142.265362,306.438199
531.943979,-1036.288319,-7772.162391,229.828649
531.944306,-814.226536,-7846.182985,459.657299
531.944634,-740.205942,-8290.306550,689.485948
531.944961,-518.144159,-8438.347739,1149.143247
531.945289,-222.061783,-8290.306550,1302.362347
531.945617,0.000000,-8734.430116,919.314598
531.945944,-222.061783,-9252.574275,842.705048
531.946272,-296.082377,-9326.594869,689.485948
531.946600,0.000000,-9252.574275,536.266849
531.946927,296.082377,-8734.430116,383.047749
531.947255,444.123565,-9030.512492,766.095498
531.947583,74.020594,-9326.594869,995.924147
531.947910,74.020594,-9844.739029,1072.533697
531.948238,-148.041188,-9622.677246,1072.533697
531.948565,0.000000,-9622.677246,842.705048
531.948893,-296.082377,-9252.574275,1072.533697
531.949221,0.000000,-9104.533087,612.876398
531.949548,-148.041188,-8882.471304,459.657299
531.949876,0.000000,-8512.368333,842.705048
531.950204,0.000000,-8290.306550,842.705048
531.950531,-592.164754,-8216.285956,1608.800546
531.950859,-888.247130,-8660.409521,612.876398
531.951187,-814.226536,-8660.409521,383.047749
531.951514,-1184.329507,-8586.388927,459.657299
531.951842,-814.226536,-8882.471304,229.828649
531.952170,-518.144159,-9252.574275,536.266849
531.952497,-740.205942,-8882.471304,459.657299
531.952825,-222.061783,-9178.553681,536.266849
531.953152,74.020594,-9400.615463,612.876398
531.953480,148.041188,-9474.636058,536.266849
531.953808,74.020594,-10140.821405,459.657299
531.954135,0.000000,-9548.656652,536.266849
531.954463,0.000000,-9918.759623,536.266849
531.954791,-444.123565,-10066.800811,612.876398
531.955118,-444.123565,-9844.739029,689.485948
531.955446,-296.082377,-9992.780217,612.876398
531.955774,148.041188,-9548.656652,1225.752797
531.956101,0.000000,-9400.615463,536.266849
531.956429,0.000000,-9178.553681,689.485948
531.956756,148.041188,-9104.533087,536.266849
531.957084,0.000000,-9030.512492,766.095498
531.957412,-296.082377,-8882.471304,1072.533697
531.957739,0.000000,-9104.533087,612.876398
531.958067,-296.082377,-9326.594869,919.314598
531.958395,0.000000,-9252.574275,689.485948
531.958722,74.020594,-9400.615463,689.485948
531.959050,296.082377,-8512.368333,612.876398
531.959378,222.061783,-8734.430116,229.828649
531.959705,222.061783,-8882.471304,383.047749
531.960033,-296.082377,-8808.450710,153.219100
531.960361,-296.082377,-9104.533087,229.828649
531.960688,-444.123565,-9030.512492,306.438199
531.961016,-370.102971,-9326.594869,0.000000
531.961343,-888.247130,-9104.533087,306.438199
531.961671,-888.247130,-9178.553681,229.828649
531.961999,-592.164754,-9030.512492,459.657299
531.962326,-518.144159,-8660.409521,383.047749
531.962654,-370.102971,-8216.285956,612.876398
531.962982,0.000000,-8216.285956,153.219100
531.963309,-518.144159,-8808.450710,536.266849
531.963637,-666.185348,-8586.388927,612.876398
531.963965,-962.267725,-8660.409521,766.095498
531.964292,-1036.288319,-8734.430116,995.924147
531.964620,-1036.288319,-9104.533087,1072.533697
531.964947,-814.226536,-9326.594869,689.485948
531.965275,-666.185348,-8734.430116,842.705048
531.965603,-222.061783,-8512.368333,536.266849
531.965930,-370.102971,-8364.327145,919.314598
531.966258,0.000000,-8956.491898,689.485948
531.966586,-222.061783,-9252.574275,459.657299
531.966913,-370.102971,-9252.574275,536.266849
531.967241,-666.185348,-9474.636058,919.314598
531.967569,-592.164754,-9622.677246,919.314598
531.967896,-888.247130,-9770.718434,766.095498
531.968224,0.000000,-9104.533087,536.266849
531.968551,0.000000,-8882.471304,536.266849
531.968879,-296.082377,-8956.491898,306.438199
531.969207,-444.123565,-9030.512492,383.047749
531.969534,-740.205942,-8660.409521,612.876398
531.969862,-518.144159,-8956.491898,689.485948
531.970190,-666.185348,-8956.491898,383.047749
531.970517,-592.164754,-9104.533087,689.485948
531.970845,-370.102971,-9400.615463,459.657299
531.971173,0.000000,-9252.574275,0.000000
531.971500,370.102971,-8660.409521,766.095498
531.971828,0.000000,-8734.430116,229.828649
531.972156,0.000000,-9104.533087,153.219100
531.972483,0.000000,-9474.636058,306.438199
531.972811,0.000000,-9696.697840,842.705048
531.973138,-444.123565,-9992.780217,766.095498
531.973466,-222.061783,-9844.739029,536.266849
531.973794,-296.082377,-9992.780217,536.266849
531.974121,0.000000,-9474.636058,612.876398
531.974449,0.000000,-9252.574275,689.485948
531.974777,74.020594,-8660.409521,76.609550
531.975104,-592.164754,-8586.388927,306.438199
531.975432,-962.267725,-8882.471304,229.828649
531.975760,-1258.350101,-8956.491898,306.438199
531.976087,-1184.329507,-9030.512492,459.657299
531.976415,-1258.350101,-8438.347739,766.095498
531.976742,-518.144159,-9030.512492,689.485948
531.977070,-148.041188,-8660.409521,766.095498
531.977398,74.020594,-8586.388927,459.657299
531.977725,296.082377,-8290.306550,612.876398
531.978053,0.000000,-8364.327145,536.266849
531.978381,0.000000,-9252.574275,842.705048
531.978708,-592.164754,-9474.636058,995.924147
531.979036,-518.144159,-10288.862594,1302.362347
531.979364,-444.123565,-10066.800811,1378.971896
531.979691,-370.102971,-9992.780217,995.924147
531.980019,222.061783,-9326.594869,919.314598
531.980347,444.123565,-8734.430116,766.095498
531.980674,592.164754,-8364.327145,383.047749
531.981002,592.164754,-7846.182985,306.438199
531.981329,0.000000,-8142.265362,306.438199
531.981657,0.000000,-8660.409521,1149.143247
531.981985,-740.205942,-9252.574275,766.095498
531.982312,-962.267725,-9400.615463,842.705048
531.982640,-444.123565,-9474.636058,919.314598
531.982968,0.000000,-9178.553681,766.095498
531.983295,148.041188,-8364.327145,153.219100
531.983623,148.041188,-8216.285956,76.609550
531.983951,666.185348,-8364.327145,76.609550
531.984278,296.082377,-8364.327145,153.219100
531.984606,-222.061783,-8808.450710,76.609550
531.984933,-592.164754,-9252.574275,383.047749
531.985261,-444.123565,-9622.677246,459.657299
531.985589,-666.185348,-9770.718434,229.828649
531.985916,-370.102971,-9770.718434,229.828649
531.986244,-296.082377,-9474.636058,153.219100
531.986572,0.000000,-8956.491898,153.219100
531.986899,888.247130,-8512.368333,-153.219100
531.987227,518.144159,-8956.491898,0.000000
531.987555,296.082377,-9400.615463,306.438199
531.987882,148.041188,-9770.718434,459.657299
531.988210,-148.041188,-9696.697840,689.485948
531.988538,0.000000,-9844.739029,612.876398
531.988865,-296.082377,-9770.718434,689.485948
531.989193,-518.144159,-9696.697840,612.876398
531.989520,-296.082377,-9326.594869,383.047749
531.989848,-222.061783,-9104.533087,459.657299
531.990176,-148.041188,-8586.388927,612.876398
531.990503,-370.102971,-9104.533087,995.924147
531.990831,-666.185348,-9326.594869,842.705048
531.991159,-814.226536,-9474.636058,766.095498
531.991486,-444.123565,-9474.636058,842.705048
531.991814,-370.102971,-9474.636058,842.705048
531.992142,-814.226536,-9326.594869,229.828649
531.992469,-518.144159,-9326.594869,536.266849
531.992797,-666.185348,-9400.615463,766.095498
531.993124,-444.123565,-9252.574275,766.095498
531.993452,-1036.288319,-9622.677246,766.095498
531.993780,-592.164754,-9400.615463,919.314598
531.994107,-370.102971,-9622.677246,1072.533697
531.994435,-444.123565,-9548.656652,842.705048
531.994763,-592.164754,-9252.574275,919.314598
531.995090,-740.205942,-9178.553681,536.266849
531.995418,-518.144159,-9030.512492,766.095498
531.995746,-444.123565,-8808.450710,383.047749
531.996073,-666.185348,-8660.409521,383.047749
531.996401,-518.144159,-8882.471304,229.828649
531.996728,-370.102971,-8438.347739,536.266849
531.997056,-222.061783,-8512.368333,76.609550
531.997384,-222.061783,-8142.265362,536.266849
531.997711,-370.102971,-8438.347739,153.219100
531.998039,-370.102971,-8808.450710,383.047749
531.998367,-222.061783,-8956.491898,383.047749
531.998694,-296.082377,-9030.512492,459.657299
531.999022,0.000000,-8956.491898,306.438199
531.999350,0.000000,-9178.553681,689.485948
531.999677,0.000000,-9030.512492,689.485948
532.000005,0.000000,-9252.574275,689.485948
532.000333,0.000000,-8956.491898,689.485948
532.000660,0.000000,-8734.430116,612.876398
532.000988,-370.102971,-8660.409521,306.438199
532.001315,0.000000,-8808.450710,842.705048
532.001643,0.000000,-9178.553681,612.876398
532.001971,0.000000,-9030.512492,536.266849
532.002298,0.000000,-8660.409521,306.438199
532.002626,-444.123565,-8364.327145,689.485948
532.002954,-296.082377,-8808.450710,306.438199
532.003281,-296.082377,-8808.450710,612.876398
532.003609,-296.082377,-8734.430116,459.657299
532.003937,0.000000,-8512.368333,1378.971896
532.004264,-222.061783,-8882.471304,459.657299
532.004592,-444.123565,-9326.594869,689.485948
532.004919,-222.061783,-9400.615463,842.705048
532.005247,0.000000,-9178.553681,536.266849
532.005575,148.041188,-9178.553681,306.438199
532.005902,222.061783,-9326.594869,842.705048
532.006230,-222.061783,-9326.594869,689.485948
532.006558,0.000000,-9178.553681,689.485948
532.006885,0.000000,-9400.615463,612.876398
532.007213,-444.123565,-9548.656652,612.876398
532.007541,-222.061783,-9326.594869,1072.533697
532.007868,-148.041188,-9548.656652,536.266849
532.008196,0.000000,-9252.574275,612.876398
532.008524,-222.061783,-9252.574275,383.047749
532.008851,0.000000,-9326.594869,536.266849
532.009179,74.020594,-9252.574275,459.657299
532.009506,0.000000,-9104.533087,153.219100
532.009834,0.000000,-9326.594869,306.438199
532.010162,0.000000,-9548.656652,306.438199
532.010489,0.000000,-9474.636058,536.266849
532.010817,148.041188,-9474.636058,459.657299
532.011145,0.000000,-9252.574275,612.876398
532.011472,74.020594,-9178.553681,383.047749
532.011800,0.000000,-9326.594869,153.219100
532.012128,-148.041188,-9252.574275,306.438199
532.012455,-296.082377,-9104.533087,612.876398
532.012783,74.020594,-9252.574275,306.438199
532.013111,0.000000,-9548.656652,229.828649
532.013438,-296.082377,-9400.615463,536.266849
532.013766,-148.041188,-9474.636058,689.485948
532.014094,0.000000,-9178.553681,536.266849
532.014421,0.000000,-8956.491898,0.000000
532.014749,-148.041188,-8586.388927,459.657299
532.015077,-296.082377,-9030.512492,766.095498
532.015405,-518.144159,-8882.471304,689.485948
532.015732,-592.164754,-9326.594869,689.485948
532.016060,-444.123565,-9178.553681,1149.143247
532.016388,-666.185348,-8808.450710,1302.362347
532.016715,0.000000,-9178.553681,842.705048
532.017043,0.000000,-9178.553681,842.705048
532.017371,-148.041188,-8734.430116,383.047749
532.017698,-74.020594,-8660.409521,1072.533697
532.018026,0.000000,-8512.368333,766.095498
532.018354,-296.082377,-9104.533087,383.047749
532.018681,-296.082377,-9252.574275,689.485948
532.019009,-518.144159,-9326.594869,842.705048
532.019337,-444.123565,-9178.553681,689.485948
532.019664,-444.123565,-9104.533087,766.095498
532.019992,-222.061783,-8734.430116,76.609550
532.020320,-296.082377,-8660.409521,383.047749
532.020647,-148.041188,-8882.471304,383.047749
532.020975,0.000000,-8808.450710,536.266849
532.021303,-148.041188,-8808.450710,306.438199
532.021631,-666.185348,-9474.636058,766.095498
532.021958,-148.041188,-9474.636058,459.657299
532.022286,-222.061783,-9622.677246,842.705048
532.022614,0.000000,-9178.553681,612.876398
532.022941,74.020594,-9326.594869,459.657299
532.023269,0.000000,-8734.430116,766.095498
532.023597,0.000000,-9178.553681,459.657299
532.023924,0.000000,-9104.533087,383.047749
532.024252,-444.123565,-9030.512492,459.657299
532.024580,-592.164754,-9474.636058,306.438199
532.024907,-740.205942,-9326.594869,919.314598
532.025235,-592.164754,-9252.574275,766.095498
532.025563,-370.102971,-9030.512492,459.657299
532.025890,-518.144159,-8956.491898,459.657299
532.026218,-666.185348,-9104.533087,459.657299
532.026546,-962.267725,-8882.471304,842.705048
532.026874,-444.123565,-8808.450710,383.047749
532.027201,-666.185348,-8808.450710,536.266849
532.027529,-888.247130,-9178.553681,612.876398
532.027857,-666.185348,-9474.636058,766.095498
532.028184,-518.144159,-9474.636058,766.095498
532.028512,-518.144159,-8660.409521,689.485948
532.028840,0.000000,-8882.471304,689.485948
532.029167,-296.082377,-8882.471304,612.876398
532.029495,-370.102971,-9252.574275,536.266849
532.029823,-296.082377,-9104.533087,766.095498
532.030150,-296.082377,-8734.430116,612.876398
532.030478,-444.123565,-8882.471304,689.485948
532.030806,-666.185348,-9400.615463,689.485948
532.031133,-888.247130,-9030.512492,766.095498
532.031461,-592.164754,-8660.409521,536.266849
532.031789,-296.082377,-8290.306550,766.095498
532.032117,-370.102971,-8438.347739,459.657299
532.032444,-518.144159,-8512.368333,459.657299
532.032772,-592.164754,-8438.347739,229.828649
532.033100,-370.102971,-8734.430116,306.438199
532.033427,-740.205942,-8660.409521,995.924147
532.033755,-296.082377,-9252.574275,536.266849
532.034083,-370.102971,-9030.512492,689.485948
532.034410,-222.061783,-9104.533087,383.047749
532.034738,0.000000,-8882.471304,459.657299
532.035066,148.041188,-9030.512492,229.828649
532.035393,-370.102971,-8734.430116,536.266849
532.035721,-148.041188,-9030.512492,229.828649
532.036049,-370.102971,-9030.512492,306.438199
532.036376,-296.082377,-9030.512492,229.828649
532.036704,-370.102971,-8956.491898,383.047749
532.037032,0.000000,-8734.430116,459.657299
532.037359,0.000000,-9030.512492,459.657299
532.037687,148.041188,-8660.409521,383.047749
532.038015,0.000000,-8660.409521,383.047749
532.038343,0.000000,-8882.471304,153.219100
532.038670,0.000000,-9474.636058,229.828649
532.038998,0.000000,-9474.636058,459.657299
532.039326,-222.061783,-9326.594869,612.876398
532.039653,0.000000,-9548.656652,919.314598
532.039981,0.000000,-9474.636058,689.485948
532.040309,296.082377,-9622.677246,842.705048
532.040636,0.000000,-9252.574275,766.095498
532.040964,0.000000,-9178.553681,689.485948
532.041292,-222.061783,-9252.574275,536.266849
532.041619,-296.082377,-9400.615463,383.047749
532.041947,-370.102971,-9104.533087,1149.143247
532.042275,0.000000,-8882.471304,689.485948
532.042602,-296.082377,-9252.574275,766.095498
532.042930,-444.123565,-9548.656652,689.485948
532.043258,-444.123565,-9474.636058,459.657299
532.043586,-518.144159,-9030.512492,689.485948
532.043913,-370.102971,-9104.533087,842.705048
532.044241,-148.041188,-9252.574275,536.266849
532.044569,0.000000,-9400.615463,842.705048
532.044896,0.000000,-9474.636058,612.876398
532.045224,-296.082377,-9326.594869,995.924147
532.045552,0.000000,-9326.594869,459.657299
532.045879,-222.061783,-9474.636058,612.876398
532.046207,-222.061783,-9400.615463,536.266849
532.046535,-592.164754,-9178.553681,536.266849
532.046862,0.000000,-9104.533087,459.657299
532.047190,0.000000,-9252.574275,306.438199
532.047518,-296.082377,-9474.636058,766.095498
532.047845,-296.082377,-9252.574275,612.876398
532.048173,-148.041188,-9326.594869,459.657299
532.048501,-296.082377,-9178.553681,766.095498
532.048829,0.000000,-9178.553681,536.266849
532.049156,-148.041188,-8882.471304,306.438199
532.049484,-296.082377,-9030.512492,229.828649
532.049812,-370.102971,-8956.491898,306.438199
532.050139,-518.144159,-9030.512492,76.609550
532.050467,-222.061783,-8734.430116,536.266849
532.050795,0.000000,-8660.409521,689.485948
532.051122,74.020594,-8882.471304,306.438199
532.051450,0.000000,-9030.512492,383.047749
532.051778,-222.061783,-8882.471304,383.047749
532.052105,-296.082377,-8956.491898,153.219100
532.052433,-148.041188,-9030.512492,536.266849
532.052761,-370.102971,-9030.512492,306.438199
532.053088,-370.102971,-8956.491898,612.876398
532.053416,-444.123565,-9252.574275,612.876398
532.053744,-444.123565,-9104.533087,612.876398
532.054071,-296.082377,-9030.512492,-76.609550
532.054399,-592.164754,-8364.327145,536.266849
532.054727,-370.102971,-8438.347739,383.047749
532.055055,-444.123565,-8734.430116,536.266849
532.055382,-666.185348,-8586.388927,383.047749
532.055710,-370.102971,-8808.450710,1072.533697
532.056038,-370.102971,-8586.388927,766.095498
532.056365,-666.185348,-9252.574275,842.705048
532.056693,-518.144159,-9030.512492,766.095498
532.057021,-444.123565,-9030.512492,766.095498
532.057348,-222.061783,-8586.388927,995.924147
532.057676,0.000000,-8734.430116,842.705048
532.058004,-222.061783,-8808.450710,536.266849
532.058331,-370.102971,-8956.491898,766.095498
532.058659,-740.205942,-9030.512492,536.266849
532.058987,-666.185348,-9178.553681,842.705048
532.059314,-370.102971,-9030.512492,689.485948
532.059642,-518.144159,-9104.533087,459.657299
532.059970,-370.102971,-9104.533087,383.047749
532.060298,0.000000,-8882.471304,536.266849
532.060625,0.000000,-8808.450710,383.047749
532.060953,0.000000,-8956.491898,306.438199
532.061281,-444.123565,-8808.450710,229.828649
532.061608,-222.061783,-9474.636058,459.657299
532.061936,-296.082377,-9474.636058,536.266849
532.062264,-296.082377,-9696.697840,689.485948
532.062591,148.041188,-9770.718434,689.485948
532.062919,-148.041188,-9178.553681,689.485948
532.063247,0.000000,-9252.574275,306.438199
532.063574,0.000000,-9178.553681,76.609550
532.063902,0.000000,-9252.574275,76.609550
532.064230,0.000000,-9326.594869,153.219100
532.064557,-222.061783,-9252.574275,612.876398
532.064885,-444.123565,-9474.636058,459.657299
532.065213,-296.082377,-9844.739029,536.266849
532.065541,-444.123565,-9548.656652,612.876398
532.065868,0.000000,-9400.615463,306.438199
532.066196,74.020594,-8956.491898,459.657299
532.066524,0.000000,-8956.491898,459.657299
532.066851,-222.061783,-9030.512492,766.095498
532.067179,-148.041188,-9030.512492,689.485948
532.067507,-222.061783,-9252.574275,766.095498
532.067834,-222.061783,-9326.594869,536.266849
532.068162,0.000000,-9548.656652,1072.533697
532.068490,-148.041188,-9474.636058,612.876398
532.068817,0.000000,-9178.553681,689.485948
532.069145,0.000000,-9030.512492,612.876398
532.069473,0.000000,-8660.409521,229.828649
532.069800,370.102971,-8438.347739,689.485948
532.070128,-222.061783,-8956.491898,536.266849
532.070456,-222.061783,-9178.553681,689.485948
532.070783,-222.061783,-9104.533087,612.876398
532.071111,-74.020594,-9622.677246,689.485948
532.071439,148.041188,-8956.491898,842.705048
532.071767,-370.102971,-8808.450710,229.828649
532.072094,-444.123565,-8882.471304,383.047749
532.072422,-222.061783,-8808.450710,153.219100
532.072750,-148.041188,-8882.471304,383.047749
532.073077,148.041188,-8956.491898,689.485948
532.073405,74.020594,-9178.553681,689.485948
532.073733,0.000000,-9326.594869,459.657299
532.074060,0.000000,-9400.615463,459.657299
532.074388,0.000000,-9104.533087,536.266849
532.074716,74.020594,-8882.471304,459.657299
532.075043,222.061783,-9030.512492,459.657299
532.075371,0.000000,-9252.574275,383.047749
532.075699,0.000000,-9252.574275,153.219100
532.076026,-148.041188,-9104.533087,536.266849
532.076354,-148.041188,-8882.471304,536.266849
532.076682,0.000000,-9474.636058,0.000000
532.077010,-370.102971,-9104.533087,459.657299
532.077337,-370.102971,-9252.574275,612.876398
532.077665,-370.102971,-9030.512492,612.876398
532.077993,-592.164754,-8808.450710,689.485948
532.078320,-518.144159,-8660.409521,383.047749
532.078648,-740.205942,-8956.491898,612.876398
532.078976,-444.123565,-9252.574275,536.266849
532.079303,-592.164754,-9400.615463,689.485948
532.079631,-444.123565,-9326.594869,766.095498
532.079959,-222.061783,-9252.574275,459.657299
532.080286,-148.041188,-9326.594869,842.705048
532.080614,-370.102971,-9400.615463,689.485948
532.080942,-148.041188,-9400.615463,842.705048
532.081269,-518.144159,-9326.594869,536.266849
532.081597,-296.082377,-9474.636058,153.219100
532.081925,-740.205942,-8808.450710,459.657299
532.082252,-222.061783,-9104.533087,459.657299
532.082580,-444.123565,-8956.491898,459.657299
532.082908,-370.102971,-8956.491898,536.266849
532.083236,-370.102971,-8808.450710,919.314598
532.083563,-592.164754,-8734.430116,459.657299
532.083891,-518.144159,-8956.491898,459.657299
532.084219,-296.082377,-9030.512492,383.047749
532.084546,-370.102971,-8956.491898,383.047749
532.084874,-222.061783,-9104.533087,612.876398
532.085202,-296.082377,-9030.512492,306.438199
532.085529,0.000000,-9326.594869,383.047749
532.085857,0.000000,-9178.553681,383.047749
532.086185,0.000000,-8956.491898,383.047749
532.086512,-148.041188,-8956.491898,383.047749
532.086840,74.020594,-9474.636058,383.047749
532.087168,-444.123565,-8808.450710,612.876398
532.087495,-222.061783,-9030.512492,536.266849
532.087823,-148.041188,-8882.471304,766.095498
532.088151,-296.082377,-9030.512492,536.266849
532.088479,-444.123565,-8586.388927,689.485948
532.088806,-666.185348,-8808.450710,842.705048
532.089134,-296.082377,-8660.409521,459.657299
532.089462,-370.102971,-8734.430116,536.266849
532.089789,-666.185348,-8734.430116,612.876398
532.090117,-518.144159,-9104.533087,919.314598
532.090445,-444.123565,-9400.615463,689.485948
532.090772,-518.144159,-9030.512492,536.266849
532.091100,-592.164754,-9326.594869,689.485948
532.091428,-296.082377,-9104.533087,766.095498
532.091755,-296.082377,-8734.430116,612.876398
532.092083,0.000000,-8512.368333,536.266849
532.092411,0.000000,-8956.491898,842.705048
532.092738,-296.082377,-9326.594869,766.095498
532.093066,-592.164754,-9326.594869,766.095498
532.093394,-370.102971,-9400.615463,766.095498
532.093722,-370.102971,-8734.430116,612.876398
532.094049,-296.082377,-9252.574275,995.924147
532.094377,0.000000,-9252.574275,612.876398
532.094705,0.000000,-9178.553681,459.657299
532.095032,-222.061783,-9104.533087,612.876398
532.095360,0.000000,-9104.533087,383.047749
532.095688,0.000000,-8956.491898,536.266849
532.096015,-148.041188,-9400.615463,459.657299
532.096343,-74.020594,-9474.636058,689.485948
532.096671,-148.041188,-9326.594869,612.876398
532.096998,-222.061783,-9474.636058,306.438199
532.097326,0.000000,-9474.636058,229.828649
532.097654,0.000000,-9252.574275,536.266849
532.097981,0.000000,-9326.594869,383.047749
532.098309,-222.061783,-9400.615463,306.438199
532.098637,-296.082377,-9400.615463,229.828649
532.098964,0.000000,-9474.636058,1378.971896
532.099292,-370.102971,-9474.636058,459.657299
532.099620,-370.102971,-9326.594869,689.485948
532.099948,-296.082377,-9474.636058,612.876398
532.100275,-222.061783,-9474.636058,612.876398
532.100603,-444.123565,-8956.491898,842.705048
532.100931,0.000000,-9178.553681,766.095498
532.101258,0.000000,-9104.533087,229.828649
532.101586,0.000000,-9104.533087,689.485948
532.101914,-148.041188,-9400.615463,536.266849
532.102241,-222.061783,-9252.574275,766.095498
532.102569,-222.061783,-9178.553681,842.705048
532.102897,-370.102971,-9474.636058,689.485948
532.103224,-444.123565,-9178.553681,459.657299
532.103552,0.000000,-9252.574275,536.266849
532.103880,0.000000,-8956.491898,612.876398
532.104207,0.000000,-8882.471304,459.657299
532.104535,-222.061783,-8956.491898,306.438199
532.104863,-444.123565,-9178.553681,842.705048
532.105191,-370.102971,-9178.553681,536.266849
532.105518,-296.082377,-9178.553681,536.266849
532.105846,-222.061783,-9178.553681,76.609550
532.106174,0.000000,-9030.512492,306.438199
532.106501,-148.041188,-8882.471304,459.657299
532.106829,-222.061783,-8734.430116,383.047749
532.107157,0.000000,-8956.491898,383.047749
532.107484,0.000000,-8586.388927,612.876398
532.107812,0.000000,-9030.512492,229.828649
532.108140,0.000000,-9178.553681,612.876398
532.108467,-222.061783,-9030.512492,612.876398
532.108795,-222.061783,-8956.491898,689.485948
532.109123,-296.082377,-8956.491898,1072.533697
532.109450,-296.082377,-8956.491898,919.314598
532.109778,-370.102971,-8882.471304,383.047749
532.110106,-592.164754,-8808.450710,459.657299
532.110434,-222.061783,-9030.512492,383.047749
532.110761,-592.164754,-8808.450710,612.876398
532.111089,-148.041188,-8956.491898,1072.533697
532.111417,-592.164754,-8734.430116,919.314598
532.111744,-518.144159,-8956.491898,383.047749
532.112072,-444.123565,-9030.512492,766.095498
532.112400,-518.144159,-8734.430116,536.266849
532.112727,-592.164754,-8586.388927,76.609550
532.113055,-148.041188,-8586.388927,536.266849
532.113383,-296.082377,-9178.553681,995.924147
532.113710,-444.123565,-9104.533087,612.876398
532.114038,-296.082377,-9104.533087,689.485948
532.114366,-518.144159,-8438.347739,612.876398
532.114694,-222.061783,-9030.512492,919.314598
532.115021,-296.082377,-8882.471304,459.657299
532.115349,-296.082377,-9030.512492,536.266849
532.115677,-666.185348,-8956.491898,536.266849
532.116004,-296.082377,-9030.512492,766.095498
532.116332,-370.102971,-9104.533087,612.876398
532.116660,-370.102971,-9104.533087,689.485948
532.116987,-296.082377,-9104.533087,536.266849
532.117315,-518.144159,-9178.553681,612.876398
532.117643,-222.061783,-9178.553681,536.266849
532.117971,-296.082377,-8956.491898,689.485948
532.118298,-592.164754,-8956.491898,306.438199
532.118626,-444.123565,-9252.574275,459.657299
532.118954,-370.102971,-9326.594869,689.485948
532.119281,-666.185348,-9474.636058,766.095498
532.119609,-148.041188,-9326.594869,919.314598
532.119937,-370.102971,-9104.533087,612.876398
532.120264,-222.061783,-9326.594869,536.266849
532.120592,0.000000,-9178.553681,689.485948
532.120920,-222.061783,-8956.491898,612.876398
532.121247,-518.144159,-8882.471304,536.266849
532.121575,-444.123565,-9178.553681,1225.752797
532.121903,-814.226536,-9252.574275,612.876398
532.122231,-444.123565,-9252.574275,842.705048
532.122558,-222.061783,-9030.512492,612.876398
532.122886,0.000000,-9030.512492,689.485948
532.123214,-296.082377,-8512.368333,383.047749
532.123541,-222.061783,-8808.450710,689.485948
532.123869,-370.102971,-9104.533087,612.876398
532.124197,-222.061783,-9030.512492,612.876398
532.124524,-444.123565,-9252.574275,689.485948
532.124852,0.000000,-9400.615463,919.314598
532.125180,-296.082377,-9252.574275,689.485948
532.125507,0.000000,-9326.594869,689.485948
532.125835,74.020594,-9252.574275,536.266849
532.126163,74.020594,-9252.574275,612.876398
532.126491,518.144159,-9400.615463,766.095498
532.126818,0.000000,-8956.491898,229.828649
532.127146,0.000000,-9252.574275,306.438199
532.127474,-148.041188,-9474.636058,306.438199
532.127801,-518.144159,-9326.594869,459.657299
532.128129,-222.061783,-9030.512492,459.657299
532.128457,-74.020594,-9104.533087,842.705048
532.128784,0.000000,-8882.471304,383.047749
532.129112,0.000000,-8734.430116,0.000000
532.129440,0.000000,-8734.430116,0.000000
532.129768,0.000000,-8882.471304,0.000000
532.130095,222.061783,-8438.347739,153.219100
532.130423,0.000000,-9030.512492,306.438199
532.130751,-370.102971,-9104.533087,536.266849
532.131078,-74.020594,-9548.656652,612.876398
532.131406,-148.041188,-9400.615463,536.266849
532.131734,592.164754,-9030.512492,536.266849
532.132061,0.000000,-9030.512492,459.657299
532.132389,-370.102971,-9030.512492,383.047749
532.132717,-370.102971,-9326.594869,536.266849
532.133044,-444.123565,-9178.553681,536.266849
532.133372,-296.082377,-9030.512492,766.095498
532.133700,-222.061783,-9252.574275,459.657299
532.134028,-518.144159,-9400.615463,766.095498
532.134355,-370.102971,-9252.574275,995.924147
532.134683,-518.144159,-8734.430116,383.047749
532.135011,-222.061783,-8660.409521,766.095498
532.135338,-444.123565,-8956.491898,766.095498
532.135666,-518.144159,-9030.512492,689.485948
532.135994,-296.082377,-9030.512492,766.095498
532.136321,-370.102971,-9104.533087,995.924147
532.136649,-444.123565,-9622.677246,1302.362347
532.136977,-444.123565,-9178.553681,1302.362347
532.137304,-370.102971,-9104.533087,612.876398
532.137632,-370.102971,-9104.533087,689.485948
532.137960,-296.082377,-9104.533087,536.266849
532.138288,-222.061783,-9178.553681,536.266849
532.138615,-370.102971,-8808.450710,1149.143247
532.138943,0.000000,-9030.512492,689.485948
532.139271,0.000000,-9030.512492,689.485948
532.139598,-296.082377,-9252.574275,766.095498
532.139926,-222.061783,-9252.574275,536.266849
532.140254,-740.205942,-8734.430116,1149.143247
532.140581,0.000000,-9104.533087,536.266849
532.140909,-370.102971,-9030.512492,766.095498
532.141237,-296.082377,-9104.533087,536.266849
532.141565,-444.123565,-9030.512492,689.485948
532.141892,0.000000,-8882.471304,919.314598
532.142220,-148.041188,-9252.574275,919.314598
532.142548,-296.082377,-9104.533087,919.314598
532.142875,-296.082377,-9252.574275,612.876398
532.143203,-370.102971,-9104.533087,689.485948
532.143531,-518.144159,-9178.553681,536.266849
532.143858,-296.082377,-8882.471304,689.485948
532.144186,-592.164754,-9104.533087,536.266849
532.144514,-666.185348,-8956.491898,689.485948
532.144841,-444.123565,-8808.450710,766.095498
532.145169,-444.123565,-9104.533087,689.485948
532.145497,0.000000,-8808.450710,459.657299
532.145825,-444.123565,-8512.368333,306.438199
532.146152,-148.041188,-8882.471304,459.657299
532.146480,-296.082377,-8660.409521,459.657299
532.146808,-296.082377,-8734.430116,459.657299
532.147135,-518.144159,-8734.430116,919.314598
532.147463,-296.082377,-9030.512492,383.047749
532.147791,0.000000,-9252.574275,229.828649
532.148118,0.000000,-9178.553681,229.828649
532.148446,0.000000,-9104.533087,383.047749
532.148774,296.082377,-9030.512492,1072.533697
532.149101,148.041188,-8956.491898,229.828649
532.149429,0.000000,-8956.491898,383.047749
532.149757,0.000000,-9178.553681,306.438199
532.150085,0.000000,-9326.594869,229.828649
532.150412,-296.082377,-9178.553681,229.828649
532.150740,74.020594,-9622.677246,536.266849
532.151068,-296.082377,-9104.533087,153.219100
532.151395,0.000000,-9178.553681,459.657299
532.151723,-222.061783,-9104.533087,229.828649
532.152051,-148.041188,-8882.471304,229.828649
532.152378,74.020594,-9326.594869,153.219100
532.152706,-222.061783,-9178.553681,459.657299
532.153034,-296.082377,-9622.677246,383.047749
532.153362,-296.082377,-9474.636058,689.485948
532.153689,-222.061783,-9474.636058,536.266849
532.154017,-592.164754,-9252.574275,842.705048
532.154345,0.000000,-9400.615463,1225.752797
532.154672,-222.061783,-9252.574275,689.485948
532.155000,0.000000,-9104.533087,689.485948
532.155328,-444.123565,-9400.615463,766.095498
532.155655,-74.020594,-9326.594869,919.314598
532.155983,-296.082377,-9178.553681,459.657299
532.156311,-222.061783,-9326.594869,1072.533697
532.156638,-444.123565,-8956.491898,689.485948
532.156966,-518.144159,-9326.594869,689.485948
532.157294,-222.061783,-9104.533087,612.876398
532.157622,0.000000,-8586.388927,383.047749
532.157949,-148.041188,-8956.491898,536.266849
532.158277,0.000000,-9030.512492,536.266849
532.158605,-370.102971,-9178.553681,612.876398
532.158932,-222.061783,-9474.636058,612.876398
532.159260,0.000000,-9474.636058,536.266849
532.159588,-148.041188,-9696.697840,766.095498
532.159915,0.000000,-9474.636058,842.705048
532.160243,0.000000,-9326.594869,919.314598
532.160571,0.000000,-9178.553681,459.657299
532.160898,0.000000,-9252.574275,919.314598
532.161226,-296.082377,-8808.450710,383.047749
532.161554,0.000000,-9178.553681,536.266849
532.161882,-222.061783,-9252.574275,612.876398
532.162209,-222.061783,-9400.615463,612.876398
532.162537,-296.082377,-9252.574275,689.485948
532.162865,-222.061783,-8882.471304,919.314598
532.163192,-222.061783,-8734.430116,383.047749
532.163520,-296.082377,-8586.388927,383.047749
532.163848,-444.123565,-8734.430116,612.876398
532.164175,-370.102971,-8882.471304,459.657299
532.164503,-148.041188,-8808.450710,842.705048
532.164831,-666.185348,-8956.491898,612.876398
532.165159,-518.144159,-9252.574275,689.485948
532.165486,-370.102971,-9178.553681,536.266849
532.165814,-592.164754,-8956.491898,612.876398
532.166142,-296.082377,-8808.450710,766.095498
532.166469,-444.123565,-8734.430116,459.657299
532.166797,-444.123565,-8882.471304,459.657299
532.167125,-444.123565,-9030.512492,383.047749
532.167452,-296.082377,-8956.491898,459.657299
532.167780,-370.102971,-8956.491898,995.924147
532.168108,-370.102971,-8808.450710,612.876398
532.168435,-814.226536,-9252.574275,536.266849
532.168763,-518.144159,-8882.471304,689.485948
532.169091,-296.082377,-8808.450710,383.047749
532.169419,-296.082377,-8586.388927,689.485948
532.169746,0.000000,-8438.347739,919.314598
532.170074,-222.061783,-8734.430116,229.828649
532.170402,0.000000,-8586.388927,459.657299
532.170729,0.000000,-8808.450710,459.657299
532.171057,0.000000,-9104.533087,306.438199
532.171385,296.082377,-9326.594869,383.047749
532.171712,0.000000,-9178.553681,383.047749
532.172040,-222.061783,-9104.533087,229.828649
532.172368,0.000000,-9104.533087,306.438199
532.172695,0.000000,-9030.512492,76.609550
532.173023,-148.041188,-9030.512492,459.657299
532.173351,74.020594,-9326.594869,153.219100
532.173679,0.000000,-9178.553681,153.219100
532.174006,-296.082377,-9178.553681,306.438199
532.174334,-370.102971,-9178.553681,612.876398
532.174662,-370.102971,-8882.471304,612.876398
532.174989,-444.123565,-8956.491898,766.095498
532.175317,-518.144159,-9030.512492,536.266849
532.175645,-518.144159,-9030.512492,459.657299
532.175972,-518.144159,-8956.491898,766.095498
532.176300,-370.102971,-8956.491898,612.876398
532.176628,0.000000,-8808.450710,1225.752797
532.176956,-296.082377,-9104.533087,842.705048
532.177283,-296.082377,-9326.594869,689.485948
532.177611,-222.061783,-9178.553681,995.924147
532.177939,-592.164754,-9400.615463,689.485948
532.178266,-370.102971,-9326.594869,919.314598
532.178594,-666.185348,-9252.574275,612.876398
532.178922,-518.144159,-9252.574275,995.924147
532.179249,-518.144159,-9326.594869,689.485948
532.179577,-518.144159,-9252.574275,689.485948
532.179905,-666.185348,-8586.388927,919.314598
532.180232,-444.123565,-8734.430116,1072.533697
532.180560,-296.082377,-9178.553681,612.876398
532.180888,-444.123565,-9252.574275,459.657299
532.181216,-666.185348,-9400.615463,459.657299
532.181543,-518.144159,-9252.574275,842.705048
532.181871,0.000000,-9400.615463,919.314598
532.182199,-222.061783,-9400.615463,766.095498
532.182526,0.000000,-9474.636058,612.876398
532.182854,0.000000,-9400.615463,536.266849
532.183182,222.061783,-9252.574275,536.266849
532.183509,148.041188,-9030.512492,383.047749
532.183837,0.000000,-9178.553681,459.657299
532.184165,74.020594,-9252.574275,689.485948
532.184492,0.000000,-9400.615463,383.047749
532.184820,0.000000,-9252.574275,459.657299
532.185148,0.000000,-8956.491898,306.438199
532.185476,-148.041188,-9030.512492,689.485948
532.185803,0.000000,-8956.491898,459.657299
532.186131,74.020594,-8956.491898,459.657299
532.186459,-148.041188,-8586.388927,306.438199
532.186786,-518.144159,-8364.327145,689.485948
532.187114,-814.226536,-9030.512492,536.266849
532.187442,-518.144159,-9474.636058,766.095498
532.187769,-592.164754,-9030.512492,612.876398
532.188097,-148.041188,-9104.533087,766.095498
532.188425,0.000000,-8956.491898,995.924147
532.188753,-370.102971,-9252.574275,306.438199
532.189080,0.000000,-9030.512492,459.657299
532.189408,-148.041188,-8808.450710,383.047749
532.189736,-444.123565,-8956.491898,383.047749
532.190063,-444.123565,-9104.533087,459.657299
532.190391,-518.144159,-9104.533087,766.095498
532.190719,-740.205942,-8882.471304,612.876398
532.191046,-148.041188,-9030.512492,383.047749
532.191374,0.000000,-8882.471304,536.266849
532.191702,0.000000,-8882.471304,536.266849
532.192029,-222.061783,-8956.491898,0.000000
532.192357,-296.082377,-8364.327145,306.438199
532.192685,-444.123565,-8808.450710,229.828649
532.193013,-370.102971,-9178.553681,766.095498
532.193340,-518.144159,-9252.574275,612.876398
532.193668,-518.144159,-9178.553681,536.266849
532.193996,-518.144159,-9030.512492,1149.143247
532.194323,-444.123565,-9178.553681,766.095498
532.194651,-296.082377,-9030.512492,689.485948
532.194979,0.000000,-8882.471304,459.657299
532.195306,-74.020594,-8660.409521,536.266849
532.195634,0.000000,-8956.491898,919.314598
532.195962,-518.144159,-9252.574275,612.876398
532.196290,-518.144159,-9400.615463,766.095498
532.196617,-518.144159,-9252.574275,766.095498
532.196945,-296.082377,-9252.574275,842.705048
532.197273,-444.123565,-9178.553681,689.485948
532.197600,-370.102971,-8438.347739,536.266849
532.197928,-370.102971,-8586.388927,766.095498
532.198256,-592.164754,-8660.409521,612.876398
532.198583,-814.226536,-8882.471304,612.876398
532.198911,-666.185348,-8956.491898,995.924147
532.199239,-370.102971,-8956.491898,536.266849
532.199566,-148.041188,-9400.615463,995.924147
532.199894,-222.061783,-9178.553681,689.485948
532.200222,0.000000,-9252.574275,459.657299
532.200550,0.000000,-8956.491898,536.266849
532.200877,148.041188,-9252.574275,459.657299
532.201205,-222.061783,-9178.553681,459.657299
532.201533,-296.082377,-9326.594869,383.047749
532.201860,-296.082377,-9474.636058,536.266849
532.202188,-296.082377,-9474.636058,306.438199
532.202516,-518.144159,-9178.553681,766.095498
532.202843,-444.123565,-9400.615463,459.657299
532.203171,-296.082377,-9104.533087,383.047749
532.203499,0.000000,-9030.512492,153.219100
532.203826,-148.041188,-9030.512492,383.047749
532.204154,-296.082377,-8734.430116,995.924147
532.204482,-148.041188,-8956.491898,536.266849
532.204810,0.000000,-9178.553681,536.266849
532.205137,-222.061783,-9252.574275,536.266849
532.205465,-296.082377,-9326.594869,459.657299
532.205793,-518.144159,-8734.430116,995.924147
532.206120,-296.082377,-9178.553681,919.314598
532.206448,-296.082377,-8956.491898,612.876398
532.206776,74.020594,-9178.553681,459.657299
532.207103,74.020594,-9030.512492,459.657299
532.207431,-444.123565,-9030.512492,0.000000
532.207759,-518.144159,-9252.574275,1072.533697
532.208087,-444.123565,-9474.636058,689.485948
532.208414,-444.123565,-9400.615463,536.266849
532.208742,-296.082377,-9104.533087,689.485948
532.209070,-148.041188,-9178.553681,766.095498
532.209397,-148.041188,-8734.430116,229.828649
532.209725,-148.041188,-9030.512492,612.876398
532.210053,-148.041188,-8956.491898,383.047749
532.210380,-222.061783,-8956.491898,459.657299
532.210708,-222.061783,-9178.553681,536.266849
532.211036,0.000000,-9030.512492,689.485948
532.211363,-148.041188,-9178.553681,612.876398
532.211691,74.020594,-9178.553681,689.485948
532.212019,74.020594,-8956.491898,459.657299
532.212346,-222.061783,-9178.553681,306.438199
532.212674,0.000000,-9104.533087,306.438199
532.213002,0.000000,-9178.553681,536.266849
532.213329,-222.061783,-9104.533087,689.485948
532.213657,0.000000,-9326.594869,459.657299
532.213984,0.000000,-9104.533087,306.438199
532.214312,0.000000,-8808.450710,306.438199
532.214640,74.020594,-9178.553681,536.266849
532.214967,-296.082377,-9178.553681,536.266849
532.215295,-444.123565,-9104.533087,306.438199
532.215622,-518.144159,-9178.553681,689.485948
532.215950,-370.102971,-9252.574275,383.047749
532.216278,148.041188,-9252.574275,536.266849
532.216605,0.000000,-9178.553681,766.095498
532.216933,0.000000,-8956.491898,689.485948
532.217260,-148.041188,-8882.471304,995.924147
532.217588,-370.102971,-9030.512492,612.876398
532.217916,-444.123565,-9030.512492,306.438199
532.218243,-444.123565,-9326.594869,842.705048
532.218571,-592.164754,-9326.594869,689.485948
532.218899,-592.164754,-9400.615463,995.924147
532.219226,-592.164754,-9252.574275,919.314598
532.219554,-444.123565,-8882.471304,1149.143247
532.219881,-444.123565,-8808.450710,306.438199
532.220209,-370.102971,-8734.430116,383.047749
532.220537,-518.144159,-8808.450710,306.438199
532.220864,-740.205942,-8956.491898,536.266849
532.221192,-592.164754,-9178.553681,995.924147
532.221519,-518.144159,-8956.491898,766.095498
532.221847,-444.123565,-9474.636058,459.657299
532.222175,-148.041188,-9326.594869,842.705048
532.222502,0.000000,-9252.574275,383.047749
532.222830,-148.041188,-9104.533087,612.876398
532.223157,370.102971,-9326.594869,689.485948
532.223485,0.000000,-8956.491898,383.047749
532.223813,0.000000,-8956.491898,459.657299
532.224140,-296.082377,-9104.533087,459.657299
532.224468,-444.123565,-9252.574275,229.828649
532.224796,0.000000,-8882.471304,383.047749
532.225123,-148.041188,-9178.553681,383.047749
532.225451,-148.041188,-8956.491898,306.438199
532.225778,-222.061783,-8734.430116,383.047749
532.226106,0.000000,-8586.388927,229.828649
532.226434,0.000000,-8438.347739,229.828649
532.226761,-370.102971,-8586.388927,0.000000
532.227089,-592.164754,-8956.491898,536.266849
532.227416,-592.164754,-9252.574275,459.657299
532.227744,-592.164754,-9178.553681,383.047749
532.228072,-370.102971,-9252.574275,612.876398
532.228399,-148.041188,-9178.553681,229.828649
532.228727,-222.061783,-8882.471304,612.876398
532.229054,0.000000,-8882.471304,383.047749
532.229382,0.000000,-8956.491898,612.876398
532.229710,-296.082377,-8882.471304,612.876398
532.230037,-444.123565,-9104.533087,689.485948
532.230365,-222.061783,-9252.574275,459.657299
532.230693,-444.123565,-9178.553681,766.095498
532.231020,-222.061783,-9178.553681,612.876398
532.231348,-518.144159,-8956.491898,612.876398
532.231675,0.000000,-8512.368333,536.266849
532.232003,0.000000,-8586.388927,612.876398
532.232331,-222.061783,-8660.409521,306.438199
532.232658,-148.041188,-8882.471304,612.876398
532.232986,-148.041188,-9252.574275,536.266849
532.233313,-444.123565,-9400.615463,383.047749
532.233641,-222.061783,-8956.491898,612.876398
532.233969,-296.082377,-9474.636058,536.266849
532.234296,-370.102971,-9474.636058,689.485948
532.234624,-148.041188,-9474.636058,689.485948
532.234952,-222.061783,-9030.512492,766.095498
532.235279,0.000000,-9178.553681,536.266849
532.235607,-148.041188,-9474.636058,689.485948
532.235934,-296.082377,-9622.677246,536.266849
532.236262,-518.144159,-9474.636058,536.266849
532.236590,-222.061783,-9548.656652,689.485948
532.236917,-666.185348,-9104.533087,536.266849
532.237245,-296.082377,-9252.574275,306.438199
532.237572,-296.082377,-9400.615463,766.095498
532.237900,-370.102971,-9178.553681,689.485948
532.238228,-222.061783,-9030.512492,536.266849
532.238555,0.000000,-8956.491898,306.438199
532.238883,-222.061783,-9474.636058,919.314598
532.239210,-518.144159,-9326.594869,919.314598
532.239538,-296.082377,-9474.636058,612.876398
532.239866,-222.061783,-9400.615463,689.485948
532.240193,0.000000,-8882.471304,383.047749
532.240521,0.000000,-9252.574275,536.266849
532.240849,-296.082377,-9252.574275,766.095498
532.241176,-296.082377,-9252.574275,536.266849
532.241504,-518.144159,-9104.533087,536.266849
532.241831,-296.082377,-8882.471304,842.705048
532.242159,-222.061783,-9178.553681,306.438199
532.242487,-148.041188,-9178.553681,536.266849
532.242814,-222.061783,-9178.553681,612.876398
532.243142,-296.082377,-8882.471304,612.876398
532.243469,-370.102971,-8586.388927,536.266849
532.243797,-518.144159,-8586.388927,536.266849
532.244125,-222.061783,-8882.471304,459.657299
532.244452,-296.082377,-8808.450710,229.828649
532.244780,-296.082377,-8956.491898,689.485948
532.245107,-148.041188,-8956.491898,612.876398
532.245435,0.000000,-9178.553681,-153.219100
532.245763,-148.041188,-8956.491898,306.438199
532.246090,0.000000,-8956.491898,536.266849
532.246418,0.000000,-8586.388927,459.657299
532.246746,0.000000,-8808.450710,459.657299
532.247073,-222.061783,-9252.574275,306.438199
532.247401,0.000000,-8956.491898,689.485948
532.247728,-444.123565,-9104.533087,536.266849
532.248056,-148.041188,-8956.491898,536.266849
532.248384,0.000000,-9030.512492,459.657299
532.248711,-74.020594,-8734.430116,536.266849
532.249039,0.000000,-8660.409521,842.705048
532.249366,-222.061783,-9030.512492,306.438199
532.249694,-444.123565,-8734.430116,229.828649
532.250022,-518.144159,-8956.491898,383.047749
532.250349,-592.164754,-9252.574275,459.657299
532.250677,-444.123565,-8956.491898,842.705048
532.251004,-518.144159,-9178.553681,689.485948
532.251332,-370.102971,-9030.512492,689.485948
532.251660,-370.102971,-9030.512492,536.266849
532.251987,-296.082377,-9030.512492,229.828649
532.252315,-444.123565,-8882.471304,229.828649
532.252643,-592.164754,-8882.471304,306.438199
532.252970,-666.185348,-9326.594869,689.485948
532.253298,-518.144159,-9252.574275,766.095498
532.253625,-370.102971,-9474.636058,612.876398
532.253953,0.000000,-9252.574275,766.095498
532.254281,-148.041188,-8956.491898,459.657299
532.254608,-296.082377,-9030.512492,306.438199
532.254936,-222.061783,-8808.450710,612.876398
532.255263,-296.082377,-8882.471304,229.828649
532.255591,-444.123565,-9178.553681,459.657299
532.255919,-222.061783,-9178.553681,612.876398
532.256246,-666.185348,-8956.491898,612.876398
532.256574,-370.102971,-9474.636058,536.266849
532.256901,-444.123565,-9474.636058,612.876398
532.257229,-148.041188,-9326.594869,536.266849
532.257557,0.000000,-9030.512492,766.095498
532.257884,0.000000,-8808.450710,612.876398
532.258212,-222.061783,-9178.553681,383.047749
532.258540,-296.082377,-9030.512492,383.047749
532.258867,-444.123565,-9178.553681,612.876398
532.259195,-370.102971,-9252.574275,536.266849
532.259522,-592.164754,-9178.553681,383.047749
532.259850,-296.082377,-9104.533087,612.876398
532.260178,-370.102971,-9178.553681,612.876398
532.260505,-296.082377,-8956.491898,612.876398
532.260833,-666.185348,-9178.553681,459.657299
532.261160,0.000000,-8734.430116,842.705048
532.261488,-444.123565,-9030.512492,766.095498
532.261816,-444.123565,-9252.574275,689.485948
532.262143,-444.123565,-9474.636058,766.095498
532.262471,-592.164754,-9474.636058,919.314598
532.262799,-222.061783,-8882.471304,995.924147
532.263126,74.020594,-9474.636058,842.705048
532.263454,74.020594,-9030.512492,459.657299
532.263781,0.000000,-9030.512492,536.266849
532.264109,-148.041188,-8956.491898,459.657299
532.264437,0.000000,-9178.553681,995.924147
532.264764,-518.144159,-9252.574275,842.705048
532.265092,-370.102971,-9474.636058,459.657299
532.265419,-444.123565,-9252.574275,842.705048
532.265747,-148.041188,-9104.533087,459.657299
532.266075,0.000000,-8956.491898,229.828649
532.266402,-222.061783,-8734.430116,689.485948
532.266730,0.000000,-9030.512492,383.047749
532.267057,0.000000,-9030.512492,229.828649
532.267385,-222.061783,-9178.553681,229.828649
532.267713,74.020594,-9326.594869,536.266849
532.268040,74.020594,-9474.636058,229.828649
532.268368,0.000000,-9252.574275,612.876398
532.268696,148.041188,-9400.615463,689.485948
532.269023,296.082377,-9474.636058,306.438199
532.269351,0.000000,-8956.491898,536.266849
532.269678,222.061783,-8808.450710,766.095498
532.270006,-222.061783,-8882.471304,383.047749
532.270334,-222.061783,-9178.553681,536.266849
532.270661,-296.082377,-9252.574275,612.876398
532.270989,-296.082377,-9400.615463,612.876398
532.271316,-666.185348,-9178.553681,612.876398
532.271644,-370.102971,-9252.574275,383.047749
532.271972,-296.082377,-8808.450710,229.828649
532.272299,-370.102971,-8586.388927,153.219100
532.272627,-296.082377,-8808.450710,306.438199
532.272954,0.000000,-8734.430116,612.876398
532.273282,-296.082377,-9030.512492,612.876398
532.273610,-370.102971,-9030.512492,536.266849
532.273937,-444.123565,-9104.533087,766.095498
532.274265,-518.144159,-9252.574275,689.485948
532.274593,0.000000,-9252.574275,459.657299
532.274920,0.000000,-8882.471304,612.876398
532.275248,-444.123565,-8882.471304,536.266849
532.275575,-518.144159,-8956.491898,612.876398
532.275903,-666.185348,-9104.533087,766.095498
532.276231,-592.164754,-9104.533087,459.657299
532.276558,-1184.329507,-9104.533087,229.828649
532.276886,-222.061783,-9178.553681,459.657299
532.277213,-370.102971,-8956.491898,459.657299
532.277541,-296.082377,-8956.491898,612.876398
532.277869,-296.082377,-8808.450710,536.266849
532.278196,-518.144159,-8364.327145,536.266849
532.278524,-444.123565,-9178.553681,689.485948
532.278851,-444.123565,-9178.553681,459.657299
