#time,accel_x,accel_y,accel_z
462.259922,0.000000,-8512.368333,612.876398
462.260249,-296.082377,-9030.512492,536.266849
462.260576,-296.082377,-9178.553681,612.876398
462.260904,-296.082377,-9400.615463,689.485948
462.261231,-444.123565,-8734.430116,383.047749
462.261559,-148.041188,-8956.491898,536.266849
462.261886,-222.061783,-9252.574275,459.657299
462.262213,-148.041188,-9474.636058,766.095498
462.262541,-148.041188,-9326.594869,536.266849
462.262868,-148.041188,-8882.471304,383.047749
462.263196,74.020594,-8956.491898,536.266849
462.263523,-370.102971,-9104.533087,612.876398
462.263850,-296.082377,-9326.594869,459.657299
462.264178,-148.041188,-8956.491898,536.266849
462.264505,-148.041188,-9030.512492,536.266849
462.264833,-296.082377,-8956.491898,689.485948
462.265160,-296.082377,-8956.491898,229.828649
462.265487,-148.041188,-9326.594869,459.657299
462.265815,0.000000,-9030.512492,536.266849
462.266142,-444.123565,-9178.553681,459.657299
462.266469,0.000000,-9104.533087,766.095498
462.266797,-222.061783,-9104.533087,612.876398
462.267124,-222.061783,-9104.533087,536.266849
462.267452,-518.144159,-9104.533087,689.485948
462.267779,-296.082377,-9252.574275,689.485948
462.268106,-370.102971,-9178.553681,536.266849
462.268434,0.000000,-9030.512492,612.876398
462.268761,-222.061783,-8956.491898,536.266849
462.269089,-444.123565,-9030.512492,459.657299
462.269416,-592.164754,-9104.533087,229.828649
462.269743,-1036.288319,-9326.594869,0.000000
462.270071,-1702.473667,-8956.491898,-153.219100
462.270398,-1480.411884,-9178.553681,0.000000
462.270726,-962.267725,-8734.430116,-229.828649
462.271053,-592.164754,-9030.512492,-383.047749
462.271380,-444.123565,-8882.471304,-689.485948
462.271708,-962.267725,-8808.450710,-612.876398
462.272035,-962.267725,-9400.615463,-1225.752797
462.272363,-1036.288319,-9104.533087,-1149.143247
462.272690,-962.267725,-9104.533087,-1302.362347
462.273017,-962.267725,-9252.574275,-1378.971896
462.273345,-888.247130,-9326.594869,-1225.752797
462.273672,-518.144159,-9252.574275,-1302.362347
462.273999,0.000000,-9104.533087,-1149.143247
462.274327,0.000000,-8956.491898,-1455.581446
462.274654,0.000000,-9400.615463,-1532.190996
462.274982,0.000000,-9474.636058,-1685.410096
462.275309,666.185348,-9326.594869,-1762.019645
462.275636,296.082377,-9030.512492,-1455.581446
462.275964,222.061783,-9030.512492,-1532.190996
462.276291,222.061783,-9178.553681,-1532.190996
462.276619,444.123565,-9252.574275,-1762.019645
462.276946,0.000000,-9030.512492,-1685.410096
462.277273,592.164754,-9326.594869,-1915.238745
462.277601,0.000000,-9326.594869,-2145.067394
462.277928,0.000000,-9474.636058,-1762.019645
462.278256,74.020594,-9326.594869,-1991.848295
462.278583,-222.061783,-8660.409521,-1685.410096
462.278910,0.000000,-9400.615463,-1685.410096
462.279238,-296.082377,-9326.594869,-1762.019645
462.279565,-814.226536,-9178.553681,-1838.629195
462.279892,-962.267725,-8808.450710,-1915.238745
462.280220,-814.226536,-8586.388927,-2298.286494
462.280547,-888.247130,-9030.512492,-2528.115143
462.280875,-1702.473667,-9178.553681,-2681.334243
462.281202,-1924.535449,-9178.553681,-2528.115143
462.281529,-2146.597232,-8956.491898,-2911.162892
462.281857,-2072.576638,-8956.491898,-3140.991542
462.282184,-2072.576638,-8438.347739,-3983.696590
462.282512,-1998.556043,-9252.574275,-3753.867940
462.282839,-1998.556043,-8956.491898,-3983.696590
462.283166,-1776.494261,-8882.471304,-4290.134789
462.283494,-1406.391290,-8808.450710,-3907.087040
462.283821,-592.164754,-8956.491898,-3524.039291
462.284149,0.000000,-8808.450710,-3677.258390
462.284476,444.123565,-8660.409521,-3370.820191
462.284803,1184.329507,-8956.491898,-2987.772442
462.285131,1850.514855,-9030.512492,-2757.943793
462.285458,2146.597232,-9030.512492,-2298.286494
462.285785,2812.782580,-8808.450710,-1762.019645
462.286113,2146.597232,-9696.697840,-1838.629195
462.286440,1258.350101,-10066.800811,-2145.067394
462.286768,296.082377,-10288.862594,-2528.115143
462.287095,-814.226536,-10436.903782,-4673.182538
462.287422,-1554.432478,-10288.862594,-4443.353888
462.287750,-2220.617826,-10214.842000,-5056.230287
462.288077,-1702.473667,-9474.636058,-4903.011187
462.288405,-370.102971,-8438.347739,-4903.011187
462.288732,1406.391290,-7402.059420,-4366.744339
462.289059,2664.741391,-6513.812290,-2757.943793
462.289387,3182.885551,-7031.956449,-2451.505594
462.289714,2738.761985,-7624.121203,-2145.067394
462.290042,962.267725,-8882.471304,-1838.629195
462.290369,-1036.288319,-9622.677246,-1915.238745
462.290696,-2812.782580,-11251.130318,-2221.676944
462.291024,-4441.235652,-11177.109724,-3064.381992
462.291351,-3849.070898,-10955.047942,-2451.505594
462.291678,-666.185348,-9030.512492,-1455.581446
462.292006,4441.235652,-6809.894666,229.828649
462.292333,8882.471304,-4737.318029,2681.334243
462.292661,10362.883188,-5625.565159,4136.915689
462.292988,8068.244768,-7698.141797,4060.306139
462.293315,2886.803174,-9770.718434,3217.601092
462.293643,-3256.906145,-11843.295072,1378.971896
462.293970,-8956.491898,-13545.768739,-995.924147
462.294298,-11325.150913,-14211.954086,-1915.238745
462.294625,-12287.418637,-13619.789333,-3677.258390
462.294952,-12065.356855,-11917.315666,-4213.525239
462.295280,-5403.503377,-9030.512492,-4443.353888
462.295607,-3997.112087,-5551.544565,-2681.334243
462.295935,222.061783,-3552.988522,-3753.867940
462.296262,1628.453072,-4737.318029,-4213.525239
462.296589,-3775.050304,-6217.729913,-5362.668486
462.296917,-6217.729913,-7920.203579,-6894.859482
462.297244,-11547.212695,-9770.718434,-7890.783629
462.297571,-11621.233289,-9844.739029,-8273.831378
462.297899,-8734.430116,-9696.697840,-7354.516781
462.298226,-3404.947333,-8290.306550,-5822.325785
462.298554,4219.173869,-7105.977043,-4060.306139
462.298881,7698.141797,-6513.812290,-2374.896044
462.299208,9474.636058,-7550.100608,-2604.724693
462.299536,8290.306550,-9548.656652,-3217.601092
462.299863,5107.421000,-11177.109724,-4903.011187
462.300191,4959.379811,-11695.253884,-5439.278036
462.300518,7179.997637,-10658.965565,-4366.744339
462.300845,11177.109724,-9030.512492,-1915.238745
462.301173,14211.954086,-8956.491898,1838.629195
462.301500,13915.871710,-9696.697840,2298.286494
462.301828,10807.006753,-9548.656652,689.485948
462.302155,6661.853478,-11695.253884,536.266849
462.302482,5847.626942,-11473.192101,-766.095498
462.302810,4737.318029,-10362.883188,0.000000
462.303137,3108.864956,-11325.150913,842.705048
462.303464,1406.391290,-11103.089130,1149.143247
462.303792,-2664.741391,-10658.965565,842.705048
462.304119,-8586.388927,-10066.800811,-1302.362347
462.304447,-12805.562797,-8142.265362,-3830.477490
462.304774,-14878.139434,-6661.853478,-5362.668486
462.305101,-12213.398043,-3923.091493,-6511.811733
462.305429,-6809.894666,-2368.659014,-4903.011187
462.305756,-3552.988522,-2590.720797,-3064.381992
462.306084,-1036.288319,-2516.700203,-1378.971896
462.306411,-1924.535449,-2960.823768,0.000000
462.306738,-1776.494261,-5107.421000,1149.143247
462.307066,-2812.782580,-6957.935855,1608.800546
462.307393,-2886.803174,-8882.471304,2604.724693
462.307721,-2960.823768,-11177.109724,4136.915689
462.308048,-3330.926739,-12583.501014,5669.106685
462.308375,-1406.391290,-13101.645173,6818.249932
462.308703,2146.597232,-11843.295072,6971.469032
462.309030,6291.750507,-10807.006753,7431.126331
462.309357,8438.347739,-10881.027347,7431.126331
462.309685,7254.018232,-11029.068536,6358.592633
462.310012,3330.926739,-11177.109724,4213.525239
462.310340,814.226536,-10732.986159,2911.162892
462.310667,0.000000,-9474.636058,2451.505594
462.310994,740.205942,-8660.409521,2451.505594
462.311322,-1110.308913,-9252.574275,3140.991542
462.311649,962.267725,-10140.821405,4213.525239
462.311977,-2886.803174,-9992.780217,3217.601092
462.312304,-7846.182985,-11251.130318,1762.019645
462.312631,-9030.512492,-10881.027347,-766.095498
462.312959,-7772.162391,-9918.759623,-1838.629195
462.313286,-7328.038826,-8438.347739,-766.095498
462.313614,-3034.844362,-5847.626942,-383.047749
462.313941,-2442.679609,-6513.812290,76.609550
462.314268,-2516.700203,-6957.935855,0.000000
462.314596,-2960.823768,-7698.141797,-1532.190996
462.314923,-4737.318029,-8956.491898,-3217.601092
462.315251,-2812.782580,-9104.533087,-4213.525239
462.315578,-370.102971,-9622.677246,-3140.991542
462.315906,1110.308913,-9474.636058,-2911.162892
462.316234,3404.947333,-10288.862594,-1455.581446
462.316561,4367.215058,-11399.171507,-842.705048
462.316889,4367.215058,-11251.130318,-995.924147
462.317216,5403.503377,-11251.130318,-536.266849
462.317544,5921.647536,-11177.109724,-153.219100
462.317872,6291.750507,-10881.027347,229.828649
462.318199,6365.771101,-11843.295072,1685.410096
462.318527,4959.379811,-12213.398043,919.314598
462.318854,3701.029710,-11251.130318,1149.143247
462.319182,3997.112087,-9770.718434,919.314598
462.319509,5107.421000,-7772.162391,919.314598
462.319837,5921.647536,-6883.915261,1378.971896
462.320165,1998.556043,-7402.059420,995.924147
462.320492,1850.514855,-8438.347739,1149.143247
462.320820,-1184.329507,-6957.935855,-383.047749
462.321147,-2960.823768,-7402.059420,153.219100
462.321475,-1554.432478,-6883.915261,0.000000
462.321803,-148.041188,-5921.647536,76.609550
462.322130,-1628.453072,-6957.935855,689.485948
462.322458,-2960.823768,-7772.162391,536.266849
462.322785,-7179.997637,-8882.471304,0.000000
462.323113,-9104.533087,-8438.347739,-1378.971896
462.323441,-8512.368333,-7772.162391,-2145.067394
462.323768,-6661.853478,-7698.141797,-1455.581446
462.324096,-3775.050304,-7402.059420,-689.485948
462.324423,-2368.659014,-7105.977043,153.219100
462.324751,-2442.679609,-7179.997637,76.609550
462.325078,-2368.659014,-7328.038826,0.000000
462.325406,-1702.473667,-7550.100608,-459.657299
462.325734,296.082377,-6587.832884,229.828649
462.326061,2516.700203,-7105.977043,1455.581446
462.326389,3182.885551,-8068.244768,2528.115143
462.326716,2516.700203,-9400.615463,3830.477490
462.327044,1628.453072,-10584.944971,3600.648841
462.327372,1850.514855,-10362.883188,2987.772442
462.327699,2664.741391,-10066.800811,2987.772442
462.328027,3923.091493,-9770.718434,3140.991542
462.328354,3849.070898,-9548.656652,3217.601092
462.328682,3552.988522,-9844.739029,3064.381992
462.329009,2146.597232,-9844.739029,3064.381992
462.329337,2368.659014,-10066.800811,3140.991542
462.329665,370.102971,-9474.636058,1149.143247
462.329992,1258.350101,-10214.842000,2451.505594
462.330320,888.247130,-8364.327145,2145.067394
462.330647,-2220.617826,-11177.109724,1838.629195
462.330975,-3775.050304,-10955.047942,842.705048
462.331303,-4959.379811,-11177.109724,-459.657299
462.331630,-6809.894666,-10955.047942,-1225.752797
462.331958,-4441.235652,-9696.697840,-689.485948
462.332285,-3330.926739,-8660.409521,-689.485948
462.332613,-3108.864956,-8660.409521,-229.828649
462.332941,-2442.679609,-8290.306550,-612.876398
462.333268,-4071.132681,-8586.388927,-995.924147
462.333596,-3775.050304,-7846.182985,-2374.896044
462.333923,-1554.432478,-7698.141797,-1915.238745
462.334251,148.041188,-7179.997637,-1072.533697
462.334578,2368.659014,-7550.100608,536.266849
462.334906,2886.803174,-9178.553681,1608.800546
462.335234,2146.597232,-10214.842000,1455.581446
462.335561,1332.370696,-11029.068536,1149.143247
462.335889,740.205942,-11547.212695,459.657299
462.336216,1702.473667,-11473.192101,459.657299
462.336544,3182.885551,-11547.212695,919.314598
462.336872,3775.050304,-11621.233289,1532.190996
462.337199,3330.926739,-11621.233289,1378.971896
462.337527,2072.576638,-11325.150913,1608.800546
462.337854,1332.370696,-10140.821405,536.266849
462.338182,814.226536,-9178.553681,-1149.143247
462.338510,1332.370696,-8586.388927,766.095498
462.338837,2886.803174,-7254.018232,1225.752797
462.339165,0.000000,-9548.656652,536.266849
462.339492,-2294.638420,-8956.491898,459.657299
462.339820,-3627.009116,-9252.574275,-689.485948
462.340147,-3775.050304,-8142.265362,-383.047749
462.340475,-2812.782580,-7254.018232,-536.266849
462.340803,-740.205942,-7031.956449,536.266849
462.341130,-2590.720797,-7031.956449,0.000000
462.341458,-2886.803174,-7179.997637,0.000000
462.341785,-3330.926739,-7031.956449,-919.314598
462.342113,-2960.823768,-6587.832884,-1149.143247
462.342441,0.000000,-6217.729913,-536.266849
462.342768,1036.288319,-6513.812290,459.657299
462.343096,1776.494261,-7402.059420,1455.581446
462.343423,592.164754,-9326.594869,1532.190996
462.343751,-1332.370696,-10362.883188,1149.143247
462.344078,-1776.494261,-10214.842000,612.876398
462.344406,-592.164754,-10732.986159,536.266849
462.344734,888.247130,-10066.800811,1455.581446
462.345061,2146.597232,-9696.697840,2145.067394
462.345389,2072.576638,-9474.636058,2681.334243
462.345716,1258.350101,-9400.615463,3064.381992
462.346044,814.226536,-8586.388927,2221.676944
462.346372,888.247130,-8290.306550,1072.533697
462.346699,1332.370696,-7624.121203,1302.362347
462.347027,1554.432478,-7846.182985,1608.800546
462.347354,222.061783,-8438.347739,995.924147
462.347682,-1258.350101,-9030.512492,2221.676944
462.348010,-1480.411884,-8882.471304,766.095498
462.348337,-2738.761985,-9622.677246,0.000000
462.348665,-1406.391290,-8660.409521,76.609550
462.348992,-1110.308913,-9030.512492,229.828649
462.349320,-518.144159,-9178.553681,612.876398
462.349647,-2220.617826,-9770.718434,459.657299
462.349975,-2590.720797,-9844.739029,0.000000
462.350303,-2664.741391,-9622.677246,-995.924147
462.350630,-666.185348,-9104.533087,-919.314598
462.350958,592.164754,-9252.574275,-689.485948
462.351285,1258.350101,-8438.347739,383.047749
462.351613,814.226536,-9844.739029,612.876398
462.351941,-1258.350101,-10807.006753,76.609550
462.352268,-2368.659014,-11177.109724,-229.828649
462.352596,-2516.700203,-10066.800811,-1225.752797
462.352923,-296.082377,-10140.821405,-306.438199
462.353251,1332.370696,-9622.677246,0.000000
462.353579,2146.597232,-9474.636058,1072.533697
462.353906,1406.391290,-9696.697840,766.095498
462.354234,444.123565,-9622.677246,229.828649
462.354561,296.082377,-9104.533087,-459.657299
462.354889,1332.370696,-8734.430116,0.000000
462.355216,2516.700203,-8734.430116,459.657299
462.355544,2812.782580,-8882.471304,1455.581446
462.355872,1776.494261,-9844.739029,1991.848295
462.356199,74.020594,-10362.883188,1838.629195
462.356527,-1776.494261,-10288.862594,153.219100
462.356854,-1850.514855,-10140.821405,76.609550
462.357182,0.000000,-9326.594869,383.047749
462.357510,74.020594,-9400.615463,459.657299
462.357837,-444.123565,-8956.491898,842.705048
462.358165,-1480.411884,-9474.636058,76.609550
462.358492,-2294.638420,-8734.430116,-689.485948
462.358820,-1998.556043,-7920.203579,-995.924147
462.359147,296.082377,-7328.038826,-153.219100
462.359475,1258.350101,-7698.141797,459.657299
462.359803,1332.370696,-7624.121203,1225.752797
462.360130,-666.185348,-8586.388927,995.924147
462.360458,-2738.761985,-9548.656652,536.266849
462.360785,-3182.885551,-9474.636058,0.000000
462.361113,-2220.617826,-8808.450710,76.609550
462.361441,-296.082377,-8068.244768,919.314598
462.361768,1258.350101,-8142.265362,1378.971896
462.362096,962.267725,-8660.409521,1685.410096
462.362423,0.000000,-9030.512492,1608.800546
462.362751,-296.082377,-8734.430116,689.485948
462.363079,444.123565,-8364.327145,1072.533697
462.363406,1850.514855,-7920.203579,1072.533697
462.363734,2442.679609,-8512.368333,2068.457845
462.364061,1776.494261,-9474.636058,2145.067394
462.364389,0.000000,-10140.821405,2068.457845
462.364716,-1850.514855,-10436.903782,1302.362347
462.365044,-1850.514855,-9992.780217,919.314598
462.365372,-666.185348,-9252.574275,995.924147
462.365699,-370.102971,-8882.471304,612.876398
462.366027,0.000000,-8882.471304,1685.410096
462.366354,-888.247130,-8290.306550,919.314598
462.366682,-1776.494261,-8734.430116,842.705048
462.367010,-2220.617826,-7920.203579,-153.219100
462.367337,-518.144159,-7179.997637,0.000000
462.367665,148.041188,-7105.977043,383.047749
462.367992,1184.329507,-7105.977043,1302.362347
462.368320,74.020594,-8734.430116,1378.971896
462.368647,-2072.576638,-9770.718434,842.705048
462.368975,-3108.864956,-10140.821405,153.219100
462.369303,-2738.761985,-10066.800811,-229.828649
462.369630,-1184.329507,-9992.780217,76.609550
462.369958,444.123565,-9400.615463,842.705048
462.370285,296.082377,-9696.697840,1455.581446
462.370613,-666.185348,-10214.842000,766.095498
462.370941,-1406.391290,-10214.842000,0.000000
462.371268,-1406.391290,-9844.739029,-842.705048
462.371596,370.102971,-9326.594869,-689.485948
462.371923,1702.473667,-8660.409521,536.266849
462.372251,2294.638420,-9030.512492,1225.752797
462.372579,1480.411884,-9918.759623,1532.190996
462.372906,-444.123565,-10214.842000,919.314598
462.373234,-1332.370696,-9918.759623,76.609550
462.373561,-888.247130,-9252.574275,76.609550
462.373889,222.061783,-8808.450710,153.219100
462.374216,1110.308913,-8808.450710,612.876398
462.374544,592.164754,-8956.491898,689.485948
462.374872,-666.185348,-9252.574275,536.266849
462.375199,-1110.308913,-8956.491898,-229.828649
462.375527,0.000000,-8586.388927,0.000000
462.375854,1480.411884,-8068.244768,153.219100
462.376182,2516.700203,-7920.203579,919.314598
462.376510,1702.473667,-9030.512492,1532.190996
462.376837,-74.020594,-9918.759623,995.924147
462.377165,-1924.535449,-10362.883188,0.000000
462.377492,-2442.679609,-10140.821405,-766.095498
462.377820,-1036.288319,-9622.677246,-689.485948
462.378148,222.061783,-9178.553681,229.828649
462.378475,888.247130,-8808.450710,919.314598
462.378803,222.061783,-9400.615463,1302.362347
462.379130,-1332.370696,-9474.636058,229.828649
462.379458,-1998.556043,-9400.615463,-536.266849
462.379785,-1036.288319,-8660.409521,-612.876398
462.380113,370.102971,-8142.265362,-153.219100
462.380441,1554.432478,-7994.224174,1225.752797
462.380768,1628.453072,-8882.471304,1685.410096
462.381096,0.000000,-9474.636058,1378.971896
462.381423,-1554.432478,-9622.677246,689.485948
462.381751,-1480.411884,-9474.636058,76.609550
462.382079,-370.102971,-8660.409521,0.000000
462.382406,962.267725,-8660.409521,919.314598
462.382734,1554.432478,-8660.409521,1225.752797
462.383061,370.102971,-9400.615463,1225.752797
462.383389,-518.144159,-9474.636058,842.705048
462.383716,-666.185348,-8808.450710,536.266849
462.384044,888.247130,-8364.327145,689.485948
462.384372,1480.411884,-8586.388927,1302.362347
462.384699,1554.432478,-9030.512492,1532.190996
462.385027,-222.061783,-10214.842000,1608.800546
462.385354,-2368.659014,-10436.903782,766.095498
462.385682,-2590.720797,-10510.924376,689.485948
462.386010,-2738.761985,-9474.636058,0.000000
462.386337,-1406.391290,-9178.553681,383.047749
462.386665,-148.041188,-8808.450710,1072.533697
462.386992,-592.164754,-8734.430116,1378.971896
462.387320,-1406.391290,-8808.450710,995.924147
462.387648,-2590.720797,-8734.430116,0.000000
462.387975,-2664.741391,-8068.244768,-612.876398
462.388303,-888.247130,-7624.121203,0.000000
462.388630,296.082377,-7550.100608,612.876398
462.388958,666.185348,-8068.244768,1378.971896
462.389285,0.000000,-8734.430116,1225.752797
462.389613,-1776.494261,-9548.656652,766.095498
462.389941,-2368.659014,-9992.780217,76.609550
462.390268,-1406.391290,-9548.656652,-153.219100
462.390596,0.000000,-8956.491898,-229.828649
462.390923,814.226536,-8142.265362,1149.143247
462.391251,1184.329507,-9474.636058,919.314598
462.391579,444.123565,-10066.800811,842.705048
462.391906,74.020594,-9696.697840,0.000000
462.392234,962.267725,-8808.450710,0.000000
462.392561,2072.576638,-8142.265362,0.000000
462.392889,2516.700203,-8512.368333,995.924147
462.393216,2072.576638,-9252.574275,1455.581446
462.393544,296.082377,-10362.883188,919.314598
462.393872,-1480.411884,-10436.903782,459.657299
462.394199,-1406.391290,-9918.759623,-536.266849
462.394527,-962.267725,-9400.615463,-229.828649
462.394854,0.000000,-9326.594869,0.000000
462.395182,518.144159,-8956.491898,536.266849
462.395510,-296.082377,-9474.636058,383.047749
462.395837,-888.247130,-9474.636058,-919.314598
462.396165,-1554.432478,-8808.450710,-995.924147
462.396492,-666.185348,-8142.265362,-1302.362347
462.396820,1258.350101,-7846.182985,-383.047749
462.397148,2294.638420,-8068.244768,383.047749
462.397475,1406.391290,-8808.450710,1762.019645
462.397803,-296.082377,-9548.656652,1225.752797
462.398130,-1924.535449,-10436.903782,383.047749
462.398458,-1850.514855,-10362.883188,229.828649
462.398785,-370.102971,-9844.739029,536.266849
462.399113,888.247130,-9548.656652,1455.581446
462.399441,1110.308913,-10066.800811,2298.286494
462.399768,74.020594,-10066.800811,1838.629195
462.400096,-666.185348,-9474.636058,1149.143247
462.400423,0.000000,-8512.368333,1072.533697
462.400751,1554.432478,-7846.182985,919.314598
462.401079,2368.659014,-7179.997637,1378.971896
462.401406,2146.597232,-8068.244768,2298.286494
462.401734,222.061783,-9104.533087,1915.238745
462.402061,-2220.617826,-9844.739029,1302.362347
462.402389,-3478.967927,-9622.677246,306.438199
462.402717,-2442.679609,-9104.533087,153.219100
462.403044,-1850.514855,-9030.512492,766.095498
462.403372,-962.267725,-8660.409521,1378.971896
462.403699,-1628.453072,-8808.450710,1302.362347
462.404027,-2442.679609,-8734.430116,459.657299
462.404354,-2886.803174,-8512.368333,0.000000
462.404682,-2812.782580,-7772.162391,-919.314598
462.405010,-1406.391290,-7105.977043,-919.314598
462.405337,222.061783,-7031.956449,153.219100
462.405665,592.164754,-7476.080014,842.705048
462.405992,-296.082377,-8512.368333,995.924147
462.406320,-1628.453072,-9252.574275,306.438199
462.406648,-2294.638420,-9178.553681,-229.828649
462.406975,-1628.453072,-9474.636058,-459.657299
462.407303,148.041188,-9252.574275,0.000000
462.407630,1110.308913,-8956.491898,689.485948
462.407958,1628.453072,-9474.636058,995.924147
462.408285,1110.308913,-9548.656652,1225.752797
462.408613,740.205942,-9178.553681,306.438199
462.408941,1702.473667,-8586.388927,76.609550
462.409268,2960.823768,-8512.368333,689.485948
462.409596,3775.050304,-8734.430116,1149.143247
462.409923,2442.679609,-9252.574275,2298.286494
462.410251,592.164754,-10288.862594,1378.971896
462.410579,-1184.329507,-10732.986159,383.047749
462.410906,-1776.494261,-10436.903782,0.000000
462.411234,-1036.288319,-9548.656652,612.876398
462.411561,-518.144159,-9178.553681,383.047749
462.411889,370.102971,-9548.656652,536.266849
462.412217,-1110.308913,-9770.718434,459.657299
462.412544,-2516.700203,-9844.739029,-229.828649
462.412872,-2960.823768,-9178.553681,-1149.143247
462.413199,-1628.453072,-8142.265362,-689.485948
462.413527,74.020594,-7994.224174,-229.828649
462.413854,1110.308913,-7994.224174,842.705048
462.414182,740.205942,-8956.491898,1302.362347
462.414510,-962.267725,-9844.739029,1149.143247
462.414837,-2516.700203,-10140.821405,383.047749
462.415165,-2294.638420,-10436.903782,0.000000
462.415492,-740.205942,-10066.800811,383.047749
462.415820,518.144159,-9548.656652,1302.362347
462.416148,962.267725,-9770.718434,2068.457845
462.416475,1036.288319,-9992.780217,1991.848295
462.416803,0.000000,-9992.780217,1302.362347
462.417131,592.164754,-9252.574275,919.314598
462.417458,2072.576638,-8660.409521,1149.143247
462.417786,2812.782580,-8734.430116,1838.629195
462.418114,2442.679609,-9400.615463,2604.724693
462.418441,666.185348,-9844.739029,2451.505594
462.418769,-1628.453072,-10807.006753,1685.410096
462.419097,-2812.782580,-10436.903782,689.485948
462.419424,-2294.638420,-9918.759623,459.657299
462.419752,-1110.308913,-8956.491898,842.705048
462.420080,-518.144159,-8586.388927,1149.143247
462.420407,-1406.391290,-8512.368333,995.924147
462.420735,-2960.823768,-8438.347739,76.609550
462.421063,-3849.070898,-8068.244768,-766.095498
462.421390,-2590.720797,-7254.018232,-1378.971896
462.421718,-666.185348,-6661.853478,-995.924147
462.422046,740.205942,-6291.750507,-536.266849
462.422373,740.205942,-6957.935855,459.657299
462.422701,-740.205942,-8438.347739,612.876398
462.423029,-2516.700203,-9104.533087,-153.219100
462.423356,-3182.885551,-9400.615463,-459.657299
462.423684,-1110.308913,-8808.450710,-459.657299
462.424012,518.144159,-8438.347739,0.000000
462.424339,2072.576638,-8734.430116,919.314598
462.424667,2368.659014,-9178.553681,1455.581446
462.424995,1850.514855,-9104.533087,1302.362347
462.425322,2294.638420,-8956.491898,1685.410096
462.425650,2590.720797,-8364.327145,842.705048
462.425978,3478.967927,-8290.306550,1225.752797
462.426305,3701.029710,-8586.388927,1991.848295
462.426633,2516.700203,-9104.533087,2374.896044
462.426961,740.205942,-9918.759623,1762.019645
462.427288,-592.164754,-10066.800811,1762.019645
462.427616,-962.267725,-9548.656652,536.266849
462.427944,-1554.432478,-9252.574275,612.876398
462.428271,-444.123565,-8956.491898,842.705048
462.428599,-1332.370696,-8734.430116,842.705048
462.428927,-2960.823768,-9326.594869,0.000000
462.429255,-4293.194464,-9178.553681,-995.924147
462.429582,-4441.235652,-8438.347739,-1455.581446
462.429910,-2886.803174,-7550.100608,-1455.581446
462.430238,-814.226536,-7031.956449,-536.266849
462.430565,-370.102971,-7254.018232,76.609550
462.430893,-1258.350101,-8142.265362,0.000000
462.431221,-2960.823768,-9326.594869,0.000000
462.431548,-4071.132681,-9696.697840,-1149.143247
462.431876,-3108.864956,-9474.636058,-1225.752797
462.432204,-1184.329507,-9326.594869,-536.266849
462.432531,296.082377,-8808.450710,306.438199
462.432859,1776.494261,-9548.656652,1072.533697
462.433187,1776.494261,-10362.883188,1302.362347
462.433514,518.144159,-9622.677246,536.266849
462.433842,1628.453072,-9918.759623,229.828649
462.434170,3701.029710,-9474.636058,306.438199
462.434497,4959.379811,-9474.636058,1608.800546
462.434825,4293.194464,-9548.656652,1685.410096
462.435153,3552.988522,-11547.212695,2834.553343
462.435480,1258.350101,-10510.924376,1455.581446
462.435808,-1406.391290,-9622.677246,0.000000
462.436136,148.041188,-10881.027347,1455.581446
462.436463,1184.329507,-9770.718434,229.828649
462.436791,740.205942,-10510.924376,995.924147
462.437119,74.020594,-10658.965565,1455.581446
462.437446,-3404.947333,-8956.491898,0.000000
462.437774,-3034.844362,-9252.574275,76.609550
462.438102,-3478.967927,-8364.327145,-1455.581446
462.438429,-592.164754,-7698.141797,0.000000
462.438757,-148.041188,-7920.203579,153.219100
462.439085,-740.205942,-7920.203579,459.657299
462.439412,-2960.823768,-9992.780217,0.000000
462.439740,-4811.338623,-9696.697840,-1072.533697
462.440068,-4071.132681,-9622.677246,-1072.533697
462.440395,-2442.679609,-8882.471304,-995.924147
462.440723,296.082377,-8438.347739,306.438199
462.441051,962.267725,-9104.533087,1225.752797
462.441378,740.205942,-9326.594869,1685.410096
462.441706,74.020594,-9400.615463,1685.410096
462.442034,222.061783,-9770.718434,1149.143247
462.442361,1036.288319,-9474.636058,1149.143247
462.442689,2368.659014,-9474.636058,1838.629195
462.443017,2738.761985,-9696.697840,2451.505594
462.443344,1998.556043,-10066.800811,2911.162892
462.443672,1036.288319,-10510.924376,2757.943793
462.444000,148.041188,-10362.883188,1838.629195
462.444327,444.123565,-9622.677246,1685.410096
462.444655,888.247130,-8660.409521,1072.533697
462.444983,222.061783,-8660.409521,1455.581446
462.445310,666.185348,-8660.409521,1608.800546
462.445638,-1184.329507,-9030.512492,1149.143247
462.445966,-3108.864956,-8586.388927,-306.438199
462.446294,-2442.679609,-8364.327145,-383.047749
462.446621,-1554.432478,-7624.121203,-229.828649
462.446949,-1184.329507,-7550.100608,76.609550
462.447277,-888.247130,-7476.080014,612.876398
462.447604,-2664.741391,-8586.388927,306.438199
462.447932,-3775.050304,-8882.471304,-842.705048
462.448260,-4367.215058,-8586.388927,-1991.848295
462.448587,-3034.844362,-8216.285956,-2145.067394
462.448915,0.000000,-7550.100608,-1378.971896
462.449243,1480.411884,-7105.977043,76.609550
462.449570,2220.617826,-7476.080014,919.314598
462.449898,1554.432478,-8586.388927,306.438199
462.450226,666.185348,-9104.533087,0.000000
462.450553,1332.370696,-8956.491898,0.000000
462.450881,2812.782580,-8882.471304,689.485948
462.451209,3775.050304,-9178.553681,1072.533697
462.451536,4145.153275,-9696.697840,2528.115143
462.451864,3256.906145,-10436.903782,2451.505594
462.452192,1776.494261,-10510.924376,1838.629195
462.452519,814.226536,-10510.924376,1455.581446
462.452847,1110.308913,-9474.636058,689.485948
462.453175,1110.308913,-9252.574275,689.485948
462.453502,296.082377,-9178.553681,766.095498
462.453830,74.020594,-9252.574275,995.924147
462.454158,-1850.514855,-9548.656652,0.000000
462.454485,-2738.761985,-8068.244768,-612.876398
462.454813,-1924.535449,-7772.162391,-459.657299
462.455141,-1258.350101,-7402.059420,0.000000
462.455468,-1702.473667,-8068.244768,76.609550
462.455796,-2368.659014,-8660.409521,229.828649
462.456124,-4737.318029,-9400.615463,-612.876398
462.456451,-6069.688724,-9548.656652,-1302.362347
462.456779,-5329.482782,-9252.574275,-1991.848295
462.457107,-3108.864956,-8586.388927,-1455.581446
462.457434,-296.082377,-7920.203579,-383.047749
462.457762,888.247130,-7920.203579,459.657299
462.458090,814.226536,-8216.285956,536.266849
462.458417,74.020594,-9252.574275,383.047749
462.458745,74.020594,-9252.574275,0.000000
462.459073,1554.432478,-9400.615463,306.438199
462.459400,3404.947333,-9252.574275,1455.581446
462.459728,4515.256246,-9622.677246,3370.820191
462.460056,3997.112087,-10955.047942,2757.943793
462.460383,2590.720797,-11769.274478,2987.772442
462.460711,1258.350101,-11843.295072,2451.505594
462.461039,1554.432478,-11399.171507,2068.457845
462.461366,1850.514855,-10807.006753,2374.896044
462.461694,1554.432478,-10140.821405,919.314598
462.462022,-148.041188,-10140.821405,1838.629195
462.462350,-740.205942,-9622.677246,766.095498
462.462677,-1998.556043,-9622.677246,0.000000
462.463005,-2812.782580,-7994.224174,-306.438199
462.463333,-1850.514855,-7550.100608,-383.047749
462.463660,-1036.288319,-7328.038826,153.219100
462.463988,-2072.576638,-7698.141797,536.266849
462.464316,-3108.864956,-8586.388927,153.219100
462.464643,-6069.688724,-9474.636058,-842.705048
462.464971,-5995.668130,-9474.636058,-1455.581446
462.465299,-4663.297435,-8956.491898,-1378.971896
462.465626,-2664.741391,-8068.244768,-842.705048
462.465954,-222.061783,-7920.203579,306.438199
462.466282,-222.061783,-8512.368333,689.485948
462.466609,-296.082377,-8882.471304,689.485948
462.466937,-740.205942,-8290.306550,-612.876398
462.467265,666.185348,-8364.327145,0.000000
462.467592,2886.803174,-8512.368333,536.266849
462.467920,4589.276840,-8956.491898,1532.190996
462.468248,4515.256246,-9770.718434,2604.724693
462.468575,3108.864956,-10732.986159,2757.943793
462.468903,1776.494261,-11103.089130,2451.505594
462.469231,1184.329507,-11251.130318,1838.629195
462.469558,1554.432478,-10584.944971,1685.410096
462.469886,2368.659014,-10066.800811,1762.019645
462.470214,1628.453072,-9548.656652,1762.019645
462.470541,518.144159,-9844.739029,2374.896044
462.470869,-740.205942,-8882.471304,536.266849
462.471197,-2664.741391,-8660.409521,459.657299
462.471524,-666.185348,-7105.977043,-306.438199
462.471852,-518.144159,-6957.935855,229.828649
462.472180,-740.205942,-7031.956449,536.266849
462.472507,-2146.597232,-8068.244768,0.000000
462.472835,-4959.379811,-8734.430116,-536.266849
462.473163,-5921.647536,-8882.471304,-1915.238745
462.473490,-5477.523971,-7846.182985,-1455.581446
462.473818,-3256.906145,-7402.059420,-1608.800546
462.474146,-518.144159,-7105.977043,-842.705048
462.474473,222.061783,-7624.121203,229.828649
462.474801,-296.082377,-8216.285956,153.219100
462.475129,-740.205942,-8808.450710,229.828649
462.475456,-814.226536,-8660.409521,-689.485948
462.475784,592.164754,-8808.450710,-383.047749
462.476112,2516.700203,-9030.512492,689.485948
462.476439,3404.947333,-9474.636058,2145.067394
462.476767,3182.885551,-10140.821405,2451.505594
462.477095,2220.617826,-10140.821405,2451.505594
462.477422,1036.288319,-10658.965565,1149.143247
462.477750,1702.473667,-10140.821405,919.314598
462.478078,2294.638420,-9548.656652,1072.533697
462.478406,2442.679609,-9178.553681,1455.581446
462.478733,2368.659014,-9252.574275,1685.410096
462.479061,222.061783,-9178.553681,459.657299
462.479389,-1332.370696,-9178.553681,612.876398
462.479716,0.000000,-8438.347739,153.219100
462.480044,0.000000,-8364.327145,306.438199
462.480372,-370.102971,-8068.244768,1072.533697
462.480699,-1406.391290,-9104.533087,536.266849
462.481027,-4145.153275,-9770.718434,153.219100
462.481355,-6143.709319,-10288.862594,-1302.362347
462.481682,-5773.606348,-9474.636058,-1838.629195
462.482010,-4589.276840,-8660.409521,-1608.800546
462.482338,-1480.411884,-7328.038826,-1302.362347
462.482665,-222.061783,-7624.121203,-229.828649
462.482993,-444.123565,-8068.244768,-153.219100
462.483321,-1480.411884,-9030.512492,-612.876398
462.483648,-1850.514855,-9104.533087,-995.924147
462.483976,-148.041188,-8956.491898,-459.657299
462.484304,1406.391290,-9326.594869,0.000000
462.484631,3404.947333,-9474.636058,1608.800546
462.484959,3923.091493,-10214.842000,2987.772442
462.485287,2960.823768,-11029.068536,3064.381992
462.485614,1850.514855,-11473.192101,2911.162892
462.485942,1184.329507,-11399.171507,1838.629195
462.486270,1480.411884,-10584.944971,1838.629195
462.486597,1628.453072,-10140.821405,1838.629195
462.486925,1850.514855,-9770.718434,2298.286494
462.487253,1036.288319,-9992.780217,2068.457845
462.487580,-370.102971,-9326.594869,689.485948
462.487908,-1258.350101,-8808.450710,1072.533697
462.488236,296.082377,-7920.203579,766.095498
462.488563,-666.185348,-8438.347739,689.485948
462.488891,-1036.288319,-8290.306550,766.095498
462.489219,-3108.864956,-9252.574275,612.876398
462.489546,-5551.544565,-9844.739029,-536.266849
462.489874,-6439.791695,-9770.718434,-1685.410096
462.490202,-5033.400406,-8808.450710,-1149.143247
462.490529,-2738.761985,-7698.141797,-842.705048
462.490857,-666.185348,-7476.080014,383.047749
462.491185,-296.082377,-7254.018232,229.828649
462.491512,-1406.391290,-7846.182985,153.219100
462.491840,-1628.453072,-8142.265362,-995.924147
462.492168,-1036.288319,-7920.203579,-842.705048
462.492495,1406.391290,-7994.224174,-306.438199
462.492823,3182.885551,-8068.244768,1149.143247
462.493151,4515.256246,-8512.368333,2374.896044
462.493478,4071.132681,-9548.656652,3064.381992
462.493806,2590.720797,-10584.944971,2528.115143
462.494134,1258.350101,-11029.068536,1685.410096
462.494461,1258.350101,-10510.924376,1838.629195
462.494789,1702.473667,-9992.780217,1302.362347
462.495117,1924.535449,-9770.718434,1685.410096
462.495445,1258.350101,-9844.739029,1762.019645
462.495772,444.123565,-9770.718434,1072.533697
462.496100,-592.164754,-9474.636058,1072.533697
462.496428,-518.144159,-8068.244768,-383.047749
462.496755,-1184.329507,-7772.162391,459.657299
462.497083,-444.123565,-7105.977043,0.000000
462.497411,-1998.556043,-8438.347739,383.047749
462.497738,-4071.132681,-7994.224174,-766.095498
462.498066,-4811.338623,-9104.533087,-1225.752797
462.498394,-5773.606348,-8882.471304,-1532.190996
462.498721,-3701.029710,-8068.244768,-1532.190996
462.499049,-2072.576638,-7772.162391,-383.047749
462.499377,-1110.308913,-7105.977043,-536.266849
462.499704,-814.226536,-8142.265362,-536.266849
462.500032,-2146.597232,-8808.450710,-1149.143247
462.500360,-1998.556043,-8808.450710,-1685.410096
462.500687,296.082377,-8290.306550,-995.924147
462.501015,3256.906145,-8290.306550,76.609550
462.501343,4959.379811,-8808.450710,1838.629195
462.501670,4737.318029,-9992.780217,2604.724693
462.501998,2886.803174,-11251.130318,2451.505594
462.502326,1554.432478,-11843.295072,1608.800546
462.502653,1258.350101,-11695.253884,1149.143247
462.502981,1628.453072,-11399.171507,1149.143247
462.503309,2516.700203,-11177.109724,1915.238745
462.503636,2516.700203,-10955.047942,2374.896044
462.503964,1480.411884,-10658.965565,2451.505594
462.504292,740.205942,-9918.759623,1225.752797
462.504619,-370.102971,-9400.615463,1378.971896
462.504947,740.205942,-8660.409521,612.876398
462.505275,148.041188,-8364.327145,995.924147
462.505602,-1184.329507,-8660.409521,919.314598
462.505930,-2442.679609,-9400.615463,383.047749
462.506258,-4367.215058,-9474.636058,-383.047749
462.506585,-5329.482782,-9474.636058,-995.924147
462.506913,-4219.173869,-9030.512492,-766.095498
462.507241,-3182.885551,-8364.327145,-689.485948
462.507568,-1850.514855,-8364.327145,0.000000
462.507896,-962.267725,-8290.306550,0.000000
462.508224,-2590.720797,-9252.574275,153.219100
462.508551,-2664.741391,-9252.574275,-1149.143247
462.508879,-1480.411884,-8808.450710,-919.314598
462.509207,740.205942,-8216.285956,-229.828649
462.509534,2960.823768,-8882.471304,1455.581446
462.509862,3775.050304,-8808.450710,2528.115143
462.510190,2664.741391,-9622.677246,2681.334243
462.510517,1480.411884,-10732.986159,2221.676944
462.510845,0.000000,-10881.027347,1225.752797
462.511173,592.164754,-10584.944971,1455.581446
462.511501,1480.411884,-9696.697840,2374.896044
462.511828,2146.597232,-9474.636058,2221.676944
462.512156,1702.473667,-9696.697840,2528.115143
462.512484,592.164754,-9474.636058,2298.286494
462.512811,-592.164754,-8660.409521,689.485948
462.513139,0.000000,-7624.121203,1608.800546
462.513467,1628.453072,-6661.853478,1378.971896
462.513794,-370.102971,-7624.121203,1532.190996
462.514122,-814.226536,-7920.203579,995.924147
462.514450,-3478.967927,-8660.409521,689.485948
462.514777,-5033.400406,-8660.409521,0.000000
462.515105,-4811.338623,-8068.244768,-766.095498
462.515433,-3849.070898,-7550.100608,0.000000
462.515760,-2368.659014,-7179.997637,-383.047749
462.516088,-1702.473667,-7476.080014,0.000000
462.516416,-2442.679609,-7550.100608,-383.047749
462.516743,-3849.070898,-7698.141797,-1378.971896
462.517071,-2886.803174,-7846.182985,-2221.676944
462.517399,-1184.329507,-7328.038826,-1762.019645
462.517726,1850.514855,-7254.018232,-766.095498
462.518054,3552.988522,-7476.080014,459.657299
462.518381,3478.967927,-9104.533087,1455.581446
462.518709,1554.432478,-9844.739029,1149.143247
462.519036,370.102971,-10584.944971,76.609550
462.519364,370.102971,-10510.924376,-229.828649
462.519692,1702.473667,-10436.903782,-306.438199
462.520019,3034.844362,-10140.821405,689.485948
462.520347,3330.926739,-10140.821405,1762.019645
462.520674,3034.844362,-10510.924376,1685.410096
462.521002,2442.679609,-10214.842000,1225.752797
462.521329,2220.617826,-9400.615463,689.485948
462.521657,3034.844362,-9548.656652,995.924147
462.521984,1554.432478,-9178.553681,76.609550
462.522312,814.226536,-9770.718434,995.924147
462.522639,-814.226536,-9474.636058,229.828649
462.522967,-3034.844362,-10807.006753,0.000000
462.523294,-3775.050304,-10066.800811,-766.095498
462.523622,-2516.700203,-9474.636058,-1149.143247
462.523949,-2220.617826,-9178.553681,-536.266849
462.524277,-1258.350101,-8290.306550,0.000000
462.524605,-2220.617826,-8808.450710,0.000000
462.524932,-3849.070898,-9400.615463,-536.266849
462.525260,-3404.947333,-8882.471304,-766.095498
462.525587,-2368.659014,-8142.265362,-1302.362347
462.525915,296.082377,-7254.018232,0.000000
462.526242,2294.638420,-7550.100608,1532.190996
462.526570,2072.576638,-8660.409521,2451.505594
462.526897,1184.329507,-9696.697840,2604.724693
462.527225,0.000000,-10510.924376,2298.286494
462.527552,-1036.288319,-10658.965565,1532.190996
462.527880,-296.082377,-10288.862594,1378.971896
462.528207,592.164754,-10362.883188,1838.629195
462.528535,1554.432478,-10140.821405,2451.505594
462.528863,1480.411884,-10066.800811,2987.772442
462.529190,666.185348,-10066.800811,2681.334243
462.529518,0.000000,-9622.677246,1915.238745
462.529845,296.082377,-8882.471304,1378.971896
462.530173,296.082377,-8586.388927,1072.533697
462.530500,592.164754,-8512.368333,1455.581446
462.530828,-518.144159,-8734.430116,1378.971896
462.531155,-3330.926739,-9622.677246,1225.752797
462.531483,-3627.009116,-9326.594869,76.609550
462.531810,-3849.070898,-8512.368333,153.219100
462.532138,-2886.803174,-7846.182985,689.485948
462.532465,-1702.473667,-7772.162391,153.219100
462.532793,-2294.638420,-8068.244768,536.266849
462.533120,-3034.844362,-8216.285956,-459.657299
462.533448,-3552.988522,-8364.327145,-1072.533697
462.533776,-2590.720797,-7402.059420,-1838.629195
462.534103,0.000000,-7476.080014,-995.924147
462.534431,2368.659014,-7179.997637,153.219100
462.534758,2812.782580,-7846.182985,995.924147
462.535086,2220.617826,-9252.574275,1455.581446
462.535413,666.185348,-10658.965565,842.705048
462.535741,-814.226536,-11103.089130,-306.438199
462.536068,-518.144159,-10881.027347,-459.657299
462.536396,1110.308913,-10288.862594,0.000000
462.536723,2516.700203,-9918.759623,1149.143247
462.537051,3182.885551,-10066.800811,1838.629195
462.537378,3034.844362,-10140.821405,1762.019645
462.537706,1184.329507,-10066.800811,1149.143247
462.538034,1036.288319,-9622.677246,536.266849
462.538361,1406.391290,-9104.533087,306.438199
462.538689,1184.329507,-8438.347739,306.438199
462.539016,0.000000,-8956.491898,1149.143247
462.539344,-962.267725,-9622.677246,919.314598
462.539671,-2664.741391,-9548.656652,0.000000
462.539999,-3256.906145,-9104.533087,-689.485948
462.540326,-2516.700203,-8290.306550,-766.095498
462.540654,-1406.391290,-7920.203579,-383.047749
462.540981,-1036.288319,-8364.327145,-612.876398
462.541309,-1480.411884,-8438.347739,-229.828649
462.541636,-2664.741391,-8586.388927,-689.485948
462.541964,-2442.679609,-8364.327145,-1455.581446
462.542291,-1110.308913,-8142.265362,-1225.752797
462.542619,962.267725,-7994.224174,-842.705048
462.542947,2146.597232,-8142.265362,919.314598
462.543274,1850.514855,-9326.594869,1302.362347
462.543602,222.061783,-9992.780217,1072.533697
462.543929,-888.247130,-10807.006753,229.828649
462.544257,-1480.411884,-10436.903782,-612.876398
462.544584,0.000000,-9918.759623,0.000000
462.544912,2294.638420,-9548.656652,689.485948
462.545239,2812.782580,-9400.615463,1838.629195
462.545567,2664.741391,-9474.636058,1838.629195
462.545894,1628.453072,-9474.636058,2221.676944
462.546222,592.164754,-9400.615463,1072.533697
462.546549,444.123565,-9104.533087,536.266849
462.546877,888.247130,-8734.430116,766.095498
462.547204,518.144159,-8438.347739,1072.533697
462.547532,-592.164754,-9252.574275,1455.581446
462.547860,-1258.350101,-9696.697840,1302.362347
462.548187,-2738.761985,-10066.800811,229.828649
462.548515,-2516.700203,-9178.553681,0.000000
462.548842,-1258.350101,-8808.450710,306.438199
462.549170,-592.164754,-8586.388927,689.485948
462.549497,-1110.308913,-8290.306550,306.438199
462.549825,-1776.494261,-8734.430116,842.705048
462.550152,-2294.638420,-8660.409521,0.000000
462.550480,-1850.514855,-8438.347739,0.000000
462.550807,0.000000,-8068.244768,459.657299
462.551135,1110.308913,-7994.224174,1302.362347
462.551462,1776.494261,-8956.491898,2221.676944
462.551790,0.000000,-9696.697840,2068.457845
462.552118,-2072.576638,-10140.821405,995.924147
462.552445,-2960.823768,-10362.883188,229.828649
462.552773,-2072.576638,-9622.677246,459.657299
462.553100,-518.144159,-8882.471304,766.095498
462.553428,1110.308913,-8660.409521,1455.581446
462.553755,1406.391290,-8586.388927,1685.410096
462.554083,592.164754,-8882.471304,1685.410096
462.554410,-518.144159,-9104.533087,919.314598
462.554738,-592.164754,-8586.388927,536.266849
462.555065,74.020594,-8586.388927,383.047749
462.555393,666.185348,-8586.388927,842.705048
462.555720,518.144159,-8882.471304,1225.752797
462.556048,-592.164754,-9400.615463,1149.143247
462.556375,-1924.535449,-9770.718434,689.485948
462.556703,-2516.700203,-9474.636058,153.219100
462.557031,-1258.350101,-8956.491898,153.219100
462.557358,-148.041188,-8364.327145,612.876398
462.557686,0.000000,-8586.388927,766.095498
462.558013,-962.267725,-8660.409521,306.438199
462.558341,-1998.556043,-8882.471304,-689.485948
462.558668,-2368.659014,-8956.491898,-919.314598
462.558996,-370.102971,-8290.306550,-536.266849
462.559323,1406.391290,-7698.141797,229.828649
462.559651,2442.679609,-7476.080014,1072.533697
462.559978,2590.720797,-8364.327145,1762.019645
462.560306,222.061783,-9474.636058,1225.752797
462.560633,-1628.453072,-10214.842000,0.000000
462.560961,-2294.638420,-10066.800811,-536.266849
462.561289,-1110.308913,-9474.636058,-383.047749
462.561616,592.164754,-8660.409521,536.266849
462.561944,1406.391290,-8586.388927,995.924147
462.562271,888.247130,-9104.533087,1149.143247
462.562599,0.000000,-9326.594869,536.266849
462.562926,-740.205942,-9030.512492,-153.219100
462.563254,0.000000,-8216.285956,-383.047749
462.563581,740.205942,-8512.368333,0.000000
462.563909,814.226536,-8512.368333,229.828649
462.564236,592.164754,-9400.615463,995.924147
462.564564,-740.205942,-9548.656652,536.266849
462.564891,-1628.453072,-9474.636058,153.219100
462.565219,-1110.308913,-9474.636058,-229.828649
462.565546,-370.102971,-9178.553681,306.438199
462.565874,0.000000,-8882.471304,383.047749
462.566202,-370.102971,-9474.636058,306.438199
462.566529,-1702.473667,-10066.800811,229.828649
462.566857,-2368.659014,-9844.739029,-766.095498
462.567184,-1480.411884,-9104.533087,-1149.143247
462.567512,962.267725,-8438.347739,-383.047749
462.567839,2590.720797,-8364.327145,536.266849
462.568167,2664.741391,-8512.368333,1302.362347
462.568494,1258.350101,-9548.656652,1455.581446
462.568822,-1406.391290,-10510.924376,76.609550
462.569149,-2220.617826,-10584.944971,-612.876398
462.569477,-1036.288319,-10288.862594,-459.657299
462.569804,370.102971,-9844.739029,229.828649
462.570132,1628.453072,-9474.636058,1762.019645
462.570460,2220.617826,-10140.821405,2145.067394
462.570787,888.247130,-10066.800811,1762.019645
462.571115,0.000000,-9918.759623,1149.143247
462.571442,-222.061783,-9548.656652,689.485948
462.571770,222.061783,-9326.594869,766.095498
462.572097,592.164754,-9252.574275,2145.067394
462.572425,666.185348,-9770.718434,1991.848295
462.572752,-592.164754,-10436.903782,2145.067394
462.573080,-1332.370696,-10288.862594,1532.190996
462.573407,-1258.350101,-10066.800811,1378.971896
462.573735,-666.185348,-8956.491898,1225.752797
462.574062,-444.123565,-9178.553681,1608.800546
462.574390,-1110.308913,-8956.491898,1685.410096
462.574717,-2072.576638,-9252.574275,1455.581446
462.575045,-3108.864956,-9030.512492,536.266849
462.575373,-2442.679609,-8586.388927,459.657299
462.575700,-592.164754,-7698.141797,766.095498
462.576028,888.247130,-7105.977043,1608.800546
462.576355,1110.308913,-7550.100608,2298.286494
462.576683,0.000000,-8734.430116,2374.896044
462.577010,-2146.597232,-9326.594869,1455.581446
462.577338,-3627.009116,-9474.636058,0.000000
462.577665,-3034.844362,-9622.677246,-229.828649
462.577993,-1776.494261,-8956.491898,-153.219100
462.578320,370.102971,-8586.388927,919.314598
462.578648,1036.288319,-8512.368333,1378.971896
462.578975,222.061783,-8142.265362,919.314598
462.579303,-814.226536,-8660.409521,306.438199
462.579631,-1332.370696,-8290.306550,-766.095498
462.579958,-444.123565,-8142.265362,-689.485948
462.580286,888.247130,-7920.203579,0.000000
462.580613,1850.514855,-7846.182985,1072.533697
462.580941,1554.432478,-9178.553681,842.705048
462.581268,222.061783,-9326.594869,612.876398
462.581596,-666.185348,-9400.615463,-229.828649
462.581923,0.000000,-9252.574275,-153.219100
462.582251,888.247130,-8660.409521,-766.095498
462.582578,666.185348,-8808.450710,306.438199
462.582906,814.226536,-8956.491898,76.609550
462.583233,-222.061783,-9178.553681,-383.047749
462.583561,-592.164754,-8808.450710,-1149.143247
462.583888,444.123565,-8142.265362,-1072.533697
462.584216,2294.638420,-7994.224174,0.000000
462.584544,2738.761985,-7772.162391,459.657299
462.584871,2220.617826,-8438.347739,842.705048
462.585199,-370.102971,-9622.677246,229.828649
462.585526,-2368.659014,-10436.903782,-689.485948
462.585854,-2886.803174,-10140.821405,-1532.190996
462.586181,-2072.576638,-9622.677246,-919.314598
462.586509,222.061783,-9326.594869,153.219100
462.586836,962.267725,-9252.574275,1149.143247
462.587164,592.164754,-9400.615463,1149.143247
462.587491,-370.102971,-9474.636058,612.876398
462.587819,-1850.514855,-9474.636058,-153.219100
462.588146,-1332.370696,-9104.533087,-383.047749
462.588474,0.000000,-8734.430116,-229.828649
462.588802,1184.329507,-8660.409521,919.314598
462.589129,1258.350101,-8882.471304,1685.410096
462.589457,74.020594,-9696.697840,1762.019645
462.589784,-1258.350101,-9770.718434,1302.362347
462.590112,-1776.494261,-9770.718434,842.705048
462.590439,-740.205942,-9474.636058,1378.971896
462.590767,-444.123565,-9030.512492,1915.238745
462.591094,-148.041188,-9178.553681,1378.971896
462.591422,-666.185348,-9548.656652,1762.019645
462.591749,-1110.308913,-9474.636058,1838.629195
462.592077,-814.226536,-8882.471304,1149.143247
462.592404,148.041188,-8512.368333,1685.410096
462.592732,1406.391290,-8216.285956,2221.676944
462.593059,888.247130,-8660.409521,2298.286494
462.593387,-962.267725,-9252.574275,1838.629195
462.593715,-2442.679609,-10066.800811,1072.533697
462.594042,-3627.009116,-9844.739029,0.000000
462.594370,-2516.700203,-9178.553681,153.219100
462.594697,-888.247130,-8808.450710,612.876398
462.595025,148.041188,-8364.327145,1302.362347
462.595352,222.061783,-8660.409521,1685.410096
462.595680,-962.267725,-8882.471304,1302.362347
462.596007,-1998.556043,-8660.409521,76.609550
462.596335,-1924.535449,-8956.491898,-459.657299
462.596662,-962.267725,-8290.306550,-306.438199
462.596990,444.123565,-8142.265362,536.266849
462.597317,1184.329507,-8216.285956,1072.533697
462.597645,888.247130,-8956.491898,1302.362347
462.597973,-370.102971,-9474.636058,459.657299
462.598300,-1258.350101,-9474.636058,-229.828649
462.598628,-592.164754,-9326.594869,-306.438199
462.598955,740.205942,-8734.430116,-153.219100
462.599283,1702.473667,-8808.450710,766.095498
462.599610,2220.617826,-9474.636058,919.314598
462.599938,814.226536,-9474.636058,766.095498
462.600265,814.226536,-9474.636058,0.000000
462.600593,1332.370696,-9104.533087,229.828649
462.600920,2072.576638,-8586.388927,842.705048
462.601248,2294.638420,-9104.533087,919.314598
462.601575,1258.350101,-9992.780217,1915.238745
462.601903,-888.247130,-10510.924376,1072.533697
462.602230,-2368.659014,-10807.006753,76.609550
462.602558,-3182.885551,-10288.862594,-689.485948
462.602886,-1776.494261,-9474.636058,-306.438199
462.603213,-296.082377,-8956.491898,76.609550
462.603541,0.000000,-8290.306550,76.609550
462.603868,-592.164754,-8364.327145,0.000000
462.604196,-2072.576638,-8734.430116,-459.657299
462.604523,-3034.844362,-8216.285956,-995.924147
462.604851,-2442.679609,-7920.203579,-1685.410096
462.605178,-1036.288319,-7994.224174,-995.924147
462.605506,222.061783,-8216.285956,-306.438199
462.605833,74.020594,-8808.450710,229.828649
462.606161,-814.226536,-9622.677246,919.314598
462.606488,-1776.494261,-10214.842000,0.000000
462.606816,-1850.514855,-9770.718434,-919.314598
462.607144,-666.185348,-9400.615463,-689.485948
462.607471,814.226536,-9178.553681,0.000000
462.607799,1924.535449,-9252.574275,459.657299
462.608126,1924.535449,-9326.594869,842.705048
462.608454,1406.391290,-9474.636058,76.609550
462.608781,2072.576638,-8956.491898,306.438199
462.609109,3108.864956,-8142.265362,689.485948
462.609436,3849.070898,-8512.368333,1685.410096
462.609764,3552.988522,-8734.430116,2451.505594
462.610091,1702.473667,-10066.800811,2528.115143
462.610419,0.000000,-10658.965565,1838.629195
462.610746,-1850.514855,-10510.924376,1225.752797
462.611074,-1480.411884,-10362.883188,842.705048
462.611401,0.000000,-9696.697840,1378.971896
462.611729,0.000000,-8882.471304,2298.286494
462.612057,-814.226536,-9252.574275,1838.629195
462.612384,-2294.638420,-9178.553681,1072.533697
462.612712,-3478.967927,-8882.471304,0.000000
462.613039,-3034.844362,-8142.265362,-306.438199
462.613367,-1998.556043,-7328.038826,0.000000
462.613694,-666.185348,-7476.080014,766.095498
462.614022,-222.061783,-7920.203579,1532.190996
462.614349,-1332.370696,-8660.409521,1762.019645
462.614677,-2442.679609,-9400.615463,1149.143247
462.615004,-2812.782580,-9326.594869,842.705048
462.615332,-1998.556043,-9474.636058,612.876398
462.615659,-740.205942,-9178.553681,919.314598
462.615987,148.041188,-9622.677246,1378.971896
462.616314,74.020594,-9918.759623,1685.410096
462.616642,-222.061783,-9696.697840,1378.971896
462.616970,74.020594,-9622.677246,842.705048
462.617297,1702.473667,-8882.471304,689.485948
462.617625,3256.906145,-8734.430116,1608.800546
462.617952,3552.988522,-8882.471304,1915.238745
462.618280,2368.659014,-9400.615463,2221.676944
462.618607,74.020594,-10214.842000,1762.019645
462.618935,-1110.308913,-10807.006753,612.876398
462.619262,-1998.556043,-10066.800811,-306.438199
462.619588,-962.267725,-9770.718434,76.609550
462.619916,666.185348,-8956.491898,995.924147
462.620243,740.205942,-9104.533087,995.924147
462.620571,-740.205942,-9252.574275,383.047749
462.620898,-2072.576638,-9030.512492,-612.876398
462.621226,-3256.906145,-8734.430116,-1302.362347
462.621553,-2072.576638,-8216.285956,-1915.238745
462.621881,-814.226536,-7550.100608,-536.266849
462.622208,444.123565,-7624.121203,-153.219100
462.622536,148.041188,-8068.244768,383.047749
462.622863,-740.205942,-8882.471304,-229.828649
462.623191,-2220.617826,-9178.553681,-1225.752797
462.623518,-2294.638420,-8808.450710,-1149.143247
462.623845,-518.144159,-8734.430116,-689.485948
462.624173,592.164754,-8438.347739,0.000000
462.624500,1554.432478,-8660.409521,76.609550
462.624828,1702.473667,-8882.471304,459.657299
462.625155,1184.329507,-8734.430116,306.438199
462.625483,1998.556043,-8586.388927,689.485948
462.625810,2442.679609,-8068.244768,1302.362347
462.626138,2960.823768,-8216.285956,1838.629195
462.626465,2220.617826,-9474.636058,2221.676944
462.626793,444.123565,-10288.862594,2068.457845
462.627120,-1036.288319,-10510.924376,1608.800546
462.627448,-1924.535449,-9918.759623,229.828649
462.627775,-1406.391290,-9770.718434,766.095498
462.628103,444.123565,-8660.409521,1149.143247
462.628430,518.144159,-9104.533087,1608.800546
462.628758,-1184.329507,-7994.224174,1149.143247
462.629085,-2294.638420,-8808.450710,0.000000
462.629413,-3775.050304,-8142.265362,-1072.533697
462.629740,-3627.009116,-7846.182985,-1532.190996
462.630068,-1554.432478,-7254.018232,-766.095498
462.630395,-296.082377,-7402.059420,536.266849
462.630723,370.102971,-7254.018232,689.485948
462.631050,-1406.391290,-8512.368333,383.047749
462.631377,-2886.803174,-9770.718434,153.219100
462.631705,-2960.823768,-9992.780217,-536.266849
462.632032,-1850.514855,-9918.759623,-536.266849
462.632360,370.102971,-9326.594869,766.095498
462.632687,1110.308913,-9548.656652,1072.533697
462.633015,1628.453072,-9992.780217,1532.190996
462.633342,1258.350101,-9992.780217,1455.581446
462.633670,1554.432478,-9770.718434,1225.752797
462.633997,2738.761985,-9104.533087,1532.190996
462.634325,3923.091493,-9326.594869,1991.848295
462.634652,3552.988522,-9844.739029,2757.943793
462.634980,2368.659014,-10658.965565,2911.162892
462.635307,666.185348,-11029.068536,2451.505594
462.635635,-1036.288319,-10288.862594,995.924147
462.635962,-1184.329507,-10732.986159,1225.752797
462.636290,296.082377,-9992.780217,1302.362347
462.636617,-222.061783,-9992.780217,1838.629195
462.636945,-1406.391290,-9474.636058,1838.629195
462.637272,-3108.864956,-9474.636058,612.876398
462.637600,-4145.153275,-9326.594869,-383.047749
462.637927,-4811.338623,-8734.430116,-1072.533697
462.638255,-2812.782580,-7920.203579,-766.095498
462.638582,-1702.473667,-7031.956449,0.000000
462.638909,-444.123565,-6883.915261,229.828649
462.639237,-1184.329507,-7772.162391,536.266849
462.639564,-2516.700203,-8438.347739,-229.828649
462.639892,-3849.070898,-9030.512492,-1149.143247
462.640219,-3330.926739,-8734.430116,-1455.581446
462.640547,-1480.411884,-8364.327145,-689.485948
462.640874,888.247130,-8586.388927,536.266849
462.641202,1332.370696,-8660.409521,842.705048
462.641529,1332.370696,-9548.656652,919.314598
462.641857,1332.370696,-9474.636058,536.266849
462.642184,1924.535449,-9326.594869,76.609550
462.642512,3701.029710,-8882.471304,1302.362347
462.642839,3997.112087,-9030.512492,1455.581446
462.643167,4219.173869,-9696.697840,2068.457845
462.643494,2516.700203,-10510.924376,1608.800546
462.643822,740.205942,-10584.944971,689.485948
462.644149,-296.082377,-9918.759623,306.438199
462.644477,148.041188,-9770.718434,766.095498
462.644804,1110.308913,-9178.553681,306.438199
462.645132,-148.041188,-8808.450710,995.924147
462.645459,0.000000,-8660.409521,153.219100
462.645787,-2220.617826,-8882.471304,-229.828649
462.646114,-3108.864956,-8068.244768,-1378.971896
462.646441,-2368.659014,-7254.018232,-1685.410096
462.646769,-1332.370696,-7476.080014,-842.705048
462.647096,-296.082377,-7105.977043,0.000000
462.647424,-370.102971,-7920.203579,459.657299
462.647751,-2220.617826,-8586.388927,153.219100
462.648079,-3182.885551,-9030.512492,-1302.362347
462.648406,-3330.926739,-9252.574275,-1378.971896
462.648734,-1776.494261,-8808.450710,-1072.533697
462.649061,222.061783,-8364.327145,0.000000
462.649389,1628.453072,-8438.347739,1072.533697
462.649716,1480.411884,-8586.388927,1149.143247
462.650044,1332.370696,-9030.512492,1149.143247
462.650371,1258.350101,-8882.471304,995.924147
462.650699,2146.597232,-9252.574275,1532.190996
462.651026,2738.761985,-8808.450710,2221.676944
462.651354,2738.761985,-9992.780217,2604.724693
462.651681,1480.411884,-11177.109724,2757.943793
462.652009,-222.061783,-11769.274478,2451.505594
462.652336,-1628.453072,-11177.109724,1532.190996
462.652664,-1406.391290,-10807.006753,1302.362347
462.652991,-222.061783,-10066.800811,1991.848295
462.653319,222.061783,-9178.553681,1302.362347
462.653646,-1406.391290,-8734.430116,1762.019645
462.653974,-1554.432478,-8290.306550,612.876398
462.654301,-3404.947333,-8660.409521,0.000000
462.654628,-3478.967927,-7994.224174,-689.485948
462.654956,-2294.638420,-7402.059420,0.000000
462.655283,-1702.473667,-7105.977043,536.266849
462.655611,-1036.288319,-7698.141797,1149.143247
462.655938,-2072.576638,-8734.430116,995.924147
462.656266,-3552.988522,-9326.594869,306.438199
462.656593,-3701.029710,-9474.636058,-383.047749
462.656921,-3256.906145,-9252.574275,-1072.533697
462.657248,-1258.350101,-8882.471304,-459.657299
462.657576,740.205942,-8660.409521,383.047749
462.657903,1480.411884,-8808.450710,766.095498
462.658231,1036.288319,-8882.471304,842.705048
462.658558,1258.350101,-9178.553681,459.657299
462.658886,1924.535449,-9030.512492,229.828649
462.659213,3108.864956,-9104.533087,919.314598
462.659541,3552.988522,-8956.491898,1915.238745
462.659868,3478.967927,-9918.759623,2145.067394
462.660196,2368.659014,-10807.006753,2221.676944
462.660523,740.205942,-10955.047942,1838.629195
462.660851,0.000000,-10584.944971,1225.752797
462.661178,148.041188,-10288.862594,612.876398
462.661506,370.102971,-9622.677246,919.314598
462.661833,1184.329507,-9104.533087,1762.019645
462.662160,-592.164754,-9770.718434,919.314598
462.662488,-2442.679609,-9252.574275,76.609550
462.662815,-3034.844362,-9030.512492,-995.924147
462.663143,-2590.720797,-8068.244768,-689.485948
462.663470,-1924.535449,-7031.956449,-919.314598
462.663798,-1036.288319,-7328.038826,-153.219100
462.664125,-1776.494261,-8364.327145,0.000000
462.664453,-3404.947333,-8882.471304,-612.876398
462.664780,-4515.256246,-9104.533087,-1378.971896
462.665108,-4663.297435,-8956.491898,-1991.848295
462.665435,-2442.679609,-8290.306550,-2068.457845
462.665763,-296.082377,-8290.306550,-919.314598
462.666090,1628.453072,-8068.244768,153.219100
462.666418,1702.473667,-8734.430116,383.047749
462.666745,1332.370696,-9104.533087,0.000000
462.667073,1480.411884,-9326.594869,0.000000
462.667400,2812.782580,-9252.574275,383.047749
462.667728,3997.112087,-9548.656652,1225.752797
462.668055,4367.215058,-9844.739029,1915.238745
462.668383,3849.070898,-10658.965565,2451.505594
462.668710,2442.679609,-10881.027347,2451.505594
462.669038,1332.370696,-10807.006753,1685.410096
462.669365,1110.308913,-10584.944971,1762.019645
462.669692,1406.391290,-9696.697840,1149.143247
462.670020,814.226536,-9844.739029,2068.457845
462.670347,444.123565,-9178.553681,1915.238745
462.670675,-2368.659014,-10288.862594,459.657299
462.671002,-3552.988522,-9104.533087,0.000000
462.671330,-3404.947333,-8512.368333,-766.095498
462.671657,-2146.597232,-7550.100608,-536.266849
462.671985,-1776.494261,-6957.935855,612.876398
462.672312,-1110.308913,-7179.997637,919.314598
462.672640,-2960.823768,-7994.224174,459.657299
462.672967,-4663.297435,-8808.450710,-306.438199
462.673295,-5255.462188,-8586.388927,-919.314598
462.673622,-4811.338623,-8734.430116,-766.095498
462.673950,-2220.617826,-7920.203579,-536.266849
462.674277,-1036.288319,-7846.182985,383.047749
462.674605,0.000000,-7920.203579,919.314598
462.674932,148.041188,-8290.306550,612.876398
462.675260,-296.082377,-7698.141797,536.266849
462.675587,1702.473667,-8142.265362,383.047749
462.675915,2738.761985,-8216.285956,842.705048
462.676242,3997.112087,-8586.388927,1838.629195
462.676570,3627.009116,-9770.718434,2374.896044
462.676897,2664.741391,-10881.027347,2681.334243
462.677224,1110.308913,-11325.150913,2374.896044
462.677552,1184.329507,-11325.150913,1608.800546
462.677879,1554.432478,-10732.986159,1762.019645
462.678207,2220.617826,-10066.800811,2298.286494
462.678534,2072.576638,-10214.842000,2757.943793
462.678862,0.000000,-9548.656652,1378.971896
462.679189,-1628.453072,-9844.739029,919.314598
462.679517,-2072.576638,-8216.285956,-383.047749
462.679844,-2072.576638,-8216.285956,-229.828649
462.680172,-814.226536,-7402.059420,0.000000
462.680499,-222.061783,-7550.100608,383.047749
462.680827,-2294.638420,-8290.306550,383.047749
462.681154,-3701.029710,-8586.388927,-689.485948
462.681482,-5255.462188,-9030.512492,-1685.410096
462.681809,-4885.359217,-9030.512492,-2298.286494
462.682137,-2590.720797,-8586.388927,-1302.362347
462.682464,-296.082377,-8660.409521,-459.657299
462.682792,814.226536,-8512.368333,459.657299
462.683119,888.247130,-9104.533087,689.485948
462.683447,370.102971,-9400.615463,229.828649
462.683774,518.144159,-9400.615463,0.000000
462.684102,1702.473667,-9030.512492,459.657299
462.684429,2886.803174,-9548.656652,1378.971896
462.684756,3478.967927,-10362.883188,2451.505594
462.685084,2738.761985,-11103.089130,2528.115143
462.685411,1702.473667,-11547.212695,2145.067394
462.685739,666.185348,-10732.986159,1378.971896
462.686066,814.226536,-10955.047942,1378.971896
462.686394,1332.370696,-9918.759623,1685.410096
462.686721,1406.391290,-9622.677246,1378.971896
462.687049,148.041188,-9622.677246,1838.629195
462.687376,-1628.453072,-9104.533087,1302.362347
462.687704,-3256.906145,-8882.471304,76.609550
462.688031,-2368.659014,-7624.121203,-459.657299
462.688359,-1850.514855,-7920.203579,459.657299
462.688686,-1406.391290,-7179.997637,536.266849
462.689014,-1480.411884,-7920.203579,919.314598
462.689341,-3256.906145,-8068.244768,0.000000
462.689669,-4885.359217,-8438.347739,-1225.752797
462.689996,-4959.379811,-8290.306550,-1685.410096
462.690324,-3701.029710,-7550.100608,-1685.410096
462.690651,-1036.288319,-6883.915261,-995.924147
462.690979,222.061783,-6957.935855,229.828649
462.691306,814.226536,-7772.162391,153.219100
462.691634,370.102971,-8290.306550,0.000000
462.691961,0.000000,-8808.450710,-383.047749
462.692288,1110.308913,-8808.450710,-306.438199
462.692616,3256.906145,-9030.512492,689.485948
462.692943,3849.070898,-9178.553681,1762.019645
462.693271,3849.070898,-9844.739029,2451.505594
462.693598,2738.761985,-10881.027347,2451.505594
462.693926,1332.370696,-11251.130318,1991.848295
462.694253,814.226536,-10658.965565,1455.581446
462.694581,1036.288319,-10584.944971,1225.752797
462.694908,1258.350101,-9918.759623,1532.190996
462.695236,296.082377,-9696.697840,1302.362347
462.695563,-518.144159,-9770.718434,1455.581446
462.695891,-1184.329507,-9178.553681,153.219100
462.696218,-2960.823768,-8808.450710,-306.438199
462.696546,-1332.370696,-8142.265362,-612.876398
462.696873,-888.247130,-7846.182985,76.609550
462.697201,-962.267725,-7994.224174,383.047749
462.697528,-1554.432478,-8512.368333,919.314598
462.697856,-3701.029710,-9400.615463,0.000000
462.698183,-4589.276840,-9474.636058,-1072.533697
462.698511,-3923.091493,-9474.636058,-1149.143247
462.698838,-2294.638420,-8882.471304,-842.705048
462.699166,-518.144159,-8660.409521,0.000000
462.699493,148.041188,-8068.244768,306.438199
462.699820,-148.041188,-9548.656652,306.438199
462.700148,-444.123565,-9474.636058,-153.219100
462.700475,74.020594,-9400.615463,-383.047749
462.700803,2146.597232,-9104.533087,536.266849
462.701130,3923.091493,-8660.409521,2145.067394
462.701458,4441.235652,-9770.718434,2298.286494
462.701785,2738.761985,-10881.027347,2451.505594
462.702113,1332.370696,-11547.212695,1991.848295
462.702440,296.082377,-11621.233289,1455.581446
462.702768,740.205942,-11399.171507,1991.848295
462.703095,1554.432478,-10807.006753,2528.115143
462.703423,1258.350101,-10510.924376,2298.286494
462.703750,518.144159,-10510.924376,2221.676944
462.704078,-1850.514855,-10214.842000,1378.971896
462.704405,-2146.597232,-9696.697840,766.095498
462.704733,-1554.432478,-8290.306550,153.219100
462.705060,-1480.411884,-8290.306550,612.876398
462.705388,-962.267725,-7920.203579,995.924147
462.705715,-1554.432478,-8512.368333,995.924147
462.706043,-3627.009116,-9178.553681,229.828649
462.706370,-4441.235652,-8586.388927,-766.095498
462.706698,-4811.338623,-8882.471304,-1378.971896
462.707025,-3182.885551,-8364.327145,-1225.752797
462.707352,-888.247130,-7846.182985,-306.438199
462.707680,-222.061783,-7624.121203,229.828649
462.708007,296.082377,-7772.162391,536.266849
462.708335,-444.123565,-8216.285956,0.000000
462.708662,-222.061783,-8216.285956,-459.657299
462.708990,1184.329507,-8068.244768,-383.047749
462.709317,2886.803174,-7920.203579,612.876398
462.709645,3997.112087,-8438.347739,1762.019645
462.709972,3849.070898,-9474.636058,2451.505594
462.710300,2368.659014,-10288.862594,2068.457845
462.710627,962.267725,-10584.944971,1149.143247
462.710955,1110.308913,-10510.924376,1072.533697
462.711282,1332.370696,-9918.759623,995.924147
462.711610,1924.535449,-9622.677246,1608.800546
462.711937,1776.494261,-9326.594869,1302.362347
462.712265,888.247130,-9400.615463,1225.752797
462.712592,-1036.288319,-8586.388927,-153.219100
462.712920,-1332.370696,-7994.224174,-229.828649
462.713247,-296.082377,-6809.894666,-383.047749
462.713575,-370.102971,-7105.977043,306.438199
462.713902,-592.164754,-7179.997637,459.657299
462.714230,-1998.556043,-8068.244768,612.876398
462.714557,-4145.153275,-8734.430116,-306.438199
462.714884,-4885.359217,-8364.327145,-536.266849
462.715212,-4145.153275,-8216.285956,-1455.581446
462.715539,-2442.679609,-7402.059420,-995.924147
462.715867,-370.102971,-7254.018232,-306.438199
462.716194,-370.102971,-7550.100608,0.000000
462.716522,-666.185348,-7994.224174,459.657299
462.716849,-814.226536,-8290.306550,-459.657299
462.717177,-444.123565,-8438.347739,-766.095498
462.717504,1184.329507,-8290.306550,-459.657299
462.717832,2590.720797,-8660.409521,1149.143247
462.718159,3330.926739,-9474.636058,2145.067394
462.718487,2664.741391,-10436.903782,2451.505594
462.718815,1184.329507,-11251.130318,2298.286494
462.719142,518.144159,-11621.233289,1455.581446
462.719470,740.205942,-11399.171507,1455.581446
462.719797,1258.350101,-10955.047942,1991.848295
462.720125,1850.514855,-10807.006753,2221.676944
462.720453,814.226536,-10362.883188,2298.286494
462.720780,-148.041188,-10066.800811,1685.410096
462.721108,-1332.370696,-9770.718434,689.485948
462.721435,-518.144159,-9030.512492,766.095498
462.721763,222.061783,-7402.059420,1608.800546
462.722090,74.020594,-7920.203579,1149.143247
462.722418,-1184.329507,-8808.450710,1149.143247
462.722746,-3182.885551,-9474.636058,612.876398
462.723073,-4885.359217,-9844.739029,0.000000
462.723401,-5403.503377,-9474.636058,-536.266849
462.723728,-3330.926739,-9030.512492,-153.219100
462.724056,-2220.617826,-8956.491898,536.266849
462.724383,-1110.308913,-8438.347739,459.657299
462.724711,-2072.576638,-9104.533087,153.219100
462.725039,-2664.741391,-9104.533087,-612.876398
462.725366,-2294.638420,-8882.471304,-383.047749
462.725694,-740.205942,-8586.388927,-612.876398
462.726021,1480.411884,-8438.347739,306.438199
462.726349,2738.761985,-8882.471304,1455.581446
462.726676,2812.782580,-10066.800811,2221.676944
462.727004,1184.329507,-10288.862594,1685.410096
462.727332,222.061783,-11177.109724,1149.143247
462.727659,74.020594,-10807.006753,766.095498
462.727987,1406.391290,-10362.883188,1149.143247
462.728314,2294.638420,-9622.677246,1608.800546
462.728642,2368.659014,-9474.636058,2298.286494
462.728970,1480.411884,-9474.636058,1685.410096
462.729297,74.020594,-9178.553681,842.705048
462.729625,444.123565,-8660.409521,1072.533697
462.729952,888.247130,-7550.100608,459.657299
462.730280,-148.041188,-7550.100608,1302.362347
462.730607,518.144159,-7550.100608,842.705048
462.730935,-2072.576638,-8660.409521,842.705048
462.731263,-3775.050304,-9030.512492,-229.828649
462.731590,-4219.173869,-8586.388927,-1225.752797
462.731918,-3627.009116,-8586.388927,-919.314598
462.732245,-1998.556043,-7846.182985,-536.266849
462.732573,-1036.288319,-7402.059420,0.000000
462.732900,-1628.453072,-7994.224174,-229.828649
462.733228,-1998.556043,-8290.306550,-995.924147
462.733556,-2294.638420,-8364.327145,-1685.410096
462.733883,-1332.370696,-7698.141797,-1302.362347
462.734211,1110.308913,-8068.244768,-306.438199
462.734538,2368.659014,-7920.203579,689.485948
462.734866,2738.761985,-8808.450710,1608.800546
462.735194,1924.535449,-9696.697840,1302.362347
462.735521,518.144159,-9918.759623,1608.800546
462.735849,0.000000,-10510.924376,995.924147
462.736176,666.185348,-10510.924376,689.485948
462.736504,1554.432478,-10214.842000,1455.581446
462.736831,2220.617826,-9918.759623,1685.410096
462.737159,1850.514855,-10066.800811,1608.800546
462.737487,1184.329507,-9992.780217,1455.581446
462.737814,666.185348,-9326.594869,1149.143247
462.738142,1110.308913,-9030.512492,1225.752797
462.738469,592.164754,-8586.388927,919.314598
462.738797,592.164754,-9178.553681,1838.629195
462.739124,-518.144159,-9326.594869,1608.800546
462.739452,-2886.803174,-10214.842000,766.095498
462.739780,-4293.194464,-9770.718434,0.000000
462.740107,-3701.029710,-9474.636058,-612.876398
462.740435,-3108.864956,-9104.533087,0.000000
462.740762,-1480.411884,-8216.285956,459.657299
462.741090,-1258.350101,-8364.327145,459.657299
462.741417,-2590.720797,-8660.409521,-383.047749
462.741745,-2664.741391,-8512.368333,-1149.143247
462.742073,-2368.659014,-8438.347739,-1455.581446
462.742400,74.020594,-7772.162391,-766.095498
462.742728,1776.494261,-7328.038826,612.876398
462.743055,2590.720797,-8512.368333,1302.362347
462.743383,1998.556043,-9548.656652,1685.410096
462.743711,740.205942,-10658.965565,1072.533697
462.744038,-222.061783,-10955.047942,612.876398
462.744366,296.082377,-10955.047942,1072.533697
462.744693,1776.494261,-10658.965565,995.924147
462.745021,2886.803174,-10288.862594,1685.410096
462.745348,2886.803174,-10214.842000,2145.067394
462.745676,1924.535449,-10362.883188,1838.629195
462.746004,666.185348,-9992.780217,1378.971896
462.746331,740.205942,-9326.594869,919.314598
462.746659,1184.329507,-9104.533087,1455.581446
462.746986,1258.350101,-8808.450710,842.705048
462.747314,-296.082377,-9178.553681,1915.238745
462.747641,-814.226536,-8808.450710,1225.752797
462.747969,-3552.988522,-9622.677246,229.828649
462.748297,-4293.194464,-9326.594869,-459.657299
462.748624,-3552.988522,-8438.347739,-612.876398
462.748952,-2960.823768,-8142.265362,-306.438199
462.749279,-2368.659014,-7772.162391,-153.219100
462.749607,-2368.659014,-7846.182985,229.828649
462.749935,-3182.885551,-7846.182985,-842.705048
462.750262,-2590.720797,-7772.162391,-1302.362347
462.750590,-1406.391290,-7105.977043,-1149.143247
462.750917,666.185348,-7105.977043,-306.438199
462.751245,2516.700203,-7402.059420,1072.533697
462.751572,1776.494261,-8438.347739,1455.581446
462.751900,740.205942,-9696.697840,995.924147
462.752228,0.000000,-10510.924376,766.095498
462.752555,0.000000,-10658.965565,306.438199
462.752883,1258.350101,-9844.739029,76.609550
462.753210,2368.659014,-9696.697840,919.314598
462.753538,2590.720797,-9622.677246,1608.800546
462.753865,1924.535449,-9770.718434,1225.752797
462.754193,1036.288319,-9992.780217,919.314598
462.754521,296.082377,-9252.574275,383.047749
462.754848,1036.288319,-8512.368333,459.657299
462.755176,1924.535449,-8660.409521,919.314598
462.755503,962.267725,-8438.347739,919.314598
462.755831,0.000000,-9252.574275,1455.581446
462.756158,-1036.288319,-9104.533087,1072.533697
462.756486,-3108.864956,-9400.615463,229.828649
462.756814,-3034.844362,-8882.471304,-229.828649
462.757141,-1850.514855,-8586.388927,-153.219100
462.757469,-1554.432478,-8364.327145,76.609550
462.757796,-1036.288319,-8216.285956,306.438199
462.758124,-2442.679609,-8734.430116,306.438199
462.758452,-2960.823768,-8216.285956,-459.657299
462.758779,-1850.514855,-7994.224174,-919.314598
462.759107,-222.061783,-7846.182985,-383.047749
462.759434,1184.329507,-7994.224174,612.876398
462.759762,1480.411884,-8438.347739,1455.581446
462.760089,592.164754,-9918.759623,1608.800546
462.760417,-1036.288319,-10362.883188,842.705048
462.760745,-1554.432478,-11029.068536,383.047749
462.761072,-814.226536,-10658.965565,612.876398
462.761400,666.185348,-9918.759623,1302.362347
462.761727,1924.535449,-10214.842000,1302.362347
462.762055,1702.473667,-10140.821405,2221.676944
462.762382,814.226536,-10214.842000,1762.019645
462.762710,296.082377,-9770.718434,919.314598
462.763038,0.000000,-9178.553681,919.314598
462.763365,1406.391290,-9326.594869,1762.019645
462.763693,888.247130,-8956.491898,1685.410096
462.764020,370.102971,-9326.594869,2145.067394
462.764348,-518.144159,-9696.697840,1608.800546
462.764676,-2368.659014,-9992.780217,919.314598
462.765003,-2220.617826,-9252.574275,536.266849
462.765331,-1702.473667,-8956.491898,76.609550
462.765658,-814.226536,-8438.347739,766.095498
462.765986,-740.205942,-8068.244768,919.314598
462.766313,-1406.391290,-8290.306550,612.876398
462.766641,-1850.514855,-8142.265362,-153.219100
462.766969,-2220.617826,-8586.388927,-689.485948
462.767296,-1184.329507,-8068.244768,-689.485948
462.767624,222.061783,-7772.162391,153.219100
462.767951,1332.370696,-8216.285956,919.314598
462.768279,962.267725,-9178.553681,1455.581446
462.768606,-370.102971,-9696.697840,689.485948
462.768934,-1850.514855,-10436.903782,76.609550
462.769262,-1628.453072,-10066.800811,-459.657299
462.769589,-592.164754,-9622.677246,76.609550
462.769917,1036.288319,-9326.594869,766.095498
462.770244,1554.432478,-9622.677246,842.705048
462.770572,962.267725,-9548.656652,842.705048
462.770899,74.020594,-9474.636058,306.438199
462.771227,0.000000,-9030.512492,76.609550
462.771555,888.247130,-8660.409521,0.000000
462.771882,1776.494261,-8142.265362,459.657299
462.772210,2072.576638,-8216.285956,1225.752797
462.772537,888.247130,-8882.471304,1302.362347
462.772865,-444.123565,-9474.636058,1072.533697
462.773193,-1776.494261,-9326.594869,153.219100
462.773520,-1924.535449,-8956.491898,229.828649
462.773848,-666.185348,-8956.491898,459.657299
462.774175,-370.102971,-8734.430116,1149.143247
462.774503,-962.267725,-8956.491898,919.314598
462.774830,-1776.494261,-9104.533087,306.438199
462.775158,-2664.741391,-8586.388927,-306.438199
462.775486,-1924.535449,-7624.121203,-995.924147
462.775813,148.041188,-7550.100608,-153.219100
462.776141,1332.370696,-7254.018232,459.657299
462.776468,1480.411884,-7920.203579,995.924147
462.776796,0.000000,-9178.553681,1149.143247
462.777123,-1554.432478,-10066.800811,76.609550
462.777451,-2664.741391,-10288.862594,-229.828649
462.777779,-1924.535449,-9696.697840,-612.876398
462.778106,0.000000,-9622.677246,383.047749
462.778434,1332.370696,-9326.594869,1225.752797
462.778761,1036.288319,-9030.512492,1378.971896
462.779089,518.144159,-9918.759623,1072.533697
462.779417,0.000000,-9474.636058,383.047749
462.779744,148.041188,-9030.512492,306.438199
462.780072,1258.350101,-8808.450710,536.266849
462.780399,1776.494261,-8512.368333,1072.533697
462.780727,1258.350101,-9252.574275,1455.581446
462.781054,148.041188,-9770.718434,1455.581446
462.781382,-1110.308913,-10066.800811,536.266849
462.781710,-1332.370696,-9474.636058,612.876398
462.782037,0.000000,-8956.491898,995.924147
462.782365,148.041188,-8956.491898,1149.143247
462.782692,-148.041188,-9030.512492,1225.752797
462.783020,-814.226536,-9474.636058,612.876398
462.783347,-2146.597232,-9326.594869,229.828649
462.783675,-2294.638420,-8882.471304,-229.828649
462.784003,-666.185348,-8068.244768,0.000000
462.784330,444.123565,-8068.244768,919.314598
462.784658,1110.308913,-8586.388927,1455.581446
462.784985,0.000000,-9252.574275,1838.629195
462.785313,-1628.453072,-10140.821405,995.924147
462.785640,-2590.720797,-10436.903782,76.609550
462.785968,-2368.659014,-9844.739029,229.828649
462.786296,-962.267725,-9622.677246,383.047749
462.786623,296.082377,-9178.553681,1149.143247
462.786951,518.144159,-9030.512492,1455.581446
462.787278,222.061783,-9474.636058,1072.533697
462.787606,-666.185348,-9178.553681,-153.219100
462.787934,-1036.288319,-8808.450710,-306.438199
462.788261,296.082377,-8512.368333,0.000000
462.788589,1110.308913,-8512.368333,689.485948
462.788916,1776.494261,-8142.265362,1608.800546
462.789244,1258.350101,-9400.615463,1685.410096
462.789571,-370.102971,-9918.759623,1149.143247
462.789899,-1184.329507,-9844.739029,459.657299
462.790227,-1110.308913,-9770.718434,0.000000
462.790554,-518.144159,-9474.636058,766.095498
462.790882,888.247130,-8956.491898,842.705048
462.791209,148.041188,-9474.636058,919.314598
462.791537,-814.226536,-9252.574275,229.828649
462.791864,-1184.329507,-9030.512492,-229.828649
462.792192,0.000000,-8216.285956,-383.047749
462.792520,1036.288319,-7550.100608,0.000000
462.792847,2368.659014,-8068.244768,995.924147
462.793175,1258.350101,-8660.409521,1149.143247
462.793502,-370.102971,-9474.636058,842.705048
462.793830,-1998.556043,-9992.780217,-229.828649
462.794158,-2886.803174,-9474.636058,-612.876398
462.794485,-1406.391290,-8956.491898,-689.485948
462.794813,222.061783,-9178.553681,306.438199
462.795140,814.226536,-8956.491898,995.924147
462.795468,222.061783,-9326.594869,842.705048
462.795795,-1332.370696,-9326.594869,612.876398
462.796123,-1110.308913,-8734.430116,306.438199
462.796451,-888.247130,-8438.347739,-229.828649
462.796778,296.082377,-8216.285956,153.219100
462.797106,1332.370696,-8438.347739,1149.143247
462.797433,1110.308913,-9030.512492,1378.971896
462.797761,0.000000,-9400.615463,1532.190996
462.798088,-1406.391290,-9770.718434,459.657299
462.798416,-1554.432478,-9844.739029,76.609550
462.798744,-592.164754,-9474.636058,459.657299
462.799071,0.000000,-9252.574275,919.314598
462.799399,666.185348,-8956.491898,1225.752797
462.799726,0.000000,-9252.574275,919.314598
462.800054,-666.185348,-9326.594869,612.876398
462.800381,-518.144159,-8734.430116,306.438199
462.800709,518.144159,-8290.306550,766.095498
462.801037,1332.370696,-8142.265362,1532.190996
462.801364,1332.370696,-8290.306550,1455.581446
462.801692,222.061783,-9400.615463,1685.410096
462.802019,-1184.329507,-9770.718434,995.924147
462.802347,-2368.659014,-9548.656652,383.047749
462.802675,-1850.514855,-9252.574275,229.828649
462.803002,-592.164754,-8882.471304,383.047749
462.803330,-148.041188,-8808.450710,1072.533697
462.803657,-296.082377,-9178.553681,1072.533697
462.803985,-1332.370696,-9326.594869,612.876398
462.804312,-2220.617826,-9400.615463,0.000000
462.804640,-1628.453072,-9104.533087,-995.924147
462.804968,-296.082377,-8142.265362,153.219100
462.805295,962.267725,-8216.285956,689.485948
462.805623,1258.350101,-8438.347739,1378.971896
462.805950,444.123565,-9252.574275,1225.752797
462.806278,-1036.288319,-9474.636058,766.095498
462.806605,-1702.473667,-10140.821405,229.828649
462.806933,-1480.411884,-9770.718434,0.000000
462.807261,-296.082377,-9326.594869,459.657299
462.807588,740.205942,-9326.594869,995.924147
462.807916,222.061783,-9474.636058,1532.190996
462.808243,-370.102971,-9252.574275,842.705048
462.808571,-370.102971,-9178.553681,0.000000
462.808899,296.082377,-8586.388927,153.219100
462.809226,1924.535449,-8290.306550,459.657299
462.809554,2220.617826,-8438.347739,1532.190996
462.809881,1480.411884,-9104.533087,1378.971896
462.810209,0.000000,-9622.677246,1072.533697
462.810536,-1776.494261,-10066.800811,76.609550
462.810864,-2146.597232,-9548.656652,-229.828649
462.811192,-814.226536,-9474.636058,0.000000
462.811519,0.000000,-8216.285956,1072.533697
462.811847,592.164754,-8956.491898,1072.533697
462.812174,-296.082377,-8882.471304,689.485948
462.812502,-1184.329507,-9178.553681,0.000000
462.812829,-1702.473667,-8586.388927,-689.485948
462.813157,-814.226536,-8216.285956,0.000000
462.813485,592.164754,-8216.285956,0.000000
462.813812,814.226536,-8142.265362,919.314598
462.814140,370.102971,-9104.533087,1378.971896
462.814467,-1036.288319,-9696.697840,536.266849
462.814795,-1998.556043,-9844.739029,-306.438199
462.815122,-2294.638420,-9770.718434,-536.266849
462.815450,-666.185348,-9548.656652,0.000000
462.815778,370.102971,-8734.430116,306.438199
462.816105,592.164754,-8660.409521,919.314598
462.816433,740.205942,-8808.450710,1072.533697
462.816760,-296.082377,-8956.491898,153.219100
462.817088,0.000000,-8660.409521,306.438199
462.817416,740.205942,-8290.306550,383.047749
462.817743,1406.391290,-8216.285956,1225.752797
462.818071,1406.391290,-8808.450710,1608.800546
462.818398,-222.061783,-9622.677246,1915.238745
462.818726,-1332.370696,-10288.862594,766.095498
462.819053,-1998.556043,-10362.883188,306.438199
462.819381,-1628.453072,-9548.656652,76.609550
462.819708,-370.102971,-9178.553681,536.266849
462.820036,444.123565,-8956.491898,842.705048
462.820363,370.102971,-8808.450710,1378.971896
462.820691,-888.247130,-9252.574275,306.438199
462.821019,-1776.494261,-9326.594869,-229.828649
462.821346,-1776.494261,-8734.430116,-612.876398
462.821674,-740.205942,-8142.265362,-306.438199
462.822001,518.144159,-8216.285956,842.705048
462.822329,814.226536,-8808.450710,1072.533697
462.822656,-296.082377,-9696.697840,919.314598
462.822984,-1480.411884,-10066.800811,383.047749
462.823311,-2442.679609,-9918.759623,-383.047749
462.823639,-1184.329507,-9474.636058,-153.219100
462.823966,296.082377,-9178.553681,919.314598
462.824294,1110.308913,-8956.491898,1455.581446
462.824621,962.267725,-9178.553681,1608.800546
462.824949,296.082377,-9252.574275,995.924147
462.825276,814.226536,-9104.533087,842.705048
462.825604,1110.308913,-8216.285956,842.705048
462.825931,1998.556043,-7994.224174,1225.752797
462.826259,2368.659014,-8512.368333,1838.629195
462.826586,1332.370696,-9252.574275,2374.896044
462.826914,-148.041188,-9770.718434,2451.505594
462.827241,-1998.556043,-9844.739029,919.314598
462.827569,-2368.659014,-9844.739029,612.876398
462.827896,-1924.535449,-9844.739029,995.924147
462.828224,-1110.308913,-9400.615463,919.314598
462.828551,-814.226536,-8808.450710,1378.971896
462.828879,-1480.411884,-9104.533087,1302.362347
462.829206,-2738.761985,-8882.471304,-306.438199
462.829534,-2886.803174,-8438.347739,-995.924147
462.829861,-1850.514855,-7624.121203,-842.705048
462.830189,0.000000,-7254.018232,-306.438199
462.830516,296.082377,-7402.059420,-229.828649
462.830844,-296.082377,-8364.327145,459.657299
462.831172,-2146.597232,-9252.574275,0.000000
462.831499,-2812.782580,-9844.739029,-766.095498
462.831827,-2368.659014,-9696.697840,-919.314598
462.832154,-296.082377,-9104.533087,-306.438199
462.832482,1110.308913,-8808.450710,459.657299
462.832809,2072.576638,-9178.553681,1149.143247
462.833137,1850.514855,-9326.594869,842.705048
462.833464,1702.473667,-9400.615463,689.485948
462.833792,1554.432478,-9030.512492,1532.190996
462.834119,2812.782580,-8586.388927,1455.581446
462.834447,3256.906145,-9178.553681,1685.410096
462.834774,3182.885551,-9622.677246,2068.457845
462.835102,1776.494261,-10436.903782,1991.848295
462.835429,0.000000,-10658.965565,995.924147
462.835757,-1332.370696,-10362.883188,995.924147
462.836084,-1036.288319,-9696.697840,459.657299
462.836412,-592.164754,-9252.574275,842.705048
462.836739,-222.061783,-8882.471304,842.705048
462.837067,-1258.350101,-8956.491898,689.485948
462.837394,-2442.679609,-9104.533087,0.000000
462.837722,-3627.009116,-8438.347739,-1072.533697
462.838049,-3182.885551,-7920.203579,-1225.752797
462.838377,-1480.411884,-7179.997637,-536.266849
462.838704,0.000000,-7105.977043,0.000000
462.839032,0.000000,-7179.997637,536.266849
462.839359,-1332.370696,-8364.327145,383.047749
462.839687,-2664.741391,-9326.594869,-153.219100
462.840014,-3108.864956,-9326.594869,-689.485948
462.840342,-1702.473667,-9030.512492,-842.705048
462.840670,296.082377,-8882.471304,0.000000
462.840997,1628.453072,-8364.327145,995.924147
462.841325,1776.494261,-9178.553681,1378.971896
462.841652,1406.391290,-9178.553681,1302.362347
462.841980,1258.350101,-9178.553681,689.485948
462.842307,2072.576638,-9030.512492,919.314598
462.842635,3330.926739,-8956.491898,1302.362347
462.842962,3256.906145,-9548.656652,2145.067394
462.843290,1998.556043,-10288.862594,2451.505594
462.843617,148.041188,-10658.965565,1991.848295
462.843945,-1110.308913,-11029.068536,1455.581446
462.844272,-1776.494261,-9696.697840,842.705048
462.844600,-962.267725,-9104.533087,459.657299
462.844927,444.123565,-8808.450710,1302.362347
462.845255,-592.164754,-8660.409521,1072.533697
462.845582,-1924.535449,-8660.409521,689.485948
462.845910,-2442.679609,-7772.162391,0.000000
462.846237,-2886.803174,-8068.244768,-459.657299
462.846565,-1776.494261,-7698.141797,-459.657299
462.846892,-888.247130,-7254.018232,536.266849
462.847220,-814.226536,-7920.203579,842.705048
462.847547,-2146.597232,-8068.244768,766.095498
462.847875,-3330.926739,-9474.636058,306.438199
462.848202,-4367.215058,-9696.697840,-1072.533697
462.848530,-2886.803174,-9178.553681,-919.314598
462.848857,-592.164754,-9030.512492,-383.047749
462.849185,962.267725,-8660.409521,995.924147
462.849512,2294.638420,-9400.615463,1608.800546
462.849840,1702.473667,-9474.636058,1225.752797
462.850167,1184.329507,-9770.718434,842.705048
462.850495,1406.391290,-9770.718434,919.314598
462.850823,2146.597232,-9548.656652,1378.971896
462.851150,3256.906145,-9474.636058,2068.457845
462.851478,2590.720797,-10140.821405,2681.334243
462.851805,1480.411884,-11029.068536,2528.115143
462.852133,222.061783,-10955.047942,1915.238745
462.852460,0.000000,-10140.821405,1072.533697
462.852788,-666.185348,-9696.697840,1378.971896
462.853115,518.144159,-9548.656652,919.314598
462.853443,0.000000,-9178.553681,1149.143247
462.853770,-1776.494261,-9400.615463,536.266849
462.854098,-2368.659014,-9326.594869,0.000000
462.854425,-2738.761985,-8734.430116,-1149.143247
462.854753,-2516.700203,-8364.327145,-1072.533697
462.855080,-592.164754,-7772.162391,-306.438199
462.855408,-814.226536,-7698.141797,153.219100
462.855735,-666.185348,-8586.388927,306.438199
462.856063,-2516.700203,-8734.430116,-306.438199
462.856390,-3478.967927,-9474.636058,-1378.971896
462.856718,-3182.885551,-9252.574275,-1685.410096
462.857045,-1554.432478,-8808.450710,-766.095498
462.857373,444.123565,-8142.265362,0.000000
462.857700,1924.535449,-8290.306550,612.876398
462.858028,2072.576638,-9326.594869,1149.143247
462.858355,1332.370696,-8882.471304,689.485948
462.858683,1406.391290,-9104.533087,383.047749
462.859010,1850.514855,-8808.450710,536.266849
462.859338,2664.741391,-8882.471304,1378.971896
462.859665,3330.926739,-9474.636058,1608.800546
462.859993,2442.679609,-9844.739029,2681.334243
462.860320,740.205942,-10732.986159,2145.067394
462.860648,0.000000,-10510.924376,1532.190996
462.860976,-666.185348,-9622.677246,383.047749
462.861303,-666.185348,-9400.615463,995.924147
462.861631,740.205942,-8512.368333,1225.752797
462.861958,0.000000,-8882.471304,766.095498
462.862286,-2072.576638,-8586.388927,306.438199
462.862613,-2368.659014,-8734.430116,-306.438199
462.862941,-2664.741391,-7550.100608,-995.924147
462.863268,-2072.576638,-7179.997637,0.000000
462.863596,-370.102971,-7105.977043,229.828649
462.863923,-1184.329507,-7476.080014,536.266849
462.864251,-1998.556043,-8660.409521,306.438199
462.864578,-3627.009116,-9252.574275,-306.438199
462.864906,-4145.153275,-9104.533087,-766.095498
462.865233,-2738.761985,-9030.512492,-919.314598
462.865561,-814.226536,-8290.306550,-459.657299
462.865888,740.205942,-7994.224174,459.657299
462.866216,1702.473667,-8290.306550,919.314598
462.866543,1258.350101,-8512.368333,919.314598
462.866871,592.164754,-8882.471304,536.266849
462.867198,1184.329507,-8882.471304,536.266849
462.867526,2368.659014,-8734.430116,766.095498
462.867853,3182.885551,-9400.615463,1838.629195
462.868181,3034.844362,-10214.842000,2374.896044
462.868508,1628.453072,-11103.089130,2451.505594
462.868836,370.102971,-11547.212695,1762.019645
462.869163,0.000000,-10732.986159,1455.581446
462.869491,370.102971,-9918.759623,919.314598
462.869818,296.082377,-9548.656652,1608.800546
462.870146,1480.411884,-8882.471304,1838.629195
462.870473,148.041188,-9326.594869,1302.362347
462.870801,-2146.597232,-8956.491898,919.314598
462.871129,-2220.617826,-8660.409521,-229.828649
462.871456,-1776.494261,-8068.244768,0.000000
462.871784,-1702.473667,-7772.162391,76.609550
462.872111,-962.267725,-7772.162391,995.924147
462.872439,-2590.720797,-8882.471304,842.705048
462.872766,-3849.070898,-9622.677246,0.000000
462.873094,-4737.318029,-9696.697840,-995.924147
462.873421,-3997.112087,-9400.615463,-1225.752797
462.873749,-2072.576638,-8068.244768,-919.314598
462.874076,148.041188,-8068.244768,0.000000
462.874404,1258.350101,-8142.265362,612.876398
462.874731,1406.391290,-8438.347739,995.924147
462.875059,444.123565,-8660.409521,459.657299
462.875386,666.185348,-8734.430116,0.000000
462.875714,1110.308913,-9400.615463,383.047749
462.876041,2220.617826,-9474.636058,1149.143247
462.876369,2590.720797,-9622.677246,2451.505594
462.876696,2072.576638,-10584.944971,2528.115143
462.877024,1332.370696,-11399.171507,2068.457845
462.877351,0.000000,-11325.150913,1608.800546
462.877679,0.000000,-10807.006753,1072.533697
462.878006,74.020594,-9770.718434,459.657299
462.878334,666.185348,-9474.636058,1225.752797
462.878661,666.185348,-8512.368333,1149.143247
462.878989,-1850.514855,-9252.574275,229.828649
462.879316,-2294.638420,-8586.388927,-689.485948
462.879644,-2738.761985,-7846.182985,-1072.533697
462.879971,-1998.556043,-7328.038826,-689.485948
462.880299,-888.247130,-7254.018232,76.609550
462.880626,-814.226536,-7698.141797,689.485948
462.880954,-2442.679609,-8734.430116,0.000000
462.881282,-3849.070898,-9400.615463,-842.705048
462.881609,-4737.318029,-9474.636058,-1532.190996
462.881937,-2368.659014,-9400.615463,-1302.362347
462.882264,-666.185348,-8068.244768,-612.876398
462.882592,1110.308913,-8512.368333,0.000000
462.882919,1998.556043,-8512.368333,766.095498
462.883247,1554.432478,-8956.491898,612.876398
462.883574,1332.370696,-8956.491898,0.000000
462.883902,2072.576638,-8956.491898,-229.828649
462.884229,3552.988522,-9030.512492,1072.533697
462.884557,4589.276840,-9178.553681,1685.410096
462.884884,4589.276840,-9992.780217,2604.724693
462.885212,3404.947333,-10881.027347,2987.772442
462.885539,1554.432478,-11177.109724,2451.505594
462.885867,370.102971,-11103.089130,1915.238745
462.886194,-296.082377,-11103.089130,1149.143247
462.886522,74.020594,-10362.883188,1838.629195
462.886849,222.061783,-9548.656652,1532.190996
462.887177,-1998.556043,-9918.759623,766.095498
462.887504,-2368.659014,-9400.615463,-229.828649
462.887832,-3404.947333,-8808.450710,-229.828649
462.888159,-2664.741391,-7994.224174,-536.266849
462.888487,-1480.411884,-6883.915261,-306.438199
462.888814,-1036.288319,-7179.997637,995.924147
462.889142,-2442.679609,-8364.327145,306.438199
462.889469,-4367.215058,-9548.656652,-229.828649
462.889797,-5995.668130,-9622.677246,-1302.362347
462.890124,-5255.462188,-9178.553681,-1149.143247
462.890452,-2368.659014,-8438.347739,-842.705048
462.890780,0.000000,-7550.100608,153.219100
462.891107,1480.411884,-7772.162391,1072.533697
462.891435,1480.411884,-8364.327145,1225.752797
462.891762,518.144159,-8660.409521,689.485948
462.892090,1184.329507,-8808.450710,612.876398
462.892417,2812.782580,-9178.553681,1072.533697
462.892745,4367.215058,-9030.512492,2221.676944
462.893072,5551.544565,-9918.759623,3370.820191
462.893400,4885.359217,-10510.924376,4213.525239
462.893727,3478.967927,-11103.089130,4136.915689
462.894055,2294.638420,-12065.356855,4366.744339
462.894382,1702.473667,-11029.068536,3294.210641
462.894710,888.247130,-10510.924376,2681.334243
462.895037,814.226536,-10066.800811,3524.039291
462.895365,1480.411884,-9474.636058,3524.039291
462.895692,-444.123565,-9326.594869,2834.553343
462.896020,-1850.514855,-8956.491898,2681.334243
462.896347,-3330.926739,-8882.471304,1072.533697
462.896675,-3627.009116,-8068.244768,1072.533697
462.897002,-3182.885551,-7179.997637,1225.752797
462.897330,-1776.494261,-6809.894666,2374.896044
462.897657,-3034.844362,-7105.977043,2374.896044
462.897985,-3923.091493,-8216.285956,1685.410096
462.898312,-5477.523971,-8512.368333,612.876398
462.898640,-6365.771101,-9030.512492,76.609550
462.898967,-4811.338623,-8364.327145,229.828649
462.899295,-2146.597232,-7476.080014,995.924147
462.899622,740.205942,-7105.977043,2451.505594
462.899950,2368.659014,-7698.141797,3370.820191
462.900277,1776.494261,-8882.471304,3294.210641
462.900605,148.041188,-9622.677246,2604.724693
462.900933,-666.185348,-10436.903782,1838.629195
462.901260,-296.082377,-10140.821405,2221.676944
462.901588,2664.741391,-9474.636058,3064.381992
462.901915,6365.771101,-9474.636058,4749.792088
462.902243,7550.100608,-9770.718434,6205.373534
462.902570,6883.915261,-10584.944971,6665.030833
462.902898,3775.050304,-11547.212695,5745.716235
462.903225,222.061783,-11399.171507,4749.792088
462.903553,-1184.329507,-11325.150913,3677.258390
462.903880,-2220.617826,-10732.986159,2451.505594
462.904208,-444.123565,-10066.800811,4060.306139
462.904535,1258.350101,-7105.977043,4749.792088
462.904863,1628.453072,-8142.265362,5975.544884
462.905190,74.020594,-7772.162391,4979.620737
462.905518,-2368.659014,-7994.224174,3677.258390
462.905845,-6069.688724,-8808.450710,2068.457845
462.906173,-6957.935855,-8586.388927,842.705048
462.906500,-6365.771101,-8882.471304,306.438199
462.906828,-4663.297435,-8216.285956,2068.457845
462.907155,-888.247130,-7179.997637,3370.820191
462.907483,888.247130,-6883.915261,4749.792088
462.907810,1406.391290,-7328.038826,5515.887586
462.908138,74.020594,-8142.265362,4749.792088
462.908465,-3108.864956,-9622.677246,2987.772442
462.908793,-4071.132681,-10807.006753,1838.629195
462.909120,-4071.132681,-11399.171507,1455.581446
462.909448,-2146.597232,-10584.944971,2374.896044
462.909775,814.226536,-9400.615463,3447.429741
462.910103,3256.906145,-8882.471304,4519.963438
462.910430,4145.153275,-8512.368333,4749.792088
462.910758,3997.112087,-9030.512492,4519.963438
462.911086,2516.700203,-9844.739029,3294.210641
462.911413,1850.514855,-10362.883188,2681.334243
462.911741,1036.288319,-10436.903782,2451.505594
462.912068,962.267725,-10510.924376,2911.162892
462.912396,814.226536,-10362.883188,3983.696590
462.912723,962.267725,-10436.903782,4903.011187
462.913051,444.123565,-9252.574275,3907.087040
462.913378,-1258.350101,-9548.656652,4136.915689
462.913706,-518.144159,-8586.388927,2451.505594
462.914033,-1332.370696,-8660.409521,2451.505594
462.914361,-1184.329507,-8068.244768,1838.629195
462.914688,0.000000,-7550.100608,2451.505594
462.915016,296.082377,-7624.121203,3217.601092
462.915343,740.205942,-7328.038826,3217.601092
462.915671,888.247130,-7846.182985,3600.648841
462.915998,444.123565,-8216.285956,3600.648841
462.916326,0.000000,-9030.512492,3294.210641
462.916653,-1184.329507,-8956.491898,3830.477490
462.916981,-2072.576638,-9770.718434,2834.553343
462.917308,-2146.597232,-10066.800811,3217.601092
462.917636,-1850.514855,-9918.759623,3370.820191
462.917963,-1184.329507,-9474.636058,3370.820191
462.918291,-296.082377,-9252.574275,3217.601092
462.918618,0.000000,-8956.491898,3217.601092
462.918946,-444.123565,-8512.368333,2911.162892
462.919273,-592.164754,-8068.244768,2911.162892
462.919601,-592.164754,-8290.306550,3064.381992
462.919928,-370.102971,-8734.430116,2911.162892
462.920256,148.041188,-8438.347739,3677.258390
462.920583,814.226536,-9104.533087,3753.867940
462.920911,1184.329507,-9252.574275,4060.306139
462.921239,518.144159,-9622.677246,4136.915689
462.921566,0.000000,-9992.780217,4519.963438
462.921894,-962.267725,-9770.718434,3983.696590
462.922221,-1850.514855,-9844.739029,3753.867940
462.922549,-814.226536,-9326.594869,3370.820191
462.922876,-370.102971,-8290.306550,2911.162892
462.923204,74.020594,-8364.327145,3064.381992
462.923531,296.082377,-7994.224174,2451.505594
462.923859,296.082377,-8438.347739,2221.676944
462.924186,-666.185348,-9030.512492,2068.457845
462.924514,-592.164754,-9178.553681,2145.067394
462.924841,-1258.350101,-9252.574275,2221.676944
462.925169,-518.144159,-8734.430116,1915.238745
462.925496,-370.102971,-9252.574275,1915.238745
462.925824,-296.082377,-9474.636058,1762.019645
462.926151,-592.164754,-9844.739029,2221.676944
462.926479,-888.247130,-10066.800811,1915.238745
462.926806,-1258.350101,-9696.697840,2298.286494
462.927134,-666.185348,-9474.636058,1608.800546
462.927461,-222.061783,-9326.594869,1608.800546
462.927789,370.102971,-8956.491898,1302.362347
462.928116,666.185348,-8660.409521,1455.581446
462.928444,1036.288319,-8512.368333,1685.410096
462.928771,592.164754,-8956.491898,1149.143247
462.929099,0.000000,-9326.594869,1378.971896
462.929426,0.000000,-9992.780217,1455.581446
462.929754,148.041188,-10288.862594,1608.800546
462.930081,592.164754,-10214.842000,1455.581446
462.930409,1332.370696,-9918.759623,1762.019645
462.930736,1110.308913,-10066.800811,1685.410096
462.931064,370.102971,-9474.636058,1838.629195
462.931391,444.123565,-9178.553681,1532.190996
462.931719,-444.123565,-9474.636058,995.924147
462.932047,-1258.350101,-8290.306550,1685.410096
462.932374,-962.267725,-8882.471304,536.266849
462.932702,-962.267725,-8586.388927,919.314598
462.933029,-1036.288319,-8586.388927,689.485948
462.933357,-518.144159,-8438.347739,995.924147
462.933684,-1184.329507,-8586.388927,1072.533697
462.934012,-592.164754,-8290.306550,919.314598
462.934339,-740.205942,-8290.306550,536.266849
462.934667,-814.226536,-8438.347739,306.438199
462.934994,-222.061783,-8512.368333,229.828649
462.935322,-370.102971,-8734.430116,459.657299
462.935649,0.000000,-8956.491898,1455.581446
462.935977,-148.041188,-9178.553681,1072.533697
462.936304,-222.061783,-9326.594869,1225.752797
462.936632,0.000000,-9252.574275,1149.143247
462.936959,-148.041188,-9178.553681,919.314598
462.937287,370.102971,-9252.574275,536.266849
462.937614,370.102971,-9252.574275,459.657299
462.937942,370.102971,-9030.512492,766.095498
462.938269,222.061783,-9178.553681,1072.533697
462.938597,222.061783,-9252.574275,1225.752797
462.938924,74.020594,-9178.553681,1455.581446
462.939252,222.061783,-8660.409521,842.705048
462.939579,-148.041188,-8956.491898,459.657299
462.939907,-370.102971,-9030.512492,536.266849
462.940234,0.000000,-8438.347739,459.657299
462.940562,-222.061783,-8142.265362,383.047749
462.940889,0.000000,-8290.306550,842.705048
462.941217,-592.164754,-8956.491898,459.657299
462.941544,-888.247130,-8734.430116,842.705048
462.941872,-1332.370696,-8808.450710,459.657299
462.942199,-1110.308913,-9030.512492,766.095498
462.942527,-888.247130,-8882.471304,383.047749
462.942854,-962.267725,-9178.553681,459.657299
462.943182,-666.185348,-9030.512492,383.047749
462.943510,-518.144159,-9178.553681,766.095498
462.943837,-148.041188,-9178.553681,766.095498
462.944165,74.020594,-8956.491898,919.314598
462.944492,-148.041188,-9474.636058,689.485948
462.944820,0.000000,-9770.718434,459.657299
462.945147,-592.164754,-9770.718434,612.876398
462.945475,-592.164754,-10214.842000,766.095498
462.945802,-148.041188,-10214.842000,689.485948
462.946130,0.000000,-9992.780217,995.924147
462.946457,74.020594,-9696.697840,612.876398
462.946785,222.061783,-9474.636058,689.485948
462.947112,444.123565,-9474.636058,383.047749
462.947440,592.164754,-9326.594869,229.828649
462.947767,148.041188,-8882.471304,842.705048
462.948095,222.061783,-9030.512492,536.266849
462.948422,0.000000,-9178.553681,306.438199
462.948750,0.000000,-9400.615463,612.876398
462.949077,74.020594,-8956.491898,842.705048
462.949405,370.102971,-9178.553681,76.609550
462.949732,0.000000,-8956.491898,306.438199
462.950060,0.000000,-9030.512492,306.438199
462.950387,-296.082377,-9030.512492,153.219100
462.950715,-444.123565,-8956.491898,153.219100
462.951042,-370.102971,-9030.512492,153.219100
462.951370,-666.185348,-9104.533087,383.047749
462.951697,-814.226536,-9104.533087,459.657299
462.952025,-740.205942,-9326.594869,536.266849
462.952352,-888.247130,-9030.512492,229.828649
462.952680,-740.205942,-9178.553681,689.485948
462.953007,-592.164754,-9104.533087,766.095498
462.953335,-518.144159,-8586.388927,383.047749
462.953662,-370.102971,-8586.388927,383.047749
462.953990,-518.144159,-8734.430116,612.876398
462.954318,-444.123565,-8512.368333,1149.143247
462.954645,-592.164754,-8734.430116,919.314598
462.954973,-1036.288319,-9178.553681,919.314598
462.955300,-1184.329507,-9400.615463,995.924147
462.955628,-962.267725,-9178.553681,766.095498
462.955955,-666.185348,-8660.409521,689.485948
462.956283,-740.205942,-7994.224174,612.876398
462.956610,-370.102971,-8216.285956,766.095498
462.956938,-370.102971,-8438.347739,383.047749
462.957265,-444.123565,-8660.409521,766.095498
462.957593,-740.205942,-8660.409521,689.485948
462.957920,-518.144159,-8808.450710,995.924147
462.958248,-592.164754,-9178.553681,689.485948
462.958575,-592.164754,-9400.615463,612.876398
462.958903,-444.123565,-9252.574275,383.047749
462.959230,-296.082377,-9252.574275,536.266849
462.959558,-148.041188,-9030.512492,383.047749
462.959885,-148.041188,-9474.636058,919.314598
462.960213,-296.082377,-9400.615463,536.266849
462.960540,-222.061783,-8956.491898,383.047749
462.960868,-222.061783,-9178.553681,383.047749
462.961195,-296.082377,-9030.512492,383.047749
462.961523,-370.102971,-8808.450710,766.095498
462.961850,-296.082377,-9178.553681,306.438199
462.962178,-370.102971,-8808.450710,459.657299
462.962505,-444.123565,-9104.533087,306.438199
462.962833,-296.082377,-9178.553681,383.047749
462.963160,0.000000,-8734.430116,689.485948
462.963488,0.000000,-8882.471304,383.047749
462.963815,-518.144159,-8956.491898,612.876398
462.964143,-888.247130,-9178.553681,383.047749
462.964470,-1110.308913,-9104.533087,459.657299
462.964798,-888.247130,-9252.574275,0.000000
462.965125,-888.247130,-9178.553681,229.828649
462.965453,-740.205942,-9104.533087,612.876398
462.965781,-370.102971,-9030.512492,536.266849
462.966108,0.000000,-8808.450710,383.047749
462.966436,222.061783,-8956.491898,383.047749
462.966763,148.041188,-8438.347739,919.314598
462.967091,0.000000,-9104.533087,766.095498
462.967418,0.000000,-9400.615463,459.657299
462.967746,0.000000,-9696.697840,842.705048
462.968073,-222.061783,-9400.615463,995.924147
462.968401,148.041188,-9918.759623,1455.581446
462.968728,148.041188,-9400.615463,842.705048
462.969056,444.123565,-9104.533087,766.095498
462.969383,592.164754,-8734.430116,612.876398
462.969711,444.123565,-8734.430116,612.876398
462.970038,222.061783,-8438.347739,459.657299
462.970366,222.061783,-8586.388927,612.876398
462.970693,0.000000,-9104.533087,459.657299
462.971021,0.000000,-8956.491898,689.485948
462.971348,0.000000,-9178.553681,383.047749
462.971676,0.000000,-8882.471304,766.095498
462.972003,370.102971,-9178.553681,536.266849
462.972331,148.041188,-8882.471304,383.047749
462.972658,222.061783,-8882.471304,153.219100
462.972986,148.041188,-8956.491898,383.047749
462.973313,296.082377,-8660.409521,0.000000
462.973641,0.000000,-9104.533087,383.047749
462.973968,74.020594,-9326.594869,306.438199
462.974296,-148.041188,-9400.615463,229.828649
462.974623,0.000000,-9400.615463,383.047749
462.974951,0.000000,-9178.553681,0.000000
462.975278,0.000000,-8734.430116,306.438199
462.975606,0.000000,-8660.409521,306.438199
462.975933,-148.041188,-9030.512492,383.047749
462.976261,0.000000,-9178.553681,612.876398
462.976588,-222.061783,-9474.636058,612.876398
462.976916,-370.102971,-8660.409521,919.314598
462.977244,-666.185348,-9474.636058,612.876398
462.977571,-148.041188,-9622.677246,919.314598
462.977899,0.000000,-9474.636058,459.657299
462.978226,-222.061783,-9326.594869,383.047749
462.978554,-370.102971,-8956.491898,229.828649
462.978881,-296.082377,-9104.533087,689.485948
462.979209,-666.185348,-9622.677246,383.047749
462.979536,-740.205942,-9770.718434,766.095498
462.979864,-1036.288319,-9770.718434,689.485948
462.980191,-370.102971,-9326.594869,919.314598
462.980519,-222.061783,-9474.636058,459.657299
462.980846,-592.164754,-9400.615463,536.266849
462.981174,-740.205942,-9252.574275,536.266849
462.981501,-888.247130,-9178.553681,383.047749
462.981829,-740.205942,-9030.512492,612.876398
462.982156,-814.226536,-9178.553681,842.705048
462.982484,-666.185348,-9474.636058,842.705048
462.982811,-740.205942,-9400.615463,689.485948
462.983139,-666.185348,-9474.636058,766.095498
462.983466,-518.144159,-9474.636058,612.876398
462.983794,-592.164754,-8956.491898,842.705048
462.984121,-370.102971,-8956.491898,612.876398
462.984449,-592.164754,-8956.491898,383.047749
462.984776,-740.205942,-9252.574275,612.876398
462.985104,-592.164754,-9252.574275,536.266849
462.985431,-74.020594,-9030.512492,1072.533697
462.985759,-296.082377,-8956.491898,536.266849
462.986086,-444.123565,-9252.574275,689.485948
462.986414,-592.164754,-8882.471304,612.876398
462.986741,-592.164754,-8512.368333,536.266849
462.987069,-148.041188,-8216.285956,76.609550
462.987396,-370.102971,-8364.327145,995.924147
462.987724,-592.164754,-8734.430116,459.657299
462.988052,-592.164754,-8882.471304,459.657299
462.988379,-444.123565,-8956.491898,612.876398
462.988707,-592.164754,-8586.388927,536.266849
462.989034,-222.061783,-8660.409521,766.095498
462.989362,0.000000,-8882.471304,612.876398
462.989689,-222.061783,-8512.368333,536.266849
462.990017,74.020594,-8586.388927,536.266849
462.990344,0.000000,-8734.430116,383.047749
462.990672,0.000000,-9474.636058,689.485948
462.990999,222.061783,-9178.553681,306.438199
462.991327,148.041188,-9104.533087,689.485948
462.991654,74.020594,-9030.512492,459.657299
462.991982,296.082377,-9326.594869,536.266849
462.992309,296.082377,-8808.450710,459.657299
462.992637,148.041188,-8882.471304,842.705048
462.992964,370.102971,-9104.533087,459.657299
462.993292,0.000000,-9326.594869,306.438199
462.993619,222.061783,-9326.594869,536.266849
462.993947,148.041188,-9252.574275,536.266849
462.994274,148.041188,-8882.471304,612.876398
462.994602,0.000000,-8956.491898,612.876398
462.994929,0.000000,-9104.533087,306.438199
462.995257,0.000000,-8956.491898,459.657299
462.995584,-370.102971,-9104.533087,612.876398
462.995912,-222.061783,-8956.491898,766.095498
462.996239,-296.082377,-9104.533087,306.438199
462.996567,-296.082377,-9252.574275,229.828649
462.996894,-370.102971,-9178.553681,459.657299
462.997222,-296.082377,-9178.553681,459.657299
462.997549,0.000000,-8956.491898,229.828649
462.997877,74.020594,-9178.553681,536.266849
462.998204,0.000000,-9474.636058,459.657299
462.998532,-148.041188,-9474.636058,459.657299
462.998859,0.000000,-9474.636058,612.876398
462.999187,222.061783,-9548.656652,612.876398
462.999515,148.041188,-9400.615463,689.485948
462.999842,0.000000,-9696.697840,766.095498
463.000170,0.000000,-9548.656652,689.485948
463.000497,-148.041188,-9474.636058,689.485948
463.000825,0.000000,-9104.533087,229.828649
463.001152,0.000000,-9400.615463,995.924147
463.001480,0.000000,-9252.574275,536.266849
463.001807,-148.041188,-9474.636058,383.047749
463.002135,0.000000,-9326.594869,689.485948
463.002462,-296.082377,-9326.594869,459.657299
463.002790,-296.082377,-8660.409521,995.924147
463.003117,-296.082377,-9104.533087,229.828649
463.003445,-370.102971,-9104.533087,229.828649
463.003772,-518.144159,-9252.574275,459.657299
463.004100,-296.082377,-9178.553681,536.266849
463.004427,-370.102971,-9400.615463,689.485948
463.004755,-444.123565,-9252.574275,153.219100
463.005082,-444.123565,-9326.594869,766.095498
463.005410,-666.185348,-9252.574275,766.095498
463.005737,-518.144159,-9400.615463,536.266849
463.006065,-592.164754,-9178.553681,689.485948
463.006392,-222.061783,-8882.471304,1225.752797
463.006720,-592.164754,-8882.471304,612.876398
463.007047,-296.082377,-9252.574275,612.876398
463.007375,-592.164754,-9252.574275,612.876398
463.007702,-296.082377,-9178.553681,689.485948
463.008030,-370.102971,-8956.491898,536.266849
463.008357,-148.041188,-9030.512492,995.924147
463.008685,0.000000,-9030.512492,842.705048
463.009012,-148.041188,-8808.450710,612.876398
463.009340,-296.082377,-8956.491898,689.485948
463.009667,222.061783,-9030.512492,995.924147
463.009995,-74.020594,-9030.512492,766.095498
463.010323,0.000000,-9178.553681,689.485948
463.010650,-222.061783,-9030.512492,459.657299
463.010978,-148.041188,-9104.533087,536.266849
463.011305,-222.061783,-8808.450710,1225.752797
463.011633,-370.102971,-9178.553681,459.657299
463.011960,-444.123565,-8956.491898,306.438199
463.012288,-296.082377,-9030.512492,383.047749
463.012615,-370.102971,-9252.574275,306.438199
463.012943,-740.205942,-8808.450710,689.485948
463.013270,-370.102971,-8808.450710,536.266849
463.013598,-444.123565,-8956.491898,459.657299
463.013925,-444.123565,-9030.512492,536.266849
463.014253,-518.144159,-9030.512492,76.609550
463.014580,-444.123565,-8882.471304,612.876398
463.014908,-444.123565,-8586.388927,689.485948
463.015235,-666.185348,-9104.533087,459.657299
463.015563,-666.185348,-9030.512492,689.485948
463.015890,-592.164754,-9104.533087,536.266849
463.016218,-592.164754,-9030.512492,612.876398
463.016545,0.000000,-8808.450710,536.266849
463.016873,-592.164754,-8808.450710,459.657299
463.017200,-518.144159,-8808.450710,689.485948
463.017528,-740.205942,-8660.409521,766.095498
463.017855,-518.144159,-8882.471304,536.266849
463.018183,-666.185348,-8660.409521,1225.752797
463.018510,-518.144159,-8808.450710,612.876398
463.018838,-666.185348,-9030.512492,766.095498
463.019165,-666.185348,-8882.471304,689.485948
463.019493,-814.226536,-9030.512492,612.876398
463.019821,-518.144159,-8956.491898,153.219100
463.020148,-1036.288319,-8660.409521,766.095498
463.020476,-814.226536,-8660.409521,229.828649
463.020804,-592.164754,-8808.450710,536.266849
463.021131,-962.267725,-8808.450710,536.266849
463.021459,-740.205942,-8882.471304,766.095498
463.021786,-222.061783,-8660.409521,1072.533697
463.022114,-666.185348,-8808.450710,306.438199
463.022442,-740.205942,-8882.471304,459.657299
463.022769,-592.164754,-9030.512492,229.828649
463.023097,-222.061783,-8882.471304,536.266849
463.023424,-592.164754,-8956.491898,689.485948
463.023752,0.000000,-8956.491898,459.657299
463.024080,-148.041188,-9252.574275,459.657299
463.024407,0.000000,-9104.533087,689.485948
463.024735,0.000000,-9252.574275,459.657299
463.025062,222.061783,-9252.574275,612.876398
463.025390,0.000000,-9326.594869,612.876398
463.025718,148.041188,-9252.574275,383.047749
463.026045,0.000000,-9252.574275,459.657299
463.026373,222.061783,-9252.574275,306.438199
463.026701,148.041188,-8808.450710,1225.752797
463.027028,0.000000,-9030.512492,919.314598
463.027356,0.000000,-9178.553681,536.266849
463.027683,0.000000,-9474.636058,459.657299
463.028011,-148.041188,-9326.594869,459.657299
463.028339,0.000000,-9474.636058,459.657299
463.028666,296.082377,-9252.574275,229.828649
463.028994,0.000000,-9252.574275,536.266849
463.029321,0.000000,-9400.615463,536.266849
463.029649,0.000000,-9400.615463,459.657299
463.029977,-296.082377,-9474.636058,536.266849
463.030304,148.041188,-9474.636058,536.266849
463.030632,-148.041188,-9252.574275,459.657299
463.030959,-296.082377,-9474.636058,842.705048
463.031287,-370.102971,-9548.656652,612.876398
463.031615,0.000000,-9696.697840,612.876398
463.031942,0.000000,-9548.656652,612.876398
463.032270,0.000000,-9474.636058,842.705048
463.032597,-148.041188,-9548.656652,612.876398
463.032925,0.000000,-9474.636058,766.095498
463.033253,0.000000,-9400.615463,689.485948
463.033580,148.041188,-9548.656652,995.924147
463.033908,0.000000,-9474.636058,766.095498
463.034236,0.000000,-9178.553681,383.047749
463.034563,0.000000,-9548.656652,536.266849
463.034891,-148.041188,-9252.574275,459.657299
463.035218,0.000000,-9326.594869,306.438199
463.035546,0.000000,-9030.512492,383.047749
463.035874,-296.082377,-9252.574275,689.485948
463.036201,0.000000,-9104.533087,536.266849
463.036529,0.000000,-9104.533087,306.438199
463.036856,-148.041188,-9252.574275,383.047749
463.037184,-296.082377,-9252.574275,459.657299
463.037512,-296.082377,-9104.533087,153.219100
463.037839,-518.144159,-9178.553681,459.657299
463.038167,-444.123565,-9178.553681,536.266849
463.038494,-592.164754,-9030.512492,306.438199
463.038822,-370.102971,-9104.533087,306.438199
463.039150,-370.102971,-9030.512492,0.000000
463.039477,-518.144159,-9030.512492,383.047749
463.039805,-592.164754,-8882.471304,536.266849
463.040132,-592.164754,-9030.512492,306.438199
463.040460,-296.082377,-8586.388927,153.219100
463.040788,-296.082377,-8956.491898,689.485948
463.041115,-444.123565,-9030.512492,612.876398
463.041443,-444.123565,-8956.491898,536.266849
463.041771,-296.082377,-8882.471304,536.266849
463.042098,-296.082377,-8734.430116,306.438199
463.042426,-592.164754,-8586.388927,1149.143247
463.042753,0.000000,-8808.450710,536.266849
463.043081,-296.082377,-8808.450710,842.705048
463.043409,-518.144159,-8512.368333,766.095498
463.043736,-370.102971,-8808.450710,995.924147
463.044064,0.000000,-8512.368333,919.314598
463.044391,-740.205942,-8956.491898,536.266849
463.044719,-518.144159,-8956.491898,612.876398
463.045047,-666.185348,-8586.388927,689.485948
463.045374,-740.205942,-8660.409521,536.266849
463.045702,-444.123565,-8586.388927,766.095498
463.046029,-740.205942,-8734.430116,612.876398
463.046357,-814.226536,-8882.471304,536.266849
463.046685,-740.205942,-8734.430116,612.876398
463.047012,-888.247130,-9178.553681,689.485948
463.047340,-518.144159,-9104.533087,766.095498
463.047667,-666.185348,-8956.491898,459.657299
463.047995,-370.102971,-9030.512492,536.266849
463.048323,-518.144159,-9030.512492,689.485948
463.048650,-518.144159,-9030.512492,612.876398
463.048978,-666.185348,-9252.574275,536.266849
463.049306,-296.082377,-9104.533087,842.705048
463.049633,0.000000,-9178.553681,536.266849
463.049961,0.000000,-8956.491898,536.266849
463.050288,0.000000,-9104.533087,383.047749
463.050616,-222.061783,-9326.594869,459.657299
463.050944,148.041188,-9178.553681,536.266849
463.051271,74.020594,-9178.553681,459.657299
463.051599,0.000000,-9104.533087,306.438199
463.051926,-148.041188,-9252.574275,383.047749
463.052254,-222.061783,-9474.636058,459.657299
463.052582,74.020594,-9252.574275,919.314598
463.052909,148.041188,-8882.471304,306.438199
463.053237,222.061783,-9252.574275,459.657299
463.053564,74.020594,-9400.615463,229.828649
463.053892,0.000000,-9326.594869,612.876398
463.054220,0.000000,-9252.574275,383.047749
463.054547,222.061783,-9178.553681,383.047749
463.054875,0.000000,-9178.553681,536.266849
463.055202,0.000000,-9474.636058,689.485948
463.055530,-148.041188,-9548.656652,766.095498
463.055858,0.000000,-9400.615463,689.485948
463.056185,-518.144159,-9178.553681,689.485948
463.056513,-370.102971,-9030.512492,766.095498
463.056841,-296.082377,-9474.636058,612.876398
463.057168,-148.041188,-9400.615463,689.485948
463.057496,-296.082377,-9178.553681,536.266849
463.057823,148.041188,-9474.636058,919.314598
463.058151,148.041188,-9252.574275,842.705048
463.058479,74.020594,-9252.574275,842.705048
463.058806,0.000000,-9104.533087,689.485948
463.059134,0.000000,-9178.553681,612.876398
463.059461,-222.061783,-9104.533087,689.485948
463.059789,0.000000,-9400.615463,919.314598
463.060117,74.020594,-9030.512492,612.876398
463.060444,-222.061783,-9104.533087,612.876398
463.060772,0.000000,-9400.615463,612.876398
463.061099,0.000000,-9252.574275,689.485948
463.061427,0.000000,-8882.471304,383.047749
463.061755,0.000000,-9326.594869,766.095498
463.062082,-222.061783,-9178.553681,612.876398
463.062410,-222.061783,-9178.553681,536.266849
463.062737,-222.061783,-9252.574275,612.876398
463.063065,-296.082377,-8808.450710,459.657299
463.063393,-518.144159,-8882.471304,459.657299
463.063720,-518.144159,-8956.491898,536.266849
463.064048,-444.123565,-9178.553681,383.047749
463.064376,-518.144159,-9252.574275,459.657299
463.064703,-370.102971,-9326.594869,612.876398
463.065031,-370.102971,-9252.574275,612.876398
463.065358,-444.123565,-9178.553681,612.876398
463.065686,-444.123565,-9030.512492,383.047749
463.066014,-296.082377,-9252.574275,689.485948
463.066341,0.000000,-8956.491898,1072.533697
463.066669,-370.102971,-9252.574275,766.095498
463.066996,-222.061783,-9178.553681,612.876398
463.067324,-296.082377,-9178.553681,689.485948
463.067652,-444.123565,-9104.533087,229.828649
463.067979,-222.061783,-9104.533087,612.876398
463.068307,74.020594,-9326.594869,612.876398
463.068634,-370.102971,-8734.430116,536.266849
463.068962,-296.082377,-9104.533087,383.047749
463.069290,-444.123565,-8956.491898,536.266849
463.069617,-518.144159,-8660.409521,536.266849
463.069945,-296.082377,-8660.409521,536.266849
463.070272,-592.164754,-8660.409521,842.705048
463.070600,-814.226536,-8734.430116,383.047749
463.070928,-962.267725,-8956.491898,459.657299
463.071255,-814.226536,-8956.491898,383.047749
463.071583,-592.164754,-9326.594869,0.000000
463.071911,-370.102971,-8808.450710,689.485948
463.072238,-666.185348,-9104.533087,459.657299
463.072566,-444.123565,-9030.512492,306.438199
463.072893,-666.185348,-8882.471304,306.438199
463.073221,-518.144159,-8660.409521,229.828649
463.073549,-592.164754,-8586.388927,1072.533697
463.073876,-296.082377,-9104.533087,459.657299
463.074204,-296.082377,-9030.512492,612.876398
463.074531,0.000000,-9178.553681,459.657299
463.074859,0.000000,-8956.491898,536.266849
463.075187,74.020594,-8364.327145,689.485948
463.075514,0.000000,-8808.450710,766.095498
463.075842,-518.144159,-8734.430116,536.266849
463.076169,-148.041188,-8956.491898,689.485948
463.076497,-444.123565,-8882.471304,459.657299
463.076825,-222.061783,-8882.471304,766.095498
463.077152,0.000000,-8808.450710,919.314598
463.077480,-296.082377,-8808.450710,766.095498
463.077807,-370.102971,-8808.450710,612.876398
463.078135,-518.144159,-8586.388927,459.657299
463.078463,-444.123565,-9104.533087,229.828649
463.078790,-444.123565,-8438.347739,842.705048
463.079118,-444.123565,-8808.450710,689.485948
463.079446,-444.123565,-8956.491898,536.266849
463.079773,-370.102971,-9030.512492,612.876398
463.080101,-444.123565,-9326.594869,919.314598
463.080428,-370.102971,-9178.553681,1072.533697
463.080756,-296.082377,-9326.594869,229.828649
463.081084,-370.102971,-9252.574275,459.657299
463.081411,-222.061783,-9474.636058,766.095498
463.081739,-296.082377,-9474.636058,612.876398
463.082066,-518.144159,-9252.574275,459.657299
463.082394,-222.061783,-9400.615463,612.876398
463.082722,0.000000,-9474.636058,536.266849
463.083049,0.000000,-9326.594869,459.657299
463.083377,0.000000,-9178.553681,536.266849
463.083704,0.000000,-8882.471304,306.438199
463.084032,0.000000,-8956.491898,689.485948
463.084360,0.000000,-9252.574275,689.485948
463.084687,0.000000,-9400.615463,383.047749
463.085015,0.000000,-9474.636058,459.657299
463.085343,74.020594,-9548.656652,229.828649
463.085670,0.000000,-9252.574275,612.876398
463.085998,-148.041188,-9474.636058,536.266849
463.086325,0.000000,-9474.636058,383.047749
463.086653,0.000000,-9474.636058,383.047749
463.086981,0.000000,-9326.594869,459.657299
463.087308,-148.041188,-9474.636058,153.219100
