#time,accel_x,accel_y,accel_z
594.313303,0.000000,-9326.594869,459.657299
594.313631,-370.102971,-9030.512492,612.876398
594.313958,-296.082377,-9326.594869,536.266849
594.314286,0.000000,-9030.512492,612.876398
594.314614,0.000000,-8808.450710,459.657299
594.314941,0.000000,-9104.533087,459.657299
594.315269,-296.082377,-9474.636058,459.657299
594.315596,0.000000,-9252.574275,383.047749
594.315924,0.000000,-9030.512492,306.438199
594.316251,0.000000,-9104.533087,689.485948
594.316579,0.000000,-9104.533087,919.314598
594.316906,-444.123565,-9030.512492,459.657299
594.317234,-296.082377,-9178.553681,612.876398
594.317562,-148.041188,-9104.533087,536.266849
594.317889,-296.082377,-9252.574275,612.876398
594.318217,0.000000,-9030.512492,612.876398
594.318544,0.000000,-9178.553681,536.266849
594.318872,-222.061783,-9178.553681,536.266849
594.319199,-148.041188,-9104.533087,766.095498
594.319527,-296.082377,-9252.574275,612.876398
594.319854,74.020594,-8882.471304,459.657299
594.320182,-296.082377,-9178.553681,459.657299
594.320510,-296.082377,-9178.553681,612.876398
594.320837,-148.041188,-9030.512492,612.876398
594.321165,-296.082377,-9104.533087,689.485948
594.321492,0.000000,-8808.450710,842.705048
594.321820,-296.082377,-8882.471304,612.876398
594.322147,-296.082377,-9252.574275,459.657299
594.322475,-370.102971,-9178.553681,689.485948
594.322802,-222.061783,-9178.553681,459.657299
594.323130,-592.164754,-9104.533087,536.266849
594.323458,-592.164754,-8586.388927,842.705048
594.323785,0.000000,-9252.574275,536.266849
594.324113,-296.082377,-9030.512492,612.876398
594.324440,-370.102971,-9104.533087,766.095498
594.324768,-444.123565,-9104.533087,612.876398
594.325095,0.000000,-8808.450710,306.438199
594.325423,-370.102971,-9104.533087,383.047749
594.325750,-296.082377,-9178.553681,536.266849
594.326078,-148.041188,-9252.574275,383.047749
594.326406,-222.061783,-9178.553681,612.876398
594.326733,0.000000,-8586.388927,229.828649
594.327061,-814.226536,-9252.574275,76.609550
594.327388,-1258.350101,-9622.677246,0.000000
594.327716,-1258.350101,-9548.656652,-306.438199
594.328043,-962.267725,-9178.553681,-383.047749
594.328371,-296.082377,-9178.553681,-229.828649
594.328698,-296.082377,-8660.409521,-306.438199
594.329026,-962.267725,-9252.574275,-612.876398
594.329354,-1184.329507,-9252.574275,-842.705048
594.329681,-1184.329507,-9400.615463,-1149.143247
594.330009,-1110.308913,-8808.450710,-1302.362347
594.330336,-962.267725,-9030.512492,-1378.971896
594.330664,-666.185348,-9178.553681,-1455.581446
594.330991,-222.061783,-9178.553681,-1225.752797
594.331319,0.000000,-8956.491898,-1378.971896
594.331646,0.000000,-8956.491898,-1455.581446
594.331974,0.000000,-9030.512492,-1915.238745
594.332302,74.020594,-9474.636058,-1685.410096
594.332629,0.000000,-9326.594869,-1991.848295
594.332957,222.061783,-9400.615463,-1685.410096
594.333284,370.102971,-9400.615463,-1532.190996
594.333612,592.164754,-9548.656652,-2374.896044
594.333939,222.061783,-9030.512492,-1455.581446
594.334267,518.144159,-9104.533087,-1532.190996
594.334594,370.102971,-9252.574275,-2145.067394
594.334922,74.020594,-9400.615463,-1915.238745
594.335250,74.020594,-9178.553681,-1685.410096
594.335577,74.020594,-8956.491898,-1225.752797
594.335905,148.041188,-9104.533087,-1608.800546
594.336232,0.000000,-9252.574275,-1608.800546
594.336560,-148.041188,-9326.594869,-1762.019645
594.336887,-444.123565,-9030.512492,-1302.362347
594.337215,-962.267725,-8956.491898,-1991.848295
594.337542,-1332.370696,-9104.533087,-2145.067394
594.337870,-1332.370696,-9400.615463,-2145.067394
594.338198,-1702.473667,-9252.574275,-2604.724693
594.338525,-1776.494261,-9030.512492,-2834.553343
594.338853,-2146.597232,-8956.491898,-2681.334243
594.339180,-2220.617826,-8956.491898,-3140.991542
594.339508,-2072.576638,-8882.471304,-3524.039291
594.339835,-2146.597232,-8808.450710,-3753.867940
594.340163,-1998.556043,-8956.491898,-4136.915689
594.340490,-1924.535449,-8660.409521,-4136.915689
594.340818,-1776.494261,-8956.491898,-4136.915689
594.341146,-1110.308913,-8808.450710,-3907.087040
594.341473,-518.144159,-8734.430116,-3983.696590
594.341801,222.061783,-8882.471304,-3524.039291
594.342128,740.205942,-8808.450710,-3064.381992
594.342456,1480.411884,-8660.409521,-2604.724693
594.342783,2368.659014,-8956.491898,-2374.896044
594.343111,2516.700203,-8956.491898,-2298.286494
594.343438,2220.617826,-9326.594869,-1915.238745
594.343766,1332.370696,-10362.883188,-2374.896044
594.344094,148.041188,-9992.780217,-2451.505594
594.344421,-444.123565,-10214.842000,-3294.210641
594.344749,-1258.350101,-10140.821405,-3907.087040
594.345076,-1258.350101,-10214.842000,-4519.963438
594.345404,-1628.453072,-9918.759623,-4903.011187
594.345731,-1184.329507,-9030.512492,-4366.744339
594.346059,296.082377,-7994.224174,-4443.353888
594.346386,1850.514855,-7105.977043,-3677.258390
594.346714,2590.720797,-7105.977043,-2757.943793
594.347042,2664.741391,-7476.080014,-2221.676944
594.347369,1628.453072,-8438.347739,-1915.238745
594.347697,0.000000,-8808.450710,-1838.629195
594.348024,-2220.617826,-10362.883188,-2145.067394
594.348352,-3849.070898,-10955.047942,-2604.724693
594.348679,-3997.112087,-11103.089130,-2757.943793
594.349007,-3034.844362,-10658.965565,-2604.724693
594.349334,-1332.370696,-9030.512492,-2681.334243
594.349662,1480.411884,-7846.182985,-1302.362347
594.349990,5551.544565,-6069.688724,612.876398
594.350317,9474.636058,-4811.338623,2451.505594
594.350645,11325.150913,-5255.462188,4290.134789
594.350972,8660.409521,-7476.080014,5056.230287
594.351300,2516.700203,-11251.130318,4213.525239
594.351627,-4737.318029,-13767.830521,2451.505594
594.351955,-9992.780217,-14878.139434,0.000000
594.352282,-12435.459826,-14730.098246,-1302.362347
594.352610,-9696.697840,-12953.603985,-1915.238745
594.352938,-8512.368333,-11325.150913,-1991.848295
594.353265,-1702.473667,-7550.100608,-1302.362347
594.353593,-1924.535449,-5181.441594,-919.314598
594.353920,-592.164754,-4071.132681,-3064.381992
594.354248,-4219.173869,-5625.565159,-4903.011187
594.354575,-9252.574275,-7254.018232,-7584.345430
594.354903,-13323.706956,-8808.450710,-9729.412825
594.355230,-14878.139434,-8734.430116,-10342.289223
594.355558,-11621.233289,-7772.162391,-9806.022374
594.355886,-6587.832884,-8068.244768,-7354.516781
594.356213,592.164754,-5847.626942,-6128.763984
594.356541,3701.029710,-7105.977043,-5056.230287
594.356868,6143.709319,-8216.285956,-4596.572988
594.357196,3108.864956,-9918.759623,-6511.811733
594.357523,2294.638420,-10955.047942,-6665.030833
594.357851,4441.235652,-11103.089130,-6971.469032
594.358178,7402.059420,-10214.842000,-5975.544884
594.358506,12361.439231,-9548.656652,-3064.381992
594.358833,13767.830521,-9770.718434,-1532.190996
594.359161,13101.645173,-10066.800811,-1225.752797
594.359489,13027.624579,-9474.636058,-1072.533697
594.359816,13693.809927,-9400.615463,-1685.410096
594.360144,13249.686362,-9696.697840,-2528.115143
594.360471,9992.780217,-11325.150913,-1762.019645
594.360799,6439.791695,-13619.789333,-3140.991542
594.361126,-2886.803174,-14359.995275,-4749.792088
594.361454,-11325.150913,-13767.830521,-7124.688131
594.361781,-9400.615463,-11177.109724,-7737.564530
594.362109,-4441.235652,-5107.421000,-7277.907231
594.362437,370.102971,-2738.761985,-4366.744339
594.362764,5477.523971,-1850.514855,-2451.505594
594.363092,2294.638420,-2072.576638,-919.314598
594.363419,-444.123565,-3775.050304,-766.095498
594.363747,-3330.926739,-5107.421000,-1149.143247
594.364074,-7402.059420,-6069.688724,-1991.848295
594.364402,-5995.668130,-8290.306550,-1149.143247
594.364729,-5921.647536,-9992.780217,1072.533697
594.365057,-5995.668130,-9622.677246,2681.334243
594.365385,-3701.029710,-9252.574275,4903.011187
594.365712,-1850.514855,-8586.388927,5132.839837
594.366040,-1258.350101,-8660.409521,3600.648841
594.366367,-3108.864956,-11029.068536,306.438199
594.366695,-4885.359217,-11399.171507,-459.657299
594.367022,-7402.059420,-11177.109724,-1685.410096
594.367350,-4663.297435,-9474.636058,-689.485948
594.367677,-2368.659014,-7994.224174,-306.438199
594.368005,74.020594,-7920.203579,1072.533697
594.368333,0.000000,-9326.594869,995.924147
594.368660,-3108.864956,-9326.594869,459.657299
594.368988,-4959.379811,-8882.471304,-459.657299
594.369315,-3923.091493,-9548.656652,-383.047749
594.369643,-3330.926739,-10510.924376,-536.266849
594.369970,-3182.885551,-11473.192101,-2298.286494
594.370298,-3627.009116,-11177.109724,-1915.238745
594.370625,-1850.514855,-8512.368333,-2298.286494
594.370953,-518.144159,-7254.018232,-1915.238745
594.371281,962.267725,-5699.585753,-2145.067394
594.371608,1332.370696,-7402.059420,-3753.867940
594.371936,3404.947333,-7772.162391,-4213.525239
594.372263,3997.112087,-8216.285956,-4826.401637
594.372591,5477.523971,-8808.450710,-3753.867940
594.372918,4589.276840,-10510.924376,-3217.601092
594.373246,4071.132681,-12953.603985,-3600.648841
594.373574,3552.988522,-13767.830521,-3753.867940
594.373901,3034.844362,-13915.871710,-3830.477490
594.374229,2738.761985,-12879.583391,-3370.820191
594.374557,1554.432478,-11399.171507,-4136.915689
594.374885,2072.576638,-10807.006753,-2987.772442
594.375213,2368.659014,-10362.883188,-2451.505594
594.375540,2368.659014,-9548.656652,-3064.381992
594.375868,222.061783,-8808.450710,-4443.353888
594.376196,-740.205942,-8808.450710,-4673.182538
594.376524,-1628.453072,-8290.306550,-5286.058936
594.376851,-2294.638420,-7031.956449,-5745.716235
594.377179,-1406.391290,-6143.709319,-5822.325785
594.377507,0.000000,-5773.606348,-4673.182538
594.377835,1258.350101,-5107.421000,-2834.553343
594.378163,1110.308913,-5403.503377,-2145.067394
594.378490,222.061783,-6957.935855,-995.924147
594.378818,-962.267725,-9030.512492,-1915.238745
594.379146,-2368.659014,-9474.636058,-2145.067394
594.379474,-3108.864956,-10288.862594,-2528.115143
594.379801,-4071.132681,-10288.862594,-2298.286494
594.380129,-2960.823768,-8586.388927,-1455.581446
594.380457,-740.205942,-7550.100608,-1378.971896
594.380785,0.000000,-8290.306550,-1225.752797
594.381113,-2072.576638,-8956.491898,-2451.505594
594.381440,-3478.967927,-9548.656652,-3294.210641
594.381768,-3404.947333,-9400.615463,-4443.353888
594.382096,-3182.885551,-8512.368333,-4366.744339
594.382424,-1332.370696,-8586.388927,-3907.087040
594.382751,2072.576638,-7550.100608,-2528.115143
594.383079,3404.947333,-5551.544565,-1915.238745
594.383407,4071.132681,-6217.729913,-536.266849
594.383735,2886.803174,-7476.080014,0.000000
594.384062,814.226536,-7846.182985,-1225.752797
594.384390,-370.102971,-8956.491898,-1302.362347
594.384718,-444.123565,-10362.883188,-229.828649
594.385046,-1110.308913,-9844.739029,-383.047749
594.385374,1406.391290,-8586.388927,153.219100
594.385701,2590.720797,-8660.409521,766.095498
594.386029,2368.659014,-9178.553681,612.876398
594.386357,1480.411884,-8586.388927,-995.924147
594.386685,814.226536,-8068.244768,-2068.457845
594.387012,-148.041188,-8882.471304,-2068.457845
594.387340,222.061783,-9474.636058,-1149.143247
594.387668,0.000000,-9474.636058,-689.485948
594.387996,888.247130,-10955.047942,536.266849
594.388324,666.185348,-11251.130318,842.705048
594.388651,-888.247130,-11621.233289,1072.533697
594.388979,-4071.132681,-10955.047942,0.000000
594.389307,-4367.215058,-10807.006753,-766.095498
594.389635,-4885.359217,-11103.089130,-536.266849
594.389962,-4293.194464,-9252.574275,-689.485948
594.390290,-3923.091493,-8068.244768,-689.485948
594.390618,-2516.700203,-7772.162391,-459.657299
594.390946,-2812.782580,-7920.203579,-1149.143247
594.391274,-3552.988522,-7624.121203,-1838.629195
594.391601,-2220.617826,-7254.018232,-2068.457845
594.391929,-888.247130,-7846.182985,-1915.238745
594.392257,0.000000,-7846.182985,-1455.581446
594.392585,-296.082377,-9178.553681,-1455.581446
594.392912,962.267725,-10214.842000,-383.047749
594.393240,2072.576638,-10288.862594,0.000000
594.393568,2146.597232,-10140.821405,153.219100
594.393896,3552.988522,-10881.027347,689.485948
594.394224,3849.070898,-11547.212695,1302.362347
594.394551,2590.720797,-12139.377449,1302.362347
594.394879,814.226536,-11843.295072,689.485948
594.395207,444.123565,-11325.150913,76.609550
594.395535,0.000000,-10436.903782,-919.314598
594.395862,1110.308913,-9474.636058,0.000000
594.396190,2590.720797,-8660.409521,-459.657299
594.396518,3182.885551,-8586.388927,229.828649
594.396846,2294.638420,-8068.244768,76.609550
594.397173,1258.350101,-9030.512492,0.000000
594.397501,-814.226536,-8068.244768,-1149.143247
594.397829,-1184.329507,-8216.285956,-612.876398
594.398157,-740.205942,-7624.121203,153.219100
594.398485,-814.226536,-7698.141797,766.095498
594.398812,-740.205942,-8660.409521,1685.410096
594.399140,-2516.700203,-8882.471304,2604.724693
594.399468,-4367.215058,-8956.491898,1072.533697
594.399796,-4811.338623,-8882.471304,153.219100
594.400123,-5329.482782,-8216.285956,-383.047749
594.400451,-3256.906145,-7179.997637,-766.095498
594.400779,-814.226536,-6883.915261,306.438199
594.401107,518.144159,-6587.832884,536.266849
594.401435,814.226536,-7328.038826,1225.752797
594.401762,0.000000,-8290.306550,842.705048
594.402090,-1924.535449,-8660.409521,536.266849
594.402418,-2590.720797,-9770.718434,-383.047749
594.402746,-1850.514855,-9400.615463,229.828649
594.403073,-1332.370696,-9474.636058,383.047749
594.403401,0.000000,-9400.615463,1302.362347
594.403729,1554.432478,-9252.574275,2451.505594
594.404057,1480.411884,-8734.430116,2145.067394
594.404385,1924.535449,-8586.388927,2451.505594
594.404712,2368.659014,-8586.388927,2528.115143
594.405040,2368.659014,-7846.182985,2145.067394
594.405368,1998.556043,-7846.182985,2145.067394
594.405696,814.226536,-8438.347739,995.924147
594.406023,1110.308913,-8364.327145,1072.533697
594.406351,666.185348,-7846.182985,153.219100
594.406679,1776.494261,-8734.430116,1455.581446
594.407007,1628.453072,-8660.409521,1072.533697
594.407335,1332.370696,-9696.697840,612.876398
594.407662,592.164754,-10436.903782,1532.190996
594.407990,-1332.370696,-10955.047942,0.000000
594.408318,-2368.659014,-11843.295072,-536.266849
594.408646,-2886.803174,-11695.253884,-612.876398
594.408973,-2220.617826,-10807.006753,-766.095498
594.409301,-814.226536,-9696.697840,153.219100
594.409629,0.000000,-9548.656652,0.000000
594.409957,-888.247130,-10214.842000,306.438199
594.410284,-2368.659014,-10584.944971,-689.485948
594.410612,-3552.988522,-9844.739029,-1225.752797
594.410940,-3108.864956,-9770.718434,-1302.362347
594.411268,-2294.638420,-9622.677246,-1455.581446
594.411596,-740.205942,-9400.615463,-229.828649
594.411923,0.000000,-9696.697840,306.438199
594.412251,814.226536,-9548.656652,459.657299
594.412579,666.185348,-9326.594869,76.609550
594.412907,1110.308913,-9548.656652,306.438199
594.413234,962.267725,-10066.800811,612.876398
594.413562,1554.432478,-10436.903782,842.705048
594.413890,1628.453072,-10658.965565,1225.752797
594.414218,1110.308913,-11029.068536,1915.238745
594.414546,666.185348,-11251.130318,2145.067394
594.414873,-518.144159,-10288.862594,1149.143247
594.415201,-666.185348,-10140.821405,612.876398
594.415529,0.000000,-9622.677246,536.266849
594.415857,1110.308913,-7846.182985,842.705048
594.416184,1258.350101,-8216.285956,1455.581446
594.416512,0.000000,-9030.512492,1608.800546
594.416840,-370.102971,-9400.615463,1149.143247
594.417168,-222.061783,-7994.224174,995.924147
594.417496,1036.288319,-7031.956449,1608.800546
594.417823,888.247130,-7624.121203,1991.848295
594.418151,222.061783,-8290.306550,2068.457845
594.418479,-1924.535449,-8956.491898,2221.676944
594.418807,-3478.967927,-8216.285956,1532.190996
594.419134,-3775.050304,-7994.224174,689.485948
594.419462,-3478.967927,-7624.121203,229.828649
594.419790,-3256.906145,-7328.038826,76.609550
594.420118,-1924.535449,-7328.038826,0.000000
594.420446,-1776.494261,-6883.915261,-153.219100
594.420773,-1554.432478,-6809.894666,0.000000
594.421101,-1406.391290,-6809.894666,-306.438199
594.421429,-666.185348,-7179.997637,0.000000
594.421757,74.020594,-7550.100608,919.314598
594.422084,518.144159,-7624.121203,995.924147
594.422412,1110.308913,-8068.244768,1685.410096
594.422740,296.082377,-9770.718434,1685.410096
594.423068,-740.205942,-10658.965565,1225.752797
594.423395,-1850.514855,-10288.862594,766.095498
594.423723,-1554.432478,-9548.656652,229.828649
594.424051,-148.041188,-8956.491898,153.219100
594.424379,1258.350101,-7920.203579,76.609550
594.424707,2368.659014,-7328.038826,306.438199
594.425034,2516.700203,-7994.224174,766.095498
594.425362,3034.844362,-7402.059420,0.000000
594.425690,2664.741391,-7179.997637,306.438199
594.426018,3775.050304,-8438.347739,1225.752797
594.426345,2664.741391,-9400.615463,1378.971896
594.426673,1924.535449,-10955.047942,2451.505594
594.427001,-370.102971,-12435.459826,1838.629195
594.427329,-2516.700203,-13249.686362,1149.143247
594.427657,-3701.029710,-13397.727550,229.828649
594.427984,-3330.926739,-12287.418637,-306.438199
594.428312,-3034.844362,-11103.089130,-995.924147
594.428640,-1776.494261,-10584.944971,-919.314598
594.428968,-888.247130,-8512.368333,-1302.362347
594.429295,74.020594,-7476.080014,-1302.362347
594.429623,740.205942,-6957.935855,-1532.190996
594.429951,962.267725,-7105.977043,-1225.752797
594.430279,1480.411884,-7402.059420,-383.047749
594.430607,962.267725,-7846.182985,536.266849
594.430934,1258.350101,-8808.450710,1532.190996
594.431262,-1332.370696,-10658.965565,1762.019645
594.431590,-2738.761985,-12435.459826,1915.238745
594.431918,-3923.091493,-13249.686362,1455.581446
594.432245,-3775.050304,-11991.336260,919.314598
594.432573,-2812.782580,-10288.862594,689.485948
594.432901,-296.082377,-9474.636058,842.705048
594.433229,-222.061783,-8364.327145,76.609550
594.433556,814.226536,-7402.059420,383.047749
594.433884,1480.411884,-6069.688724,-229.828649
594.434212,1924.535449,-5403.503377,-306.438199
594.434540,2516.700203,-6069.688724,306.438199
594.434868,2072.576638,-6439.791695,536.266849
594.435195,1998.556043,-7994.224174,1532.190996
594.435523,-222.061783,-9844.739029,2145.067394
594.435851,-1628.453072,-11251.130318,2221.676944
594.436179,-3627.009116,-11769.274478,1685.410096
594.436506,-3552.988522,-11473.192101,1455.581446
594.436834,-3256.906145,-10732.986159,842.705048
594.437162,-2516.700203,-9474.636058,766.095498
594.437490,-1628.453072,-8660.409521,229.828649
594.437818,-1332.370696,-7328.038826,-153.219100
594.438145,0.000000,-5847.626942,-306.438199
594.438473,1480.411884,-5255.462188,-612.876398
594.438801,2664.741391,-5773.606348,612.876398
594.439129,3775.050304,-5921.647536,536.266849
594.439456,3552.988522,-6957.935855,1302.362347
594.439784,1480.411884,-9104.533087,1608.800546
594.440112,-444.123565,-11029.068536,1685.410096
594.440440,-1850.514855,-12583.501014,1225.752797
594.440768,-2146.597232,-13027.624579,1685.410096
594.441095,-2146.597232,-12879.583391,1225.752797
594.441423,-1258.350101,-12065.356855,1225.752797
594.441751,-888.247130,-11251.130318,842.705048
594.442079,-74.020594,-10510.924376,153.219100
594.442406,74.020594,-8438.347739,-383.047749
594.442734,1480.411884,-7402.059420,-306.438199
594.443062,2738.761985,-6661.853478,0.000000
594.443390,3404.947333,-6365.771101,689.485948
594.443718,3627.009116,-7031.956449,1455.581446
594.444045,1776.494261,-8660.409521,1762.019645
594.444373,-1036.288319,-9992.780217,1532.190996
594.444701,-3182.885551,-10881.027347,459.657299
594.445029,-4219.173869,-10881.027347,306.438199
594.445356,-3627.009116,-11029.068536,0.000000
594.445684,-3330.926739,-10436.903782,229.828649
594.446012,-2590.720797,-10140.821405,-229.828649
594.446340,-2368.659014,-9474.636058,-459.657299
594.446667,-1924.535449,-7476.080014,-1072.533697
594.446995,-444.123565,-6661.853478,-1302.362347
594.447323,1702.473667,-6291.750507,-995.924147
594.447651,2294.638420,-6143.709319,-612.876398
594.447979,2886.803174,-7254.018232,383.047749
594.448306,1554.432478,-9474.636058,1072.533697
594.448634,-370.102971,-10510.924376,1302.362347
594.448962,-1850.514855,-11695.253884,766.095498
594.449290,-2442.679609,-11695.253884,459.657299
594.449617,-2220.617826,-11843.295072,306.438199
594.449945,-1998.556043,-11029.068536,229.828649
594.450273,-888.247130,-9770.718434,229.828649
594.450601,0.000000,-9030.512492,536.266849
594.450929,1184.329507,-7402.059420,-766.095498
594.451256,2812.782580,-6587.832884,383.047749
594.451584,4145.153275,-6291.750507,536.266849
594.451912,4515.256246,-5773.606348,1378.971896
594.452240,4515.256246,-7031.956449,2145.067394
594.452567,3108.864956,-8290.306550,2834.553343
594.452895,296.082377,-9844.739029,2374.896044
594.453223,-1406.391290,-11325.150913,1838.629195
594.453551,-2516.700203,-11843.295072,1685.410096
594.453879,-3182.885551,-11399.171507,1532.190996
594.454206,-3404.947333,-10510.924376,1302.362347
594.454534,-2886.803174,-9770.718434,919.314598
594.454862,-3330.926739,-9992.780217,-383.047749
594.455190,-2590.720797,-8512.368333,-842.705048
594.455517,-1184.329507,-6735.874072,-536.266849
594.455845,1110.308913,-5773.606348,153.219100
594.456173,1776.494261,-5625.565159,919.314598
594.456501,1924.535449,-6957.935855,1608.800546
594.456829,518.144159,-8956.491898,1608.800546
594.457156,-1776.494261,-9474.636058,1225.752797
594.457484,-2812.782580,-10066.800811,1072.533697
594.457812,-3627.009116,-11251.130318,1149.143247
594.458140,-3849.070898,-11769.274478,766.095498
594.458467,-3775.050304,-10658.965565,0.000000
594.458795,-2886.803174,-9696.697840,0.000000
594.459123,-2146.597232,-8956.491898,-612.876398
594.459451,-740.205942,-7920.203579,-766.095498
594.459778,888.247130,-6587.832884,-1608.800546
594.460106,3849.070898,-6587.832884,-306.438199
594.460434,4737.318029,-6365.771101,76.609550
594.460762,5551.544565,-7402.059420,1378.971896
594.461090,3701.029710,-9104.533087,2145.067394
594.461417,2294.638420,-11251.130318,2298.286494
594.461745,-518.144159,-12509.480420,995.924147
594.462073,-1850.514855,-13101.645173,1302.362347
594.462401,-1924.535449,-12805.562797,995.924147
594.462728,-2442.679609,-12509.480420,842.705048
594.463056,-1702.473667,-11103.089130,153.219100
594.463384,-1628.453072,-9770.718434,-459.657299
594.463712,-592.164754,-8586.388927,-919.314598
594.464040,814.226536,-6365.771101,-1302.362347
594.464367,2368.659014,-5847.626942,-383.047749
594.464695,3552.988522,-4219.173869,-76.609550
594.465023,3923.091493,-5773.606348,1072.533697
594.465351,1406.391290,-7402.059420,995.924147
594.465678,-666.185348,-8808.450710,1072.533697
594.466006,-3330.926739,-10436.903782,536.266849
594.466334,-4367.215058,-10732.986159,1149.143247
594.466662,-4737.318029,-11029.068536,229.828649
594.466990,-4293.194464,-11399.171507,306.438199
594.467317,-4071.132681,-11621.233289,229.828649
594.467645,-3627.009116,-10510.924376,-383.047749
594.467973,-3330.926739,-8586.388927,-1915.238745
594.468301,-962.267725,-7031.956449,-1915.238745
594.468628,1184.329507,-5847.626942,-1378.971896
594.468956,3701.029710,-5921.647536,-306.438199
594.469284,3701.029710,-6217.729913,306.438199
594.469612,3404.947333,-8142.265362,1378.971896
594.469940,2072.576638,-9030.512492,919.314598
594.470267,74.020594,-10140.821405,1455.581446
594.470595,0.000000,-11621.233289,1608.800546
594.470923,-592.164754,-11769.274478,2068.457845
594.471251,-1110.308913,-11843.295072,1378.971896
594.471578,-1036.288319,-11399.171507,1991.848295
594.471906,-1110.308913,-10436.903782,1225.752797
594.472234,-740.205942,-9770.718434,459.657299
594.472561,1332.370696,-7550.100608,0.000000
594.472889,2590.720797,-5995.668130,0.000000
594.473217,4219.173869,-4811.338623,1149.143247
594.473544,4293.194464,-5181.441594,1378.971896
594.473872,3108.864956,-7476.080014,1915.238745
594.474200,1184.329507,-9104.533087,1608.800546
594.474527,-444.123565,-10955.047942,1838.629195
594.474855,-2146.597232,-12139.377449,2451.505594
594.475183,-3552.988522,-13101.645173,1991.848295
594.475510,-4145.153275,-12953.603985,2068.457845
594.475838,-5033.400406,-12731.542202,1838.629195
594.476166,-5181.441594,-11547.212695,919.314598
594.476494,-5107.421000,-8956.491898,-919.314598
594.476821,-3182.885551,-6587.832884,-766.095498
594.477149,-1110.308913,-5477.523971,-1302.362347
594.477477,444.123565,-4071.132681,-1149.143247
594.477804,1998.556043,-4441.235652,-383.047749
594.478132,1628.453072,-5477.523971,0.000000
594.478460,0.000000,-6513.812290,-306.438199
594.478787,-1110.308913,-9474.636058,612.876398
594.479115,-2294.638420,-10955.047942,689.485948
594.479443,-1702.473667,-11399.171507,1302.362347
594.479770,-1258.350101,-11621.233289,1762.019645
594.480098,-1702.473667,-11843.295072,1378.971896
594.480426,-1258.350101,-12361.439231,1072.533697
594.480753,-1998.556043,-10732.986159,-306.438199
594.481081,-518.144159,-8734.430116,-459.657299
594.481409,2294.638420,-7254.018232,-383.047749
594.481736,4663.297435,-6439.791695,0.000000
594.482064,4885.359217,-6291.750507,-612.876398
594.482392,4959.379811,-7328.038826,536.266849
594.482719,3478.967927,-9030.512492,1149.143247
594.483047,1850.514855,-9400.615463,842.705048
594.483375,962.267725,-11251.130318,1225.752797
594.483702,-740.205942,-11769.274478,1378.971896
594.484030,-1184.329507,-11991.336260,1225.752797
594.484358,-1628.453072,-12435.459826,1685.410096
594.484685,-3182.885551,-11399.171507,919.314598
594.485013,-3404.947333,-10140.821405,0.000000
594.485341,-2294.638420,-8734.430116,-536.266849
594.485668,-1406.391290,-6883.915261,-1072.533697
594.485996,0.000000,-5847.626942,-766.095498
594.486324,1480.411884,-5551.544565,-306.438199
594.486651,518.144159,-6143.709319,0.000000
594.486979,0.000000,-6809.894666,383.047749
594.487307,-1110.308913,-8586.388927,229.828649
594.487634,-1850.514855,-9918.759623,306.438199
594.487962,-1998.556043,-10140.821405,536.266849
594.488290,-2220.617826,-11325.150913,1302.362347
594.488617,-2368.659014,-11769.274478,1072.533697
594.488945,-2442.679609,-11769.274478,766.095498
594.489273,-2220.617826,-11325.150913,76.609550
594.489600,-888.247130,-9696.697840,0.000000
594.489928,592.164754,-8512.368333,0.000000
594.490256,2590.720797,-7031.956449,536.266849
594.490584,4293.194464,-6365.771101,1072.533697
594.490911,2886.803174,-7476.080014,842.705048
594.491239,1480.411884,-7920.203579,766.095498
594.491567,518.144159,-8216.285956,766.095498
594.491894,814.226536,-8586.388927,1149.143247
594.492222,0.000000,-9400.615463,1532.190996
594.492550,74.020594,-9992.780217,1608.800546
594.492877,-1332.370696,-11177.109724,1838.629195
594.493205,-1702.473667,-10732.986159,1532.190996
594.493533,-1554.432478,-10066.800811,842.705048
594.493860,-296.082377,-9030.512492,1225.752797
594.494188,518.144159,-9030.512492,995.924147
594.494516,1776.494261,-8142.265362,1302.362347
594.494843,1776.494261,-7402.059420,1378.971896
594.495171,1406.391290,-7476.080014,1455.581446
594.495499,0.000000,-7846.182985,995.924147
594.495826,-740.205942,-8808.450710,459.657299
594.496154,-1702.473667,-8882.471304,306.438199
594.496482,-1850.514855,-8660.409521,689.485948
594.496809,-1702.473667,-8956.491898,689.485948
594.497137,-2442.679609,-9548.656652,995.924147
594.497465,-2960.823768,-10881.027347,689.485948
594.497792,-3923.091493,-9770.718434,689.485948
594.498120,-3404.947333,-9104.533087,0.000000
594.498448,-1924.535449,-8216.285956,76.609550
594.498775,-444.123565,-7328.038826,383.047749
594.499103,148.041188,-6809.894666,612.876398
594.499431,148.041188,-7179.997637,1149.143247
594.499758,-518.144159,-7254.018232,153.219100
594.500086,0.000000,-7698.141797,153.219100
594.500414,0.000000,-7920.203579,306.438199
594.500741,1036.288319,-8882.471304,1225.752797
594.501069,666.185348,-9326.594869,1072.533697
594.501397,0.000000,-10510.924376,689.485948
594.501724,-592.164754,-11843.295072,842.705048
594.502052,-1480.411884,-11547.212695,0.000000
594.502380,-148.041188,-10510.924376,0.000000
594.502707,1258.350101,-10436.903782,229.828649
594.503035,2146.597232,-9918.759623,0.000000
594.503363,1702.473667,-10658.965565,306.438199
594.503691,888.247130,-10288.862594,0.000000
594.504018,666.185348,-9844.739029,-536.266849
594.504346,444.123565,-9548.656652,-383.047749
594.504674,370.102971,-9844.739029,-536.266849
594.505001,444.123565,-10140.821405,0.000000
594.505329,148.041188,-9770.718434,0.000000
594.505657,666.185348,-9548.656652,536.266849
594.505984,74.020594,-9548.656652,459.657299
594.506312,0.000000,-9548.656652,0.000000
594.506640,-296.082377,-9474.636058,-459.657299
594.506967,814.226536,-8364.327145,536.266849
594.507295,1480.411884,-7624.121203,842.705048
594.507623,1628.453072,-8734.430116,1302.362347
594.507950,592.164754,-9474.636058,1685.410096
594.508278,-518.144159,-9622.677246,1225.752797
594.508606,-1480.411884,-9696.697840,536.266849
594.508933,-1924.535449,-10140.821405,842.705048
594.509261,-1924.535449,-10510.924376,995.924147
594.509589,-1776.494261,-10658.965565,1762.019645
594.509916,-1036.288319,-10066.800811,1455.581446
594.510244,-1110.308913,-10066.800811,1225.752797
594.510572,-2146.597232,-9622.677246,842.705048
594.510899,-1554.432478,-8882.471304,536.266849
594.511227,-1110.308913,-7105.977043,919.314598
594.511555,-370.102971,-7179.997637,842.705048
594.511882,-444.123565,-7179.997637,1149.143247
594.512210,-888.247130,-8290.306550,1225.752797
594.512538,-2072.576638,-7698.141797,689.485948
594.512865,-2516.700203,-7994.224174,229.828649
594.513193,-1850.514855,-8438.347739,306.438199
594.513521,-592.164754,-7920.203579,1149.143247
594.513848,0.000000,-7402.059420,1149.143247
594.514176,1184.329507,-8068.244768,2068.457845
594.514504,444.123565,-8586.388927,1532.190996
594.514831,-296.082377,-7846.182985,1302.362347
594.515159,222.061783,-7846.182985,842.705048
594.515487,1776.494261,-7328.038826,1302.362347
594.515814,2146.597232,-7698.141797,1378.971896
594.516142,1776.494261,-8438.347739,1608.800546
594.516470,740.205942,-9400.615463,842.705048
594.516797,-518.144159,-9030.512492,612.876398
594.517125,-1258.350101,-8956.491898,153.219100
594.517453,-962.267725,-9326.594869,0.000000
594.517781,-740.205942,-8882.471304,0.000000
594.518108,-296.082377,-8586.388927,766.095498
594.518436,0.000000,-7920.203579,0.000000
594.518764,-296.082377,-8216.285956,153.219100
594.519091,-666.185348,-8364.327145,-229.828649
594.519419,-370.102971,-7550.100608,-153.219100
594.519747,74.020594,-7179.997637,-306.438199
594.520074,592.164754,-8068.244768,612.876398
594.520402,148.041188,-8660.409521,766.095498
594.520730,-518.144159,-9770.718434,612.876398
594.521057,-2146.597232,-10362.883188,0.000000
594.521385,-2738.761985,-10288.862594,-689.485948
594.521713,-2368.659014,-10510.924376,-919.314598
594.522040,-1924.535449,-9696.697840,-1072.533697
594.522368,-1184.329507,-9252.574275,-1455.581446
594.522696,-296.082377,-9548.656652,-919.314598
594.523023,0.000000,-9696.697840,-1225.752797
594.523351,444.123565,-9400.615463,-842.705048
594.523679,1332.370696,-9474.636058,-1149.143247
594.524006,1998.556043,-9622.677246,0.000000
594.524334,2442.679609,-9622.677246,229.828649
594.524662,2812.782580,-11251.130318,1455.581446
594.524989,1184.329507,-11769.274478,1608.800546
594.525317,0.000000,-12065.356855,1378.971896
594.525645,-1406.391290,-11843.295072,1225.752797
594.525972,-1776.494261,-11103.089130,842.705048
594.526300,148.041188,-10510.924376,919.314598
594.526628,888.247130,-9178.553681,612.876398
594.526955,1554.432478,-8808.450710,1072.533697
594.527283,1998.556043,-8142.265362,1149.143247
594.527611,1850.514855,-7846.182985,766.095498
594.527938,2368.659014,-7920.203579,1378.971896
594.528266,2590.720797,-8882.471304,2145.067394
594.528594,2072.576638,-8216.285956,2681.334243
594.528921,814.226536,-9696.697840,2528.115143
594.529249,-1628.453072,-11621.233289,2145.067394
594.529577,-3997.112087,-12139.377449,1915.238745
594.529904,-5699.585753,-11917.315666,995.924147
594.530232,-5107.421000,-11547.212695,766.095498
594.530560,-4811.338623,-9770.718434,229.828649
594.530888,-3701.029710,-9030.512492,153.219100
594.531215,-3330.926739,-8586.388927,229.828649
594.531543,-2590.720797,-6883.915261,-306.438199
594.531871,-2146.597232,-5181.441594,-766.095498
594.532198,-296.082377,-4737.318029,-383.047749
594.532526,592.164754,-4811.338623,229.828649
594.532854,370.102971,-6069.688724,1225.752797
594.533181,444.123565,-7476.080014,2068.457845
594.533509,-962.267725,-8882.471304,2451.505594
594.533837,-1480.411884,-9474.636058,1532.190996
594.534164,-2368.659014,-10214.842000,459.657299
594.534492,-2072.576638,-9770.718434,383.047749
594.534820,-370.102971,-8734.430116,76.609550
594.535147,1184.329507,-7846.182985,0.000000
594.535475,1998.556043,-7254.018232,383.047749
594.535803,2812.782580,-7550.100608,536.266849
594.536130,2516.700203,-7254.018232,-612.876398
594.536458,3404.947333,-7179.997637,0.000000
594.536786,4441.235652,-7402.059420,842.705048
594.537113,4441.235652,-7550.100608,1685.410096
594.537441,3404.947333,-9104.533087,1685.410096
594.537769,740.205942,-11177.109724,1608.800546
594.538096,-962.267725,-11769.274478,1149.143247
594.538424,-2590.720797,-11621.233289,689.485948
594.538752,-2442.679609,-10732.986159,306.438199
594.539079,-2368.659014,-9992.780217,153.219100
594.539407,-2146.597232,-9622.677246,-612.876398
594.539735,-1480.411884,-8438.347739,-766.095498
594.540062,-1406.391290,-7031.956449,-1149.143247
594.540390,-888.247130,-6439.791695,-1455.581446
594.540718,-222.061783,-6513.812290,-1302.362347
594.541045,888.247130,-6513.812290,-459.657299
594.541373,962.267725,-7031.956449,0.000000
594.541701,1406.391290,-8364.327145,689.485948
594.542028,-814.226536,-10584.944971,536.266849
594.542356,-2072.576638,-11769.274478,689.485948
594.542684,-4145.153275,-12805.562797,306.438199
594.543011,-3849.070898,-12583.501014,306.438199
594.543339,-2664.741391,-12139.377449,0.000000
594.543667,-962.267725,-11251.130318,76.609550
594.543994,222.061783,-9770.718434,612.876398
594.544322,1184.329507,-9252.574275,306.438199
594.544650,1480.411884,-7402.059420,-383.047749
594.544978,3182.885551,-7179.997637,229.828649
594.545305,3849.070898,-7550.100608,612.876398
594.545633,3404.947333,-8290.306550,1378.971896
594.545961,2960.823768,-9474.636058,2374.896044
594.546288,518.144159,-10732.986159,2451.505594
594.546616,-1258.350101,-11917.315666,2145.067394
594.546944,-2516.700203,-12213.398043,1915.238745
594.547271,-2738.761985,-11843.295072,1685.410096
594.547599,-2590.720797,-10436.903782,1378.971896
594.547927,-1998.556043,-9474.636058,919.314598
594.548254,-1702.473667,-9030.512492,842.705048
594.548582,-1406.391290,-7328.038826,229.828649
594.548910,-370.102971,-6957.935855,-383.047749
594.549237,222.061783,-6439.791695,0.000000
594.549565,814.226536,-5921.647536,0.000000
594.549893,1332.370696,-6661.853478,995.924147
594.550220,1406.391290,-7846.182985,1532.190996
594.550548,-888.247130,-9770.718434,1991.848295
594.550876,-2590.720797,-10881.027347,2298.286494
594.551203,-4293.194464,-11621.233289,842.705048
594.551531,-4219.173869,-11843.295072,1225.752797
594.551859,-3034.844362,-10807.006753,995.924147
594.552186,-2368.659014,-9622.677246,612.876398
594.552514,-1702.473667,-9104.533087,536.266849
594.552842,-962.267725,-7920.203579,-459.657299
594.553169,666.185348,-6143.709319,-842.705048
594.553497,2294.638420,-5181.441594,-842.705048
594.553825,3997.112087,-5477.523971,-306.438199
594.554152,3997.112087,-6143.709319,229.828649
594.554480,4071.132681,-7105.977043,536.266849
594.554808,2664.741391,-9622.677246,1302.362347
594.555135,296.082377,-10881.027347,1455.581446
594.555463,-1258.350101,-12139.377449,1532.190996
594.555791,-2516.700203,-12287.418637,995.924147
594.556118,-2072.576638,-11177.109724,1455.581446
594.556446,-1480.411884,-10362.883188,459.657299
594.556774,-1184.329507,-10066.800811,153.219100
594.557101,-814.226536,-8956.491898,-383.047749
594.557429,0.000000,-6883.915261,-1072.533697
594.557757,1998.556043,-6217.729913,-306.438199
594.558085,3552.988522,-5033.400406,306.438199
594.558412,3478.967927,-5847.626942,536.266849
594.558740,2738.761985,-7624.121203,1225.752797
594.559068,222.061783,-9474.636058,1225.752797
594.559395,-1702.473667,-10510.924376,842.705048
594.559723,-3108.864956,-11473.192101,1225.752797
594.560051,-4589.276840,-12287.418637,689.485948
594.560378,-4663.297435,-12139.377449,383.047749
594.560706,-3849.070898,-10288.862594,-459.657299
594.561034,-2738.761985,-9400.615463,-383.047749
594.561361,-1406.391290,-8216.285956,-306.438199
594.561689,0.000000,-6439.791695,-1225.752797
594.562017,1702.473667,-6513.812290,-459.657299
594.562344,3552.988522,-6143.709319,153.219100
594.562672,4071.132681,-5699.585753,1302.362347
594.563000,3627.009116,-7105.977043,2374.896044
594.563327,1628.453072,-9622.677246,2298.286494
594.563655,-814.226536,-11029.068536,2145.067394
594.563983,-2072.576638,-12657.521608,1838.629195
594.564310,-3997.112087,-12731.542202,1149.143247
594.564638,-3330.926739,-12731.542202,1378.971896
594.564966,-2886.803174,-10955.047942,229.828649
594.565293,-2886.803174,-10436.903782,0.000000
594.565621,-1258.350101,-8660.409521,-1225.752797
594.565949,-222.061783,-7254.018232,-995.924147
594.566276,814.226536,-6069.688724,-1225.752797
594.566604,2442.679609,-5551.544565,0.000000
594.566932,3701.029710,-5403.503377,766.095498
594.567259,2590.720797,-7105.977043,1225.752797
594.567587,370.102971,-9474.636058,1225.752797
594.567915,-1702.473667,-10510.924376,995.924147
594.568242,-3923.091493,-11029.068536,766.095498
594.568570,-3627.009116,-11695.253884,1072.533697
594.568898,-2738.761985,-11399.171507,995.924147
594.569225,-1776.494261,-10584.944971,459.657299
594.569553,-1110.308913,-9918.759623,459.657299
594.569881,0.000000,-8660.409521,459.657299
594.570208,592.164754,-7476.080014,-1072.533697
594.570536,2220.617826,-6883.915261,-612.876398
594.570864,3997.112087,-6809.894666,-306.438199
594.571191,4737.318029,-6957.935855,459.657299
594.571519,4811.338623,-8068.244768,1762.019645
594.571847,3034.844362,-9548.656652,2221.676944
594.572175,222.061783,-11399.171507,1991.848295
594.572502,-2442.679609,-12805.562797,1072.533697
594.572830,-2590.720797,-13545.768739,2068.457845
594.573158,-2368.659014,-13175.665768,1302.362347
594.573485,-3108.864956,-12435.459826,919.314598
594.573813,-3034.844362,-11843.295072,612.876398
594.574140,-2590.720797,-10584.944971,-383.047749
594.574468,-2294.638420,-8068.244768,-1072.533697
594.574796,296.082377,-6439.791695,-1225.752797
594.575123,1924.535449,-5255.462188,-689.485948
594.575451,3330.926739,-5181.441594,0.000000
594.575779,2886.803174,-6661.853478,459.657299
594.576106,1258.350101,-8068.244768,995.924147
594.576434,-518.144159,-9400.615463,995.924147
594.576762,-1554.432478,-11621.233289,1302.362347
594.577089,-2960.823768,-12065.356855,1455.581446
594.577417,-2738.761985,-12583.501014,1915.238745
594.577744,-3182.885551,-11917.315666,1302.362347
594.578072,-2590.720797,-11177.109724,919.314598
594.578400,-1998.556043,-9474.636058,0.000000
594.578727,-1110.308913,-8068.244768,-536.266849
594.579055,296.082377,-6735.874072,-1378.971896
594.579383,2664.741391,-5107.421000,-689.485948
594.579710,4071.132681,-3923.091493,-459.657299
594.580038,4737.318029,-5625.565159,766.095498
594.580365,3923.091493,-8068.244768,1532.190996
594.580693,1036.288319,-8882.471304,1532.190996
594.581021,-962.267725,-10140.821405,1378.971896
594.581348,-1776.494261,-11177.109724,1838.629195
594.581676,-2368.659014,-11325.150913,1915.238745
594.582004,-2368.659014,-11029.068536,1838.629195
594.582331,-2812.782580,-10436.903782,995.924147
594.582659,-2220.617826,-8586.388927,536.266849
594.582987,-2220.617826,-7031.956449,-689.485948
594.583314,-444.123565,-5847.626942,-612.876398
594.583642,888.247130,-5477.523971,-766.095498
594.583969,1924.535449,-4071.132681,76.609550
594.584297,2368.659014,-5181.441594,689.485948
594.584625,1628.453072,-7179.997637,919.314598
594.584952,-296.082377,-8586.388927,1072.533697
594.585280,-1850.514855,-10140.821405,1149.143247
594.585608,-2886.803174,-11325.150913,995.924147
594.585935,-2886.803174,-11399.171507,1149.143247
594.586263,-3256.906145,-11251.130318,689.485948
594.586591,-2368.659014,-11251.130318,919.314598
594.586918,-2738.761985,-10066.800811,0.000000
594.587246,-1554.432478,-9030.512492,-995.924147
594.587573,-814.226536,-7624.121203,-1225.752797
594.587901,1850.514855,-6217.729913,-766.095498
594.588229,3404.947333,-4959.379811,-383.047749
594.588556,4145.153275,-6587.832884,842.705048
594.588884,2812.782580,-8586.388927,1072.533697
594.589212,1036.288319,-9400.615463,1302.362347
594.589539,0.000000,-11103.089130,1608.800546
594.589867,-1184.329507,-12139.377449,1532.190996
594.590195,-740.205942,-12731.542202,2068.457845
594.590522,-666.185348,-12879.583391,1762.019645
594.590850,-1628.453072,-11991.336260,1685.410096
594.591177,-814.226536,-11621.233289,842.705048
594.591505,-1628.453072,-9992.780217,-229.828649
594.591833,-370.102971,-8586.388927,-919.314598
594.592160,1480.411884,-8438.347739,-612.876398
594.592488,2072.576638,-6217.729913,-383.047749
594.592816,2812.782580,-7031.956449,76.609550
594.593143,1998.556043,-8364.327145,612.876398
594.593471,370.102971,-8882.471304,536.266849
594.593798,-888.247130,-10510.924376,919.314598
594.594126,-1924.535449,-11473.192101,1072.533697
594.594454,-1924.535449,-11325.150913,1532.190996
594.594781,-2294.638420,-11769.274478,1149.143247
594.595109,-3256.906145,-12213.398043,1072.533697
594.595437,-3701.029710,-11769.274478,612.876398
594.595764,-3627.009116,-10288.862594,0.000000
594.596092,-1776.494261,-8586.388927,-919.314598
594.596420,296.082377,-7179.997637,-919.314598
594.596747,1628.453072,-6291.750507,-612.876398
594.597075,2220.617826,-6587.832884,-383.047749
594.597402,1776.494261,-7328.038826,153.219100
594.597730,518.144159,-7994.224174,-612.876398
594.598058,296.082377,-9104.533087,229.828649
594.598385,0.000000,-10436.903782,612.876398
594.598713,0.000000,-10955.047942,1225.752797
594.599041,-444.123565,-11843.295072,1685.410096
594.599368,-814.226536,-11399.171507,1991.848295
594.599696,-1036.288319,-10955.047942,1149.143247
594.600024,-740.205942,-9844.739029,536.266849
594.600351,-296.082377,-8808.450710,306.438199
594.600679,888.247130,-7179.997637,153.219100
594.601006,2516.700203,-6069.688724,1378.971896
594.601334,3182.885551,-5551.544565,536.266849
594.601662,2812.782580,-6291.750507,689.485948
594.601989,1628.453072,-6883.915261,612.876398
594.602317,740.205942,-8142.265362,689.485948
594.602645,-296.082377,-8882.471304,1685.410096
594.602972,0.000000,-9178.553681,2068.457845
594.603300,-962.267725,-10214.842000,1608.800546
594.603627,-1998.556043,-11103.089130,1685.410096
594.603955,-2590.720797,-10584.944971,1149.143247
594.604283,-3034.844362,-9400.615463,0.000000
594.604610,-2442.679609,-7624.121203,0.000000
594.604938,-666.185348,-6735.874072,0.000000
594.605266,-148.041188,-6143.709319,-306.438199
594.605593,296.082377,-6143.709319,0.000000
594.605921,-148.041188,-6883.915261,153.219100
594.606249,-1702.473667,-6883.915261,-459.657299
594.606576,-1702.473667,-8290.306550,0.000000
594.606904,-1776.494261,-9326.594869,153.219100
594.607231,-1332.370696,-9474.636058,689.485948
594.607559,-1628.453072,-9844.739029,842.705048
594.607887,-1702.473667,-10584.944971,612.876398
594.608214,-2220.617826,-10066.800811,612.876398
594.608542,-1776.494261,-9474.636058,383.047749
594.608870,-222.061783,-9326.594869,229.828649
594.609197,1480.411884,-7772.162391,383.047749
594.609525,2368.659014,-7476.080014,995.924147
594.609853,2738.761985,-7476.080014,766.095498
594.610180,1110.308913,-8586.388927,842.705048
594.610508,962.267725,-8808.450710,536.266849
594.610835,444.123565,-9770.718434,612.876398
594.611163,370.102971,-10214.842000,919.314598
594.611491,444.123565,-10436.903782,919.314598
594.611818,0.000000,-11177.109724,1149.143247
594.612146,-1110.308913,-11177.109724,689.485948
594.612474,-518.144159,-10436.903782,919.314598
594.612801,-1110.308913,-9696.697840,0.000000
594.613129,0.000000,-9474.636058,0.000000
594.613457,222.061783,-8956.491898,383.047749
594.613784,592.164754,-7994.224174,766.095498
594.614112,370.102971,-8882.471304,995.924147
594.614439,-444.123565,-9326.594869,842.705048
594.614767,-1628.453072,-9030.512492,306.438199
594.615095,-2220.617826,-9474.636058,0.000000
594.615422,-1702.473667,-9326.594869,153.219100
594.615750,-1480.411884,-9400.615463,306.438199
594.616078,-1110.308913,-9992.780217,612.876398
594.616405,-1110.308913,-10214.842000,612.876398
594.616733,-1036.288319,-10658.965565,842.705048
594.617060,-1258.350101,-10288.862594,76.609550
594.617388,-888.247130,-10584.944971,306.438199
594.617716,444.123565,-9918.759623,919.314598
594.618043,1110.308913,-8586.388927,919.314598
594.618371,1480.411884,-9178.553681,1455.581446
594.618699,1184.329507,-9844.739029,1149.143247
594.619026,0.000000,-9474.636058,536.266849
594.619354,-814.226536,-9400.615463,842.705048
594.619682,-592.164754,-9844.739029,842.705048
594.620009,-370.102971,-9400.615463,689.485948
594.620337,-148.041188,-9622.677246,995.924147
594.620664,-148.041188,-9770.718434,1149.143247
594.620992,-370.102971,-9030.512492,842.705048
594.621320,-666.185348,-8586.388927,459.657299
594.621647,-296.082377,-8734.430116,842.705048
594.621975,592.164754,-7772.162391,919.314598
594.622303,1110.308913,-7179.997637,842.705048
594.622630,1110.308913,-7994.224174,919.314598
594.622958,370.102971,-8438.347739,766.095498
594.623286,-666.185348,-7772.162391,383.047749
594.623613,-1110.308913,-8734.430116,689.485948
594.623941,-1406.391290,-8586.388927,383.047749
594.624268,-888.247130,-8512.368333,536.266849
594.624596,-592.164754,-8734.430116,689.485948
594.624924,-1406.391290,-8956.491898,612.876398
594.625251,-1628.453072,-9474.636058,612.876398
594.625579,-2294.638420,-9326.594869,0.000000
594.625907,-962.267725,-8808.450710,0.000000
594.626234,0.000000,-8068.244768,383.047749
594.626562,1036.288319,-7624.121203,612.876398
594.626889,1036.288319,-7846.182985,1072.533697
594.627217,518.144159,-8734.430116,1149.143247
594.627545,-962.267725,-8438.347739,383.047749
594.627872,-1110.308913,-9326.594869,0.000000
594.628200,-1332.370696,-9326.594869,0.000000
594.628528,-814.226536,-9104.533087,919.314598
594.628855,0.000000,-9030.512492,0.000000
594.629183,-444.123565,-9622.677246,459.657299
594.629511,74.020594,-9178.553681,459.657299
594.629838,-444.123565,-8882.471304,0.000000
594.630166,666.185348,-8586.388927,306.438199
594.630493,962.267725,-8068.244768,383.047749
594.630821,1628.453072,-8216.285956,306.438199
594.631149,1480.411884,-8956.491898,766.095498
594.631476,592.164754,-9400.615463,612.876398
594.631804,-1036.288319,-10214.842000,0.000000
594.632132,-1702.473667,-10214.842000,-842.705048
594.632459,-1406.391290,-10362.883188,-459.657299
594.632787,-740.205942,-9548.656652,-306.438199
594.633115,74.020594,-9844.739029,0.000000
594.633442,-444.123565,-10362.883188,842.705048
594.633770,148.041188,-9992.780217,612.876398
594.634097,-296.082377,-8586.388927,0.000000
594.634425,1184.329507,-7846.182985,459.657299
594.634753,1998.556043,-7550.100608,766.095498
594.635080,1554.432478,-8068.244768,1149.143247
594.635408,740.205942,-9030.512492,1685.410096
594.635736,-296.082377,-9474.636058,1225.752797
594.636063,-2220.617826,-10362.883188,536.266849
594.636391,-2516.700203,-10881.027347,612.876398
594.636719,-2072.576638,-10140.821405,459.657299
594.637046,-1184.329507,-9474.636058,842.705048
594.637374,-444.123565,-9104.533087,766.095498
594.637701,-222.061783,-9770.718434,842.705048
594.638029,0.000000,-9178.553681,1072.533697
594.638357,-1036.288319,-8216.285956,306.438199
594.638684,-370.102971,-8364.327145,766.095498
594.639012,592.164754,-8068.244768,1072.533697
594.639340,74.020594,-8142.265362,1072.533697
594.639667,-296.082377,-9030.512492,1685.410096
594.639995,-1110.308913,-9104.533087,1532.190996
594.640322,-2516.700203,-9918.759623,919.314598
594.640650,-3330.926739,-9992.780217,-459.657299
594.640978,-2516.700203,-9252.574275,306.438199
594.641305,-1406.391290,-8734.430116,229.828649
594.641633,-148.041188,-8438.347739,459.657299
594.641961,148.041188,-8364.327145,766.095498
594.642288,148.041188,-7994.224174,1302.362347
594.642616,740.205942,-7105.977043,459.657299
594.642944,1628.453072,-7105.977043,1072.533697
594.643271,3552.988522,-7328.038826,2221.676944
594.643599,2812.782580,-7772.162391,2911.162892
594.643926,2812.782580,-9178.553681,3600.648841
594.644254,1036.288319,-10140.821405,3217.601092
594.644582,-888.247130,-10658.965565,2451.505594
594.644909,-2072.576638,-11029.068536,1991.848295
594.645237,-1406.391290,-10214.842000,2145.067394
594.645565,-518.144159,-9104.533087,2374.896044
594.645892,0.000000,-8734.430116,2451.505594
594.646220,0.000000,-8808.450710,2451.505594
594.646548,-222.061783,-8364.327145,1915.238745
594.646875,-814.226536,-7846.182985,1302.362347
594.647203,-888.247130,-7476.080014,995.924147
594.647530,740.205942,-7402.059420,1455.581446
594.647858,1332.370696,-6883.915261,2374.896044
594.648186,1258.350101,-8216.285956,3524.039291
594.648513,222.061783,-9178.553681,3907.087040
594.648841,-1406.391290,-9992.780217,3447.429741
594.649169,-4885.359217,-10807.006753,2451.505594
594.649496,-6069.688724,-12435.459826,1532.190996
594.649824,-5551.544565,-11399.171507,919.314598
594.650151,-3923.091493,-9844.739029,842.705048
594.650479,-1776.494261,-9252.574275,842.705048
594.650807,296.082377,-8068.244768,1302.362347
594.651134,1850.514855,-6957.935855,1915.238745
594.651462,2812.782580,-6883.915261,1455.581446
594.651790,3182.885551,-6809.894666,1762.019645
594.652117,4367.215058,-7624.121203,2834.553343
594.652445,3923.091493,-9252.574275,3600.648841
594.652773,2960.823768,-11621.233289,4903.011187
594.653100,2220.617826,-12509.480420,5515.887586
594.653428,444.123565,-12731.542202,5822.325785
594.653755,-1110.308913,-12879.583391,5515.887586
594.654083,-1406.391290,-12805.562797,4979.620737
594.654411,-1480.411884,-10881.027347,5132.839837
594.654738,814.226536,-9474.636058,4136.915689
594.655066,-222.061783,-8660.409521,3907.087040
594.655394,-592.164754,-8068.244768,2987.772442
594.655721,0.000000,-6883.915261,2451.505594
594.656049,-370.102971,-5625.565159,2221.676944
594.656377,148.041188,-6439.791695,2911.162892
594.656704,814.226536,-6587.832884,3907.087040
594.657032,518.144159,-7402.059420,4596.572988
594.657359,-222.061783,-8808.450710,5439.278036
594.657687,-1406.391290,-10658.965565,6128.763984
594.658015,-4663.297435,-11399.171507,5515.887586
594.658342,-5551.544565,-10955.047942,4519.963438
594.658670,-5625.565159,-11103.089130,4366.744339
594.658998,-4811.338623,-10214.842000,4060.306139
594.659325,-3404.947333,-8364.327145,3907.087040
594.659653,-592.164754,-6365.771101,3830.477490
594.659981,370.102971,-6661.853478,3294.210641
594.660308,0.000000,-6143.709319,2298.286494
594.660636,-740.205942,-6069.688724,1378.971896
594.660963,0.000000,-6217.729913,995.924147
594.661291,1036.288319,-7254.018232,1838.629195
594.661619,1258.350101,-8068.244768,2528.115143
594.661946,2960.823768,-8512.368333,3983.696590
594.662274,4515.256246,-9622.677246,5822.325785
594.662602,4145.153275,-10732.986159,7201.297681
594.662929,888.247130,-11843.295072,5975.544884
594.663257,-962.267725,-12361.439231,5209.449386
594.663584,-1776.494261,-11991.336260,3830.477490
594.663912,-2368.659014,-10955.047942,3907.087040
594.664240,-592.164754,-9622.677246,3370.820191
594.664567,148.041188,-8290.306550,2834.553343
594.664895,1480.411884,-7105.977043,3140.991542
594.665223,2220.617826,-6069.688724,2757.943793
594.665550,1184.329507,-6291.750507,1915.238745
594.665878,-518.144159,-7550.100608,919.314598
594.666206,-3108.864956,-9474.636058,0.000000
594.666533,-5107.421000,-10436.903782,-842.705048
594.666861,-4145.153275,-10066.800811,0.000000
594.667188,-2220.617826,-10066.800811,1149.143247
594.667516,-814.226536,-10214.842000,2451.505594
594.667844,222.061783,-10584.944971,3294.210641
594.668171,222.061783,-9622.677246,4060.306139
594.668499,1184.329507,-9252.574275,3677.258390
594.668827,888.247130,-9252.574275,3447.429741
594.669154,740.205942,-9770.718434,2834.553343
594.669482,1036.288319,-9844.739029,2911.162892
594.669810,2220.617826,-8882.471304,3217.601092
594.670137,3552.988522,-8734.430116,3983.696590
594.670465,3849.070898,-8882.471304,4749.792088
594.670792,3775.050304,-9844.739029,4903.011187
594.671120,3034.844362,-10807.006753,4290.134789
594.671448,2220.617826,-11029.068536,4290.134789
594.671775,1258.350101,-10658.965565,3983.696590
594.672103,518.144159,-11325.150913,4749.792088
594.672431,-518.144159,-11251.130318,4136.915689
594.672758,-2886.803174,-12139.377449,4136.915689
594.673086,-3849.070898,-11251.130318,3677.258390
594.673413,-3627.009116,-9030.512492,4290.134789
594.673741,-3330.926739,-7920.203579,3064.381992
594.674069,-2294.638420,-7179.997637,3140.991542
594.674396,-2368.659014,-7105.977043,2757.943793
594.674724,-3034.844362,-6883.915261,2528.115143
594.675052,-2368.659014,-6217.729913,2528.115143
594.675380,-1406.391290,-6217.729913,3524.039291
594.675707,296.082377,-7105.977043,4136.915689
594.676035,370.102971,-8290.306550,4596.572988
594.676362,-814.226536,-9770.718434,4060.306139
594.676690,-2220.617826,-10510.924376,3524.039291
594.677017,-1480.411884,-10510.924376,4136.915689
594.677345,-666.185348,-9548.656652,4060.306139
594.677672,1184.329507,-9400.615463,4290.134789
594.678000,2516.700203,-9548.656652,4673.182538
594.678327,2072.576638,-9844.739029,4213.525239
594.678655,1628.453072,-9696.697840,3983.696590
594.678982,962.267725,-9104.533087,3447.429741
594.679310,1406.391290,-8586.388927,3830.477490
594.679637,1998.556043,-8660.409521,3830.477490
594.679965,962.267725,-9030.512492,3294.210641
594.680292,148.041188,-9474.636058,3524.039291
594.680620,-1702.473667,-8882.471304,3140.991542
594.680947,-2960.823768,-9400.615463,2681.334243
594.681275,-2294.638420,-9252.574275,2145.067394
594.681602,-1554.432478,-8956.491898,2451.505594
594.681930,-592.164754,-8216.285956,2911.162892
594.682257,0.000000,-7550.100608,3140.991542
594.682585,-814.226536,-7402.059420,2987.772442
594.682912,-1184.329507,-7550.100608,2451.505594
594.683240,-1332.370696,-7698.141797,1455.581446
594.683567,-1184.329507,-7846.182985,995.924147
594.683895,-370.102971,-8216.285956,1991.848295
594.684222,1332.370696,-8216.285956,2834.553343
594.684550,1924.535449,-8586.388927,4060.306139
594.684877,2368.659014,-9474.636058,4903.011187
594.685205,1924.535449,-10510.924376,4290.134789
594.685532,666.185348,-10584.944971,3753.867940
594.685860,-592.164754,-11103.089130,2834.553343
594.686187,-666.185348,-11177.109724,3140.991542
594.686515,0.000000,-10807.006753,3294.210641
594.686842,1628.453072,-9918.759623,4366.744339
594.687170,2516.700203,-9474.636058,5209.449386
594.687497,2220.617826,-9770.718434,4903.011187
594.687825,-222.061783,-9770.718434,3753.867940
594.688152,-2146.597232,-9696.697840,2987.772442
594.688480,-3034.844362,-9474.636058,1991.848295
594.688807,-3182.885551,-9252.574275,2451.505594
594.689135,-1702.473667,-8068.244768,2145.067394
594.689462,0.000000,-7920.203579,3064.381992
594.689790,518.144159,-7624.121203,4213.525239
594.690117,-148.041188,-7846.182985,4596.572988
594.690445,-962.267725,-8586.388927,4213.525239
594.690772,-2368.659014,-9030.512492,3294.210641
594.691100,-2738.761985,-9992.780217,2451.505594
594.691427,-3330.926739,-9918.759623,2068.457845
594.691755,-2368.659014,-9770.718434,2145.067394
594.692082,-444.123565,-9178.553681,2987.772442
594.692410,1184.329507,-8290.306550,4213.525239
594.692737,2072.576638,-8660.409521,3753.867940
594.693065,2146.597232,-9252.574275,3600.648841
594.693392,1184.329507,-9844.739029,3140.991542
594.693720,222.061783,-9992.780217,2911.162892
594.694047,0.000000,-10140.821405,3370.820191
594.694375,370.102971,-10214.842000,3064.381992
594.694702,518.144159,-9992.780217,3677.258390
594.695030,296.082377,-9474.636058,3830.477490
594.695357,-148.041188,-9104.533087,3370.820191
594.695685,-296.082377,-9104.533087,2834.553343
594.696012,370.102971,-8142.265362,3217.601092
594.696340,740.205942,-7920.203579,3064.381992
594.696667,1110.308913,-7698.141797,3294.210641
594.696995,1480.411884,-7772.162391,3677.258390
594.697322,1628.453072,-7698.141797,4213.525239
594.697650,1554.432478,-7994.224174,4673.182538
594.697977,666.185348,-8734.430116,4519.963438
594.698305,0.000000,-9178.553681,4366.744339
594.698632,-592.164754,-9474.636058,4136.915689
594.698960,-1184.329507,-9622.677246,3983.696590
594.699287,-1998.556043,-9474.636058,3983.696590
594.699615,-1480.411884,-9474.636058,3753.867940
594.699942,-1702.473667,-9252.574275,2987.772442
594.700270,-1258.350101,-8956.491898,2987.772442
594.700597,-962.267725,-8660.409521,2528.115143
594.700925,-1258.350101,-8142.265362,2911.162892
594.701252,-1258.350101,-8068.244768,2451.505594
594.701580,-1258.350101,-8290.306550,2451.505594
594.701907,-1184.329507,-8290.306550,2528.115143
594.702235,-1332.370696,-8364.327145,2604.724693
594.702562,-666.185348,-8438.347739,3064.381992
594.702890,-148.041188,-8808.450710,3294.210641
594.703217,-222.061783,-9104.533087,3370.820191
594.703545,222.061783,-9400.615463,3600.648841
594.703872,148.041188,-9548.656652,3753.867940
594.704200,74.020594,-9474.636058,3524.039291
594.704527,74.020594,-9474.636058,3064.381992
594.704855,0.000000,-9252.574275,3064.381992
594.705182,74.020594,-9178.553681,2604.724693
594.705510,1184.329507,-9400.615463,2757.943793
594.705837,1184.329507,-9326.594869,2451.505594
594.706165,1036.288319,-9770.718434,2451.505594
594.706492,666.185348,-10362.883188,2451.505594
594.706820,148.041188,-10362.883188,1991.848295
594.707147,0.000000,-10436.903782,2221.676944
594.707475,-222.061783,-10362.883188,2068.457845
594.707802,-444.123565,-9992.780217,2145.067394
594.708130,-592.164754,-9992.780217,1532.190996
594.708457,-1258.350101,-9622.677246,1685.410096
594.708785,-1406.391290,-9622.677246,1455.581446
594.709112,-1628.453072,-9104.533087,1302.362347
594.709440,-1258.350101,-8660.409521,1608.800546
594.709767,-666.185348,-7772.162391,1455.581446
594.710095,-148.041188,-7772.162391,1072.533697
594.710422,222.061783,-7772.162391,1378.971896
594.710750,444.123565,-8142.265362,1149.143247
594.711077,-148.041188,-8438.347739,1302.362347
594.711405,-296.082377,-8586.388927,1302.362347
594.711732,-296.082377,-9474.636058,1072.533697
594.712060,0.000000,-9770.718434,1225.752797
594.712387,222.061783,-10214.842000,1685.410096
594.712715,888.247130,-10140.821405,1608.800546
594.713042,1184.329507,-9696.697840,2068.457845
594.713369,1480.411884,-9918.759623,2145.067394
594.713697,666.185348,-9770.718434,1762.019645
594.714024,296.082377,-9548.656652,1838.629195
594.714352,74.020594,-9326.594869,1302.362347
594.714679,-740.205942,-9030.512492,1225.752797
594.715007,-444.123565,-8956.491898,689.485948
594.715334,-444.123565,-8808.450710,1225.752797
594.715662,-444.123565,-8438.347739,995.924147
594.715989,-518.144159,-8142.265362,1072.533697
594.716317,-592.164754,-8216.285956,1302.362347
594.716644,-666.185348,-7772.162391,689.485948
594.716972,-1036.288319,-7624.121203,689.485948
594.717299,-888.247130,-7846.182985,306.438199
594.717627,-592.164754,-8068.244768,766.095498
594.717954,-592.164754,-8290.306550,995.924147
594.718282,-444.123565,-8660.409521,1225.752797
594.718609,-666.185348,-8734.430116,1225.752797
594.718937,-814.226536,-8956.491898,995.924147
594.719264,-444.123565,-9178.553681,842.705048
594.719592,-296.082377,-8882.471304,766.095498
594.719919,148.041188,-8586.388927,995.924147
594.720247,296.082377,-9400.615463,383.047749
594.720574,0.000000,-9252.574275,995.924147
594.720902,-148.041188,-9548.656652,1149.143247
594.721229,-148.041188,-9696.697840,919.314598
594.721557,-296.082377,-9548.656652,919.314598
594.721884,-148.041188,-9474.636058,612.876398
594.722212,-518.144159,-9474.636058,842.705048
594.722539,-222.061783,-9252.574275,459.657299
594.722867,-444.123565,-9178.553681,919.314598
594.723194,0.000000,-8512.368333,536.266849
594.723522,0.000000,-9104.533087,1378.971896
594.723849,-444.123565,-8882.471304,1149.143247
594.724177,-592.164754,-8882.471304,612.876398
594.724504,-814.226536,-8734.430116,536.266849
594.724832,-888.247130,-9030.512492,229.828649
594.725159,-592.164754,-8956.491898,612.876398
594.725487,-740.205942,-9178.553681,383.047749
594.725814,-518.144159,-9178.553681,612.876398
594.726142,-148.041188,-9474.636058,383.047749
594.726469,0.000000,-9548.656652,383.047749
594.726797,0.000000,-9400.615463,995.924147
594.727124,148.041188,-9548.656652,536.266849
594.727452,-148.041188,-9622.677246,459.657299
594.727779,-370.102971,-9770.718434,383.047749
594.728107,-222.061783,-9918.759623,383.047749
594.728434,-222.061783,-9548.656652,766.095498
594.728762,592.164754,-9326.594869,842.705048
594.729089,222.061783,-9474.636058,459.657299
594.729417,148.041188,-9252.574275,459.657299
594.729744,222.061783,-9030.512492,229.828649
594.730072,370.102971,-8956.491898,536.266849
594.730399,296.082377,-8808.450710,383.047749
594.730727,-148.041188,-9104.533087,689.485948
594.731054,0.000000,-9474.636058,766.095498
594.731382,-296.082377,-9178.553681,689.485948
594.731709,0.000000,-9030.512492,306.438199
594.732037,0.000000,-8882.471304,689.485948
594.732364,148.041188,-9030.512492,459.657299
594.732692,222.061783,-8808.450710,229.828649
594.733019,0.000000,-8734.430116,0.000000
594.733347,-148.041188,-8438.347739,0.000000
594.733674,-222.061783,-8512.368333,536.266849
594.734002,-518.144159,-8882.471304,153.219100
594.734329,-888.247130,-8956.491898,76.609550
594.734657,-814.226536,-9178.553681,306.438199
594.734984,-740.205942,-9104.533087,383.047749
594.735312,-814.226536,-8660.409521,229.828649
594.735639,-444.123565,-8438.347739,0.000000
594.735967,-444.123565,-8290.306550,536.266849
594.736294,-444.123565,-8364.327145,306.438199
594.736622,-518.144159,-8512.368333,459.657299
594.736949,-666.185348,-8660.409521,766.095498
594.737277,-518.144159,-9030.512492,1149.143247
594.737604,-888.247130,-9030.512492,689.485948
594.737932,-1110.308913,-9104.533087,689.485948
594.738259,-740.205942,-9104.533087,689.485948
594.738587,-518.144159,-8956.491898,612.876398
594.738914,-222.061783,-8882.471304,306.438199
594.739242,-370.102971,-8882.471304,612.876398
594.739569,-296.082377,-8882.471304,766.095498
594.739897,-370.102971,-9252.574275,766.095498
594.740224,-370.102971,-9474.636058,919.314598
594.740552,-444.123565,-9548.656652,1149.143247
594.740879,0.000000,-9696.697840,689.485948
594.741207,-444.123565,-9548.656652,766.095498
594.741534,0.000000,-9548.656652,536.266849
594.741862,0.000000,-9400.615463,612.876398
594.742189,0.000000,-8882.471304,536.266849
594.742517,-222.061783,-9104.533087,766.095498
594.742844,-370.102971,-9326.594869,612.876398
594.743172,-444.123565,-9474.636058,766.095498
594.743499,-370.102971,-9178.553681,612.876398
594.743827,-666.185348,-9474.636058,383.047749
594.744154,0.000000,-9030.512492,306.438199
594.744482,-222.061783,-9326.594869,229.828649
594.744809,-222.061783,-8882.471304,383.047749
594.745137,0.000000,-9030.512492,306.438199
594.745464,-370.102971,-9104.533087,229.828649
594.745792,-148.041188,-9474.636058,383.047749
594.746119,-592.164754,-9474.636058,459.657299
594.746447,-444.123565,-9622.677246,689.485948
594.746774,-296.082377,-9696.697840,689.485948
594.747102,-370.102971,-9622.677246,842.705048
594.747429,-444.123565,-8882.471304,842.705048
594.747757,-148.041188,-8586.388927,536.266849
594.748084,-370.102971,-8586.388927,153.219100
594.748412,-888.247130,-8660.409521,306.438199
594.748739,-1258.350101,-8882.471304,306.438199
594.749067,-888.247130,-8660.409521,612.876398
594.749394,-1036.288319,-8882.471304,766.095498
594.749722,-666.185348,-8882.471304,842.705048
594.750049,-370.102971,-8882.471304,842.705048
594.750377,222.061783,-8512.368333,536.266849
594.750704,592.164754,-8290.306550,766.095498
594.751032,592.164754,-8068.244768,842.705048
594.751359,0.000000,-8882.471304,536.266849
594.751687,0.000000,-9326.594869,842.705048
594.752014,-518.144159,-9696.697840,842.705048
594.752342,-518.144159,-9992.780217,1149.143247
594.752669,0.000000,-9770.718434,1302.362347
594.752997,222.061783,-9696.697840,689.485948
594.753324,518.144159,-8734.430116,536.266849
594.753652,962.267725,-7994.224174,153.219100
594.753979,740.205942,-7846.182985,76.609550
594.754307,74.020594,-8142.265362,842.705048
594.754634,-148.041188,-7994.224174,76.609550
594.754962,-740.205942,-8956.491898,229.828649
594.755289,-592.164754,-9400.615463,612.876398
594.755617,-814.226536,-9548.656652,459.657299
594.755944,0.000000,-9474.636058,689.485948
594.756272,222.061783,-9104.533087,306.438199
594.756599,74.020594,-8512.368333,153.219100
594.756927,296.082377,-8512.368333,76.609550
594.757254,592.164754,-8438.347739,306.438199
594.757582,148.041188,-8808.450710,76.609550
594.757909,-370.102971,-9030.512492,689.485948
594.758237,-518.144159,-9844.739029,995.924147
594.758564,-740.205942,-9992.780217,612.876398
594.758892,-888.247130,-9844.739029,689.485948
594.759219,-444.123565,-9770.718434,536.266849
594.759547,-148.041188,-9104.533087,612.876398
594.759874,222.061783,-8956.491898,0.000000
594.760202,444.123565,-8808.450710,229.828649
594.760529,222.061783,-9030.512492,306.438199
594.760857,0.000000,-9474.636058,766.095498
594.761184,-592.164754,-9548.656652,842.705048
594.761511,-296.082377,-10066.800811,612.876398
594.761839,-740.205942,-10214.842000,842.705048
594.762166,-666.185348,-9992.780217,766.095498
594.762494,-370.102971,-9474.636058,689.485948
594.762821,-222.061783,-8586.388927,153.219100
594.763149,0.000000,-8734.430116,229.828649
594.763476,-222.061783,-8808.450710,536.266849
594.763804,-666.185348,-9104.533087,536.266849
594.764131,-962.267725,-9400.615463,689.485948
594.764459,-666.185348,-9474.636058,766.095498
594.764786,-962.267725,-9622.677246,1225.752797
594.765114,-740.205942,-9548.656652,459.657299
594.765441,-444.123565,-9400.615463,842.705048
594.765769,-296.082377,-9400.615463,306.438199
594.766096,0.000000,-9178.553681,689.485948
594.766424,-444.123565,-9104.533087,1149.143247
594.766751,-222.061783,-9474.636058,766.095498
594.767079,-444.123565,-9548.656652,766.095498
594.767406,-666.185348,-9622.677246,842.705048
594.767734,-740.205942,-9474.636058,689.485948
594.768061,-740.205942,-9030.512492,689.485948
594.768389,-592.164754,-8512.368333,612.876398
594.768716,-814.226536,-8438.347739,306.438199
594.769044,-592.164754,-8068.244768,76.609550
594.769371,-444.123565,-8216.285956,229.828649
594.769699,-518.144159,-8216.285956,306.438199
594.770026,-518.144159,-8364.327145,459.657299
594.770354,-962.267725,-8512.368333,766.095498
594.770681,-592.164754,-9030.512492,842.705048
594.771009,-592.164754,-8956.491898,306.438199
594.771336,-518.144159,-8882.471304,383.047749
594.771664,-148.041188,-8734.430116,766.095498
594.771991,-370.102971,-8882.471304,612.876398
594.772319,-296.082377,-8808.450710,459.657299
594.772646,-592.164754,-8660.409521,766.095498
594.772974,-370.102971,-8808.450710,766.095498
594.773301,-518.144159,-8734.430116,689.485948
594.773629,-370.102971,-8882.471304,229.828649
594.773956,-296.082377,-9104.533087,459.657299
594.774284,0.000000,-8808.450710,459.657299
594.774611,0.000000,-8808.450710,153.219100
594.774939,74.020594,-8956.491898,612.876398
594.775266,0.000000,-8586.388927,766.095498
594.775594,0.000000,-9030.512492,689.485948
594.775921,74.020594,-9252.574275,459.657299
594.776249,148.041188,-9400.615463,459.657299
594.776576,0.000000,-9252.574275,689.485948
594.776904,0.000000,-8882.471304,383.047749
594.777231,0.000000,-9030.512492,536.266849
594.777559,0.000000,-8956.491898,306.438199
594.777886,-222.061783,-8956.491898,306.438199
594.778214,0.000000,-8808.450710,0.000000
594.778542,-370.102971,-8734.430116,153.219100
594.778869,-370.102971,-8734.430116,689.485948
594.779197,-148.041188,-9400.615463,689.485948
594.779524,-444.123565,-9474.636058,536.266849
594.779852,-296.082377,-9622.677246,766.095498
594.780179,-518.144159,-9622.677246,842.705048
594.780507,-222.061783,-9548.656652,383.047749
594.780834,-148.041188,-9474.636058,612.876398
594.781162,0.000000,-9622.677246,459.657299
594.781489,-222.061783,-9400.615463,689.485948
594.781817,0.000000,-9474.636058,536.266849
594.782144,-148.041188,-9178.553681,536.266849
594.782472,-148.041188,-9252.574275,612.876398
594.782799,0.000000,-9104.533087,766.095498
594.783127,0.000000,-9326.594869,536.266849
594.783454,0.000000,-9104.533087,689.485948
594.783782,-148.041188,-9104.533087,306.438199
594.784109,0.000000,-9548.656652,842.705048
594.784437,0.000000,-9548.656652,766.095498
594.784765,0.000000,-9326.594869,536.266849
594.785092,0.000000,-9104.533087,689.485948
594.785420,0.000000,-8882.471304,383.047749
594.785747,0.000000,-9030.512492,459.657299
594.786075,0.000000,-9104.533087,306.438199
594.786402,0.000000,-8882.471304,153.219100
594.786730,0.000000,-8808.450710,0.000000
594.787057,148.041188,-9104.533087,229.828649
594.787385,0.000000,-8808.450710,612.876398
594.787712,0.000000,-9178.553681,536.266849
594.788040,0.000000,-9326.594869,153.219100
594.788367,-148.041188,-9178.553681,383.047749
594.788695,0.000000,-9178.553681,229.828649
594.789022,0.000000,-9030.512492,536.266849
594.789350,0.000000,-9252.574275,459.657299
594.789677,74.020594,-9030.512492,306.438199
594.790005,0.000000,-9326.594869,612.876398
594.790332,-222.061783,-9252.574275,229.828649
594.790660,0.000000,-9104.533087,0.000000
594.790988,0.000000,-9030.512492,536.266849
594.791315,-296.082377,-8734.430116,229.828649
594.791643,-444.123565,-9030.512492,459.657299
594.791970,-444.123565,-8956.491898,536.266849
594.792298,-370.102971,-9178.553681,0.000000
594.792625,-370.102971,-9030.512492,459.657299
594.792953,-222.061783,-9326.594869,536.266849
594.793280,-296.082377,-9400.615463,766.095498
594.793608,0.000000,-9474.636058,689.485948
594.793935,-296.082377,-9252.574275,1149.143247
594.794263,-592.164754,-8364.327145,612.876398
594.794590,-592.164754,-9252.574275,612.876398
594.794918,-592.164754,-9104.533087,689.485948
594.795245,-666.185348,-9104.533087,306.438199
594.795573,-444.123565,-8808.450710,842.705048
594.795900,-444.123565,-8660.409521,919.314598
594.796228,-592.164754,-9252.574275,689.485948
594.796555,-518.144159,-9400.615463,536.266849
594.796883,-518.144159,-9104.533087,612.876398
594.797211,-444.123565,-9252.574275,689.485948
594.797538,-296.082377,-9400.615463,459.657299
594.797866,-148.041188,-8956.491898,459.657299
594.798193,-296.082377,-9400.615463,536.266849
594.798521,-592.164754,-9326.594869,612.876398
594.798848,-518.144159,-9178.553681,689.485948
594.799176,-814.226536,-8586.388927,76.609550
594.799503,-740.205942,-8956.491898,689.485948
594.799831,-666.185348,-8808.450710,306.438199
594.800158,-740.205942,-8808.450710,306.438199
594.800486,-888.247130,-8660.409521,612.876398
594.800813,-518.144159,-9030.512492,459.657299
594.801141,-888.247130,-8660.409521,689.485948
594.801468,-814.226536,-8808.450710,459.657299
594.801796,-592.164754,-9178.553681,689.485948
594.802123,-296.082377,-9178.553681,612.876398
594.802451,-444.123565,-8882.471304,612.876398
594.802778,-518.144159,-8882.471304,1225.752797
594.803106,-296.082377,-8882.471304,536.266849
594.803434,0.000000,-8586.388927,612.876398
594.803761,-222.061783,-8956.491898,459.657299
594.804089,-370.102971,-9030.512492,612.876398
594.804416,-222.061783,-9030.512492,76.609550
594.804744,-148.041188,-8734.430116,612.876398
594.805071,-296.082377,-8956.491898,842.705048
594.805399,-148.041188,-9104.533087,383.047749
594.805726,0.000000,-9030.512492,459.657299
594.806054,-222.061783,-8808.450710,383.047749
594.806381,0.000000,-9104.533087,919.314598
594.806709,0.000000,-8956.491898,229.828649
594.807036,-222.061783,-9030.512492,536.266849
594.807364,-296.082377,-8956.491898,536.266849
594.807691,-296.082377,-8808.450710,1072.533697
594.808019,-296.082377,-8586.388927,459.657299
594.808346,-296.082377,-9104.533087,153.219100
594.808674,-148.041188,-9104.533087,306.438199
594.809001,0.000000,-9030.512492,153.219100
594.809329,0.000000,-8808.450710,306.438199
594.809657,222.061783,-8956.491898,766.095498
594.809984,0.000000,-9030.512492,612.876398
594.810312,-148.041188,-9326.594869,459.657299
594.810639,0.000000,-9474.636058,459.657299
594.810967,-148.041188,-9252.574275,536.266849
594.811294,296.082377,-9548.656652,306.438199
594.811622,0.000000,-9178.553681,612.876398
594.811949,0.000000,-9400.615463,612.876398
594.812277,-296.082377,-9326.594869,689.485948
594.812604,-148.041188,-8882.471304,459.657299
594.812932,0.000000,-8808.450710,459.657299
594.813259,0.000000,-9326.594869,612.876398
594.813587,-222.061783,-9474.636058,689.485948
594.813914,-148.041188,-9326.594869,306.438199
594.814242,-296.082377,-9474.636058,612.876398
594.814569,-222.061783,-9178.553681,919.314598
594.814897,74.020594,-9326.594869,766.095498
594.815224,-370.102971,-9252.574275,766.095498
594.815552,-296.082377,-9326.594869,536.266849
594.815880,-222.061783,-9326.594869,536.266849
594.816207,0.000000,-9474.636058,383.047749
594.816535,-148.041188,-9252.574275,536.266849
594.816862,0.000000,-9178.553681,536.266849
594.817190,-148.041188,-9400.615463,383.047749
594.817517,0.000000,-9400.615463,459.657299
594.817845,-296.082377,-9548.656652,536.266849
594.818172,0.000000,-9474.636058,153.219100
594.818500,0.000000,-9474.636058,842.705048
594.818827,0.000000,-9770.718434,536.266849
594.819155,148.041188,-9844.739029,612.876398
594.819482,74.020594,-9548.656652,612.876398
594.819810,-222.061783,-9252.574275,766.095498
594.820137,74.020594,-8956.491898,-153.219100
594.820465,0.000000,-9252.574275,612.876398
594.820792,0.000000,-9104.533087,536.266849
594.821120,-222.061783,-8882.471304,459.657299
594.821447,-444.123565,-8882.471304,689.485948
594.821775,-518.144159,-9326.594869,1072.533697
594.822103,-592.164754,-9178.553681,536.266849
594.822430,-740.205942,-9030.512492,612.876398
594.822758,-518.144159,-8882.471304,689.485948
594.823085,-518.144159,-8956.491898,689.485948
594.823413,-296.082377,-8956.491898,766.095498
594.823740,-370.102971,-8882.471304,1072.533697
594.824068,-592.164754,-8808.450710,536.266849
594.824395,-518.144159,-8734.430116,459.657299
594.824723,-888.247130,-8882.471304,536.266849
594.825050,-518.144159,-8882.471304,766.095498
594.825378,-370.102971,-8956.491898,536.266849
594.825705,-370.102971,-8808.450710,766.095498
594.826033,-296.082377,-8660.409521,766.095498
594.826360,-518.144159,-8956.491898,919.314598
594.826688,-222.061783,-8660.409521,766.095498
594.827015,-518.144159,-8586.388927,306.438199
594.827343,-370.102971,-8956.491898,612.876398
594.827670,-222.061783,-9030.512492,842.705048
594.827998,-222.061783,-8956.491898,766.095498
594.828326,-296.082377,-8734.430116,919.314598
594.828653,0.000000,-9178.553681,612.876398
594.828981,-592.164754,-8808.450710,383.047749
594.829308,-296.082377,-8734.430116,306.438199
594.829636,-370.102971,-8660.409521,229.828649
594.829963,-296.082377,-8882.471304,306.438199
594.830291,-370.102971,-9030.512492,-306.438199
594.830618,-296.082377,-8956.491898,459.657299
594.830946,-518.144159,-9104.533087,306.438199
594.831273,-518.144159,-8956.491898,306.438199
594.831601,-370.102971,-9178.553681,306.438199
594.831928,0.000000,-9252.574275,306.438199
594.832256,0.000000,-9030.512492,612.876398
594.832583,0.000000,-8956.491898,229.828649
594.832911,-296.082377,-9104.533087,229.828649
594.833238,0.000000,-9030.512492,459.657299
594.833566,-444.123565,-8882.471304,1149.143247
594.833893,-592.164754,-8808.450710,536.266849
594.834221,-222.061783,-9178.553681,459.657299
594.834549,-222.061783,-9104.533087,383.047749
594.834876,-296.082377,-9104.533087,689.485948
594.835204,-370.102971,-9030.512492,689.485948
594.835531,-444.123565,-9104.533087,383.047749
594.835859,-370.102971,-9030.512492,536.266849
594.836186,-296.082377,-9252.574275,612.876398
594.836514,-222.061783,-8956.491898,383.047749
594.836841,-370.102971,-9178.553681,612.876398
594.837169,-222.061783,-9252.574275,383.047749
594.837496,-370.102971,-9104.533087,689.485948
594.837824,-296.082377,-9104.533087,612.876398
594.838151,-370.102971,-9178.553681,536.266849
594.838479,-592.164754,-8956.491898,536.266849
594.838806,74.020594,-9104.533087,842.705048
594.839134,-444.123565,-9474.636058,842.705048
594.839461,-444.123565,-9400.615463,689.485948
594.839789,-148.041188,-9178.553681,842.705048
594.840116,-222.061783,-9474.636058,842.705048
594.840444,370.102971,-9400.615463,842.705048
594.840772,74.020594,-9400.615463,842.705048
594.841099,0.000000,-9326.594869,612.876398
594.841427,0.000000,-9474.636058,919.314598
594.841754,-222.061783,-9326.594869,536.266849
594.842082,0.000000,-9104.533087,689.485948
594.842409,0.000000,-8882.471304,919.314598
594.842737,0.000000,-9400.615463,766.095498
594.843064,-148.041188,-9400.615463,919.314598
594.843392,0.000000,-9474.636058,459.657299
594.843719,-222.061783,-9252.574275,536.266849
594.844047,-148.041188,-9548.656652,689.485948
594.844374,-148.041188,-9326.594869,766.095498
594.844702,-222.061783,-9474.636058,612.876398
594.845029,-148.041188,-9252.574275,612.876398
594.845357,0.000000,-9400.615463,612.876398
594.845684,0.000000,-8956.491898,459.657299
594.846012,0.000000,-9326.594869,306.438199
594.846339,0.000000,-9326.594869,306.438199
594.846667,0.000000,-9326.594869,383.047749
594.846995,0.000000,-9326.594869,229.828649
594.847322,-518.144159,-9474.636058,689.485948
594.847650,0.000000,-9252.574275,536.266849
594.847977,0.000000,-9326.594869,383.047749
594.848305,-222.061783,-9474.636058,306.438199
594.848632,0.000000,-9400.615463,612.876398
594.848960,148.041188,-9104.533087,919.314598
594.849287,222.061783,-8956.491898,612.876398
594.849615,0.000000,-9326.594869,459.657299
594.849942,0.000000,-9104.533087,383.047749
594.850270,-148.041188,-9104.533087,229.828649
594.850597,0.000000,-8956.491898,383.047749
594.850925,-222.061783,-8438.347739,689.485948
594.851252,-148.041188,-9104.533087,536.266849
594.851580,-296.082377,-9252.574275,612.876398
594.851907,-666.185348,-9178.553681,383.047749
594.852235,-592.164754,-9104.533087,306.438199
594.852562,-370.102971,-9104.533087,612.876398
594.852890,-222.061783,-8882.471304,689.485948
594.853218,-222.061783,-9030.512492,689.485948
594.853545,-296.082377,-8734.430116,689.485948
594.853873,-222.061783,-8956.491898,842.705048
594.854200,-740.205942,-8438.347739,229.828649
594.854528,-888.247130,-8364.327145,459.657299
594.854855,-814.226536,-8660.409521,383.047749
594.855183,-962.267725,-8734.430116,536.266849
594.855510,-592.164754,-8808.450710,689.485948
594.855838,-666.185348,-8734.430116,612.876398
594.856165,-370.102971,-8512.368333,459.657299
594.856493,-666.185348,-8734.430116,536.266849
594.856820,-444.123565,-8808.450710,536.266849
594.857148,-518.144159,-9104.533087,536.266849
594.857475,-518.144159,-8956.491898,689.485948
594.857803,-518.144159,-8882.471304,1149.143247
594.858130,0.000000,-8882.471304,459.657299
594.858458,-518.144159,-8734.430116,689.485948
594.858785,-370.102971,-8956.491898,612.876398
594.859113,-518.144159,-8882.471304,459.657299
594.859441,-296.082377,-8660.409521,689.485948
594.859768,-296.082377,-8438.347739,0.000000
594.860096,-222.061783,-8808.450710,536.266849
594.860423,-444.123565,-9178.553681,536.266849
594.860751,-740.205942,-9030.512492,689.485948
594.861078,-740.205942,-9252.574275,766.095498
594.861406,-296.082377,-9326.594869,612.876398
594.861733,-296.082377,-9400.615463,689.485948
594.862061,-222.061783,-9474.636058,536.266849
594.862388,-148.041188,-9474.636058,766.095498
594.862716,0.000000,-9400.615463,689.485948
594.863043,0.000000,-9104.533087,689.485948
594.863371,-222.061783,-8882.471304,459.657299
594.863698,0.000000,-9178.553681,459.657299
594.864026,-222.061783,-9030.512492,383.047749
594.864353,-370.102971,-9252.574275,459.657299
594.864681,-148.041188,-9030.512492,766.095498
594.865008,-222.061783,-9400.615463,459.657299
594.865336,0.000000,-9474.636058,536.266849
594.865664,0.000000,-9326.594869,766.095498
594.865991,0.000000,-9178.553681,689.485948
594.866319,0.000000,-8956.491898,612.876398
594.866646,0.000000,-9252.574275,689.485948
594.866974,-296.082377,-9252.574275,842.705048
594.867301,-222.061783,-9178.553681,536.266849
594.867629,0.000000,-9400.615463,536.266849
594.867956,-222.061783,-9252.574275,689.485948
594.868284,-592.164754,-9030.512492,229.828649
594.868611,-296.082377,-9104.533087,536.266849
594.868939,-222.061783,-9400.615463,383.047749
594.869266,-222.061783,-9326.594869,459.657299
594.869594,-148.041188,-9474.636058,689.485948
594.869921,-370.102971,-9474.636058,306.438199
594.870249,-222.061783,-9326.594869,766.095498
594.870576,-222.061783,-9474.636058,689.485948
594.870904,0.000000,-9178.553681,536.266849
594.871231,0.000000,-9326.594869,612.876398
594.871559,-444.123565,-8956.491898,995.924147
594.871887,0.000000,-9104.533087,153.219100
594.872214,-222.061783,-8734.430116,306.438199
594.872542,0.000000,-8808.450710,459.657299
594.872869,-148.041188,-8956.491898,689.485948
594.873197,74.020594,-9252.574275,689.485948
594.873524,-296.082377,-9252.574275,766.095498
594.873852,-148.041188,-9326.594869,536.266849
594.874179,-296.082377,-9252.574275,459.657299
594.874507,0.000000,-9400.615463,383.047749
594.874834,148.041188,-9474.636058,536.266849
594.875162,222.061783,-9252.574275,536.266849
594.875490,74.020594,-9252.574275,536.266849
594.875817,0.000000,-9252.574275,459.657299
594.876145,-296.082377,-9252.574275,536.266849
594.876473,0.000000,-9178.553681,383.047749
594.876800,-296.082377,-8956.491898,1149.143247
594.877128,0.000000,-9178.553681,383.047749
594.877455,-370.102971,-9252.574275,459.657299
594.877783,-444.123565,-9030.512492,306.438199
594.878111,-444.123565,-9178.553681,612.876398
594.878438,0.000000,-9104.533087,153.219100
594.878766,-74.020594,-8882.471304,689.485948
594.879094,-222.061783,-9030.512492,536.266849
594.879421,-296.082377,-8956.491898,459.657299
594.879749,-296.082377,-8956.491898,612.876398
594.880076,0.000000,-9104.533087,612.876398
594.880404,-444.123565,-8586.388927,459.657299
594.880732,-296.082377,-8882.471304,536.266849
594.881059,-444.123565,-9030.512492,612.876398
594.881387,-370.102971,-9326.594869,536.266849
594.881715,-518.144159,-9104.533087,919.314598
594.882042,-518.144159,-9030.512492,842.705048
594.882370,-518.144159,-9178.553681,536.266849
594.882697,-592.164754,-9474.636058,842.705048
594.883025,-666.185348,-9030.512492,536.266849
594.883353,-518.144159,-9030.512492,766.095498
594.883680,-296.082377,-9030.512492,689.485948
594.884008,-444.123565,-8956.491898,536.266849
594.884336,-518.144159,-9104.533087,536.266849
594.884663,-592.164754,-8734.430116,459.657299
594.884991,-740.205942,-8734.430116,459.657299
594.885319,-296.082377,-8734.430116,459.657299
594.885646,-740.205942,-8808.450710,612.876398
594.885974,-592.164754,-8882.471304,536.266849
594.886301,-370.102971,-9178.553681,459.657299
594.886629,-444.123565,-9178.553681,536.266849
594.886957,-296.082377,-8808.450710,766.095498
594.887284,-148.041188,-8956.491898,766.095498
594.887612,-148.041188,-8808.450710,459.657299
594.887940,0.000000,-8808.450710,536.266849
594.888267,-222.061783,-8882.471304,383.047749
594.888595,0.000000,-9104.533087,306.438199
594.888922,0.000000,-9252.574275,689.485948
594.889250,-222.061783,-8808.450710,459.657299
594.889578,-222.061783,-9030.512492,459.657299
594.889905,0.000000,-9030.512492,383.047749
594.890233,-222.061783,-9326.594869,459.657299
594.890561,0.000000,-9326.594869,229.828649
594.890888,0.000000,-9178.553681,689.485948
594.891216,-296.082377,-9252.574275,536.266849
594.891544,0.000000,-9178.553681,612.876398
594.891871,-148.041188,-8956.491898,689.485948
594.892199,0.000000,-9104.533087,0.000000
594.892526,-296.082377,-8808.450710,612.876398
594.892854,-592.164754,-8808.450710,536.266849
594.893182,-518.144159,-8882.471304,459.657299
594.893509,-444.123565,-8882.471304,459.657299
594.893837,0.000000,-9252.574275,766.095498
594.894165,-666.185348,-8438.347739,919.314598
594.894492,-444.123565,-9252.574275,919.314598
594.894820,-444.123565,-9400.615463,842.705048
594.895147,-592.164754,-9622.677246,536.266849
594.895475,-518.144159,-9548.656652,612.876398
594.895803,0.000000,-9326.594869,766.095498
594.896130,0.000000,-9400.615463,459.657299
594.896458,0.000000,-9178.553681,459.657299
594.896786,-148.041188,-9252.574275,459.657299
594.897113,-296.082377,-9326.594869,536.266849
594.897441,-222.061783,-9030.512492,842.705048
594.897769,0.000000,-8882.471304,459.657299
594.898096,74.020594,-9178.553681,306.438199
594.898424,0.000000,-9030.512492,612.876398
594.898751,0.000000,-9326.594869,459.657299
594.899079,222.061783,-9326.594869,612.876398
594.899407,296.082377,-9326.594869,536.266849
594.899734,74.020594,-9474.636058,536.266849
594.900062,0.000000,-9400.615463,153.219100
594.900390,0.000000,-9474.636058,612.876398
594.900717,74.020594,-9178.553681,459.657299
594.901045,0.000000,-9252.574275,766.095498
594.901372,74.020594,-9252.574275,153.219100
594.901700,-444.123565,-9400.615463,306.438199
594.902028,-370.102971,-8882.471304,306.438199
594.902355,-222.061783,-9252.574275,153.219100
594.902683,0.000000,-9030.512492,612.876398
594.903011,-296.082377,-9326.594869,229.828649
594.903338,0.000000,-9400.615463,459.657299
594.903666,-296.082377,-9622.677246,459.657299
594.903993,0.000000,-9326.594869,689.485948
594.904321,-222.061783,-9104.533087,612.876398
594.904649,0.000000,-9178.553681,536.266849
594.904976,-222.061783,-9252.574275,766.095498
594.905304,-296.082377,-9104.533087,766.095498
594.905632,-592.164754,-8808.450710,689.485948
594.905959,-518.144159,-8882.471304,689.485948
594.906287,-222.061783,-8882.471304,229.828649
594.906615,-222.061783,-8734.430116,766.095498
594.906942,-518.144159,-8734.430116,766.095498
594.907270,-370.102971,-8882.471304,689.485948
594.907597,-370.102971,-9252.574275,919.314598
594.907925,-370.102971,-8882.471304,306.438199
594.908253,-370.102971,-9252.574275,766.095498
594.908580,-444.123565,-9252.574275,766.095498
594.908908,-592.164754,-9252.574275,766.095498
594.909236,-296.082377,-9326.594869,919.314598
594.909563,0.000000,-8808.450710,612.876398
594.909891,0.000000,-8660.409521,536.266849
594.910218,0.000000,-8808.450710,536.266849
594.910546,0.000000,-8734.430116,306.438199
594.910874,-444.123565,-8808.450710,459.657299
594.911201,-222.061783,-8438.347739,612.876398
594.911529,-370.102971,-9252.574275,459.657299
594.911857,-444.123565,-9326.594869,536.266849
594.912184,-296.082377,-9326.594869,842.705048
594.912512,-296.082377,-9252.574275,766.095498
594.912840,0.000000,-9030.512492,995.924147
594.913167,0.000000,-9104.533087,995.924147
594.913495,0.000000,-9030.512492,459.657299
594.913822,0.000000,-8956.491898,459.657299
594.914150,-444.123565,-8956.491898,383.047749
594.914478,-148.041188,-8882.471304,919.314598
594.914805,-518.144159,-8956.491898,459.657299
594.915133,-518.144159,-9030.512492,612.876398
594.915461,-592.164754,-9252.574275,612.876398
594.915788,-666.185348,-9104.533087,536.266849
594.916116,-666.185348,-9252.574275,612.876398
594.916443,-666.185348,-9030.512492,919.314598
594.916771,-518.144159,-9104.533087,536.266849
594.917099,-444.123565,-9030.512492,536.266849
594.917426,-518.144159,-9030.512492,842.705048
594.917754,-518.144159,-9178.553681,536.266849
594.918082,-296.082377,-9104.533087,383.047749
594.918409,-370.102971,-8586.388927,459.657299
594.918737,-222.061783,-8808.450710,383.047749
594.919064,0.000000,-8808.450710,383.047749
594.919392,0.000000,-8808.450710,383.047749
594.919720,0.000000,-8808.450710,459.657299
594.920047,-518.144159,-9030.512492,612.876398
594.920375,-370.102971,-9252.574275,459.657299
594.920703,-444.123565,-9252.574275,383.047749
594.921030,-370.102971,-9326.594869,383.047749
594.921358,-296.082377,-9696.697840,995.924147
594.921686,0.000000,-9030.512492,766.095498
594.922013,0.000000,-9030.512492,153.219100
594.922341,74.020594,-9104.533087,383.047749
594.922668,0.000000,-9030.512492,153.219100
594.922996,0.000000,-9104.533087,153.219100
594.923324,-444.123565,-8586.388927,459.657299
594.923651,74.020594,-9030.512492,536.266849
594.923979,-148.041188,-9178.553681,459.657299
594.924307,-222.061783,-9252.574275,459.657299
594.924634,-222.061783,-9474.636058,383.047749
594.924962,0.000000,-8808.450710,612.876398
594.925289,0.000000,-8956.491898,306.438199
594.925617,-222.061783,-9178.553681,536.266849
594.925945,0.000000,-9252.574275,612.876398
594.926272,148.041188,-9178.553681,766.095498
594.926600,0.000000,-9030.512492,1225.752797
594.926928,148.041188,-9104.533087,995.924147
594.927255,0.000000,-9178.553681,612.876398
594.927583,-222.061783,-9178.553681,842.705048
594.927911,-370.102971,-9326.594869,689.485948
594.928238,-444.123565,-9104.533087,766.095498
594.928566,-370.102971,-9474.636058,1685.410096
594.928893,-592.164754,-9622.677246,612.876398
594.929221,-370.102971,-9548.656652,995.924147
594.929549,-444.123565,-9474.636058,689.485948
594.929876,0.000000,-9400.615463,536.266849
594.930204,0.000000,-9252.574275,842.705048
594.930532,0.000000,-9474.636058,459.657299
594.930859,74.020594,-9326.594869,459.657299
594.931187,0.000000,-9400.615463,612.876398
594.931514,-148.041188,-9326.594869,306.438199
594.931842,222.061783,-9474.636058,153.219100
594.932170,0.000000,-9178.553681,229.828649
594.932497,-148.041188,-9474.636058,383.047749
594.932825,-296.082377,-9400.615463,459.657299
594.933153,-222.061783,-9474.636058,612.876398
594.933480,-296.082377,-9400.615463,612.876398
594.933808,-222.061783,-9104.533087,766.095498
594.934136,0.000000,-9474.636058,766.095498
594.934463,-148.041188,-9178.553681,536.266849
594.934791,0.000000,-9326.594869,536.266849
594.935118,0.000000,-9030.512492,612.876398
594.935446,0.000000,-8512.368333,612.876398
594.935774,74.020594,-8956.491898,536.266849
594.936101,-296.082377,-8882.471304,612.876398
594.936429,-592.164754,-8956.491898,536.266849
594.936757,-444.123565,-9252.574275,459.657299
594.937084,-592.164754,-9104.533087,1149.143247
594.937412,-444.123565,-9104.533087,919.314598
594.937739,-518.144159,-9252.574275,766.095498
594.938067,-370.102971,-9104.533087,766.095498
594.938395,-444.123565,-8956.491898,842.705048
594.938722,-296.082377,-8660.409521,383.047749
594.939050,-296.082377,-8438.347739,689.485948
594.939378,-592.164754,-8586.388927,536.266849
594.939705,-592.164754,-8586.388927,229.828649
594.940033,-592.164754,-8586.388927,459.657299
594.940360,-370.102971,-8660.409521,1072.533697
594.940688,-222.061783,-8586.388927,842.705048
594.941016,-444.123565,-8956.491898,383.047749
594.941343,-666.185348,-8808.450710,306.438199
594.941671,-666.185348,-8660.409521,459.657299
594.941999,-296.082377,-8956.491898,306.438199
594.942326,0.000000,-9030.512492,689.485948
594.942654,0.000000,-8734.430116,536.266849
594.942982,0.000000,-8956.491898,459.657299
594.943309,0.000000,-8956.491898,536.266849
594.943637,-148.041188,-8956.491898,459.657299
594.943964,-370.102971,-8364.327145,76.609550
594.944292,-296.082377,-8660.409521,459.657299
594.944620,0.000000,-8734.430116,229.828649
594.944947,0.000000,-8882.471304,306.438199
594.945275,-370.102971,-9104.533087,383.047749
594.945603,-518.144159,-9104.533087,842.705048
594.945930,-296.082377,-9252.574275,766.095498
594.946258,-370.102971,-9400.615463,536.266849
594.946585,-518.144159,-9400.615463,306.438199
594.946913,-444.123565,-9252.574275,383.047749
594.947241,-370.102971,-9252.574275,536.266849
594.947568,-370.102971,-8956.491898,689.485948
594.947896,-370.102971,-9178.553681,612.876398
594.948224,-370.102971,-9178.553681,459.657299
594.948551,-518.144159,-9104.533087,306.438199
594.948879,-592.164754,-9178.553681,536.266849
594.949207,-814.226536,-8512.368333,459.657299
594.949534,-296.082377,-9178.553681,689.485948
594.949862,-444.123565,-9400.615463,689.485948
594.950189,-370.102971,-9474.636058,689.485948
594.950517,-444.123565,-9474.636058,536.266849
594.950845,0.000000,-8956.491898,612.876398
594.951172,0.000000,-9474.636058,383.047749
594.951500,0.000000,-9474.636058,612.876398
594.951828,0.000000,-9474.636058,536.266849
594.952155,0.000000,-9104.533087,536.266849
594.952483,296.082377,-9030.512492,689.485948
594.952810,74.020594,-8882.471304,689.485948
594.953138,0.000000,-9178.553681,536.266849
594.953466,0.000000,-9252.574275,536.266849
594.953793,0.000000,-9400.615463,536.266849
594.954121,0.000000,-9400.615463,306.438199
594.954449,-592.164754,-9252.574275,536.266849
594.954776,-296.082377,-9474.636058,842.705048
594.955104,-222.061783,-9474.636058,612.876398
594.955431,-148.041188,-9400.615463,612.876398
594.955759,0.000000,-9178.553681,459.657299
594.956087,-296.082377,-8586.388927,536.266849
594.956414,148.041188,-9104.533087,459.657299
594.956742,0.000000,-8956.491898,536.266849
594.957070,-148.041188,-9030.512492,612.876398
594.957397,-296.082377,-8956.491898,612.876398
594.957725,-444.123565,-9030.512492,153.219100
594.958053,-444.123565,-9326.594869,459.657299
594.958380,-518.144159,-9326.594869,689.485948
594.958708,-296.082377,-9474.636058,689.485948
594.959035,-370.102971,-9326.594869,612.876398
594.959363,-444.123565,-9474.636058,919.314598
594.959691,74.020594,-9030.512492,842.705048
594.960018,-370.102971,-9178.553681,919.314598
594.960346,-370.102971,-8882.471304,689.485948
594.960674,-296.082377,-8882.471304,689.485948
594.961001,-222.061783,-8660.409521,536.266849
594.961329,-370.102971,-8290.306550,1225.752797
594.961656,-370.102971,-8882.471304,459.657299
594.961984,-370.102971,-9030.512492,459.657299
594.962312,-444.123565,-9326.594869,689.485948
594.962639,-518.144159,-9474.636058,766.095498
594.962967,-296.082377,-8734.430116,689.485948
594.963295,-370.102971,-9104.533087,612.876398
594.963622,-370.102971,-9252.574275,536.266849
594.963950,-444.123565,-9030.512492,612.876398
594.964278,-370.102971,-9252.574275,612.876398
594.964605,0.000000,-8734.430116,229.828649
594.964933,0.000000,-8438.347739,76.609550
594.965260,-296.082377,-8808.450710,153.219100
594.965588,0.000000,-8734.430116,76.609550
594.965916,0.000000,-8882.471304,383.047749
594.966243,-222.061783,-8734.430116,383.047749
594.966571,-296.082377,-9030.512492,383.047749
594.966899,-296.082377,-9252.574275,229.828649
594.967226,-370.102971,-9326.594869,459.657299
594.967554,-444.123565,-9252.574275,612.876398
594.967881,-148.041188,-9400.615463,383.047749
594.968209,-148.041188,-8956.491898,459.657299
594.968537,-148.041188,-8808.450710,612.876398
594.968864,-296.082377,-8956.491898,459.657299
594.969192,-222.061783,-9030.512492,383.047749
594.969520,-592.164754,-8808.450710,229.828649
594.969847,-444.123565,-8364.327145,689.485948
594.970175,-444.123565,-8734.430116,229.828649
594.970503,-666.185348,-8882.471304,306.438199
594.970830,-666.185348,-8956.491898,229.828649
594.971158,-666.185348,-9178.553681,459.657299
594.971485,-592.164754,-9178.553681,842.705048
594.971813,-962.267725,-9104.533087,0.000000
594.972141,-814.226536,-9104.533087,306.438199
594.972468,-370.102971,-8882.471304,459.657299
594.972796,-296.082377,-8956.491898,536.266849
594.973124,-888.247130,-8882.471304,919.314598
594.973451,0.000000,-8734.430116,995.924147
594.973779,-222.061783,-8882.471304,689.485948
594.974106,-592.164754,-9030.512492,536.266849
594.974434,-222.061783,-8956.491898,689.485948
594.974762,0.000000,-9178.553681,689.485948
594.975089,-370.102971,-8586.388927,842.705048
594.975417,0.000000,-9548.656652,842.705048
594.975745,0.000000,-9548.656652,766.095498
594.976072,0.000000,-9548.656652,689.485948
594.976400,0.000000,-9400.615463,612.876398
594.976727,74.020594,-9474.636058,919.314598
594.977055,-444.123565,-8808.450710,306.438199
594.977383,-296.082377,-9178.553681,76.609550
594.977710,-148.041188,-9030.512492,459.657299
594.978038,-148.041188,-8808.450710,383.047749
594.978365,-148.041188,-8808.450710,0.000000
594.978693,-296.082377,-9104.533087,229.828649
594.979020,0.000000,-9252.574275,153.219100
594.979348,-370.102971,-9178.553681,306.438199
594.979676,0.000000,-9252.574275,612.876398
594.980003,0.000000,-9252.574275,842.705048
594.980331,0.000000,-9400.615463,689.485948
594.980658,-296.082377,-9474.636058,612.876398
594.980986,-222.061783,-9252.574275,842.705048
594.981314,-296.082377,-9178.553681,766.095498
594.981641,0.000000,-9400.615463,689.485948
594.981969,74.020594,-9326.594869,1072.533697
594.982296,-148.041188,-9104.533087,919.314598
594.982624,0.000000,-9252.574275,689.485948
594.982952,-296.082377,-9104.533087,689.485948
594.983279,-296.082377,-9326.594869,536.266849
594.983607,-296.082377,-9474.636058,842.705048
594.983934,-370.102971,-9178.553681,612.876398
594.984262,-592.164754,-9252.574275,689.485948
594.984589,-666.185348,-9622.677246,536.266849
594.984917,-666.185348,-9474.636058,459.657299
594.985245,-222.061783,-9400.615463,459.657299
594.985572,-370.102971,-9178.553681,842.705048
594.985900,-370.102971,-9104.533087,536.266849
594.986227,-296.082377,-8808.450710,383.047749
594.986555,-296.082377,-8660.409521,383.047749
594.986883,-222.061783,-8364.327145,689.485948
594.987210,0.000000,-8660.409521,306.438199
594.987538,0.000000,-9030.512492,306.438199
594.987865,-296.082377,-9178.553681,306.438199
594.988193,-370.102971,-9400.615463,459.657299
594.988520,-296.082377,-9474.636058,229.828649
594.988848,-74.020594,-9252.574275,612.876398
594.989176,0.000000,-9178.553681,306.438199
594.989503,222.061783,-9326.594869,612.876398
594.989831,370.102971,-9104.533087,306.438199
594.990158,148.041188,-9104.533087,153.219100
594.990486,148.041188,-8808.450710,536.266849
594.990814,0.000000,-8808.450710,383.047749
594.991141,0.000000,-8956.491898,689.485948
594.991469,0.000000,-8734.430116,689.485948
594.991796,-444.123565,-8956.491898,459.657299
594.992124,-370.102971,-8956.491898,536.266849
594.992451,-296.082377,-9104.533087,842.705048
594.992779,-444.123565,-9030.512492,766.095498
594.993107,-296.082377,-8882.471304,536.266849
594.993434,-296.082377,-9030.512492,612.876398
594.993762,0.000000,-8660.409521,995.924147
594.994089,0.000000,-8956.491898,383.047749
594.994417,0.000000,-9030.512492,689.485948
594.994745,-222.061783,-8956.491898,766.095498
594.995072,-444.123565,-9030.512492,612.876398
594.995400,-444.123565,-8956.491898,459.657299
594.995727,0.000000,-9326.594869,689.485948
594.996055,-370.102971,-8734.430116,689.485948
594.996382,-370.102971,-9104.533087,842.705048
594.996710,-444.123565,-9178.553681,919.314598
594.997038,-296.082377,-9548.656652,689.485948
594.997365,-296.082377,-9400.615463,842.705048
594.997693,-444.123565,-8660.409521,995.924147
594.998020,-444.123565,-9104.533087,612.876398
594.998348,-148.041188,-9400.615463,459.657299
594.998676,-296.082377,-9252.574275,383.047749
594.999003,0.000000,-8586.388927,306.438199
594.999331,-148.041188,-8216.285956,766.095498
594.999658,-666.185348,-9030.512492,459.657299
594.999986,-740.205942,-9030.512492,306.438199
595.000313,-444.123565,-9178.553681,459.657299
595.000641,-296.082377,-8882.471304,536.266849
595.000969,-666.185348,-8956.491898,689.485948
595.001296,-592.164754,-9326.594869,536.266849
595.001624,-740.205942,-9326.594869,229.828649
595.001951,-148.041188,-9474.636058,612.876398
595.002279,0.000000,-9252.574275,306.438199
595.002607,222.061783,-9030.512492,766.095498
595.002934,0.000000,-9326.594869,919.314598
595.003262,0.000000,-9104.533087,383.047749
595.003589,-148.041188,-8956.491898,306.438199
595.003917,0.000000,-9030.512492,306.438199
595.004244,-222.061783,-9252.574275,306.438199
595.004572,-296.082377,-8882.471304,536.266849
595.004900,-296.082377,-9400.615463,612.876398
595.005227,-370.102971,-9252.574275,766.095498
595.005555,-444.123565,-9400.615463,536.266849
595.005882,-296.082377,-9252.574275,689.485948
595.006210,-148.041188,-9178.553681,612.876398
595.006538,0.000000,-9104.533087,612.876398
595.006865,-222.061783,-9104.533087,612.876398
595.007193,-370.102971,-9252.574275,689.485948
595.007520,-444.123565,-9104.533087,459.657299
595.007848,-444.123565,-8660.409521,612.876398
595.008175,-518.144159,-8734.430116,306.438199
595.008503,-296.082377,-8882.471304,459.657299
595.008831,-444.123565,-9030.512492,229.828649
595.009158,-444.123565,-9104.533087,536.266849
595.009486,0.000000,-8808.450710,612.876398
595.009813,-370.102971,-9104.533087,536.266849
595.010141,-296.082377,-9178.553681,536.266849
595.010469,0.000000,-9474.636058,306.438199
595.010796,0.000000,-9400.615463,536.266849
595.011124,0.000000,-9178.553681,306.438199
595.011451,222.061783,-9326.594869,919.314598
595.011779,148.041188,-9104.533087,536.266849
595.012107,222.061783,-8956.491898,459.657299
595.012434,0.000000,-9178.553681,383.047749
595.012762,0.000000,-8882.471304,995.924147
595.013089,148.041188,-8734.430116,229.828649
595.013417,0.000000,-9400.615463,229.828649
595.013744,0.000000,-9474.636058,536.266849
595.014072,-148.041188,-9474.636058,383.047749
595.014400,-296.082377,-9622.677246,919.314598
595.014727,-148.041188,-9326.594869,689.485948
595.015055,-148.041188,-9326.594869,536.266849
595.015382,0.000000,-9178.553681,689.485948
595.015710,0.000000,-9104.533087,306.438199
595.016038,-222.061783,-8956.491898,383.047749
595.016365,-518.144159,-8290.306550,459.657299
595.016693,-370.102971,-9178.553681,766.095498
595.017020,-444.123565,-9030.512492,536.266849
595.017348,-370.102971,-9104.533087,612.876398
595.017675,-370.102971,-9178.553681,459.657299
595.018003,-666.185348,-8660.409521,1072.533697
595.018331,-370.102971,-9326.594869,766.095498
595.018658,-592.164754,-9474.636058,842.705048
595.018986,-518.144159,-9400.615463,842.705048
595.019313,-518.144159,-9178.553681,842.705048
595.019641,-148.041188,-9400.615463,1225.752797
595.019969,-148.041188,-9178.553681,459.657299
595.020296,-370.102971,-9178.553681,612.876398
595.020624,-444.123565,-9104.533087,536.266849
595.020951,-296.082377,-9252.574275,536.266849
595.021279,-370.102971,-8808.450710,536.266849
595.021606,-222.061783,-8586.388927,612.876398
595.021934,-518.144159,-8956.491898,306.438199
595.022262,-592.164754,-9030.512492,459.657299
595.022589,-740.205942,-9030.512492,459.657299
595.022917,-740.205942,-9104.533087,306.438199
595.023244,-370.102971,-9030.512492,842.705048
595.023572,-592.164754,-9030.512492,536.266849
595.023900,-370.102971,-8956.491898,383.047749
595.024227,-370.102971,-8882.471304,536.266849
595.024555,-592.164754,-8882.471304,459.657299
595.024882,0.000000,-8956.491898,995.924147
595.025210,-148.041188,-8882.471304,76.609550
595.025537,-296.082377,-8882.471304,536.266849
595.025865,-592.164754,-9030.512492,383.047749
595.026193,-592.164754,-9400.615463,536.266849
595.026520,-148.041188,-9400.615463,383.047749
595.026848,0.000000,-9548.656652,459.657299
595.027175,-444.123565,-9178.553681,612.876398
595.027503,-148.041188,-9252.574275,536.266849
595.027831,-222.061783,-9178.553681,459.657299
595.028158,0.000000,-8808.450710,766.095498
595.028486,444.123565,-8808.450710,612.876398
595.028813,0.000000,-8586.388927,459.657299
595.029141,-222.061783,-8734.430116,536.266849
595.029468,-370.102971,-8660.409521,383.047749
595.029796,-592.164754,-8660.409521,612.876398
595.030124,-888.247130,-8438.347739,689.485948
595.030451,-740.205942,-8808.450710,919.314598
595.030779,-814.226536,-9030.512492,459.657299
595.031106,-518.144159,-9178.553681,459.657299
595.031434,-370.102971,-8956.491898,536.266849
595.031762,-148.041188,-8586.388927,842.705048
595.032089,444.123565,-8660.409521,306.438199
595.032417,296.082377,-8808.450710,383.047749
595.032744,0.000000,-9030.512492,536.266849
595.033072,-370.102971,-9178.553681,536.266849
595.033399,0.000000,-9252.574275,459.657299
595.033727,-740.205942,-9252.574275,995.924147
595.034055,-370.102971,-9474.636058,459.657299
595.034382,0.000000,-9474.636058,383.047749
595.034710,0.000000,-9178.553681,306.438199
595.035037,148.041188,-9252.574275,459.657299
595.035365,74.020594,-8956.491898,689.485948
595.035693,0.000000,-9400.615463,536.266849
595.036020,-148.041188,-9474.636058,459.657299
595.036348,0.000000,-9622.677246,459.657299
595.036675,74.020594,-9770.718434,689.485948
595.037003,74.020594,-9622.677246,842.705048
595.037330,0.000000,-9622.677246,919.314598
595.037658,74.020594,-9548.656652,612.876398
595.037986,74.020594,-9400.615463,612.876398
595.038313,0.000000,-8956.491898,459.657299
595.038641,0.000000,-9178.553681,766.095498
595.038968,0.000000,-9030.512492,0.000000
595.039296,-444.123565,-9252.574275,536.266849
595.039624,-370.102971,-9326.594869,459.657299
595.039951,-444.123565,-9326.594869,536.266849
595.040279,-296.082377,-8956.491898,1072.533697
595.040606,0.000000,-9252.574275,536.266849
595.040934,148.041188,-9400.615463,842.705048
595.041262,0.000000,-8956.491898,459.657299
595.041589,296.082377,-8956.491898,536.266849
595.041917,148.041188,-9104.533087,536.266849
595.042244,0.000000,-8882.471304,1072.533697
595.042572,-740.205942,-9252.574275,842.705048
595.042899,-962.267725,-9400.615463,919.314598
595.043227,-814.226536,-9474.636058,536.266849
595.043555,-814.226536,-9400.615463,536.266849
595.043882,-296.082377,-8956.491898,612.876398
595.044210,-296.082377,-8734.430116,459.657299
595.044537,-370.102971,-8734.430116,459.657299
595.044865,-370.102971,-8734.430116,536.266849
595.045193,-592.164754,-8364.327145,306.438199
595.045520,0.000000,-8512.368333,1302.362347
595.045848,148.041188,-8734.430116,383.047749
595.046175,-222.061783,-9252.574275,459.657299
595.046503,-296.082377,-9030.512492,459.657299
595.046830,-148.041188,-9400.615463,766.095498
595.047158,0.000000,-8882.471304,766.095498
595.047486,-148.041188,-8660.409521,689.485948
595.047813,0.000000,-9104.533087,536.266849
595.048141,0.000000,-9178.553681,459.657299
595.048468,-148.041188,-9030.512492,612.876398
595.048796,0.000000,-8734.430116,612.876398
595.049124,-148.041188,-8660.409521,766.095498
595.049451,-148.041188,-8956.491898,536.266849
595.049779,-518.144159,-8882.471304,459.657299
595.050106,-370.102971,-8956.491898,153.219100
595.050434,-370.102971,-8882.471304,383.047749
595.050761,222.061783,-9030.512492,306.438199
595.051089,-444.123565,-9252.574275,459.657299
595.051417,-148.041188,-9178.553681,459.657299
595.051744,-222.061783,-9474.636058,383.047749
595.052072,-444.123565,-9252.574275,612.876398
595.052399,-370.102971,-9252.574275,766.095498
595.052727,-370.102971,-9400.615463,229.828649
595.053055,-444.123565,-9030.512492,306.438199
595.053382,0.000000,-8808.450710,383.047749
595.053710,-148.041188,-9104.533087,383.047749
595.054037,0.000000,-8808.450710,229.828649
595.054365,0.000000,-8956.491898,689.485948
595.054692,-296.082377,-8882.471304,153.219100
595.055020,-148.041188,-9030.512492,459.657299
595.055348,-222.061783,-9030.512492,383.047749
595.055675,-296.082377,-9252.574275,612.876398
595.056003,-296.082377,-8882.471304,689.485948
595.056330,-444.123565,-8882.471304,766.095498
595.056658,-148.041188,-9400.615463,766.095498
595.056986,-148.041188,-9326.594869,536.266849
595.057313,-222.061783,-9474.636058,536.266849
595.057641,-296.082377,-9104.533087,689.485948
595.057968,222.061783,-9252.574275,842.705048
595.058296,-222.061783,-9252.574275,689.485948
595.058623,-148.041188,-9178.553681,612.876398
595.058951,-370.102971,-9326.594869,612.876398
595.059279,0.000000,-9178.553681,919.314598
595.059606,-296.082377,-9326.594869,842.705048
595.059934,-370.102971,-9252.574275,612.876398
595.060261,-370.102971,-9400.615463,766.095498
595.060589,-370.102971,-9326.594869,919.314598
595.060917,-370.102971,-9326.594869,842.705048
595.061244,-296.082377,-9030.512492,766.095498
595.061572,-296.082377,-9474.636058,919.314598
595.061899,-518.144159,-9326.594869,536.266849
595.062227,-222.061783,-9252.574275,689.485948
595.062554,-296.082377,-9104.533087,383.047749
595.062882,0.000000,-8956.491898,459.657299
595.063210,-444.123565,-8956.491898,612.876398
595.063537,-444.123565,-9326.594869,689.485948
595.063865,-592.164754,-9252.574275,459.657299
595.064192,-222.061783,-9104.533087,536.266849
595.064520,-370.102971,-8882.471304,459.657299
595.064848,-148.041188,-9548.656652,689.485948
595.065175,-148.041188,-9252.574275,383.047749
595.065503,0.000000,-9326.594869,689.485948
595.065830,0.000000,-9178.553681,536.266849
595.066158,0.000000,-8956.491898,459.657299
595.066485,0.000000,-9030.512492,842.705048
595.066813,0.000000,-9104.533087,306.438199
595.067141,-296.082377,-8956.491898,536.266849
595.067468,-296.082377,-8956.491898,536.266849
595.067796,0.000000,-9030.512492,689.485948
595.068123,148.041188,-9178.553681,383.047749
595.068451,-370.102971,-9104.533087,153.219100
595.068779,-518.144159,-9104.533087,689.485948
595.069106,-370.102971,-9326.594869,612.876398
595.069434,-222.061783,-9326.594869,536.266849
595.069761,-296.082377,-8734.430116,612.876398
595.070089,74.020594,-8956.491898,612.876398
595.070417,0.000000,-9030.512492,229.828649
595.070744,-296.082377,-8956.491898,383.047749
595.071072,-444.123565,-9178.553681,306.438199
595.071399,-222.061783,-9252.574275,229.828649
595.071727,0.000000,-9030.512492,766.095498
595.072054,-148.041188,-8956.491898,306.438199
595.072382,0.000000,-9030.512492,459.657299
595.072710,-148.041188,-8956.491898,536.266849
595.073037,-296.082377,-8438.347739,612.876398
595.073365,-518.144159,-8290.306550,842.705048
595.073692,-296.082377,-8882.471304,459.657299
595.074020,-592.164754,-8956.491898,612.876398
595.074348,-444.123565,-8882.471304,536.266849
595.074675,-444.123565,-9252.574275,766.095498
595.075003,-296.082377,-8586.388927,766.095498
595.075330,0.000000,-9030.512492,536.266849
595.075658,222.061783,-9178.553681,766.095498
595.075985,0.000000,-9104.533087,459.657299
595.076313,-444.123565,-9104.533087,459.657299
595.076641,-222.061783,-9178.553681,383.047749
595.076968,-592.164754,-8882.471304,919.314598
595.077296,-592.164754,-9474.636058,842.705048
595.077623,-518.144159,-9400.615463,459.657299
595.077951,-370.102971,-9474.636058,689.485948
595.078278,-370.102971,-9104.533087,306.438199
595.078606,0.000000,-8956.491898,1302.362347
595.078934,0.000000,-8808.450710,612.876398
595.079261,-222.061783,-8734.430116,536.266849
595.079589,0.000000,-9178.553681,306.438199
595.079916,-370.102971,-9030.512492,842.705048
595.080244,-370.102971,-9104.533087,1072.533697
595.080571,-370.102971,-9474.636058,766.095498
595.080899,-370.102971,-9326.594869,689.485948
595.081226,-296.082377,-9252.574275,689.485948
595.081554,0.000000,-9178.553681,536.266849
595.081882,-444.123565,-8660.409521,459.657299
595.082209,-370.102971,-8882.471304,689.485948
595.082537,-444.123565,-8882.471304,383.047749
595.082864,-444.123565,-9104.533087,153.219100
595.083192,-518.144159,-9252.574275,536.266849
595.083519,-740.205942,-9104.533087,689.485948
595.083847,-296.082377,-9400.615463,689.485948
595.084175,-296.082377,-9178.553681,536.266849
595.084502,370.102971,-9104.533087,766.095498
595.084830,1036.288319,-8808.450710,1302.362347
595.085157,1332.370696,-8882.471304,1685.410096
595.085485,740.205942,-9400.615463,1608.800546
595.085812,296.082377,-9474.636058,1838.629195
595.086140,0.000000,-9474.636058,1532.190996
595.086467,0.000000,-9252.574275,2068.457845
595.086795,148.041188,-9104.533087,1838.629195
595.087123,74.020594,-8882.471304,1991.848295
595.087450,0.000000,-9104.533087,1991.848295
595.087778,-222.061783,-8734.430116,2068.457845
595.088105,-148.041188,-8438.347739,2068.457845
595.088433,0.000000,-8586.388927,2068.457845
595.088760,0.000000,-8808.450710,1991.848295
595.089088,-518.144159,-8734.430116,2221.676944
595.089415,-592.164754,-8882.471304,2374.896044
595.089743,-518.144159,-9252.574275,2604.724693
595.090071,-518.144159,-9252.574275,2757.943793
595.090398,-962.267725,-9030.512492,2911.162892
595.090726,-592.164754,-8808.450710,3294.210641
595.091053,-370.102971,-9030.512492,3064.381992
595.091381,-666.185348,-8956.491898,3064.381992
595.091708,-740.205942,-8956.491898,3217.601092
595.092036,-296.082377,-9252.574275,3294.210641
595.092363,-444.123565,-9178.553681,3447.429741
595.092691,-518.144159,-9030.512492,3370.820191
595.093019,-370.102971,-9104.533087,3370.820191
595.093346,-222.061783,-9030.512492,3217.601092
595.093674,-370.102971,-8956.491898,3370.820191
595.094001,-666.185348,-8882.471304,3370.820191
595.094329,0.000000,-9104.533087,2987.772442
595.094656,0.000000,-9326.594869,3447.429741
595.094984,0.000000,-9474.636058,3370.820191
595.095311,148.041188,-9474.636058,3524.039291
595.095639,74.020594,-8956.491898,3907.087040
595.095967,666.185348,-9104.533087,4060.306139
595.096294,1036.288319,-9326.594869,3983.696590
595.096622,1406.391290,-9252.574275,4519.963438
595.096949,1184.329507,-9104.533087,4673.182538
595.097277,1406.391290,-9252.574275,5362.668486
595.097604,1036.288319,-9030.512492,4903.011187
595.097932,592.164754,-9770.718434,5056.230287
595.098259,296.082377,-9770.718434,4903.011187
595.098587,0.000000,-9696.697840,4749.792088
595.098915,-444.123565,-9474.636058,4903.011187
595.099242,-888.247130,-9104.533087,4366.744339
595.099570,-1184.329507,-9326.594869,4366.744339
595.099897,-1480.411884,-9326.594869,3907.087040
595.100225,-1924.535449,-9178.553681,3600.648841
595.100552,-2442.679609,-8956.491898,3294.210641
595.100880,-2146.597232,-8586.388927,3370.820191
595.101208,-1850.514855,-8586.388927,3140.991542
595.101535,-962.267725,-8290.306550,3677.258390
595.101863,74.020594,-7772.162391,4213.525239
595.102190,814.226536,-7994.224174,4979.620737
595.102518,1628.453072,-7846.182985,5745.716235
595.102845,1628.453072,-8290.306550,6511.811733
595.103173,1258.350101,-9252.574275,6665.030833
595.103500,0.000000,-10066.800811,6281.983084
595.103828,-1184.329507,-11103.089130,5975.544884
595.104156,-2220.617826,-10881.027347,5669.106685
595.104483,-2442.679609,-10362.883188,4903.011187
595.104811,-2368.659014,-9770.718434,4136.915689
595.105138,-592.164754,-8734.430116,3983.696590
595.105466,814.226536,-8068.244768,4290.134789
595.105793,2368.659014,-7105.977043,4443.353888
595.106121,2146.597232,-7328.038826,4136.915689
595.106448,-1258.350101,-9178.553681,2374.896044
595.106776,-6291.750507,-11177.109724,383.047749
595.107104,-10510.924376,-12065.356855,-1991.848295
595.107431,-11621.233289,-11547.212695,-3600.648841
595.107759,-9104.533087,-9400.615463,-3524.039291
595.108086,-5773.606348,-7624.121203,-2681.334243
595.108414,2442.679609,-5847.626942,-1915.238745
595.108741,5329.482782,-4663.297435,1225.752797
595.109069,9474.636058,-3404.947333,1991.848295
595.109396,11251.130318,-4885.359217,4290.134789
595.109724,8808.450710,-6291.750507,4443.353888
595.110052,9030.512492,-9622.677246,5362.668486
595.110379,3997.112087,-12879.583391,5898.935335
595.110707,1924.535449,-13989.892304,6128.763984
595.111034,1036.288319,-14285.974681,6511.811733
595.111362,2442.679609,-12657.521608,6665.030833
595.111689,5403.503377,-10584.944971,6665.030833
595.112017,8216.285956,-9252.574275,7890.783629
595.112344,9696.697840,-8364.327145,7507.735880
595.112672,7254.018232,-8734.430116,6894.859482
595.113000,1850.514855,-8586.388927,5975.544884
595.113327,-4293.194464,-10510.924376,3524.039291
595.113655,-7476.080014,-10288.862594,2681.334243
595.113982,-9474.636058,-9548.656652,2451.505594
595.114310,-7402.059420,-7772.162391,4366.744339
595.114637,-5773.606348,-7698.141797,6205.373534
595.114965,-3330.926739,-6439.791695,7201.297681
595.115292,-5699.585753,-6809.894666,8273.831378
595.115620,-6217.729913,-7402.059420,6128.763984
595.115948,-8364.327145,-7624.121203,5209.449386
595.116275,-8956.491898,-7476.080014,5056.230287
595.116603,-7402.059420,-7550.100608,4903.011187
595.116930,-5773.606348,-7328.038826,5132.839837
595.117258,-1998.556043,-6809.894666,6894.859482
595.117585,2664.741391,-5551.544565,8886.707777
595.117913,5847.626942,-4441.235652,10112.460574
595.118240,7920.203579,-6143.709319,11338.213370
595.118568,4515.256246,-10288.862594,9039.926876
595.118896,-2516.700203,-15174.221811,6205.373534
595.119223,-8808.450710,-18801.230927,2911.162892
595.119551,-11843.295072,-17987.004391,0.000000
595.119878,-10288.862594,-15396.283594,-1302.362347
595.120206,-3849.070898,-13175.665768,-919.314598
595.120533,296.082377,-9770.718434,-1072.533697
595.120861,1776.494261,-8142.265362,229.828649
595.121189,3627.009116,-6365.771101,-842.705048
595.121516,-1258.350101,-6809.894666,-3524.039291
595.121844,222.061783,-6365.771101,-4749.792088
595.122171,1554.432478,-7031.956449,-3983.696590
595.122499,3701.029710,-7105.977043,-2681.334243
595.122826,4737.318029,-8142.265362,-383.047749
595.123154,7550.100608,-9326.594869,4136.915689
595.123481,7550.100608,-8364.327145,4366.744339
595.123809,7550.100608,-9474.636058,5132.839837
595.124137,7031.956449,-11177.109724,4366.744339
595.124464,4367.215058,-13471.748144,2604.724693
595.124792,2294.638420,-14137.933492,1378.971896
595.125119,1998.556043,-12065.356855,1838.629195
595.125447,5181.441594,-9918.759623,2757.943793
595.125774,7772.162391,-7328.038826,3830.477490
595.126102,9770.718434,-7846.182985,3907.087040
595.126429,6143.709319,-8512.368333,2834.553343
595.126757,-370.102971,-8142.265362,1608.800546
595.127085,-5107.421000,-9548.656652,536.266849
595.127412,-7698.141797,-9474.636058,0.000000
595.127740,-8216.285956,-10066.800811,0.000000
595.128067,-7105.977043,-11695.253884,1608.800546
595.128395,-3997.112087,-9770.718434,2987.772442
595.128722,-3552.988522,-6735.874072,5132.839837
595.129050,-888.247130,-5255.462188,6741.640382
595.129377,-962.267725,-5107.421000,6588.421283
595.129705,-3034.844362,-5181.441594,6128.763984
595.130033,-3552.988522,-6217.729913,5669.106685
595.130360,-4293.194464,-5921.647536,6128.763984
595.130688,-5625.565159,-5773.606348,5822.325785
595.131015,-3997.112087,-7772.162391,6588.421283
595.131343,-1332.370696,-7624.121203,6818.249932
595.131670,2146.597232,-6957.935855,7048.078582
595.131998,4367.215058,-8142.265362,6971.469032
595.132325,2220.617826,-9178.553681,5822.325785
595.132653,-1036.288319,-10584.944971,4979.620737
595.132981,-3108.864956,-11917.315666,4290.134789
595.133308,-3849.070898,-12361.439231,3524.039291
595.133636,-4293.194464,-12509.480420,2604.724693
595.133963,-3256.906145,-12139.377449,2528.115143
595.134291,-1480.411884,-10807.006753,3217.601092
595.134618,518.144159,-8512.368333,3677.258390
595.134946,1258.350101,-7772.162391,3983.696590
595.135273,1924.535449,-7328.038826,4290.134789
595.135601,2812.782580,-7105.977043,3140.991542
595.135929,1258.350101,-7920.203579,3217.601092
595.136256,-370.102971,-8512.368333,3600.648841
595.136584,-1850.514855,-9474.636058,3677.258390
595.136911,-222.061783,-9326.594869,4903.011187
595.137239,2220.617826,-9400.615463,5592.497135
595.137566,2072.576638,-10288.862594,5669.106685
595.137894,1776.494261,-10436.903782,5439.278036
595.138222,0.000000,-10436.903782,4213.525239
595.138549,-1776.494261,-11473.192101,2757.943793
595.138877,-3330.926739,-12287.418637,1225.752797
595.139204,-2146.597232,-11029.068536,766.095498
595.139532,296.082377,-9252.574275,1455.581446
595.139859,3034.844362,-9104.533087,3140.991542
595.140187,3182.885551,-9844.739029,4596.572988
595.140514,2220.617826,-9622.677246,4519.963438
595.140842,1480.411884,-10510.924376,4290.134789
595.141170,-2294.638420,-11473.192101,2757.943793
595.141497,-4737.318029,-13101.645173,2068.457845
595.141825,-4219.173869,-11991.336260,2221.676944
595.142152,-2146.597232,-10288.862594,2834.553343
595.142480,-444.123565,-10288.862594,4596.572988
595.142807,-148.041188,-9474.636058,4749.792088
595.143135,-1480.411884,-8438.347739,3064.381992
595.143462,-2664.741391,-7624.121203,1532.190996
595.143790,-2738.761985,-6661.853478,-153.219100
595.144118,-1702.473667,-5625.565159,-995.924147
595.144445,1776.494261,-4811.338623,-153.219100
595.144773,4589.276840,-5847.626942,1608.800546
595.145100,5773.606348,-6661.853478,3677.258390
595.145428,4589.276840,-6587.832884,3907.087040
595.145755,2220.617826,-8216.285956,3294.210641
