#time,accel_x,accel_y,accel_z
401.479448,-296.082377,-8956.491898,459.657299
401.479776,0.000000,-9252.574275,383.047749
401.480103,-222.061783,-8956.491898,306.438199
401.480430,-296.082377,-9030.512492,306.438199
401.480758,-148.041188,-9178.553681,383.047749
401.481085,-296.082377,-9178.553681,306.438199
401.481413,-296.082377,-9178.553681,459.657299
401.481740,-222.061783,-8882.471304,229.828649
401.482068,-148.041188,-9252.574275,766.095498
401.482395,-370.102971,-9104.533087,306.438199
401.482723,-296.082377,-9030.512492,383.047749
401.483050,-148.041188,-9252.574275,536.266849
401.483377,-296.082377,-8882.471304,689.485948
401.483705,-222.061783,-9104.533087,383.047749
401.484032,-370.102971,-9030.512492,459.657299
401.484360,-222.061783,-9030.512492,689.485948
401.484687,-296.082377,-9178.553681,459.657299
401.485015,-592.164754,-9030.512492,766.095498
401.485342,0.000000,-8808.450710,306.438199
401.485670,0.000000,-8956.491898,459.657299
401.485997,-444.123565,-9030.512492,689.485948
401.486325,-148.041188,-9252.574275,612.876398
401.486652,-370.102971,-9030.512492,612.876398
401.486979,0.000000,-9104.533087,689.485948
401.487307,-370.102971,-9178.553681,612.876398
401.487634,-592.164754,-9178.553681,459.657299
401.487962,-370.102971,-8808.450710,536.266849
401.488289,-222.061783,-9104.533087,612.876398
401.488617,-296.082377,-8734.430116,919.314598
401.488944,-148.041188,-9030.512492,383.047749
401.489272,-518.144159,-8956.491898,766.095498
401.489599,-222.061783,-9104.533087,842.705048
401.489927,-370.102971,-8956.491898,612.876398
401.490254,-222.061783,-9178.553681,612.876398
401.490581,-222.061783,-8956.491898,689.485948
401.490909,-296.082377,-9030.512492,689.485948
401.491236,-370.102971,-9104.533087,536.266849
401.491564,-370.102971,-9104.533087,536.266849
401.491891,-296.082377,-9104.533087,995.924147
401.492219,-148.041188,-9252.574275,689.485948
401.492546,-370.102971,-9252.574275,383.047749
401.492874,-222.061783,-8956.491898,306.438199
401.493201,-370.102971,-9030.512492,536.266849
401.493529,-148.041188,-9252.574275,383.047749
401.493856,0.000000,-8956.491898,383.047749
401.494183,-296.082377,-9252.574275,766.095498
401.494511,-222.061783,-9326.594869,536.266849
401.494838,0.000000,-9252.574275,612.876398
401.495166,-518.144159,-9252.574275,459.657299
401.495493,-370.102971,-9474.636058,-229.828649
401.495821,-1258.350101,-9326.594869,0.000000
401.496148,-1332.370696,-9474.636058,-612.876398
401.496476,-1184.329507,-9178.553681,-459.657299
401.496803,-740.205942,-9104.533087,-536.266849
401.497130,-592.164754,-8660.409521,0.000000
401.497458,-444.123565,-9104.533087,-766.095498
401.497785,-962.267725,-9178.553681,-995.924147
401.498113,-1110.308913,-9252.574275,-1072.533697
401.498440,-1110.308913,-9178.553681,-1149.143247
401.498768,-962.267725,-9252.574275,-1225.752797
401.499095,0.000000,-9400.615463,-1685.410096
401.499423,-222.061783,-9400.615463,-1225.752797
401.499750,0.000000,-9178.553681,-1302.362347
401.500078,0.000000,-9326.594869,-1378.971896
401.500405,0.000000,-9178.553681,-1532.190996
401.500732,148.041188,-8956.491898,-1455.581446
401.501060,296.082377,-9030.512492,-1762.019645
401.501387,296.082377,-9252.574275,-1838.629195
401.501715,296.082377,-9474.636058,-1762.019645
401.502042,296.082377,-9400.615463,-1762.019645
401.502370,444.123565,-8956.491898,-1762.019645
401.502697,370.102971,-9400.615463,-1762.019645
401.503025,222.061783,-9326.594869,-1915.238745
401.503352,74.020594,-9474.636058,-1915.238745
401.503680,74.020594,-9252.574275,-1762.019645
401.504007,0.000000,-8734.430116,-1532.190996
401.504334,222.061783,-9104.533087,-1991.848295
401.504662,0.000000,-9030.512492,-1608.800546
401.504989,-296.082377,-9178.553681,-1762.019645
401.505317,-592.164754,-9178.553681,-1838.629195
401.505644,-1036.288319,-9104.533087,-2068.457845
401.505972,-666.185348,-8956.491898,-2068.457845
401.506299,-1184.329507,-9178.553681,-2451.505594
401.506627,-1406.391290,-9104.533087,-2374.896044
401.506954,-1480.411884,-9178.553681,-2528.115143
401.507281,-1628.453072,-8882.471304,-2757.943793
401.507609,-2072.576638,-8586.388927,-3064.381992
401.507936,-1924.535449,-8956.491898,-3064.381992
401.508264,-1776.494261,-9030.512492,-3600.648841
401.508591,-1776.494261,-8956.491898,-3753.867940
401.508919,-1554.432478,-8956.491898,-3753.867940
401.509246,-1184.329507,-8956.491898,-3524.039291
401.509574,-1036.288319,-9030.512492,-3524.039291
401.509901,-518.144159,-9104.533087,-3600.648841
401.510229,0.000000,-9104.533087,-3447.429741
401.510556,740.205942,-8956.491898,-2911.162892
401.510883,1776.494261,-9548.656652,-2987.772442
401.511211,2294.638420,-9178.553681,-2145.067394
401.511538,2072.576638,-8882.471304,-1838.629195
401.511866,2072.576638,-9474.636058,-1608.800546
401.512193,1554.432478,-9770.718434,-1915.238745
401.512521,518.144159,-10066.800811,-2221.676944
401.512848,-444.123565,-10214.842000,-2757.943793
401.513176,-1702.473667,-10436.903782,-3524.039291
401.513503,-1776.494261,-10140.821405,-4290.134789
401.513831,-1628.453072,-9770.718434,-4749.792088
401.514158,-740.205942,-8882.471304,-4443.353888
401.514485,1036.288319,-7624.121203,-3677.258390
401.514813,2516.700203,-7105.977043,-3447.429741
401.515140,3182.885551,-7179.997637,-2298.286494
401.515468,3478.967927,-7328.038826,-1378.971896
401.515795,2368.659014,-8290.306550,-766.095498
401.516123,666.185348,-9104.533087,-612.876398
401.516450,-1184.329507,-9918.759623,-612.876398
401.516778,-2442.679609,-11103.089130,-919.314598
401.517105,-3330.926739,-11177.109724,-1455.581446
401.517433,-3256.906145,-10807.006753,-1378.971896
401.517760,-1924.535449,-9992.780217,-1762.019645
401.518087,0.000000,-8068.244768,-1225.752797
401.518415,1924.535449,-7328.038826,-1072.533697
401.518742,2368.659014,-7031.956449,-1072.533697
401.519070,3256.906145,-7179.997637,-459.657299
401.519397,1776.494261,-7624.121203,-383.047749
401.519725,0.000000,-8734.430116,-612.876398
401.520052,-3108.864956,-10140.821405,-919.314598
401.520380,-4885.359217,-11325.150913,-1302.362347
401.520707,-5477.523971,-11251.130318,-1532.190996
401.521034,-4441.235652,-10510.924376,-995.924147
401.521362,-2146.597232,-9252.574275,0.000000
401.521689,814.226536,-8586.388927,766.095498
401.522017,3034.844362,-7254.018232,1532.190996
401.522344,3478.967927,-6735.874072,1762.019645
401.522672,2516.700203,-7402.059420,1532.190996
401.522999,518.144159,-8512.368333,383.047749
401.523327,-2072.576638,-9400.615463,76.609550
401.523654,-3849.070898,-9844.739029,-842.705048
401.523982,-3701.029710,-9918.759623,-612.876398
401.524309,-2072.576638,-9252.574275,-766.095498
401.524636,962.267725,-8068.244768,612.876398
401.524964,3849.070898,-7698.141797,1378.971896
401.525291,4885.359217,-7772.162391,1838.629195
401.525619,3997.112087,-8512.368333,1762.019645
401.525946,814.226536,-9770.718434,1072.533697
401.526274,-2516.700203,-11029.068536,0.000000
401.526601,-3923.091493,-11325.150913,-536.266849
401.526929,-4589.276840,-10732.986159,-612.876398
401.527256,-2812.782580,-9474.636058,76.609550
401.527584,148.041188,-8142.265362,1149.143247
401.527911,3182.885551,-7031.956449,2451.505594
401.528238,3997.112087,-5995.668130,2528.115143
401.528566,3701.029710,-7105.977043,2374.896044
401.528893,1036.288319,-8660.409521,1378.971896
401.529221,-2072.576638,-9548.656652,0.000000
401.529548,-4145.153275,-10362.883188,-229.828649
401.529876,-3849.070898,-9548.656652,0.000000
401.530203,-2960.823768,-9400.615463,229.828649
401.530531,-296.082377,-8512.368333,1532.190996
401.530858,1406.391290,-7772.162391,2145.067394
401.531185,1702.473667,-7698.141797,2221.676944
401.531513,1184.329507,-7698.141797,1455.581446
401.531840,666.185348,-9178.553681,1072.533697
401.532168,-2146.597232,-10214.842000,-153.219100
401.532495,-3775.050304,-10510.924376,-919.314598
401.532823,-4145.153275,-10732.986159,-1532.190996
401.533150,-2442.679609,-9992.780217,-229.828649
401.533478,-740.205942,-8142.265362,229.828649
401.533805,740.205942,-8142.265362,842.705048
401.534133,2442.679609,-7624.121203,1685.410096
401.534460,2516.700203,-7772.162391,1072.533697
401.534787,1702.473667,-8956.491898,766.095498
401.535115,592.164754,-10140.821405,383.047749
401.535442,-1480.411884,-10881.027347,-153.219100
401.535770,-2590.720797,-10955.047942,-1072.533697
401.536097,-1924.535449,-10288.862594,-612.876398
401.536425,-962.267725,-9474.636058,-536.266849
401.536752,518.144159,-8142.265362,-919.314598
401.537080,3034.844362,-7402.059420,1149.143247
401.537407,3404.947333,-7772.162391,766.095498
401.537735,2368.659014,-8142.265362,229.828649
401.538062,1406.391290,-10436.903782,0.000000
401.538389,-740.205942,-11399.171507,-766.095498
401.538717,-2590.720797,-11103.089130,-1302.362347
401.539044,-2738.761985,-11325.150913,-1685.410096
401.539372,-1258.350101,-10066.800811,-842.705048
401.539699,814.226536,-8660.409521,153.219100
401.540027,2960.823768,-7624.121203,1608.800546
401.540354,4737.318029,-7328.038826,2681.334243
401.540682,3849.070898,-7920.203579,1838.629195
401.541009,1628.453072,-9622.677246,1455.581446
401.541337,-444.123565,-10584.944971,995.924147
401.541664,-2368.659014,-10955.047942,0.000000
401.541991,-3108.864956,-10140.821405,0.000000
401.542318,-1850.514855,-9400.615463,536.266849
401.542645,-592.164754,-8512.368333,1149.143247
401.542973,1036.288319,-7105.977043,2374.896044
401.543301,2442.679609,-7105.977043,2911.162892
401.543629,1776.494261,-7846.182985,2681.334243
401.543956,-666.185348,-8438.347739,1532.190996
401.544284,-2590.720797,-10510.924376,536.266849
401.544612,-4737.318029,-10658.965565,-383.047749
401.544940,-5107.421000,-9992.780217,-612.876398
401.545268,-3849.070898,-10140.821405,0.000000
401.545595,-1924.535449,-8216.285956,536.266849
401.545923,592.164754,-7402.059420,1838.629195
401.546251,1702.473667,-7254.018232,2451.505594
401.546579,1184.329507,-7179.997637,2068.457845
401.546906,74.020594,-8438.347739,1532.190996
401.547234,-1332.370696,-9918.759623,1072.533697
401.547562,-2886.803174,-10140.821405,612.876398
401.547890,-3182.885551,-10955.047942,0.000000
401.548218,-2886.803174,-10140.821405,-383.047749
401.548545,-1480.411884,-8882.471304,153.219100
401.548873,1554.432478,-7920.203579,153.219100
401.549201,2368.659014,-6513.812290,919.314598
401.549529,3108.864956,-6883.915261,1225.752797
401.549856,2664.741391,-7994.224174,1225.752797
401.550184,0.000000,-9178.553681,0.000000
401.550512,-1184.329507,-10881.027347,0.000000
401.550840,-2738.761985,-10881.027347,-1072.533697
401.551167,-2442.679609,-10510.924376,-1378.971896
401.551495,-666.185348,-10066.800811,-689.485948
401.551823,1480.411884,-8216.285956,0.000000
401.552151,3923.091493,-7624.121203,1149.143247
401.552479,4663.297435,-7550.100608,1991.848295
401.552806,3404.947333,-7772.162391,1378.971896
401.553134,1628.453072,-9696.697840,1072.533697
401.553462,-518.144159,-10881.027347,383.047749
401.553790,-1850.514855,-11029.068536,-459.657299
401.554117,-1554.432478,-10510.924376,-766.095498
401.554445,-370.102971,-9696.697840,153.219100
401.554773,740.205942,-8512.368333,612.876398
401.555101,2294.638420,-7105.977043,1838.629195
401.555428,2812.782580,-7254.018232,1838.629195
401.555756,1258.350101,-7698.141797,1915.238745
401.556084,-370.102971,-8882.471304,919.314598
401.556412,-3034.844362,-10288.862594,0.000000
401.556740,-4589.276840,-11473.192101,-612.876398
401.557067,-4737.318029,-10362.883188,-612.876398
401.557395,-3849.070898,-9548.656652,-536.266849
401.557723,-1332.370696,-8290.306550,536.266849
401.558051,444.123565,-6883.915261,689.485948
401.558378,1702.473667,-7105.977043,1762.019645
401.558706,1628.453072,-7550.100608,1915.238745
401.559034,-370.102971,-8290.306550,1072.533697
401.559362,-1406.391290,-10214.842000,1149.143247
401.559690,-3182.885551,-10807.006753,383.047749
401.560017,-4293.194464,-11103.089130,0.000000
401.560345,-3701.029710,-10214.842000,-306.438199
401.560673,-1850.514855,-9400.615463,76.609550
401.561001,296.082377,-8660.409521,612.876398
401.561328,1702.473667,-6957.935855,1225.752797
401.561656,2886.803174,-7402.059420,1685.410096
401.561984,2294.638420,-8364.327145,1685.410096
401.562312,0.000000,-9474.636058,459.657299
401.562639,-1924.535449,-10436.903782,76.609550
401.562967,-2590.720797,-11177.109724,-536.266849
401.563295,-3182.885551,-10362.883188,-1072.533697
401.563623,-1406.391290,-9622.677246,-383.047749
401.563951,1702.473667,-8660.409521,536.266849
401.564278,3849.070898,-6587.832884,1762.019645
401.564606,5255.462188,-7254.018232,2911.162892
401.564934,3775.050304,-8290.306550,2528.115143
401.565262,1036.288319,-9474.636058,1532.190996
401.565589,-1036.288319,-11251.130318,919.314598
401.565917,-2368.659014,-11325.150913,0.000000
401.566245,-2664.741391,-10584.944971,-459.657299
401.566573,-814.226536,-9696.697840,306.438199
401.566901,888.247130,-8734.430116,1149.143247
401.567228,2294.638420,-6883.915261,1455.581446
401.567556,3256.906145,-7476.080014,2451.505594
401.567884,1850.514855,-7994.224174,1838.629195
401.568212,-888.247130,-8660.409521,1072.533697
401.568539,-2812.782580,-10658.965565,0.000000
401.568867,-4737.318029,-11547.212695,-536.266849
401.569195,-5107.421000,-10066.800811,-1225.752797
401.569523,-3330.926739,-9400.615463,-383.047749
401.569850,-1258.350101,-8216.285956,383.047749
401.570178,370.102971,-7105.977043,766.095498
401.570506,2072.576638,-7254.018232,1915.238745
401.570834,1406.391290,-7624.121203,1685.410096
401.571162,-444.123565,-8216.285956,689.485948
401.571489,-1628.453072,-10140.821405,842.705048
401.571817,-3478.967927,-11029.068536,0.000000
401.572145,-4293.194464,-10288.862594,-919.314598
401.572473,-2664.741391,-10140.821405,-536.266849
401.572800,-1480.411884,-9104.533087,-306.438199
401.573128,740.205942,-7994.224174,306.438199
401.573456,2960.823768,-7179.997637,1149.143247
401.573784,3182.885551,-7624.121203,995.924147
401.574111,1702.473667,-8142.265362,612.876398
401.574439,814.226536,-9844.739029,459.657299
401.574767,-1184.329507,-10881.027347,-689.485948
401.575095,-2590.720797,-10510.924376,-1225.752797
401.575423,-1554.432478,-10510.924376,-766.095498
401.575750,-444.123565,-9326.594869,-612.876398
401.576078,1702.473667,-8216.285956,459.657299
401.576406,3701.029710,-6661.853478,1455.581446
401.576734,4145.153275,-7402.059420,2221.676944
401.577061,3330.926739,-8512.368333,1991.848295
401.577389,1110.308913,-9400.615463,1225.752797
401.577717,-1036.288319,-10510.924376,459.657299
401.578045,-1702.473667,-11029.068536,459.657299
401.578373,-2442.679609,-10140.821405,-612.876398
401.578700,-1776.494261,-9326.594869,0.000000
401.579028,592.164754,-8364.327145,612.876398
401.579356,1406.391290,-7105.977043,919.314598
401.579684,2146.597232,-7254.018232,1762.019645
401.580011,1406.391290,-7994.224174,2068.457845
401.580339,-1110.308913,-8586.388927,766.095498
401.580667,-2590.720797,-10436.903782,536.266849
401.580995,-4071.132681,-10955.047942,-306.438199
401.581322,-4589.276840,-9918.759623,-766.095498
401.581650,-2664.741391,-9474.636058,229.828649
401.581978,-1332.370696,-8660.409521,383.047749
401.582306,296.082377,-7031.956449,1072.533697
401.582634,1628.453072,-7402.059420,2221.676944
401.582961,1258.350101,-7846.182985,1915.238745
401.583289,0.000000,-8586.388927,1225.752797
401.583617,-962.267725,-10658.965565,1608.800546
401.583945,-3034.844362,-11103.089130,612.876398
401.584272,-3478.967927,-10510.924376,76.609550
401.584600,-2516.700203,-10140.821405,0.000000
401.584928,-1110.308913,-9252.574275,0.000000
401.585256,1036.288319,-7624.121203,612.876398
401.585584,2368.659014,-7476.080014,1455.581446
401.585911,2368.659014,-7772.162391,1762.019645
401.586239,1184.329507,-8808.450710,1302.362347
401.586567,-296.082377,-9918.759623,536.266849
401.586895,-2072.576638,-11325.150913,-536.266849
401.587222,-2812.782580,-10584.944971,-306.438199
401.587550,-2294.638420,-9844.739029,-766.095498
401.587878,-1258.350101,-9178.553681,-229.828649
401.588206,1258.350101,-8438.347739,1072.533697
401.588533,2812.782580,-7254.018232,1915.238745
401.588861,3552.988522,-7698.141797,1991.848295
401.589189,2220.617826,-8512.368333,1838.629195
401.589517,592.164754,-9622.677246,919.314598
401.589845,-1332.370696,-10732.986159,536.266849
401.590172,-2368.659014,-10955.047942,229.828649
401.590500,-2960.823768,-10066.800811,0.000000
401.590828,-1924.535449,-9622.677246,0.000000
401.591156,0.000000,-8734.430116,76.609550
401.591483,1554.432478,-7624.121203,689.485948
401.591811,2442.679609,-7328.038826,995.924147
401.592139,1924.535449,-7846.182985,1378.971896
401.592467,370.102971,-9030.512492,919.314598
401.592794,-1628.453072,-10140.821405,0.000000
401.593122,-2960.823768,-10881.027347,-306.438199
401.593450,-3034.844362,-9918.759623,-459.657299
401.593778,-1998.556043,-9474.636058,76.609550
401.594106,-444.123565,-8512.368333,229.828649
401.594433,1258.350101,-7772.162391,1149.143247
401.594761,2664.741391,-6883.915261,1532.190996
401.595089,2072.576638,-7994.224174,1838.629195
401.595417,1406.391290,-8882.471304,1532.190996
401.595744,-518.144159,-9992.780217,76.609550
401.596072,-2664.741391,-11103.089130,76.609550
401.596400,-2886.803174,-10584.944971,-229.828649
401.596728,-2368.659014,-9548.656652,-536.266849
401.597056,-1628.453072,-9030.512492,-229.828649
401.597383,518.144159,-7476.080014,612.876398
401.597711,2294.638420,-7254.018232,842.705048
401.598039,2294.638420,-7624.121203,1455.581446
401.598367,1332.370696,-8734.430116,1225.752797
401.598694,-592.164754,-9918.759623,229.828649
401.599022,-2516.700203,-10732.986159,-306.438199
401.599350,-3330.926739,-10881.027347,-842.705048
401.599678,-3182.885551,-10066.800811,-1225.752797
401.600005,-1850.514855,-9474.636058,-766.095498
401.600333,962.267725,-8290.306550,612.876398
401.600661,3034.844362,-6735.874072,842.705048
401.600989,3552.988522,-7105.977043,1838.629195
401.601317,3256.906145,-8142.265362,2145.067394
401.601644,740.205942,-9104.533087,842.705048
401.601972,-1406.391290,-10732.986159,229.828649
401.602300,-2664.741391,-11251.130318,0.000000
401.602628,-3108.864956,-10288.862594,-536.266849
401.602955,-1924.535449,-9918.759623,-229.828649
401.603283,518.144159,-9104.533087,536.266849
401.603611,2072.576638,-7624.121203,842.705048
401.603939,3330.926739,-7402.059420,2221.676944
401.604267,3330.926739,-8290.306550,2298.286494
401.604594,592.164754,-9400.615463,842.705048
401.604922,-1258.350101,-10288.862594,383.047749
401.605250,-2960.823768,-11103.089130,0.000000
401.605578,-3404.947333,-9918.759623,-536.266849
401.605905,-2146.597232,-8882.471304,76.609550
401.606233,222.061783,-8660.409521,919.314598
401.606561,962.267725,-7179.997637,1149.143247
401.606889,2368.659014,-7328.038826,2451.505594
401.607216,2146.597232,-7920.203579,2145.067394
401.607544,-296.082377,-8438.347739,1608.800546
401.607872,-1924.535449,-9918.759623,1149.143247
401.608200,-3108.864956,-10584.944971,383.047749
401.608528,-4293.194464,-9992.780217,-689.485948
401.608855,-2664.741391,-9770.718434,0.000000
401.609183,-1480.411884,-9252.574275,383.047749
401.609511,0.000000,-7254.018232,612.876398
401.609839,1924.535449,-7624.121203,1455.581446
401.610166,1702.473667,-7476.080014,1072.533697
401.610494,148.041188,-8068.244768,612.876398
401.610822,-444.123565,-10140.821405,689.485948
401.611150,-2294.638420,-10584.944971,-383.047749
401.611477,-3701.029710,-10436.903782,-919.314598
401.611805,-2146.597232,-10732.986159,-536.266849
401.612133,-1258.350101,-9400.615463,-536.266849
401.612461,1036.288319,-8586.388927,383.047749
401.612789,2960.823768,-7328.038826,995.924147
401.613116,3330.926739,-7994.224174,1302.362347
401.613444,2664.741391,-8290.306550,1532.190996
401.613772,1554.432478,-9252.574275,766.095498
401.614100,-814.226536,-10214.842000,153.219100
401.614427,-1628.453072,-10955.047942,-459.657299
401.614755,-2072.576638,-10362.883188,-766.095498
401.615083,-1406.391290,-9844.739029,-459.657299
401.615411,666.185348,-8956.491898,459.657299
401.615739,2220.617826,-7920.203579,689.485948
401.616066,3034.844362,-7920.203579,1378.971896
401.616394,2738.761985,-8142.265362,2221.676944
401.616722,518.144159,-9178.553681,459.657299
401.617050,-1258.350101,-10732.986159,76.609550
401.617377,-2664.741391,-11103.089130,-229.828649
401.617705,-3404.947333,-10288.862594,-766.095498
401.618033,-1998.556043,-9400.615463,-383.047749
401.618361,-518.144159,-8956.491898,612.876398
401.618688,962.267725,-7402.059420,1378.971896
401.619016,2294.638420,-7402.059420,2221.676944
401.619344,2146.597232,-7550.100608,2221.676944
401.619672,814.226536,-8290.306550,1915.238745
401.620000,-1480.411884,-9844.739029,995.924147
401.620327,-3034.844362,-10732.986159,383.047749
401.620655,-3627.009116,-10214.842000,0.000000
401.620983,-2812.782580,-9622.677246,459.657299
401.621311,-1850.514855,-8660.409521,459.657299
401.621638,0.000000,-7698.141797,1455.581446
401.621966,1924.535449,-7328.038826,1455.581446
401.622294,1406.391290,-7846.182985,1838.629195
401.622622,814.226536,-8438.347739,1685.410096
401.622950,-1554.432478,-9400.615463,306.438199
401.623277,-3552.988522,-10584.944971,536.266849
401.623605,-3849.070898,-10881.027347,-229.828649
401.623933,-3627.009116,-9548.656652,-842.705048
401.624261,-2220.617826,-9178.553681,-229.828649
401.624588,592.164754,-7994.224174,612.876398
401.624916,1850.514855,-6883.915261,1149.143247
401.625244,3404.947333,-7179.997637,1915.238745
401.625572,3182.885551,-8068.244768,2068.457845
401.625899,888.247130,-8734.430116,689.485948
401.626227,-1332.370696,-10214.842000,459.657299
401.626555,-2146.597232,-11473.192101,0.000000
401.626883,-2886.803174,-10288.862594,-459.657299
401.627211,-1776.494261,-9844.739029,-229.828649
401.627538,444.123565,-9104.533087,383.047749
401.627866,2294.638420,-7328.038826,689.485948
401.628194,3627.009116,-7550.100608,2451.505594
401.628522,3404.947333,-7772.162391,1302.362347
401.628849,962.267725,-8882.471304,612.876398
401.629177,-592.164754,-10732.986159,0.000000
401.629505,-2368.659014,-11103.089130,-689.485948
401.629833,-3627.009116,-10288.862594,-995.924147
401.630161,-2146.597232,-9992.780217,-612.876398
401.630488,-518.144159,-9252.574275,-306.438199
401.630816,1110.308913,-7772.162391,536.266849
401.631144,2812.782580,-7476.080014,1608.800546
401.631472,2516.700203,-7920.203579,1838.629195
401.631799,962.267725,-8586.388927,1072.533697
401.632127,-592.164754,-10436.903782,919.314598
401.632455,-2812.782580,-10807.006753,0.000000
401.632783,-3923.091493,-10288.862594,-536.266849
401.633110,-2368.659014,-9696.697840,0.000000
401.633438,-1258.350101,-8512.368333,-459.657299
401.633766,444.123565,-7105.977043,919.314598
401.634094,2886.803174,-7179.997637,1915.238745
401.634422,2368.659014,-7105.977043,1685.410096
401.634749,1110.308913,-7920.203579,1532.190996
401.635077,0.000000,-10066.800811,689.485948
401.635405,-2886.803174,-10807.006753,0.000000
401.635733,-4293.194464,-10955.047942,-612.876398
401.636060,-3108.864956,-10658.965565,-536.266849
401.636388,-2368.659014,-9400.615463,-383.047749
401.636716,592.164754,-8364.327145,1302.362347
401.637044,2960.823768,-7402.059420,1302.362347
401.637371,2812.782580,-7402.059420,2145.067394
401.637699,2294.638420,-8216.285956,2374.896044
401.638027,148.041188,-9474.636058,1225.752797
401.638355,-2442.679609,-10362.883188,383.047749
401.638683,-3034.844362,-11177.109724,459.657299
401.639010,-2664.741391,-9918.759623,-459.657299
401.639338,-2072.576638,-9252.574275,-229.828649
401.639666,888.247130,-8882.471304,1072.533697
401.639994,1850.514855,-7179.997637,995.924147
401.640321,1998.556043,-7328.038826,1378.971896
401.640649,2072.576638,-8216.285956,1532.190996
401.640977,-296.082377,-9104.533087,153.219100
401.641305,-2294.638420,-10214.842000,-153.219100
401.641633,-2960.823768,-11251.130318,-689.485948
401.641960,-3849.070898,-9992.780217,-1149.143247
401.642288,-2590.720797,-9918.759623,-842.705048
401.642616,0.000000,-9400.615463,153.219100
401.642944,1110.308913,-7624.121203,0.000000
401.643271,2368.659014,-7550.100608,1455.581446
401.643599,3182.885551,-8068.244768,1532.190996
401.643927,1258.350101,-8660.409521,689.485948
401.644255,0.000000,-10510.924376,689.485948
401.644583,-962.267725,-11177.109724,306.438199
401.644910,-2590.720797,-10881.027347,-383.047749
401.645238,-1702.473667,-10658.965565,76.609550
401.645566,-296.082377,-9548.656652,306.438199
401.645894,1036.288319,-7920.203579,766.095498
401.646221,2960.823768,-7698.141797,1378.971896
401.646549,3404.947333,-7994.224174,1225.752797
401.646877,2146.597232,-8364.327145,1455.581446
401.647205,592.164754,-9622.677246,1072.533697
401.647533,-1776.494261,-10510.924376,-306.438199
401.647860,-3478.967927,-10807.006753,-842.705048
401.648188,-3330.926739,-10288.862594,-842.705048
401.648516,-2368.659014,-9548.656652,-536.266849
401.648844,148.041188,-8364.327145,536.266849
401.649171,2072.576638,-7328.038826,1378.971896
401.649499,2664.741391,-7550.100608,1838.629195
401.649827,1850.514855,-8290.306550,2298.286494
401.650155,-518.144159,-9252.574275,995.924147
401.650483,-2294.638420,-10362.883188,459.657299
401.650810,-3330.926739,-10584.944971,0.000000
401.651138,-3775.050304,-10140.821405,-383.047749
401.651466,-2368.659014,-9474.636058,0.000000
401.651794,0.000000,-8512.368333,459.657299
401.652121,1258.350101,-6809.894666,1149.143247
401.652449,2738.761985,-7254.018232,2834.553343
401.652777,2294.638420,-7846.182985,2068.457845
401.653105,222.061783,-8586.388927,995.924147
401.653433,-1554.432478,-10362.883188,459.657299
401.653760,-3256.906145,-11103.089130,0.000000
401.654088,-3701.029710,-9992.780217,-1225.752797
401.654416,-2590.720797,-9844.739029,-153.219100
401.654744,-962.267725,-9030.512492,689.485948
401.655071,1332.370696,-7031.956449,995.924147
401.655399,2664.741391,-7402.059420,1991.848295
401.655727,2664.741391,-7402.059420,2604.724693
401.656055,1036.288319,-7994.224174,1072.533697
401.656383,-666.185348,-10066.800811,1072.533697
401.656710,-2738.761985,-10658.965565,0.000000
401.657038,-3775.050304,-10066.800811,-459.657299
401.657366,-2220.617826,-9474.636058,-383.047749
401.657694,-1184.329507,-8808.450710,153.219100
401.658021,888.247130,-7402.059420,689.485948
401.658349,2812.782580,-7031.956449,1455.581446
401.658677,2516.700203,-7476.080014,1455.581446
401.659005,1332.370696,-8290.306550,1302.362347
401.659333,0.000000,-9696.697840,-459.657299
401.659660,-2368.659014,-10732.986159,-689.485948
401.659988,-3256.906145,-10584.944971,-612.876398
401.660316,-1998.556043,-10288.862594,-689.485948
401.660644,-1036.288319,-9252.574275,-459.657299
401.660971,1480.411884,-8068.244768,1532.190996
401.661299,3108.864956,-7846.182985,1532.190996
401.661627,2738.761985,-7846.182985,1838.629195
401.661955,2072.576638,-8808.450710,1762.019645
401.662283,0.000000,-9770.718434,612.876398
401.662610,-2146.597232,-10362.883188,459.657299
401.662938,-2516.700203,-11325.150913,-306.438199
401.663266,-3182.885551,-10807.006753,-1225.752797
401.663594,-2368.659014,-9844.739029,-689.485948
401.663921,148.041188,-9030.512492,229.828649
401.664249,1258.350101,-7624.121203,153.219100
401.664577,2146.597232,-7698.141797,766.095498
401.664905,1998.556043,-8142.265362,1149.143247
401.665232,0.000000,-9104.533087,0.000000
401.665560,-1702.473667,-10436.903782,0.000000
401.665888,-2664.741391,-11177.109724,-306.438199
401.666216,-3182.885551,-10214.842000,-383.047749
401.666544,-2072.576638,-9918.759623,-459.657299
401.666871,-296.082377,-9104.533087,153.219100
401.667199,1480.411884,-7698.141797,842.705048
401.667527,3256.906145,-7624.121203,2145.067394
401.667855,3108.864956,-7846.182985,2298.286494
401.668182,2146.597232,-8586.388927,2068.457845
401.668510,296.082377,-10140.821405,1149.143247
401.668838,-1554.432478,-11029.068536,689.485948
401.669166,-2368.659014,-10658.965565,229.828649
401.669494,-1554.432478,-9696.697840,0.000000
401.669821,-518.144159,-9178.553681,995.924147
401.670149,1480.411884,-8438.347739,1455.581446
401.670477,2516.700203,-7476.080014,1915.238745
401.670805,2368.659014,-7846.182985,2374.896044
401.671132,1258.350101,-8882.471304,2145.067394
401.671460,-1184.329507,-9252.574275,919.314598
401.671788,-3478.967927,-10362.883188,0.000000
401.672116,-4219.173869,-10436.903782,0.000000
401.672444,-3923.091493,-9474.636058,-612.876398
401.672771,-2294.638420,-8586.388927,306.438199
401.673099,296.082377,-6957.935855,1532.190996
401.673427,1554.432478,-5995.668130,1838.629195
401.673755,2442.679609,-6883.915261,2221.676944
401.674082,1406.391290,-7846.182985,2451.505594
401.674410,-592.164754,-8586.388927,1149.143247
401.674738,-2442.679609,-9844.739029,1149.143247
401.675066,-3182.885551,-10584.944971,0.000000
401.675394,-3552.988522,-10066.800811,-306.438199
401.675721,-1924.535449,-9622.677246,383.047749
401.676049,0.000000,-8438.347739,612.876398
401.676377,1332.370696,-7105.977043,995.924147
401.676705,2516.700203,-7624.121203,1225.752797
401.677032,2146.597232,-8068.244768,1072.533697
401.677360,296.082377,-8660.409521,76.609550
401.677688,-1332.370696,-9992.780217,-459.657299
401.678016,-2664.741391,-10807.006753,-689.485948
401.678344,-3404.947333,-9844.739029,-1302.362347
401.678671,-2294.638420,-9770.718434,-689.485948
401.678999,-518.144159,-8956.491898,-612.876398
401.679327,888.247130,-7105.977043,0.000000
401.679655,3330.926739,-7476.080014,995.924147
401.679982,3627.009116,-7698.141797,2068.457845
401.680310,2220.617826,-8808.450710,689.485948
401.680638,1184.329507,-9918.759623,612.876398
401.680966,-888.247130,-10436.903782,0.000000
401.681294,-2368.659014,-10436.903782,-612.876398
401.681621,-1332.370696,-10140.821405,-229.828649
401.681949,-370.102971,-9030.512492,-766.095498
401.682277,1332.370696,-8512.368333,76.609550
401.682605,2812.782580,-7772.162391,995.924147
401.682932,2960.823768,-8068.244768,842.705048
401.683260,1924.535449,-8734.430116,1302.362347
401.683588,222.061783,-10066.800811,1302.362347
401.683916,-2368.659014,-11177.109724,-229.828649
401.684244,-3478.967927,-11695.253884,-766.095498
401.684571,-3478.967927,-10807.006753,-842.705048
401.684899,-2590.720797,-9844.739029,-459.657299
401.685227,74.020594,-8290.306550,1532.190996
401.685555,1850.514855,-7031.956449,1455.581446
401.685882,2812.782580,-7254.018232,2451.505594
401.686210,1924.535449,-7994.224174,2451.505594
401.686538,-444.123565,-8882.471304,1455.581446
401.686866,-2220.617826,-10066.800811,459.657299
401.687194,-3404.947333,-10732.986159,612.876398
401.687521,-3997.112087,-9770.718434,0.000000
401.687849,-2442.679609,-9696.697840,612.876398
401.688177,-370.102971,-9030.512492,1225.752797
401.688505,888.247130,-6957.935855,1378.971896
401.688832,2294.638420,-7550.100608,2451.505594
401.689160,1702.473667,-8364.327145,2221.676944
401.689488,-370.102971,-8956.491898,1072.533697
401.689816,-2220.617826,-10658.965565,306.438199
401.690144,-3701.029710,-11621.233289,-383.047749
401.690471,-4589.276840,-10066.800811,-995.924147
401.690799,-3034.844362,-10214.842000,-306.438199
401.691127,-1036.288319,-9178.553681,229.828649
401.691455,740.205942,-7105.977043,536.266849
401.691782,3034.844362,-7402.059420,2068.457845
401.692110,3182.885551,-7624.121203,1991.848295
401.692438,1110.308913,-7994.224174,1685.410096
401.692766,74.020594,-9770.718434,1455.581446
401.693094,-1850.514855,-10658.965565,689.485948
401.693421,-3108.864956,-10214.842000,-383.047749
401.693749,-1406.391290,-10066.800811,689.485948
401.694077,-222.061783,-9104.533087,-306.438199
401.694405,1184.329507,-7772.162391,995.924147
401.694732,3923.091493,-7698.141797,1991.848295
401.695060,3404.947333,-7698.141797,1685.410096
401.695388,2590.720797,-8438.347739,2068.457845
401.695716,962.267725,-10140.821405,153.219100
401.696044,-1998.556043,-11103.089130,-229.828649
401.696371,-3478.967927,-10881.027347,-689.485948
401.696699,-2368.659014,-10732.986159,-459.657299
401.697027,-1850.514855,-9400.615463,-153.219100
401.697355,518.144159,-8290.306550,1149.143247
401.697682,2590.720797,-7476.080014,1838.629195
401.698010,2368.659014,-7476.080014,2221.676944
401.698338,1702.473667,-8290.306550,2374.896044
401.698666,-592.164754,-9252.574275,995.924147
401.698994,-2516.700203,-10214.842000,612.876398
401.699321,-3627.009116,-10732.986159,-153.219100
401.699649,-3849.070898,-9992.780217,-919.314598
401.699977,-3256.906145,-9400.615463,-842.705048
401.700305,-666.185348,-8438.347739,383.047749
401.700632,1258.350101,-6735.874072,383.047749
401.700960,1480.411884,-7105.977043,689.485948
401.701288,1850.514855,-7624.121203,919.314598
401.701616,-222.061783,-8512.368333,-229.828649
401.701944,-1998.556043,-9622.677246,-536.266849
401.702271,-2812.782580,-10658.965565,-459.657299
401.702599,-3330.926739,-10214.842000,-1762.019645
401.702927,-2812.782580,-10288.862594,-1149.143247
401.703255,-222.061783,-9474.636058,-306.438199
401.703582,1036.288319,-7698.141797,0.000000
401.703910,3256.906145,-7476.080014,1991.848295
401.704238,4441.235652,-7698.141797,1302.362347
401.704566,2442.679609,-8290.306550,1378.971896
401.704894,1406.391290,-9918.759623,1072.533697
401.705221,-444.123565,-10658.965565,76.609550
401.705549,-2294.638420,-10510.924376,-689.485948
401.705877,-1776.494261,-9770.718434,-919.314598
401.706205,-518.144159,-9252.574275,-689.485948
401.706532,1480.411884,-7772.162391,459.657299
401.706860,3775.050304,-7105.977043,1225.752797
401.707188,3997.112087,-7402.059420,1608.800546
401.707516,2886.803174,-7846.182985,2298.286494
401.707844,518.144159,-9252.574275,306.438199
401.708171,-1776.494261,-10584.944971,0.000000
401.708499,-2960.823768,-11177.109724,-306.438199
401.708827,-2664.741391,-10436.903782,-536.266849
401.709155,-1628.453072,-9548.656652,306.438199
401.709482,1702.473667,-8290.306550,2145.067394
401.709810,2442.679609,-6957.935855,2221.676944
401.710138,2590.720797,-7624.121203,3064.381992
401.710466,1554.432478,-8364.327145,2834.553343
401.710794,-1258.350101,-9326.594869,1378.971896
401.711121,-3034.844362,-10732.986159,1149.143247
401.711449,-4145.153275,-11399.171507,536.266849
401.711777,-4737.318029,-10066.800811,153.219100
401.712105,-3775.050304,-9548.656652,536.266849
401.712432,-1036.288319,-8660.409521,1225.752797
401.712760,0.000000,-6143.709319,919.314598
401.713088,1036.288319,-7105.977043,1762.019645
401.713416,666.185348,-7772.162391,1762.019645
401.713744,-1628.453072,-8364.327145,689.485948
401.714071,-3256.906145,-10140.821405,306.438199
401.714399,-4071.132681,-10881.027347,0.000000
401.714727,-4885.359217,-9918.759623,-766.095498
401.715055,-3256.906145,-10214.842000,0.000000
401.715382,-814.226536,-9400.615463,229.828649
401.715710,666.185348,-7254.018232,459.657299
401.716038,2886.803174,-7476.080014,1991.848295
401.716366,3478.967927,-7550.100608,1685.410096
401.716694,1776.494261,-7920.203579,1072.533697
401.717021,1110.308913,-10066.800811,536.266849
401.717349,-666.185348,-10807.006753,0.000000
401.717677,-2368.659014,-10807.006753,-842.705048
401.718005,-1036.288319,-10436.903782,-383.047749
401.718332,-518.144159,-9326.594869,-689.485948
401.718660,1406.391290,-8512.368333,76.609550
401.718988,3478.967927,-7550.100608,459.657299
401.719316,3552.988522,-7550.100608,995.924147
401.719644,3182.885551,-8364.327145,1455.581446
401.719971,666.185348,-9474.636058,153.219100
401.720299,-1480.411884,-10362.883188,-612.876398
401.720627,-2368.659014,-11177.109724,-919.314598
401.720955,-2294.638420,-10362.883188,-1302.362347
401.721282,-1332.370696,-9474.636058,-1149.143247
401.721610,1406.391290,-8364.327145,842.705048
401.721938,2294.638420,-7328.038826,995.924147
401.722266,2516.700203,-7105.977043,1685.410096
401.722594,2368.659014,-8142.265362,1915.238745
401.722921,444.123565,-8956.491898,1072.533697
401.723249,-1406.391290,-9918.759623,306.438199
401.723577,-3108.864956,-11621.233289,-306.438199
401.723905,-4885.359217,-10214.842000,-1225.752797
401.724232,-2960.823768,-9992.780217,0.000000
401.724560,-962.267725,-8660.409521,0.000000
401.724888,518.144159,-7031.956449,689.485948
401.725216,2590.720797,-7550.100608,1838.629195
401.725544,1332.370696,-7254.018232,995.924147
401.725871,-296.082377,-8882.471304,842.705048
401.726199,-1776.494261,-10807.006753,0.000000
401.726527,-4367.215058,-11103.089130,-459.657299
401.726855,-3478.967927,-10807.006753,-306.438199
401.727182,-2812.782580,-10140.821405,-1225.752797
401.727510,0.000000,-9992.780217,383.047749
401.727838,1776.494261,-7328.038826,459.657299
401.728166,2368.659014,-7476.080014,1762.019645
401.728493,3997.112087,-7994.224174,2528.115143
401.728821,2294.638420,-8142.265362,1302.362347
401.729149,296.082377,-10658.965565,995.924147
401.729477,-1628.453072,-11843.295072,0.000000
401.729805,-2442.679609,-11029.068536,0.000000
401.730132,-1554.432478,-10510.924376,0.000000
401.730460,-296.082377,-9548.656652,0.000000
401.730788,1554.432478,-8512.368333,1225.752797
401.731116,3404.947333,-7994.224174,1838.629195
401.731443,2368.659014,-7846.182985,1685.410096
401.731771,1258.350101,-8512.368333,1838.629195
401.732099,-592.164754,-9992.780217,689.485948
401.732427,-3552.988522,-11251.130318,76.609550
401.732755,-3775.050304,-10732.986159,0.000000
401.733082,-2738.761985,-9918.759623,-229.828649
401.733410,-2072.576638,-8660.409521,612.876398
401.733738,592.164754,-7920.203579,2145.067394
401.734066,2072.576638,-6957.935855,1915.238745
401.734393,1924.535449,-7105.977043,2374.896044
401.734721,888.247130,-8142.265362,2298.286494
401.735049,-962.267725,-9030.512492,1762.019645
401.735377,-3256.906145,-10140.821405,153.219100
401.735705,-3478.967927,-11029.068536,536.266849
401.736032,-3108.864956,-10140.821405,76.609550
401.736360,-2220.617826,-9326.594869,766.095498
401.736688,592.164754,-8290.306550,919.314598
401.737016,1850.514855,-7254.018232,919.314598
401.737343,1998.556043,-7105.977043,1685.410096
401.737671,1776.494261,-7846.182985,1838.629195
401.737999,-370.102971,-8734.430116,306.438199
401.738327,-1998.556043,-10362.883188,612.876398
401.738655,-2442.679609,-10955.047942,-536.266849
401.738982,-3627.009116,-10510.924376,-919.314598
401.739310,-2220.617826,-9696.697840,-459.657299
401.739638,-296.082377,-9178.553681,0.000000
401.739966,1258.350101,-7772.162391,0.000000
401.740293,2516.700203,-6439.791695,842.705048
401.740621,2960.823768,-7179.997637,1302.362347
401.740949,1776.494261,-8068.244768,536.266849
401.741277,222.061783,-9400.615463,0.000000
401.741605,-1332.370696,-10658.965565,-536.266849
401.741932,-1776.494261,-10214.842000,-612.876398
401.742260,-1184.329507,-9622.677246,-1225.752797
401.742588,-592.164754,-9400.615463,-995.924147
401.742915,1480.411884,-8142.265362,-153.219100
401.743243,2812.782580,-7179.997637,229.828649
401.743570,3923.091493,-7402.059420,689.485948
401.743898,2812.782580,-8068.244768,612.876398
401.744225,1184.329507,-9548.656652,153.219100
401.744553,-888.247130,-10881.027347,-383.047749
401.744881,-2146.597232,-10881.027347,-459.657299
401.745208,-2368.659014,-10436.903782,-842.705048
401.745536,-1258.350101,-9696.697840,-383.047749
401.745863,888.247130,-8290.306550,459.657299
401.746191,2664.741391,-6957.935855,1378.971896
401.746518,3627.009116,-7031.956449,1991.848295
401.746846,2812.782580,-8142.265362,2374.896044
401.747174,814.226536,-9030.512492,2451.505594
401.747501,-2072.576638,-10140.821405,842.705048
401.747829,-3775.050304,-11103.089130,229.828649
401.748156,-4145.153275,-10658.965565,76.609550
401.748484,-3404.947333,-9252.574275,306.438199
401.748811,-1258.350101,-8290.306550,1455.581446
401.749139,1036.288319,-7105.977043,1225.752797
401.749467,1628.453072,-6883.915261,2145.067394
401.749794,1184.329507,-7550.100608,1991.848295
401.750122,-518.144159,-8882.471304,1302.362347
401.750449,-3034.844362,-9770.718434,229.828649
401.750777,-4737.318029,-11029.068536,0.000000
401.751104,-5033.400406,-11103.089130,-383.047749
401.751432,-3923.091493,-9918.759623,0.000000
401.751760,-1924.535449,-8808.450710,766.095498
401.752087,444.123565,-7698.141797,1455.581446
401.752415,1924.535449,-6291.750507,1608.800546
401.752742,2442.679609,-7328.038826,1838.629195
401.753070,1036.288319,-8438.347739,1378.971896
401.753397,-666.185348,-10066.800811,842.705048
401.753725,-2368.659014,-11103.089130,-153.219100
401.754053,-3478.967927,-11177.109724,-612.876398
401.754380,-2590.720797,-10510.924376,-153.219100
401.754708,-1110.308913,-9474.636058,0.000000
401.755035,666.185348,-8142.265362,612.876398
401.755363,2664.741391,-6883.915261,612.876398
401.755690,3849.070898,-7476.080014,995.924147
401.756018,2590.720797,-7772.162391,1149.143247
401.756346,1258.350101,-9696.697840,459.657299
401.756673,-444.123565,-11399.171507,0.000000
401.757001,-2368.659014,-11251.130318,-766.095498
401.757328,-2368.659014,-10732.986159,-612.876398
401.757656,888.247130,-9548.656652,0.000000
401.757983,1776.494261,-7994.224174,1149.143247
401.758311,2738.761985,-7698.141797,2068.457845
401.758639,3627.009116,-7105.977043,2451.505594
401.758966,2220.617826,-8142.265362,1378.971896
401.759294,962.267725,-9622.677246,842.705048
401.759621,-1036.288319,-10658.965565,842.705048
401.759949,-3330.926739,-10881.027347,-229.828649
401.760276,-3034.844362,-10584.944971,0.000000
401.760604,-2220.617826,-9474.636058,0.000000
401.760932,-1036.288319,-7772.162391,306.438199
401.761259,962.267725,-7328.038826,1608.800546
401.761587,1332.370696,-7031.956449,1455.581446
401.761914,370.102971,-7254.018232,1225.752797
401.762242,-888.247130,-9252.574275,919.314598
401.762569,-2664.741391,-10288.862594,383.047749
401.762897,-4145.153275,-10881.027347,-459.657299
401.763225,-4145.153275,-10436.903782,-919.314598
401.763552,-3849.070898,-9992.780217,-1149.143247
401.763880,-1332.370696,-8660.409521,153.219100
401.764207,518.144159,-6883.915261,459.657299
401.764535,1776.494261,-6513.812290,1072.533697
401.764862,2146.597232,-7254.018232,1685.410096
401.765190,1110.308913,-8364.327145,766.095498
401.765518,0.000000,-10140.821405,459.657299
401.765845,-1258.350101,-11399.171507,0.000000
401.766173,-2368.659014,-11325.150913,0.000000
401.766500,-2886.803174,-11029.068536,-766.095498
401.766828,-1258.350101,-9918.759623,-842.705048
401.767155,592.164754,-8438.347739,0.000000
401.767483,3330.926739,-7550.100608,689.485948
401.767811,3552.988522,-7476.080014,1532.190996
401.768138,3849.070898,-7698.141797,1378.971896
401.768466,1628.453072,-9548.656652,842.705048
401.768793,-814.226536,-10955.047942,0.000000
401.769121,-1776.494261,-11325.150913,-459.657299
401.769448,-1998.556043,-10362.883188,-766.095498
401.769776,-1258.350101,-10066.800811,-306.438199
401.770104,2072.576638,-9104.533087,995.924147
401.770431,3182.885551,-7402.059420,1991.848295
401.770759,4071.132681,-7179.997637,2757.943793
401.771086,3330.926739,-7994.224174,3064.381992
401.771414,740.205942,-9326.594869,1685.410096
401.771741,-1924.535449,-10584.944971,1225.752797
401.772069,-3108.864956,-10881.027347,153.219100
401.772397,-4441.235652,-10362.883188,-459.657299
401.772724,-2812.782580,-9696.697840,459.657299
401.773052,-740.205942,-8290.306550,1608.800546
401.773379,0.000000,-6513.812290,1302.362347
401.773707,1332.370696,-7179.997637,2834.553343
401.774034,888.247130,-7846.182985,2221.676944
401.774362,-2294.638420,-8512.368333,842.705048
401.774690,-3775.050304,-9918.759623,995.924147
401.775017,-4515.256246,-10584.944971,0.000000
401.775345,-5329.482782,-9844.739029,-766.095498
401.775672,-3552.988522,-9548.656652,229.828649
401.776000,-1628.453072,-8586.388927,383.047749
401.776327,518.144159,-6587.832884,919.314598
401.776655,1924.535449,-6439.791695,2374.896044
401.776983,2072.576638,-7328.038826,1685.410096
401.777310,444.123565,-7994.224174,1149.143247
401.777638,-740.205942,-9992.780217,766.095498
401.777965,-2516.700203,-11177.109724,-153.219100
401.778293,-3404.947333,-10288.862594,-612.876398
401.778620,-2220.617826,-10362.883188,-842.705048
401.778948,-814.226536,-9252.574275,-995.924147
401.779276,2072.576638,-8068.244768,0.000000
401.779603,3627.009116,-6957.935855,536.266849
401.779931,4663.297435,-6809.894666,766.095498
401.780258,3923.091493,-8216.285956,995.924147
401.780586,1184.329507,-9400.615463,459.657299
401.780913,-888.247130,-10807.006753,-306.438199
401.781241,-1554.432478,-11251.130318,-459.657299
401.781569,-1702.473667,-10436.903782,-766.095498
401.781896,74.020594,-9622.677246,-306.438199
401.782224,2072.576638,-8882.471304,995.924147
401.782551,3256.906145,-7105.977043,1455.581446
401.782879,3849.070898,-7476.080014,2451.505594
401.783206,2664.741391,-8142.265362,2068.457845
401.783534,296.082377,-8808.450710,1072.533697
401.783862,-1480.411884,-10436.903782,383.047749
401.784189,-3034.844362,-10732.986159,-229.828649
401.784517,-3701.029710,-9622.677246,-689.485948
401.784844,-1998.556043,-9326.594869,0.000000
401.785172,-888.247130,-7328.038826,612.876398
401.785499,888.247130,-6661.853478,1149.143247
401.785827,1702.473667,-6957.935855,1762.019645
401.786155,222.061783,-7994.224174,1149.143247
401.786482,-1702.473667,-8512.368333,919.314598
401.786810,-2590.720797,-10510.924376,0.000000
401.787137,-4293.194464,-10955.047942,76.609550
401.787465,-4885.359217,-10140.821405,-153.219100
401.787792,-3108.864956,-9622.677246,0.000000
401.788120,-1628.453072,-8438.347739,153.219100
401.788448,888.247130,-7105.977043,1608.800546
401.788775,2516.700203,-7179.997637,2298.286494
401.789103,2220.617826,-7402.059420,1378.971896
401.789430,1258.350101,-8734.430116,1532.190996
401.789758,-296.082377,-9844.739029,842.705048
401.790085,-2368.659014,-11177.109724,0.000000
401.790413,-2960.823768,-11029.068536,-383.047749
401.790741,-2294.638420,-10510.924376,-459.657299
401.791068,-1332.370696,-9622.677246,-383.047749
401.791396,962.267725,-8808.450710,459.657299
401.791723,2368.659014,-7624.121203,766.095498
401.792051,3182.885551,-7476.080014,1762.019645
401.792378,2516.700203,-8956.491898,1685.410096
401.792706,518.144159,-9696.697840,229.828649
401.793034,-1332.370696,-11029.068536,-306.438199
401.793361,-2738.761985,-11473.192101,-689.485948
401.793689,-3108.864956,-10288.862594,-919.314598
401.794016,-1628.453072,-9400.615463,-995.924147
401.794344,962.267725,-8512.368333,76.609550
401.794671,3034.844362,-7698.141797,1225.752797
401.794999,3923.091493,-7328.038826,1685.410096
401.795327,3034.844362,-7698.141797,1991.848295
401.795654,1406.391290,-9474.636058,1838.629195
401.795982,-962.267725,-10584.944971,612.876398
401.796309,-2368.659014,-11547.212695,0.000000
401.796637,-2886.803174,-10732.986159,0.000000
401.796964,-1776.494261,-9696.697840,229.828649
401.797292,-148.041188,-8660.409521,919.314598
401.797620,1776.494261,-7476.080014,1762.019645
401.797947,2442.679609,-7402.059420,1915.238745
401.798275,1924.535449,-8216.285956,1915.238745
401.798602,0.000000,-9030.512492,1225.752797
401.798930,-1776.494261,-9770.718434,612.876398
401.799257,-4441.235652,-10732.986159,229.828649
401.799585,-4219.173869,-10584.944971,0.000000
401.799913,-3034.844362,-9548.656652,76.609550
401.800240,-1628.453072,-8438.347739,842.705048
401.800568,222.061783,-7105.977043,1378.971896
401.800895,1554.432478,-7031.956449,2068.457845
401.801223,1184.329507,-7624.121203,2068.457845
401.801550,-222.061783,-8142.265362,1149.143247
401.801878,-1850.514855,-9844.739029,995.924147
401.802206,-3552.988522,-10584.944971,306.438199
401.802533,-3997.112087,-10140.821405,-536.266849
401.802861,-2664.741391,-9770.718434,-306.438199
401.803188,-1258.350101,-9030.512492,-229.828649
401.803516,296.082377,-7179.997637,-306.438199
401.803843,2368.659014,-7254.018232,612.876398
401.804171,3034.844362,-7105.977043,612.876398
401.804499,1924.535449,-7624.121203,919.314598
401.804826,740.205942,-9844.739029,229.828649
401.805154,-1184.329507,-10658.965565,-306.438199
401.805481,-2220.617826,-10584.944971,-689.485948
401.805809,-1406.391290,-10288.862594,-306.438199
401.806136,-296.082377,-9326.594869,-536.266849
401.806464,1776.494261,-8512.368333,612.876398
401.806792,4145.153275,-7698.141797,1225.752797
401.807119,4071.132681,-7624.121203,1915.238745
401.807447,3775.050304,-8364.327145,2298.286494
401.807774,1702.473667,-9178.553681,995.924147
401.808102,-370.102971,-10066.800811,919.314598
401.808429,-1406.391290,-10881.027347,0.000000
401.808757,-2368.659014,-10436.903782,0.000000
401.809085,-2072.576638,-9622.677246,229.828649
401.809412,222.061783,-8512.368333,153.219100
401.809740,740.205942,-7105.977043,919.314598
401.810067,1554.432478,-7550.100608,1915.238745
401.810395,814.226536,-7920.203579,1455.581446
401.810722,-1258.350101,-8660.409521,306.438199
401.811050,-2442.679609,-9992.780217,689.485948
401.811378,-4219.173869,-10732.986159,0.000000
401.811705,-5477.523971,-9622.677246,-842.705048
401.812033,-3923.091493,-9622.677246,-229.828649
401.812360,-2738.761985,-8512.368333,-153.219100
401.812688,-296.082377,-7328.038826,689.485948
401.813015,1480.411884,-6809.894666,1072.533697
401.813343,1036.288319,-7254.018232,1685.410096
401.813671,370.102971,-8142.265362,1225.752797
401.813998,-1110.308913,-9844.739029,536.266849
401.814326,-2812.782580,-10658.965565,0.000000
401.814653,-3256.906145,-10362.883188,-306.438199
401.814981,-2442.679609,-10288.862594,-536.266849
401.815308,-1554.432478,-9770.718434,-536.266849
401.815636,1036.288319,-8586.388927,306.438199
401.815964,2960.823768,-7476.080014,766.095498
401.816291,3923.091493,-7698.141797,1225.752797
401.816619,3404.947333,-9030.512492,1302.362347
401.816946,1406.391290,-10066.800811,536.266849
401.817274,-814.226536,-11251.130318,0.000000
401.817601,-1702.473667,-11547.212695,-459.657299
401.817929,-1776.494261,-10955.047942,-1072.533697
401.818257,-666.185348,-9844.739029,-536.266849
401.818584,1554.432478,-8808.450710,229.828649
401.818912,3404.947333,-7254.018232,1302.362347
401.819239,4219.173869,-7698.141797,2451.505594
401.819567,3478.967927,-8290.306550,2681.334243
401.819894,1480.411884,-9104.533087,1225.752797
401.820222,-888.247130,-10658.965565,919.314598
401.820550,-2368.659014,-11325.150913,153.219100
401.820877,-3404.947333,-10066.800811,0.000000
401.821205,-1776.494261,-9474.636058,459.657299
401.821532,-888.247130,-8364.327145,612.876398
401.821860,888.247130,-7402.059420,1302.362347
401.822187,1628.453072,-7402.059420,2145.067394
401.822515,444.123565,-8068.244768,1608.800546
401.822843,-1110.308913,-8808.450710,919.314598
401.823170,-2960.823768,-10288.862594,0.000000
401.823498,-4811.338623,-11103.089130,0.000000
401.823825,-5107.421000,-10214.842000,-766.095498
401.824153,-3552.988522,-9548.656652,0.000000
401.824480,-2220.617826,-8808.450710,76.609550
401.824808,0.000000,-7105.977043,919.314598
401.825136,2220.617826,-7105.977043,1608.800546
401.825463,1776.494261,-7772.162391,1685.410096
401.825791,370.102971,-8660.409521,1455.581446
401.826118,-444.123565,-10288.862594,1225.752797
401.826446,-2294.638420,-11177.109724,153.219100
401.826773,-3256.906145,-10362.883188,-766.095498
401.827101,-1628.453072,-10362.883188,-383.047749
401.827429,-962.267725,-9252.574275,-689.485948
401.827756,1110.308913,-8290.306550,383.047749
401.828084,3997.112087,-7476.080014,1072.533697
401.828411,3627.009116,-7920.203579,1378.971896
401.828739,2960.823768,-8364.327145,1225.752797
401.829066,1184.329507,-9918.759623,536.266849
401.829394,-1332.370696,-10955.047942,-612.876398
401.829722,-2368.659014,-11177.109724,-842.705048
401.830049,-2072.576638,-10584.944971,-842.705048
401.830377,-1332.370696,-9622.677246,-1225.752797
401.830704,1406.391290,-8586.388927,383.047749
401.831032,3034.844362,-7254.018232,919.314598
401.831359,4071.132681,-7031.956449,1685.410096
401.831687,3849.070898,-7624.121203,1991.848295
401.832015,1036.288319,-8364.327145,1072.533697
401.832342,-666.185348,-9622.677246,842.705048
401.832670,-1776.494261,-10288.862594,459.657299
401.832997,-2812.782580,-9918.759623,-229.828649
401.833325,-1406.391290,-9252.574275,459.657299
401.833652,0.000000,-8068.244768,842.705048
401.833980,666.185348,-7179.997637,1532.190996
401.834308,1628.453072,-7254.018232,2145.067394
401.834635,962.267725,-8142.265362,1762.019645
401.834963,-814.226536,-8512.368333,1532.190996
401.835290,-2368.659014,-10140.821405,612.876398
401.835618,-4219.173869,-10658.965565,153.219100
401.835945,-4885.359217,-9992.780217,-536.266849
401.836273,-3552.988522,-9474.636058,76.609550
401.836601,-2368.659014,-8290.306550,0.000000
401.836928,148.041188,-7179.997637,1455.581446
401.837256,1702.473667,-6587.832884,1608.800546
401.837583,1628.453072,-7254.018232,1685.410096
401.837911,592.164754,-7846.182985,1991.848295
401.838238,-1258.350101,-9770.718434,1378.971896
401.838566,-3034.844362,-11103.089130,842.705048
401.838894,-3701.029710,-10436.903782,-306.438199
401.839221,-3256.906145,-10214.842000,-229.828649
401.839549,-2220.617826,-9326.594869,-459.657299
401.839876,740.205942,-8216.285956,612.876398
401.840204,2960.823768,-7031.956449,1072.533697
401.840531,3478.967927,-7624.121203,1455.581446
401.840859,2886.803174,-8364.327145,1532.190996
401.841187,888.247130,-9400.615463,76.609550
401.841514,-1850.514855,-10807.006753,-536.266849
401.841842,-2886.803174,-11769.274478,-995.924147
401.842169,-3034.844362,-11029.068536,-1915.238745
401.842497,-2294.638420,-10288.862594,-1378.971896
401.842824,888.247130,-9178.553681,-306.438199
401.843152,2886.803174,-7476.080014,536.266849
401.843480,4367.215058,-7772.162391,1608.800546
401.843807,3775.050304,-7846.182985,2528.115143
401.844135,2220.617826,-9178.553681,995.924147
401.844462,0.000000,-10584.944971,459.657299
401.844790,-1628.453072,-11473.192101,0.000000
401.845117,-2368.659014,-10584.944971,-766.095498
401.845445,-1480.411884,-10066.800811,76.609550
401.845773,1036.288319,-9770.718434,536.266849
401.846100,1924.535449,-7328.038826,1149.143247
401.846428,3182.885551,-7550.100608,2221.676944
401.846755,2516.700203,-7994.224174,1838.629195
401.847083,-222.061783,-8586.388927,1072.533697
401.847410,-1406.391290,-10214.842000,612.876398
401.847738,-3404.947333,-11325.150913,-229.828649
401.848066,-4885.359217,-10584.944971,-995.924147
401.848393,-3404.947333,-9844.739029,-306.438199
401.848721,-1554.432478,-9178.553681,612.876398
401.849048,74.020594,-6883.915261,919.314598
401.849376,2072.576638,-7402.059420,2451.505594
401.849703,1628.453072,-7772.162391,1991.848295
401.850031,-222.061783,-8438.347739,1225.752797
401.850359,-1480.411884,-10066.800811,919.314598
401.850686,-3182.885551,-10732.986159,612.876398
401.851014,-4737.318029,-9992.780217,-536.266849
401.851341,-3182.885551,-9918.759623,-459.657299
401.851669,-2220.617826,-8808.450710,-612.876398
401.851996,0.000000,-7179.997637,76.609550
401.852324,2664.741391,-6735.874072,1455.581446
401.852652,3182.885551,-6661.853478,1072.533697
401.852979,2072.576638,-7624.121203,1302.362347
401.853307,740.205942,-9474.636058,459.657299
401.853634,-1850.514855,-10732.986159,-459.657299
401.853962,-2960.823768,-10658.965565,-766.095498
401.854289,-1850.514855,-10362.883188,-919.314598
401.854617,-1036.288319,-9548.656652,-306.438199
401.854945,1628.453072,-8438.347739,766.095498
401.855272,4367.215058,-7254.018232,1838.629195
401.855600,4367.215058,-7254.018232,2298.286494
401.855927,4441.235652,-8216.285956,2911.162892
401.856255,1332.370696,-9104.533087,1762.019645
401.856582,-814.226536,-9992.780217,766.095498
401.856910,-1924.535449,-11029.068536,536.266849
401.857237,-2146.597232,-10436.903782,76.609550
401.857565,-1258.350101,-9548.656652,153.219100
401.857893,518.144159,-8586.388927,1685.410096
401.858220,962.267725,-7402.059420,1608.800546
401.858548,1554.432478,-7476.080014,2145.067394
401.858875,1110.308913,-8068.244768,1991.848295
401.859203,-1554.432478,-8660.409521,153.219100
401.859530,-3256.906145,-10066.800811,536.266849
401.859858,-4145.153275,-11251.130318,76.609550
401.860186,-4959.379811,-10066.800811,-766.095498
401.860513,-3627.009116,-9622.677246,-153.219100
401.860841,-1554.432478,-8734.430116,766.095498
401.861168,0.000000,-6957.935855,689.485948
401.861496,1258.350101,-7328.038826,1762.019645
401.861823,1332.370696,-7846.182985,1762.019645
401.862151,-222.061783,-8438.347739,1225.752797
401.862479,-962.267725,-10436.903782,842.705048
401.862806,-2220.617826,-11029.068536,229.828649
401.863134,-2960.823768,-11103.089130,0.000000
401.863461,-2072.576638,-10732.986159,153.219100
401.863789,-1036.288319,-9770.718434,-306.438199
401.864116,888.247130,-8586.388927,459.657299
401.864444,2738.761985,-7772.162391,383.047749
401.864772,3034.844362,-8142.265362,1149.143247
401.865099,2886.803174,-8956.491898,919.314598
401.865427,370.102971,-10066.800811,0.000000
401.865754,-888.247130,-11177.109724,-306.438199
401.866082,-2146.597232,-11399.171507,-995.924147
401.866409,-2812.782580,-10807.006753,-1149.143247
401.866737,-1702.473667,-10066.800811,-995.924147
401.867065,1036.288319,-8956.491898,-306.438199
401.867392,2664.741391,-7698.141797,459.657299
401.867720,3997.112087,-7105.977043,1072.533697
401.868047,4293.194464,-7846.182985,1608.800546
401.868375,2072.576638,-9178.553681,1302.362347
401.868702,-592.164754,-10140.821405,536.266849
401.869030,-2146.597232,-10881.027347,0.000000
401.869358,-2590.720797,-10955.047942,-229.828649
401.869685,-2368.659014,-9474.636058,0.000000
401.870013,-666.185348,-8364.327145,459.657299
401.870340,1480.411884,-7476.080014,1072.533697
401.870668,2368.659014,-6883.915261,1915.238745
401.870995,2516.700203,-7476.080014,1838.629195
401.871323,962.267725,-8290.306550,995.924147
401.871650,-1554.432478,-9474.636058,766.095498
401.871978,-3404.947333,-10658.965565,383.047749
401.872306,-4219.173869,-10140.821405,-153.219100
401.872633,-3849.070898,-9178.553681,0.000000
401.872961,-1702.473667,-8142.265362,0.000000
401.873288,444.123565,-7328.038826,1302.362347
401.873616,1850.514855,-6365.771101,1915.238745
401.873943,1776.494261,-7254.018232,2451.505594
401.874271,444.123565,-8216.285956,1838.629195
401.874599,-1332.370696,-9030.512492,1302.362347
401.874926,-3330.926739,-10288.862594,536.266849
401.875254,-4219.173869,-10807.006753,-229.828649
401.875581,-3404.947333,-9326.594869,-229.828649
401.875909,-2220.617826,-8438.347739,0.000000
401.876236,0.000000,-7698.141797,459.657299
401.876564,2368.659014,-6143.709319,459.657299
401.876892,2664.741391,-7105.977043,1225.752797
401.877219,1850.514855,-8068.244768,842.705048
401.877547,0.000000,-9548.656652,0.000000
401.877874,-1702.473667,-11103.089130,-153.219100
401.878202,-3552.988522,-11325.150913,-1072.533697
401.878529,-2812.782580,-10807.006753,-1072.533697
401.878857,-1554.432478,-9770.718434,-1225.752797
401.879185,962.267725,-8068.244768,0.000000
401.879512,3478.967927,-7476.080014,919.314598
401.879840,4293.194464,-7624.121203,1991.848295
401.880167,3478.967927,-7402.059420,1915.238745
401.880495,2294.638420,-9770.718434,1225.752797
401.880822,0.000000,-11029.068536,306.438199
401.881150,-1998.556043,-11029.068536,-153.219100
401.881478,-1998.556043,-11177.109724,-842.705048
401.881805,-1776.494261,-9844.739029,-689.485948
401.882133,444.123565,-9104.533087,459.657299
401.882460,2072.576638,-7994.224174,995.924147
401.882788,2812.782580,-7772.162391,1838.629195
401.883115,2442.679609,-8290.306550,1685.410096
401.883443,444.123565,-9918.759623,1072.533697
401.883770,-1702.473667,-10510.924376,0.000000
401.884098,-2590.720797,-11103.089130,0.000000
401.884426,-3627.009116,-10807.006753,-383.047749
401.884753,-2664.741391,-9992.780217,0.000000
401.885081,-444.123565,-9326.594869,689.485948
401.885408,222.061783,-7698.141797,842.705048
401.885736,1628.453072,-7920.203579,2298.286494
401.886063,1406.391290,-7920.203579,1991.848295
401.886391,-444.123565,-8512.368333,1149.143247
401.886719,-1628.453072,-10362.883188,919.314598
401.887046,-2368.659014,-10658.965565,76.609550
401.887374,-3923.091493,-10140.821405,-306.438199
401.887701,-2738.761985,-9992.780217,0.000000
401.888029,-1628.453072,-8882.471304,0.000000
401.888356,-222.061783,-7698.141797,612.876398
401.888684,1628.453072,-7328.038826,1685.410096
401.889012,2146.597232,-7846.182985,1455.581446
401.889339,1406.391290,-8438.347739,1455.581446
401.889667,-148.041188,-9622.677246,689.485948
401.889994,-2220.617826,-10584.944971,76.609550
401.890322,-2738.761985,-11399.171507,-153.219100
401.890649,-2516.700203,-10288.862594,-1072.533697
401.890977,-1850.514855,-9474.636058,-536.266849
401.891305,888.247130,-8364.327145,76.609550
401.891632,2664.741391,-7031.956449,1149.143247
401.891960,3701.029710,-7105.977043,1685.410096
401.892287,3627.009116,-7328.038826,2221.676944
401.892615,1480.411884,-8734.430116,1225.752797
401.892942,-740.205942,-10362.883188,842.705048
401.893270,-2146.597232,-10955.047942,0.000000
401.893598,-3330.926739,-10288.862594,-536.266849
401.893925,-2146.597232,-9548.656652,-459.657299
401.894253,-592.164754,-8364.327145,-306.438199
401.894580,1406.391290,-6883.915261,689.485948
401.894908,2516.700203,-6587.832884,1302.362347
401.895235,2146.597232,-7254.018232,1378.971896
401.895563,666.185348,-7920.203579,1608.800546
401.895891,-1480.411884,-9474.636058,0.000000
401.896218,-2960.823768,-10732.986159,-153.219100
401.896546,-3404.947333,-9992.780217,-459.657299
401.896873,-2368.659014,-9474.636058,0.000000
401.897201,-888.247130,-8586.388927,229.828649
401.897528,1628.453072,-7550.100608,1838.629195
401.897856,2368.659014,-7179.997637,2145.067394
401.898183,1776.494261,-7920.203579,2451.505594
401.898511,1110.308913,-8512.368333,1991.848295
401.898839,-370.102971,-9474.636058,842.705048
401.899166,-2516.700203,-10955.047942,459.657299
401.899494,-3256.906145,-10658.965565,306.438199
401.899821,-2590.720797,-9918.759623,-229.828649
401.900149,-1554.432478,-9104.533087,0.000000
401.900476,666.185348,-7994.224174,995.924147
401.900804,2146.597232,-7031.956449,995.924147
401.901132,1924.535449,-7624.121203,1302.362347
401.901459,1036.288319,-9030.512492,1608.800546
401.901787,-962.267725,-9770.718434,459.657299
401.902114,-2886.803174,-10955.047942,229.828649
401.902442,-3330.926739,-11843.295072,612.876398
401.902769,-3627.009116,-10436.903782,-842.705048
401.903097,-2146.597232,-9696.697840,-383.047749
401.903425,666.185348,-8660.409521,612.876398
401.903752,2072.576638,-7105.977043,766.095498
401.904080,3256.906145,-7698.141797,1378.971896
401.904407,3034.844362,-7994.224174,2221.676944
401.904735,888.247130,-9326.594869,1072.533697
401.905062,-444.123565,-10510.924376,459.657299
401.905390,-1998.556043,-11621.233289,0.000000
401.905718,-2664.741391,-11029.068536,-689.485948
401.906045,-1998.556043,-9992.780217,0.000000
401.906373,-592.164754,-9326.594869,0.000000
401.906700,1776.494261,-8364.327145,459.657299
401.907028,2738.761985,-7328.038826,919.314598
401.907355,2516.700203,-7920.203579,1608.800546
401.907683,1406.391290,-8734.430116,1378.971896
401.908011,-666.185348,-9770.718434,0.000000
401.908338,-2442.679609,-10732.986159,0.000000
401.908666,-2960.823768,-10732.986159,-229.828649
401.908993,-2072.576638,-9622.677246,-459.657299
401.909321,-814.226536,-8808.450710,459.657299
401.909648,962.267725,-7846.182985,1225.752797
401.909976,1776.494261,-7254.018232,1378.971896
401.910304,2664.741391,-7698.141797,1991.848295
401.910631,1850.514855,-8660.409521,1991.848295
401.910959,-222.061783,-9400.615463,842.705048
401.911286,-2368.659014,-10288.862594,229.828649
401.911614,-2960.823768,-10732.986159,-153.219100
401.911941,-3108.864956,-9696.697840,-766.095498
401.912269,-1924.535449,-9104.533087,0.000000
401.912596,296.082377,-7846.182985,229.828649
401.912924,1036.288319,-6365.771101,766.095498
401.913252,2442.679609,-7254.018232,1378.971896
401.913579,1776.494261,-8438.347739,1302.362347
401.913907,-666.185348,-9326.594869,689.485948
401.914234,-2886.803174,-10584.944971,0.000000
401.914562,-4071.132681,-11325.150913,-689.485948
401.914889,-4589.276840,-10584.944971,-1378.971896
401.915217,-2738.761985,-9844.739029,-1302.362347
401.915545,-296.082377,-8438.347739,-612.876398
401.915872,1998.556043,-6661.853478,306.438199
401.916200,4145.153275,-7105.977043,1915.238745
401.916527,3701.029710,-7698.141797,1455.581446
401.916855,1776.494261,-8586.388927,689.485948
401.917182,-148.041188,-10362.883188,383.047749
401.917510,-2294.638420,-11769.274478,0.000000
401.917838,-3034.844362,-11103.089130,-536.266849
401.918165,-1332.370696,-10436.903782,-383.047749
401.918493,148.041188,-9918.759623,153.219100
401.918820,1628.453072,-8290.306550,919.314598
401.919148,3552.988522,-8512.368333,1915.238745
401.919475,3404.947333,-8734.430116,2298.286494
401.919803,1110.308913,-8956.491898,1072.533697
401.920131,0.000000,-10658.965565,766.095498
401.920458,-2590.720797,-11547.212695,0.000000
401.920786,-3552.988522,-11029.068536,-766.095498
401.921113,-2368.659014,-10288.862594,0.000000
401.921441,-444.123565,-9252.574275,306.438199
401.921768,740.205942,-7476.080014,1149.143247
401.922096,2442.679609,-7846.182985,2528.115143
401.922424,1924.535449,-8216.285956,2298.286494
401.922751,0.000000,-8586.388927,2145.067394
401.923079,-592.164754,-10510.924376,1685.410096
401.923406,-3182.885551,-10881.027347,689.485948
401.923734,-4145.153275,-10807.006753,306.438199
401.924061,-2738.761985,-10288.862594,383.047749
401.924389,-1554.432478,-9178.553681,229.828649
401.924716,148.041188,-7254.018232,1532.190996
401.925044,2886.803174,-7328.038826,2374.896044
401.925372,2072.576638,-7179.997637,2298.286494
401.925699,962.267725,-8068.244768,2298.286494
401.926027,-518.144159,-9918.759623,1149.143247
401.926354,-2516.700203,-10732.986159,459.657299
401.926682,-3552.988522,-10658.965565,-459.657299
401.927009,-2738.761985,-10214.842000,-306.438199
401.927337,-1850.514855,-9030.512492,-153.219100
401.927665,814.226536,-8216.285956,1149.143247
401.927992,2590.720797,-7031.956449,1532.190996
401.928320,2442.679609,-6735.874072,1838.629195
401.928647,2146.597232,-7772.162391,2451.505594
401.928975,0.000000,-8956.491898,919.314598
401.929302,-1998.556043,-9844.739029,459.657299
401.929630,-2738.761985,-10436.903782,-229.828649
401.929958,-3256.906145,-9474.636058,-995.924147
401.930285,-2294.638420,-9178.553681,-459.657299
401.930613,-296.082377,-8586.388927,0.000000
401.930940,1110.308913,-6883.915261,0.000000
401.931268,2368.659014,-7031.956449,919.314598
401.931595,2516.700203,-7846.182985,766.095498
401.931923,888.247130,-7846.182985,-229.828649
401.932251,-592.164754,-9696.697840,0.000000
401.932578,-1850.514855,-10510.924376,-612.876398
401.932906,-2886.803174,-10140.821405,-1149.143247
401.933233,-2368.659014,-9622.677246,-536.266849
401.933561,-296.082377,-9104.533087,-459.657299
401.933888,1110.308913,-7772.162391,459.657299
401.934216,2664.741391,-7328.038826,1072.533697
401.934544,2886.803174,-7846.182985,1685.410096
401.934871,2072.576638,-8216.285956,1685.410096
401.935199,518.144159,-9474.636058,1455.581446
401.935526,-1850.514855,-10510.924376,0.000000
401.935854,-2664.741391,-10732.986159,0.000000
401.936181,-2886.803174,-10066.800811,-766.095498
401.936509,-1924.535449,-9104.533087,-612.876398
401.936837,814.226536,-7624.121203,76.609550
401.937164,1776.494261,-6809.894666,766.095498
401.937492,2664.741391,-7328.038826,1608.800546
401.937819,1924.535449,-8216.285956,1532.190996
401.938147,-370.102971,-9326.594869,766.095498
401.938474,-2738.761985,-10807.006753,459.657299
401.938802,-3701.029710,-11399.171507,-536.266849
401.939129,-4367.215058,-10658.965565,-1302.362347
401.939457,-2664.741391,-9844.739029,-612.876398
401.939785,0.000000,-8734.430116,306.438199
401.940112,2590.720797,-7031.956449,1378.971896
401.940440,4071.132681,-7328.038826,2451.505594
401.940767,3182.885551,-8142.265362,2298.286494
401.941095,740.205942,-9178.553681,1608.800546
401.941422,-1258.350101,-11103.089130,612.876398
401.941750,-3330.926739,-11769.274478,-383.047749
401.942078,-3849.070898,-10955.047942,-459.657299
401.942405,-2368.659014,-10362.883188,-229.828649
401.942733,-518.144159,-9400.615463,459.657299
401.943060,1850.514855,-7402.059420,1072.533697
401.943388,3552.988522,-7402.059420,2145.067394
401.943715,2738.761985,-7698.141797,2374.896044
401.944043,296.082377,-8512.368333,766.095498
401.944371,-1406.391290,-10658.965565,689.485948
401.944698,-3552.988522,-11547.212695,-383.047749
401.945026,-3997.112087,-10436.903782,-612.876398
401.945353,-2368.659014,-10066.800811,-766.095498
401.945681,-444.123565,-8882.471304,1149.143247
401.946008,1110.308913,-7179.997637,1149.143247
401.946336,2812.782580,-7402.059420,2451.505594
401.946664,2590.720797,-7846.182985,2451.505594
401.946991,444.123565,-8290.306550,1991.848295
401.947319,-296.082377,-9474.636058,1225.752797
401.947646,-2368.659014,-10436.903782,306.438199
401.947974,-4219.173869,-9918.759623,-536.266849
401.948301,-2368.659014,-9770.718434,0.000000
401.948629,-1406.391290,-8438.347739,229.828649
401.948956,444.123565,-6661.853478,306.438199
401.949284,2664.741391,-7031.956449,1685.410096
401.949612,2368.659014,-6957.935855,1455.581446
401.949939,1258.350101,-7994.224174,1608.800546
401.950267,-444.123565,-9548.656652,842.705048
401.950594,-2738.761985,-10362.883188,0.000000
401.950922,-3701.029710,-10214.842000,-229.828649
401.951249,-2516.700203,-10362.883188,-383.047749
401.951577,-1924.535449,-9104.533087,-536.266849
401.951904,814.226536,-7994.224174,842.705048
401.952232,2886.803174,-6957.935855,1608.800546
401.952560,2886.803174,-6735.874072,1838.629195
401.952887,2590.720797,-7846.182985,2221.676944
401.953215,296.082377,-9030.512492,995.924147
401.953542,-1554.432478,-10214.842000,306.438199
401.953870,-2516.700203,-10955.047942,0.000000
401.954197,-2812.782580,-10362.883188,-689.485948
401.954525,-2294.638420,-9770.718434,-459.657299
401.954853,0.000000,-8660.409521,0.000000
401.955180,1036.288319,-7254.018232,0.000000
401.955508,2220.617826,-7328.038826,1072.533697
401.955835,2516.700203,-7994.224174,1072.533697
401.956163,296.082377,-8512.368333,459.657299
401.956490,-1036.288319,-10362.883188,0.000000
401.956818,-2294.638420,-11029.068536,-306.438199
401.957145,-3330.926739,-10881.027347,-995.924147
401.957473,-2294.638420,-10140.821405,-383.047749
401.957801,-296.082377,-9400.615463,-229.828649
401.958128,1184.329507,-7994.224174,153.219100
401.958456,2886.803174,-7698.141797,1762.019645
401.958783,2738.761985,-7772.162391,1608.800546
401.959111,1776.494261,-8660.409521,1762.019645
401.959438,222.061783,-9844.739029,689.485948
401.959766,-1702.473667,-10807.006753,153.219100
401.960093,-2516.700203,-10955.047942,0.000000
401.960421,-2146.597232,-10288.862594,-229.828649
401.960749,-1258.350101,-9474.636058,0.000000
401.961076,1110.308913,-8512.368333,995.924147
401.961404,1850.514855,-7254.018232,1532.190996
401.961731,2368.659014,-7846.182985,2068.457845
401.962059,1406.391290,-8882.471304,1915.238745
401.962386,-814.226536,-9770.718434,1072.533697
401.962714,-2590.720797,-10881.027347,1302.362347
401.963042,-3627.009116,-10881.027347,306.438199
401.963369,-4145.153275,-10140.821405,-306.438199
401.963697,-2072.576638,-9252.574275,306.438199
401.964024,148.041188,-7920.203579,689.485948
401.964352,2072.576638,-6513.812290,2068.457845
401.964679,3182.885551,-7031.956449,3064.381992
401.965007,1998.556043,-7920.203579,2451.505594
401.965334,296.082377,-9252.574275,2068.457845
401.965662,-1924.535449,-10732.986159,1149.143247
401.965990,-3330.926739,-11621.233289,306.438199
401.966317,-3627.009116,-10288.862594,0.000000
401.966645,-2442.679609,-9844.739029,0.000000
401.966972,-1110.308913,-9030.512492,536.266849
401.967300,1110.308913,-7698.141797,1072.533697
401.967627,2294.638420,-7179.997637,1072.533697
401.967955,1924.535449,-7550.100608,1532.190996
401.968283,370.102971,-8364.327145,995.924147
401.968610,-1702.473667,-9770.718434,-229.828649
401.968938,-3256.906145,-10732.986159,-689.485948
401.969265,-3775.050304,-10288.862594,-1072.533697
401.969593,-2516.700203,-9474.636058,-919.314598
401.969920,-1332.370696,-8438.347739,-1149.143247
401.970248,1184.329507,-7698.141797,229.828649
401.970575,2664.741391,-7402.059420,536.266849
401.970903,2590.720797,-7254.018232,1072.533697
401.971231,2368.659014,-7994.224174,459.657299
401.971558,518.144159,-9326.594869,612.876398
401.971886,-1258.350101,-10658.965565,-459.657299
401.972213,-2146.597232,-10288.862594,-689.485948
401.972541,-1036.288319,-9918.759623,-1072.533697
401.972868,0.000000,-8660.409521,-689.485948
401.973196,1628.453072,-7624.121203,383.047749
401.973523,3404.947333,-7476.080014,612.876398
401.973851,3404.947333,-7772.162391,1072.533697
401.974179,2664.741391,-8438.347739,1532.190996
401.974506,444.123565,-10214.842000,383.047749
401.974834,-1480.411884,-10955.047942,-612.876398
401.975161,-2960.823768,-11325.150913,-383.047749
401.975489,-2738.761985,-10658.965565,-1072.533697
401.975816,-2146.597232,-9622.677246,-919.314598
401.976144,222.061783,-8512.368333,612.876398
401.976472,2368.659014,-7476.080014,1455.581446
401.976799,3552.988522,-7254.018232,2451.505594
401.977127,2368.659014,-7772.162391,2145.067394
401.977454,0.000000,-9326.594869,1378.971896
401.977782,-2368.659014,-10584.944971,842.705048
401.978109,-3330.926739,-11029.068536,766.095498
401.978437,-4219.173869,-9992.780217,0.000000
401.978764,-2516.700203,-9918.759623,536.266849
401.979092,-518.144159,-9104.533087,842.705048
401.979420,666.185348,-7328.038826,1455.581446
401.979747,1998.556043,-7846.182985,2604.724693
401.980075,1184.329507,-8586.388927,2374.896044
401.980402,-592.164754,-8882.471304,1532.190996
401.980730,-1850.514855,-10732.986159,842.705048
401.981057,-3627.009116,-11473.192101,0.000000
401.981385,-4367.215058,-10658.965565,-689.485948
401.981712,-2664.741391,-10362.883188,-689.485948
401.982040,-888.247130,-9178.553681,-229.828649
401.982368,592.164754,-7476.080014,842.705048
401.982695,3034.844362,-7550.100608,1838.629195
401.983023,2812.782580,-8068.244768,2145.067394
401.983350,1702.473667,-8364.327145,2374.896044
401.983678,814.226536,-10288.862594,1149.143247
401.984005,-1776.494261,-11177.109724,842.705048
401.984333,-2738.761985,-10658.965565,0.000000
401.984661,-1332.370696,-10288.862594,229.828649
401.984988,-592.164754,-8956.491898,0.000000
401.985316,1776.494261,-7772.162391,1378.971896
401.985643,3404.947333,-7328.038826,1762.019645
401.985971,2960.823768,-7920.203579,1762.019645
401.986298,2368.659014,-8438.347739,1838.629195
401.986626,444.123565,-9770.718434,919.314598
401.986953,-2294.638420,-10732.986159,-383.047749
401.987281,-3108.864956,-10955.047942,-459.657299
401.987609,-3108.864956,-10510.924376,-1072.533697
401.987936,-2368.659014,-9474.636058,-766.095498
401.988264,370.102971,-8364.327145,536.266849
401.988591,1998.556043,-6587.832884,1378.971896
401.988919,3108.864956,-7476.080014,1838.629195
401.989246,2294.638420,-7772.162391,2068.457845
401.989574,-444.123565,-8734.430116,919.314598
401.989902,-2368.659014,-9992.780217,383.047749
401.990229,-3330.926739,-10510.924376,689.485948
401.990557,-3775.050304,-9326.594869,-689.485948
401.990884,-2738.761985,-9178.553681,-536.266849
401.991212,0.000000,-8364.327145,383.047749
401.991539,1332.370696,-6513.812290,536.266849
401.991867,2516.700203,-6957.935855,1532.190996
401.992194,2442.679609,-7254.018232,1225.752797
401.992522,148.041188,-7920.203579,153.219100
401.992850,-1036.288319,-9696.697840,153.219100
401.993177,-2664.741391,-11177.109724,-766.095498
401.993505,-3552.988522,-10362.883188,-1455.581446
401.993832,-2072.576638,-9992.780217,-383.047749
401.994160,-888.247130,-9326.594869,-306.438199
401.994487,888.247130,-7402.059420,-153.219100
401.994815,2738.761985,-7698.141797,1225.752797
401.995142,3034.844362,-7994.224174,1455.581446
401.995470,1776.494261,-8068.244768,1225.752797
401.995798,518.144159,-10140.821405,995.924147
401.996125,-1480.411884,-11103.089130,-153.219100
401.996453,-3108.864956,-10362.883188,-919.314598
401.996780,-2146.597232,-10140.821405,-612.876398
401.997108,-1258.350101,-9178.553681,-766.095498
401.997435,1184.329507,-8068.244768,612.876398
401.997763,2812.782580,-7179.997637,1149.143247
401.998091,3182.885551,-7179.997637,1532.190996
401.998418,2368.659014,-8068.244768,1838.629195
401.998746,296.082377,-9400.615463,919.314598
401.999073,-1850.514855,-10658.965565,229.828649
401.999401,-3108.864956,-11029.068536,-306.438199
401.999728,-3108.864956,-10066.800811,-766.095498
402.000056,-1554.432478,-9030.512492,0.000000
402.000383,1332.370696,-8364.327145,1302.362347
402.000711,3034.844362,-7254.018232,1762.019645
402.001039,3627.009116,-7476.080014,2911.162892
402.001366,2072.576638,-8586.388927,2911.162892
402.001694,-1110.308913,-9474.636058,1915.238745
402.002021,-2886.803174,-11029.068536,1225.752797
402.002349,-4441.235652,-11399.171507,842.705048
402.002676,-4515.256246,-10214.842000,76.609550
402.003004,-2738.761985,-9918.759623,612.876398
402.003331,-592.164754,-8734.430116,1302.362347
402.003659,518.144159,-7105.977043,1302.362347
402.003987,2072.576638,-7179.997637,2451.505594
402.004314,1406.391290,-7846.182985,1991.848295
402.004642,-1332.370696,-8364.327145,689.485948
402.004969,-2368.659014,-10140.821405,229.828649
402.005297,-3849.070898,-11399.171507,-459.657299
402.005624,-4515.256246,-10140.821405,-995.924147
402.005952,-2294.638420,-9622.677246,-153.219100
402.006280,-888.247130,-9400.615463,0.000000
402.006607,740.205942,-7254.018232,76.609550
402.006935,2590.720797,-7624.121203,1149.143247
402.007262,2664.741391,-7772.162391,1225.752797
402.007590,1258.350101,-8216.285956,689.485948
402.007917,888.247130,-10214.842000,229.828649
402.008245,-814.226536,-11103.089130,0.000000
402.008572,-1998.556043,-10436.903782,-842.705048
402.008900,-518.144159,-10362.883188,-612.876398
402.009228,370.102971,-9548.656652,-689.485948
402.009555,1702.473667,-8216.285956,153.219100
402.009883,3701.029710,-7994.224174,842.705048
402.010210,2960.823768,-8068.244768,1072.533697
402.010538,2368.659014,-8808.450710,1455.581446
402.010865,666.185348,-9918.759623,306.438199
402.011193,-1332.370696,-11029.068536,-306.438199
402.011521,-2664.741391,-11251.130318,-459.657299
402.011848,-2220.617826,-10436.903782,-842.705048
402.012176,-1406.391290,-9030.512492,-459.657299
402.012503,814.226536,-8290.306550,612.876398
402.012831,2368.659014,-7179.997637,1991.848295
402.013158,2516.700203,-6957.935855,1991.848295
402.013486,1998.556043,-7846.182985,2374.896044
402.013813,148.041188,-8956.491898,1915.238745
402.014141,-2294.638420,-10362.883188,1302.362347
402.014469,-3404.947333,-10807.006753,689.485948
402.014796,-3849.070898,-10362.883188,536.266849
402.015124,-3256.906145,-9252.574275,153.219100
402.015451,-1480.411884,-8068.244768,919.314598
402.015779,370.102971,-7254.018232,1455.581446
402.016106,1258.350101,-6735.874072,1685.410096
402.016434,1998.556043,-6809.894666,1532.190996
402.016761,-444.123565,-8364.327145,1149.143247
402.017089,-2442.679609,-9548.656652,153.219100
402.017417,-4219.173869,-10732.986159,-383.047749
402.017744,-4515.256246,-10214.842000,-689.485948
402.018072,-3849.070898,-9178.553681,-995.924147
402.018399,-1924.535449,-8734.430116,-383.047749
402.018727,814.226536,-7772.162391,306.438199
402.019054,2442.679609,-6735.874072,612.876398
402.019382,3256.906145,-7402.059420,1608.800546
402.019710,2590.720797,-7994.224174,1762.019645
402.020037,444.123565,-9474.636058,1072.533697
402.020365,-1258.350101,-10732.986159,-306.438199
402.020692,-1998.556043,-11177.109724,-766.095498
402.021020,-1850.514855,-9844.739029,-995.924147
402.021347,0.000000,-9252.574275,-919.314598
402.021675,2220.617826,-7994.224174,383.047749
402.022002,4367.215058,-7402.059420,1149.143247
402.022330,4663.297435,-7550.100608,1455.581446
402.022658,3404.947333,-8808.450710,1225.752797
402.022985,1332.370696,-9918.759623,306.438199
402.023313,-1480.411884,-10955.047942,306.438199
402.023640,-3034.844362,-11843.295072,-459.657299
402.023968,-3034.844362,-10732.986159,-383.047749
402.024295,-1480.411884,-9474.636058,-153.219100
402.024623,518.144159,-8586.388927,612.876398
402.024950,2368.659014,-7254.018232,1455.581446
402.025278,2886.803174,-7698.141797,2298.286494
402.025606,1776.494261,-8142.265362,2068.457845
402.025933,-518.144159,-8882.471304,1302.362347
402.026261,-2368.659014,-10881.027347,842.705048
402.026588,-4885.359217,-10732.986159,306.438199
402.026916,-4737.318029,-10362.883188,0.000000
402.027243,-3627.009116,-9548.656652,-153.219100
402.027571,-1850.514855,-7846.182985,383.047749
402.027899,370.102971,-7698.141797,1532.190996
402.028226,1998.556043,-7179.997637,1838.629195
402.028554,592.164754,-7105.977043,1608.800546
402.028881,-370.102971,-9474.636058,1149.143247
402.029209,-2072.576638,-11029.068536,459.657299
402.029536,-3997.112087,-10658.965565,-383.047749
402.029864,-3552.988522,-10732.986159,-842.705048
402.030191,-2368.659014,-10140.821405,-766.095498
402.030519,-444.123565,-9104.533087,229.828649
402.030847,1776.494261,-7846.182985,766.095498
402.031174,2886.803174,-7698.141797,1608.800546
402.031502,3404.947333,-7772.162391,2145.067394
402.031829,1554.432478,-8808.450710,1608.800546
402.032157,148.041188,-10362.883188,536.266849
402.032484,-888.247130,-11029.068536,76.609550
402.032812,-2146.597232,-11177.109724,-1072.533697
402.033139,-1628.453072,-10510.924376,-536.266849
402.033467,0.000000,-9178.553681,-153.219100
402.033795,1406.391290,-7550.100608,153.219100
402.034122,3478.967927,-7624.121203,1378.971896
402.034450,3627.009116,-7328.038826,1455.581446
402.034777,2294.638420,-7994.224174,995.924147
402.035105,888.247130,-9992.780217,229.828649
402.035432,-1036.288319,-10362.883188,-536.266849
402.035760,-2960.823768,-9918.759623,-612.876398
402.036088,-2442.679609,-9844.739029,-229.828649
402.036415,-1110.308913,-9252.574275,0.000000
402.036743,962.267725,-8068.244768,995.924147
402.037070,2368.659014,-6957.935855,2451.505594
402.037398,2516.700203,-7328.038826,2604.724693
402.037725,1924.535449,-8216.285956,2681.334243
402.038053,-740.205942,-9326.594869,1378.971896
402.038380,-2738.761985,-10436.903782,1072.533697
402.038708,-3997.112087,-10584.944971,459.657299
402.039036,-4071.132681,-9918.759623,-306.438199
402.039363,-3108.864956,-9252.574275,0.000000
402.039691,-962.267725,-8142.265362,612.876398
402.040018,74.020594,-6809.894666,536.266849
402.040346,1110.308913,-6217.729913,2068.457845
402.040673,1184.329507,-7254.018232,1532.190996
402.041001,-962.267725,-8216.285956,536.266849
402.041329,-2368.659014,-9992.780217,306.438199
402.041656,-3182.885551,-10658.965565,0.000000
402.041984,-3330.926739,-9622.677246,-842.705048
402.042311,-2368.659014,-9400.615463,0.000000
402.042639,-814.226536,-8734.430116,0.000000
402.042966,888.247130,-7105.977043,459.657299
402.043294,2664.741391,-7402.059420,1225.752797
402.043621,3182.885551,-7402.059420,1991.848295
402.043949,1776.494261,-8142.265362,1225.752797
402.044277,592.164754,-9770.718434,612.876398
402.044604,-962.267725,-10955.047942,0.000000
402.044932,-1776.494261,-10658.965565,-383.047749
402.045259,-1406.391290,-10362.883188,-842.705048
402.045587,-962.267725,-9400.615463,0.000000
402.045915,1036.288319,-8882.471304,0.000000
402.046242,2294.638420,-7920.203579,383.047749
402.046570,2738.761985,-8290.306550,919.314598
402.046897,1998.556043,-9104.533087,1072.533697
402.047225,740.205942,-9844.739029,383.047749
402.047553,-1480.411884,-10807.006753,0.000000
402.047880,-2368.659014,-11029.068536,-383.047749
402.048208,-2664.741391,-10288.862594,-766.095498
402.048535,-1332.370696,-9400.615463,-229.828649
402.048863,592.164754,-8512.368333,536.266849
402.049190,1850.514855,-7179.997637,1455.581446
402.049518,2664.741391,-7328.038826,2145.067394
402.049846,2146.597232,-8290.306550,1991.848295
402.050173,518.144159,-9474.636058,1685.410096
402.050501,-1998.556043,-10584.944971,995.924147
402.050828,-2812.782580,-10807.006753,536.266849
402.051156,-3256.906145,-11029.068536,229.828649
402.051484,-2812.782580,-9770.718434,0.000000
402.051811,-1110.308913,-8734.430116,459.657299
402.052139,1036.288319,-7920.203579,1225.752797
402.052466,2072.576638,-7254.018232,1685.410096
402.052794,1628.453072,-8068.244768,1991.848295
402.053122,148.041188,-9474.636058,1455.581446
402.053449,-2146.597232,-10140.821405,689.485948
402.053777,-4293.194464,-10881.027347,0.000000
402.054104,-4219.173869,-10658.965565,0.000000
402.054432,-3627.009116,-9770.718434,0.000000
402.054760,-1776.494261,-8808.450710,76.609550
402.055087,222.061783,-7476.080014,612.876398
402.055415,2072.576638,-7031.956449,1532.190996
402.055742,2220.617826,-7179.997637,1302.362347
402.056070,1406.391290,-7994.224174,1302.362347
402.056397,0.000000,-9400.615463,306.438199
402.056725,-1998.556043,-10436.903782,-229.828649
402.057053,-2812.782580,-10732.986159,-766.095498
402.057380,-2146.597232,-10288.862594,-919.314598
402.057708,-1332.370696,-8808.450710,-842.705048
402.058035,814.226536,-8364.327145,229.828649
402.058363,3182.885551,-7328.038826,612.876398
402.058691,2960.823768,-7179.997637,842.705048
402.059018,3108.864956,-8734.430116,689.485948
402.059346,888.247130,-9844.739029,1532.190996
402.059673,-740.205942,-10510.924376,-536.266849
402.060001,-2072.576638,-11103.089130,-536.266849
402.060329,-2072.576638,-10362.883188,-842.705048
402.060656,-518.144159,-9326.594869,-153.219100
402.060984,1258.350101,-8364.327145,919.314598
402.061311,2960.823768,-7179.997637,2068.457845
402.061639,4071.132681,-7476.080014,2451.505594
402.061967,2664.741391,-8512.368333,1991.848295
402.062294,666.185348,-9474.636058,1838.629195
402.062622,-1036.288319,-10955.047942,919.314598
402.062949,-3034.844362,-10066.800811,0.000000
402.063277,-3404.947333,-10140.821405,153.219100
402.063604,-2072.576638,-9622.677246,612.876398
402.063932,-518.144159,-7624.121203,612.876398
402.064260,1258.350101,-7254.018232,1608.800546
402.064587,1924.535449,-7031.956449,2451.505594
402.064915,444.123565,-7328.038826,1838.629195
402.065242,-814.226536,-9474.636058,1685.410096
402.065570,-2516.700203,-10807.006753,689.485948
402.065898,-4737.318029,-10955.047942,0.000000
402.066225,-4885.359217,-10732.986159,-229.828649
402.066553,-3701.029710,-10140.821405,-536.266849
402.066880,-2368.659014,-8734.430116,76.609550
402.067208,0.000000,-7698.141797,612.876398
402.067536,1850.514855,-7105.977043,1532.190996
402.067863,2368.659014,-7031.956449,1915.238745
402.068191,1110.308913,-7698.141797,1302.362347
402.068518,-222.061783,-9918.759623,766.095498
402.068846,-1702.473667,-10584.944971,0.000000
402.069173,-2442.679609,-10362.883188,-842.705048
402.069501,-1776.494261,-10436.903782,-612.876398
402.069829,0.000000,-9844.739029,0.000000
402.070156,1258.350101,-8142.265362,153.219100
402.070484,2886.803174,-7920.203579,1225.752797
402.070811,4071.132681,-7920.203579,1991.848295
402.071139,2368.659014,-8290.306550,919.314598
402.071467,962.267725,-9622.677246,612.876398
402.071794,0.000000,-10362.883188,0.000000
402.072122,-1628.453072,-10510.924376,-919.314598
402.072449,-2146.597232,-10140.821405,-995.924147
402.072777,-444.123565,-9326.594869,-306.438199
402.073105,222.061783,-7772.162391,229.828649
402.073432,3256.906145,-7328.038826,1685.410096
402.073760,3330.926739,-7402.059420,2298.286494
402.074087,2146.597232,-8142.265362,2298.286494
402.074415,0.000000,-9252.574275,1608.800546
402.074743,-1924.535449,-10658.965565,1302.362347
402.075070,-3923.091493,-11251.130318,612.876398
402.075398,-3775.050304,-10066.800811,0.000000
402.075725,-3108.864956,-9474.636058,-229.828649
402.076053,-814.226536,-8438.347739,919.314598
402.076380,1036.288319,-6809.894666,1149.143247
402.076708,1628.453072,-6439.791695,2298.286494
402.077036,1702.473667,-7328.038826,2221.676944
402.077363,-518.144159,-8290.306550,766.095498
402.077691,-2146.597232,-10288.862594,689.485948
402.078018,-3256.906145,-10881.027347,76.609550
402.078346,-4219.173869,-10436.903782,-1149.143247
402.078674,-3108.864956,-10214.842000,0.000000
402.079001,-1258.350101,-9770.718434,0.000000
402.079329,518.144159,-8438.347739,689.485948
402.079656,2072.576638,-7846.182985,1608.800546
402.079984,2072.576638,-7772.162391,2451.505594
402.080312,1406.391290,-9104.533087,1608.800546
402.080639,-370.102971,-10066.800811,536.266849
402.080967,-2146.597232,-11399.171507,-536.266849
402.081294,-2590.720797,-10807.006753,-842.705048
402.081622,-2442.679609,-9696.697840,-1455.581446
402.081949,-1480.411884,-8956.491898,-1532.190996
402.082277,1184.329507,-8438.347739,-306.438199
402.082605,2590.720797,-7179.997637,0.000000
402.082932,3182.885551,-7698.141797,842.705048
402.083260,3034.844362,-8660.409521,995.924147
402.083587,370.102971,-9400.615463,459.657299
402.083915,-1332.370696,-10732.986159,0.000000
402.084243,-2072.576638,-11325.150913,-536.266849
402.084570,-2146.597232,-10214.842000,-1302.362347
402.084898,-740.205942,-9622.677246,-459.657299
402.085225,1554.432478,-8512.368333,612.876398
402.085553,3256.906145,-7031.956449,1225.752797
402.085881,4293.194464,-7476.080014,2451.505594
402.086208,3552.988522,-7994.224174,2834.553343
402.086536,592.164754,-9252.574275,1762.019645
402.086863,-1480.411884,-10807.006753,1302.362347
402.087191,-2812.782580,-11177.109724,306.438199
402.087519,-4219.173869,-10140.821405,0.000000
402.087846,-2516.700203,-9400.615463,689.485948
402.088174,-888.247130,-8142.265362,919.314598
402.088501,518.144159,-6513.812290,1991.848295
402.088829,1776.494261,-6217.729913,2528.115143
402.089156,814.226536,-7031.956449,2221.676944
402.089484,-1258.350101,-7846.182985,1685.410096
402.089812,-2738.761985,-9474.636058,689.485948
402.090139,-4811.338623,-10066.800811,-306.438199
402.090467,-5033.400406,-9252.574275,0.000000
402.090794,-3182.885551,-9252.574275,0.000000
402.091122,-1924.535449,-8364.327145,383.047749
402.091450,592.164754,-7031.956449,1072.533697
402.091777,2072.576638,-7105.977043,1838.629195
402.092105,1850.514855,-7476.080014,1838.629195
402.092432,814.226536,-8364.327145,1225.752797
402.092760,-444.123565,-10436.903782,306.438199
402.093088,-2146.597232,-11325.150913,0.000000
402.093415,-2886.803174,-10584.944971,-842.705048
402.093743,-1258.350101,-10214.842000,-1149.143247
402.094070,-444.123565,-9178.553681,-1225.752797
402.094398,2146.597232,-8438.347739,0.000000
402.094726,3330.926739,-7550.100608,0.000000
402.095053,3552.988522,-7920.203579,612.876398
402.095381,2886.803174,-8512.368333,1149.143247
402.095708,888.247130,-10066.800811,76.609550
402.096036,-1332.370696,-11103.089130,-536.266849
402.096363,-1850.514855,-11325.150913,-842.705048
402.096691,-1554.432478,-11177.109724,-1302.362347
402.097019,-1036.288319,-9770.718434,-766.095498
402.097346,1332.370696,-8882.471304,459.657299
402.097674,2442.679609,-7328.038826,842.705048
402.098001,3404.947333,-7550.100608,1838.629195
402.098329,2738.761985,-8364.327145,2068.457845
402.098657,518.144159,-9326.594869,1302.362347
402.098984,-1036.288319,-10066.800811,612.876398
402.099312,-2368.659014,-10955.047942,383.047749
402.099639,-3404.947333,-10510.924376,0.000000
402.099967,-2442.679609,-9918.759623,0.000000
402.100295,-666.185348,-9030.512492,536.266849
402.100622,666.185348,-7698.141797,1838.629195
402.100950,1332.370696,-7105.977043,2298.286494
402.101277,1110.308913,-8142.265362,1915.238745
402.101605,-518.144159,-9252.574275,1302.362347
402.101932,-2738.761985,-10214.842000,766.095498
402.102260,-3923.091493,-11325.150913,229.828649
402.102588,-4441.235652,-10288.862594,-383.047749
402.102915,-3330.926739,-9548.656652,-229.828649
402.103243,-1998.556043,-8512.368333,0.000000
402.103570,666.185348,-7476.080014,1149.143247
402.103898,1998.556043,-6883.915261,1378.971896
402.104226,2590.720797,-7846.182985,1378.971896
402.104553,1480.411884,-8512.368333,1762.019645
402.104881,-592.164754,-9696.697840,536.266849
402.105208,-1998.556043,-11251.130318,153.219100
402.105536,-2516.700203,-11029.068536,-229.828649
402.105864,-2072.576638,-9622.677246,-689.485948
402.106191,-962.267725,-9326.594869,-306.438199
402.106519,1850.514855,-8438.347739,306.438199
402.106846,2664.741391,-7328.038826,459.657299
402.107174,3627.009116,-7772.162391,1225.752797
402.107502,3404.947333,-8734.430116,1072.533697
402.107829,444.123565,-9474.636058,612.876398
402.108157,-1184.329507,-10658.965565,76.609550
402.108484,-2442.679609,-11621.233289,-383.047749
402.108812,-2516.700203,-9992.780217,-1378.971896
402.109139,-1184.329507,-9474.636058,-383.047749
402.109467,1332.370696,-8438.347739,919.314598
402.109795,2664.741391,-7031.956449,1072.533697
402.110122,3923.091493,-7550.100608,2298.286494
402.110450,3108.864956,-8216.285956,2451.505594
402.110777,296.082377,-8956.491898,1378.971896
402.111105,-1036.288319,-10510.924376,1455.581446
402.111433,-2738.761985,-10955.047942,383.047749
402.111760,-3404.947333,-9992.780217,0.000000
402.112088,-1850.514855,-9844.739029,536.266849
402.112415,-444.123565,-8882.471304,1072.533697
402.112743,1332.370696,-7624.121203,919.314598
402.113071,1850.514855,-7328.038826,2451.505594
402.113398,1110.308913,-8290.306550,2068.457845
402.113726,-1332.370696,-9030.512492,1149.143247
402.114053,-2442.679609,-10881.027347,689.485948
402.114381,-4737.318029,-10658.965565,229.828649
402.114709,-4885.359217,-10066.800811,0.000000
402.115036,-3330.926739,-9696.697840,0.000000
402.115364,-1924.535449,-8660.409521,76.609550
402.115691,0.000000,-7105.977043,612.876398
402.116019,1850.514855,-7476.080014,1685.410096
402.116346,1628.453072,-7476.080014,1455.581446
402.116674,0.000000,-8142.265362,1302.362347
402.117002,-370.102971,-10140.821405,612.876398
402.117329,-2368.659014,-10732.986159,0.000000
402.117657,-3256.906145,-10362.883188,-612.876398
402.117984,-1776.494261,-10214.842000,-1072.533697
402.118312,-666.185348,-9178.553681,-612.876398
402.118640,1480.411884,-8290.306550,0.000000
402.118967,3256.906145,-7846.182985,459.657299
402.119295,3552.988522,-7476.080014,612.876398
402.119622,2886.803174,-8216.285956,1532.190996
402.119950,1554.432478,-9474.636058,306.438199
402.120278,-962.267725,-10881.027347,-536.266849
402.120605,-1850.514855,-10955.047942,-1149.143247
402.120933,-1554.432478,-10436.903782,-1378.971896
402.121260,-592.164754,-9400.615463,-995.924147
402.121588,1702.473667,-8882.471304,689.485948
402.121915,3034.844362,-7402.059420,919.314598
402.122243,3552.988522,-7402.059420,1762.019645
402.122571,2590.720797,-8142.265362,1991.848295
402.122898,740.205942,-9252.574275,1072.533697
402.123226,-1184.329507,-10066.800811,536.266849
402.123553,-2368.659014,-10362.883188,153.219100
402.123881,-3182.885551,-9992.780217,-306.438199
402.124209,-2220.617826,-9400.615463,383.047749
402.124536,-444.123565,-8068.244768,612.876398
402.124864,1480.411884,-6587.832884,1378.971896
402.125191,1924.535449,-6809.894666,2068.457845
402.125519,1110.308913,-7698.141797,1915.238745
402.125847,-888.247130,-8364.327145,1149.143247
402.126174,-2516.700203,-10066.800811,612.876398
402.126502,-3849.070898,-10807.006753,76.609550
402.126829,-4737.318029,-9696.697840,-306.438199
402.127157,-2960.823768,-9400.615463,153.219100
402.127485,-1480.411884,-8438.347739,383.047749
402.127812,740.205942,-7328.038826,1455.581446
402.128140,2072.576638,-7254.018232,2068.457845
402.128467,1480.411884,-7846.182985,1991.848295
402.128795,592.164754,-8216.285956,1838.629195
402.129122,-1036.288319,-10066.800811,842.705048
402.129450,-2516.700203,-11103.089130,229.828649
402.129778,-3182.885551,-10436.903782,0.000000
402.130105,-2516.700203,-10066.800811,-383.047749
402.130433,-1332.370696,-9178.553681,-459.657299
402.130760,1036.288319,-8068.244768,306.438199
402.131088,2368.659014,-7624.121203,612.876398
402.131416,2442.679609,-7698.141797,919.314598
402.131743,2294.638420,-8734.430116,612.876398
402.132071,0.000000,-9474.636058,306.438199
402.132398,-1850.514855,-10955.047942,-383.047749
402.132726,-2516.700203,-11251.130318,-689.485948
402.133054,-2368.659014,-10510.924376,-1455.581446
402.133381,-1628.453072,-9622.677246,-766.095498
402.133709,814.226536,-8660.409521,842.705048
402.134036,2516.700203,-7476.080014,612.876398
402.134364,3849.070898,-7846.182985,1915.238745
402.134691,3404.947333,-8586.388927,2068.457845
402.135019,1406.391290,-9474.636058,1302.362347
402.135347,-814.226536,-10510.924376,995.924147
402.135674,-1850.514855,-11177.109724,459.657299
402.136002,-2590.720797,-10214.842000,0.000000
402.136329,-1554.432478,-9474.636058,76.609550
402.136657,222.061783,-8734.430116,689.485948
402.136985,1776.494261,-7328.038826,1685.410096
402.137312,2442.679609,-7179.997637,1838.629195
402.137640,1332.370696,-8216.285956,1991.848295
402.137967,-222.061783,-9030.512492,1608.800546
402.138295,-2294.638420,-10140.821405,306.438199
402.138623,-3552.988522,-10658.965565,0.000000
402.138950,-4293.194464,-10288.862594,-459.657299
402.139278,-3256.906145,-9474.636058,-459.657299
402.139605,-1776.494261,-8438.347739,76.609550
402.139933,962.267725,-7402.059420,995.924147
402.140261,2072.576638,-6661.853478,1455.581446
402.140588,2220.617826,-7179.997637,1991.848295
402.140916,888.247130,-8438.347739,1991.848295
402.141243,-1332.370696,-9696.697840,689.485948
402.141571,-2960.823768,-10955.047942,229.828649
402.141898,-3330.926739,-10584.944971,-229.828649
402.142226,-2664.741391,-9918.759623,-536.266849
402.142554,-1702.473667,-9326.594869,-689.485948
402.142881,1036.288319,-7994.224174,383.047749
402.143209,2368.659014,-6957.935855,766.095498
402.143536,3108.864956,-7179.997637,995.924147
402.143864,2738.761985,-8364.327145,1532.190996
402.144192,740.205942,-9252.574275,0.000000
402.144519,-1480.411884,-10881.027347,0.000000
402.144847,-2368.659014,-10955.047942,-689.485948
402.145174,-2294.638420,-10140.821405,-1149.143247
402.145502,-1406.391290,-9252.574275,-383.047749
402.145830,1258.350101,-8660.409521,229.828649
402.146157,2738.761985,-7550.100608,1149.143247
402.146485,3552.988522,-7698.141797,1762.019645
402.146812,3182.885551,-8586.388927,2298.286494
402.147140,1036.288319,-9622.677246,1302.362347
402.147467,-962.267725,-10362.883188,1149.143247
402.147795,-2368.659014,-10807.006753,76.609550
402.148123,-2960.823768,-9844.739029,-306.438199
402.148450,-2072.576638,-9474.636058,0.000000
402.148778,-222.061783,-8660.409521,612.876398
402.149105,888.247130,-6883.915261,995.924147
402.149433,2294.638420,-7105.977043,2145.067394
402.149760,1554.432478,-7698.141797,2145.067394
402.150088,-740.205942,-8808.450710,995.924147
402.150416,-2294.638420,-10362.883188,842.705048
402.150743,-3701.029710,-10955.047942,459.657299
402.151071,-4737.318029,-10140.821405,0.000000
402.151398,-3108.864956,-9844.739029,0.000000
402.151726,-1554.432478,-8734.430116,229.828649
402.152054,74.020594,-7328.038826,1378.971896
402.152381,2294.638420,-7179.997637,1532.190996
402.152709,1628.453072,-7624.121203,2298.286494
402.153036,74.020594,-8438.347739,1685.410096
402.153364,-962.267725,-10214.842000,1149.143247
402.153691,-2886.803174,-11251.130318,0.000000
402.154019,-3775.050304,-10807.006753,-229.828649
402.154347,-2738.761985,-10510.924376,-689.485948
402.154674,-1924.535449,-9474.636058,-1072.533697
402.155002,296.082377,-8290.306550,0.000000
402.155329,2590.720797,-7476.080014,0.000000
402.155657,2960.823768,-7772.162391,766.095498
402.155985,2516.700203,-8364.327145,995.924147
402.156312,1258.350101,-9918.759623,76.609550
402.156640,-1258.350101,-11103.089130,-459.657299
402.156967,-2368.659014,-11399.171507,-1072.533697
402.157295,-2368.659014,-10807.006753,-1608.800546
402.157622,-1480.411884,-9918.759623,-919.314598
402.157950,1554.432478,-8512.368333,0.000000
402.158278,3552.988522,-7254.018232,689.485948
402.158605,4663.297435,-7550.100608,1991.848295
402.158933,4515.256246,-8438.347739,2298.286494
402.159260,2442.679609,-9400.615463,1685.410096
402.159588,0.000000,-10288.862594,842.705048
402.159915,-2220.617826,-11251.130318,306.438199
402.160243,-2738.761985,-10510.924376,-459.657299
402.160571,-1776.494261,-9844.739029,0.000000
402.160898,222.061783,-8734.430116,995.924147
402.161226,1850.514855,-6883.915261,1608.800546
402.161553,2664.741391,-7476.080014,2374.896044
402.161881,1998.556043,-7920.203579,2451.505594
402.162209,-592.164754,-8660.409521,1302.362347
402.162536,-2516.700203,-9992.780217,919.314598
402.162864,-4145.153275,-10658.965565,995.924147
402.163191,-5107.421000,-9696.697840,-612.876398
402.163519,-3404.947333,-9178.553681,229.828649
402.163846,-1554.432478,-8586.388927,1072.533697
402.164174,74.020594,-6587.832884,1685.410096
402.164502,1776.494261,-6735.874072,2757.943793
402.164829,1258.350101,-7179.997637,2987.772442
402.165157,-814.226536,-8142.265362,1685.410096
402.165484,-1554.432478,-9918.759623,1225.752797
402.165812,-3330.926739,-10732.986159,459.657299
402.166139,-4515.256246,-10584.944971,-1225.752797
402.166467,-2960.823768,-10140.821405,-536.266849
402.166795,-2146.597232,-9178.553681,-612.876398
402.167122,370.102971,-7624.121203,76.609550
402.167450,2812.782580,-7254.018232,919.314598
402.167777,2664.741391,-7476.080014,689.485948
402.168105,2220.617826,-7846.182985,1455.581446
402.168433,666.185348,-9844.739029,76.609550
402.168760,-1554.432478,-11103.089130,-842.705048
402.169088,-2516.700203,-10881.027347,-1378.971896
402.169415,-1480.411884,-10584.944971,-1378.971896
402.169743,-518.144159,-9474.636058,-842.705048
402.170070,2294.638420,-8734.430116,459.657299
402.170398,3701.029710,-7772.162391,766.095498
402.170726,4441.235652,-7772.162391,1532.190996
402.171053,3923.091493,-8660.409521,1838.629195
402.171381,1554.432478,-9104.533087,766.095498
402.171708,-370.102971,-10658.965565,459.657299
402.172036,-1628.453072,-11399.171507,-229.828649
402.172364,-2072.576638,-10510.924376,-766.095498
402.172691,-1184.329507,-9622.677246,-306.438199
402.173019,1184.329507,-8808.450710,153.219100
402.173346,2072.576638,-7402.059420,536.266849
402.173674,2442.679609,-7846.182985,1915.238745
402.174001,1702.473667,-8438.347739,1455.581446
402.174329,-814.226536,-8956.491898,689.485948
402.174657,-2294.638420,-10510.924376,153.219100
402.174984,-3627.009116,-10955.047942,0.000000
402.175312,-4367.215058,-10214.842000,-459.657299
402.175639,-3108.864956,-9548.656652,153.219100
402.175967,-1406.391290,-8734.430116,612.876398
402.176294,222.061783,-7105.977043,1302.362347
402.176622,1702.473667,-6883.915261,2221.676944
402.176950,1406.391290,-7476.080014,2374.896044
402.177277,74.020594,-8290.306550,1762.019645
402.177605,-1480.411884,-9844.739029,1302.362347
402.177932,-2960.823768,-10955.047942,689.485948
402.178260,-3627.009116,-10362.883188,689.485948
402.178588,-2960.823768,-9992.780217,0.000000
402.178915,-1850.514855,-9252.574275,76.609550
402.179243,296.082377,-8216.285956,689.485948
402.179570,1406.391290,-7328.038826,842.705048
402.179898,2442.679609,-7846.182985,1455.581446
402.180225,1554.432478,-8808.450710,1302.362347
402.180553,-296.082377,-9622.677246,459.657299
402.180881,-2072.576638,-10658.965565,-229.828649
402.181208,-2738.761985,-10881.027347,-766.095498
402.181536,-2886.803174,-10214.842000,-1149.143247
402.181863,-1110.308913,-9030.512492,-536.266849
402.182191,1332.370696,-8216.285956,153.219100
402.182519,2960.823768,-7402.059420,766.095498
402.182846,3478.967927,-7179.997637,1455.581446
402.183174,3182.885551,-8364.327145,1532.190996
402.183501,2072.576638,-9474.636058,1072.533697
402.183829,-592.164754,-10362.883188,306.438199
402.184156,-2146.597232,-10955.047942,-306.438199
402.184484,-2294.638420,-10436.903782,-766.095498
402.184812,-1702.473667,-9548.656652,-536.266849
402.185139,148.041188,-8290.306550,612.876398
402.185467,2368.659014,-7402.059420,766.095498
402.185794,2442.679609,-7402.059420,1302.362347
402.186122,2368.659014,-7846.182985,1532.190996
402.186449,814.226536,-8956.491898,612.876398
402.186777,-1554.432478,-10066.800811,229.828649
402.187105,-3034.844362,-10658.965565,153.219100
402.187432,-3701.029710,-10584.944971,-153.219100
402.187760,-2812.782580,-9548.656652,-306.438199
402.188087,-1406.391290,-8586.388927,536.266849
402.188415,666.185348,-7624.121203,1532.190996
402.188743,1628.453072,-6661.853478,1685.410096
402.189070,1628.453072,-7624.121203,1838.629195
402.189398,592.164754,-8882.471304,1762.019645
402.189725,-1110.308913,-9844.739029,919.314598
402.190053,-3034.844362,-10658.965565,76.609550
402.190380,-3627.009116,-11029.068536,-229.828649
402.190708,-3034.844362,-9770.718434,-229.828649
402.191036,-1850.514855,-8586.388927,0.000000
402.191363,148.041188,-7846.182985,306.438199
402.191691,1776.494261,-7031.956449,842.705048
402.192018,2220.617826,-7105.977043,1072.533697
402.192346,1480.411884,-7846.182985,1225.752797
402.192673,-592.164754,-9844.739029,383.047749
402.193001,-1998.556043,-10658.965565,-383.047749
402.193329,-3182.885551,-11769.274478,-536.266849
402.193656,-3108.864956,-10510.924376,-689.485948
402.193984,-1554.432478,-8882.471304,0.000000
402.194311,518.144159,-8216.285956,383.047749
402.194639,2812.782580,-7031.956449,1072.533697
402.194967,3923.091493,-7402.059420,2068.457845
402.195294,3034.844362,-8142.265362,1838.629195
402.195622,1406.391290,-9474.636058,1685.410096
402.195949,0.000000,-10881.027347,689.485948
402.196277,-2146.597232,-10955.047942,0.000000
402.196604,-1850.514855,-10658.965565,0.000000
402.196932,-888.247130,-9918.759623,229.828649
402.197260,222.061783,-8068.244768,919.314598
402.197587,1998.556043,-7772.162391,2145.067394
402.197915,2072.576638,-7920.203579,2068.457845
402.198242,1258.350101,-8068.244768,1685.410096
402.198570,74.020594,-9622.677246,1455.581446
402.198898,-1850.514855,-11103.089130,919.314598
402.199225,-3923.091493,-10732.986159,76.609550
402.199553,-3849.070898,-10436.903782,-459.657299
402.199880,-3256.906145,-9622.677246,-766.095498
402.200208,-1258.350101,-8438.347739,383.047749
402.200535,370.102971,-6735.874072,842.705048
402.200863,1850.514855,-6661.853478,1915.238745
402.201191,1554.432478,-7179.997637,1838.629195
402.201518,222.061783,-8586.388927,1455.581446
402.201846,-1628.453072,-9918.759623,919.314598
402.202173,-2368.659014,-11029.068536,689.485948
402.202501,-3330.926739,-10288.862594,-306.438199
402.202828,-2516.700203,-10066.800811,-229.828649
402.203156,-666.185348,-9326.594869,306.438199
402.203484,814.226536,-7772.162391,459.657299
402.203811,2516.700203,-7550.100608,1455.581446
402.204139,3330.926739,-7254.018232,1991.848295
402.204466,1480.411884,-7698.141797,1149.143247
402.204794,518.144159,-9696.697840,536.266849
402.205122,-1554.432478,-11103.089130,-306.438199
402.205449,-2886.803174,-10881.027347,-766.095498
402.205777,-2368.659014,-10807.006753,-1225.752797
402.206104,-1554.432478,-9548.656652,-1149.143247
402.206432,518.144159,-8364.327145,0.000000
402.206759,2294.638420,-7402.059420,612.876398
402.207087,3330.926739,-7624.121203,1762.019645
402.207415,2664.741391,-8068.244768,1532.190996
402.207742,0.000000,-9178.553681,1225.752797
402.208070,-1406.391290,-10066.800811,153.219100
402.208397,-2368.659014,-10510.924376,-306.438199
402.208725,-3256.906145,-9918.759623,-1225.752797
402.209052,-1998.556043,-9474.636058,-689.485948
402.209380,0.000000,-8512.368333,-459.657299
402.209708,1110.308913,-6809.894666,612.876398
402.210035,2738.761985,-7254.018232,1685.410096
402.210363,2368.659014,-7846.182985,1608.800546
402.210690,222.061783,-8512.368333,689.485948
402.211018,-1110.308913,-10584.944971,306.438199
402.211346,-2220.617826,-11695.253884,0.000000
402.211673,-3478.967927,-10510.924376,-536.266849
402.212001,-2146.597232,-10362.883188,0.000000
402.212328,-1036.288319,-9178.553681,76.609550
402.212656,1406.391290,-7846.182985,1378.971896
402.212983,2516.700203,-7105.977043,2221.676944
402.213311,2072.576638,-7698.141797,2298.286494
402.213639,814.226536,-8142.265362,2221.676944
402.213966,-888.247130,-9622.677246,1149.143247
402.214294,-2812.782580,-10807.006753,229.828649
402.214621,-3404.947333,-10288.862594,76.609550
402.214949,-2590.720797,-9696.697840,-229.828649
402.215277,-1924.535449,-9030.512492,76.609550
402.215604,740.205942,-7846.182985,1455.581446
402.215932,1776.494261,-6957.935855,1378.971896
402.216259,2368.659014,-7328.038826,2298.286494
402.216587,1554.432478,-8882.471304,1991.848295
402.216914,-1258.350101,-9548.656652,536.266849
402.217242,-3108.864956,-10807.006753,0.000000
402.217570,-3552.988522,-11473.192101,-153.219100
402.217897,-3256.906145,-9844.739029,-995.924147
402.218225,-1554.432478,-9252.574275,76.609550
402.218552,1110.308913,-8438.347739,383.047749
402.218880,2294.638420,-6957.935855,919.314598
402.219207,2886.803174,-7550.100608,1838.629195
402.219535,2294.638420,-8290.306550,1915.238745
402.219863,222.061783,-8808.450710,919.314598
402.220190,-888.247130,-10658.965565,612.876398
402.220518,-2368.659014,-11325.150913,0.000000
402.220845,-2738.761985,-10436.903782,-459.657299
402.221173,-1184.329507,-9844.739029,0.000000
402.221501,148.041188,-8808.450710,689.485948
402.221828,1924.535449,-7772.162391,1149.143247
402.222156,2590.720797,-7328.038826,1302.362347
402.222483,1998.556043,-8438.347739,919.314598
402.222811,518.144159,-9104.533087,995.924147
402.223138,-962.267725,-9696.697840,76.609550
402.223466,-2516.700203,-10807.006753,-153.219100
402.223794,-2812.782580,-10214.842000,-766.095498
402.224121,-2072.576638,-9770.718434,-842.705048
402.224449,-1036.288319,-8882.471304,0.000000
402.224776,1258.350101,-7772.162391,995.924147
402.225104,2368.659014,-7105.977043,1455.581446
402.225432,2220.617826,-8068.244768,1685.410096
402.225759,1184.329507,-9178.553681,1608.800546
402.226087,-740.205942,-10066.800811,689.485948
402.226414,-2220.617826,-10658.965565,459.657299
402.226742,-2368.659014,-10955.047942,0.000000
402.227069,-2294.638420,-9770.718434,0.000000
402.227397,-814.226536,-8808.450710,153.219100
402.227725,1036.288319,-7920.203579,766.095498
402.228052,2368.659014,-7179.997637,1302.362347
402.228380,2368.659014,-7179.997637,1225.752797
402.228707,1110.308913,-8290.306550,1685.410096
402.229035,-518.144159,-9548.656652,766.095498
402.229362,-2886.803174,-10140.821405,0.000000
402.229690,-3330.926739,-10955.047942,-383.047749
402.230018,-3034.844362,-9918.759623,-612.876398
402.230345,-2516.700203,-9030.512492,-383.047749
402.230673,-444.123565,-7994.224174,76.609550
402.231000,1776.494261,-7402.059420,842.705048
402.231328,2220.617826,-7179.997637,1378.971896
402.231656,1850.514855,-8068.244768,2374.896044
402.231983,518.144159,-9400.615463,1608.800546
402.232311,-1406.391290,-10362.883188,153.219100
402.232638,-2812.782580,-11103.089130,-153.219100
402.232966,-3182.885551,-10658.965565,-459.657299
402.233293,-2072.576638,-9622.677246,-536.266849
402.233621,148.041188,-8586.388927,383.047749
402.233949,2072.576638,-7772.162391,1072.533697
402.234276,3034.844362,-7179.997637,1532.190996
402.234604,2664.741391,-7550.100608,1532.190996
402.234931,1628.453072,-9252.574275,919.314598
402.235259,0.000000,-10066.800811,459.657299
402.235586,-2590.720797,-10807.006753,-689.485948
402.235914,-2960.823768,-10881.027347,-842.705048
402.236242,-2220.617826,-9992.780217,-383.047749
402.236569,-814.226536,-8734.430116,153.219100
402.236897,1184.329507,-7476.080014,919.314598
402.237224,2368.659014,-7179.997637,1762.019645
402.237552,2590.720797,-7179.997637,1685.410096
402.237880,1036.288319,-8734.430116,1532.190996
402.238207,-888.247130,-10066.800811,689.485948
402.238535,-2368.659014,-10362.883188,0.000000
402.238862,-3034.844362,-10732.986159,306.438199
402.239190,-2960.823768,-9696.697840,-383.047749
402.239517,-1702.473667,-8808.450710,153.219100
402.239845,592.164754,-8068.244768,1302.362347
402.240173,2072.576638,-7105.977043,919.314598
402.240500,2664.741391,-7476.080014,1915.238745
402.240828,1924.535449,-8586.388927,1378.971896
402.241155,-962.267725,-9622.677246,536.266849
402.241483,-2146.597232,-11399.171507,229.828649
402.241811,-3108.864956,-10807.006753,-459.657299
402.242138,-3256.906145,-10140.821405,-842.705048
402.242466,-518.144159,-9622.677246,229.828649
402.242793,740.205942,-7698.141797,459.657299
402.243121,2072.576638,-7328.038826,1455.581446
402.243448,3034.844362,-7772.162391,2298.286494
402.243776,1776.494261,-7550.100608,1072.533697
402.244104,370.102971,-9326.594869,1608.800546
402.244431,-1406.391290,-10584.944971,383.047749
402.244759,-3108.864956,-11177.109724,-383.047749
402.245086,-3034.844362,-10510.924376,-766.095498
402.245414,-2442.679609,-9548.656652,-383.047749
402.245741,-148.041188,-8586.388927,383.047749
402.246069,1480.411884,-7105.977043,383.047749
402.246397,2664.741391,-7328.038826,1302.362347
402.246724,2220.617826,-7920.203579,1302.362347
402.247052,0.000000,-8956.491898,612.876398
402.247379,-740.205942,-10510.924376,383.047749
402.247707,-2442.679609,-10881.027347,-536.266849
402.248034,-3034.844362,-10362.883188,-1225.752797
402.248362,-2294.638420,-10066.800811,-842.705048
402.248689,0.000000,-9252.574275,459.657299
402.249017,1480.411884,-7179.997637,995.924147
402.249344,2516.700203,-7328.038826,1915.238745
402.249672,3108.864956,-7994.224174,2298.286494
402.249999,1036.288319,-8512.368333,1225.752797
402.250327,0.000000,-10140.821405,1149.143247
402.250654,-1480.411884,-10732.986159,229.828649
402.250982,-2664.741391,-10732.986159,-459.657299
402.251309,-2220.617826,-10214.842000,-459.657299
402.251637,-962.267725,-9030.512492,0.000000
402.251964,370.102971,-8142.265362,612.876398
402.252292,2072.576638,-7179.997637,1378.971896
402.252619,2368.659014,-7179.997637,1685.410096
402.252947,1702.473667,-8364.327145,1608.800546
402.253274,-740.205942,-9104.533087,1225.752797
402.253602,-2442.679609,-10807.006753,229.828649
402.253929,-3330.926739,-11029.068536,-383.047749
402.254257,-3256.906145,-10066.800811,-1072.533697
402.254584,-2220.617826,-9548.656652,-383.047749
402.254912,444.123565,-8512.368333,842.705048
402.255239,1628.453072,-6809.894666,1455.581446
402.255567,2812.782580,-7402.059420,2451.505594
402.255894,2738.761985,-7994.224174,1762.019645
402.256222,-592.164754,-8438.347739,995.924147
402.256549,-1480.411884,-10436.903782,766.095498
402.256877,-2886.803174,-11029.068536,0.000000
402.257204,-3627.009116,-10140.821405,-689.485948
402.257532,-1924.535449,-9622.677246,0.000000
402.257859,-444.123565,-8364.327145,536.266849
402.258187,1184.329507,-7179.997637,1149.143247
402.258514,2516.700203,-7550.100608,1762.019645
402.258842,1998.556043,-8068.244768,1762.019645
402.259169,74.020594,-9030.512492,1149.143247
402.259497,-1406.391290,-10955.047942,0.000000
402.259824,-2960.823768,-11325.150913,-459.657299
402.260152,-3404.947333,-10288.862594,-766.095498
402.260479,-1850.514855,-9548.656652,-306.438199
402.260807,-740.205942,-8882.471304,76.609550
402.261134,1998.556043,-7624.121203,1225.752797
402.261462,3182.885551,-7402.059420,1838.629195
402.261789,2368.659014,-7846.182985,1915.238745
402.262117,1480.411884,-8734.430116,1608.800546
402.262444,-444.123565,-10066.800811,612.876398
402.262772,-1702.473667,-10807.006753,0.000000
402.263099,-2738.761985,-10807.006753,-459.657299
402.263427,-2072.576638,-9918.759623,-689.485948
402.263754,-1258.350101,-9252.574275,-536.266849
402.264082,1110.308913,-8216.285956,612.876398
402.264409,2368.659014,-7179.997637,919.314598
402.264737,2442.679609,-7846.182985,1762.019645
402.265065,1628.453072,-9030.512492,1302.362347
402.265392,-370.102971,-9548.656652,153.219100
402.265720,-2590.720797,-10732.986159,0.000000
402.266047,-2960.823768,-11103.089130,-229.828649
402.266375,-2442.679609,-10214.842000,-612.876398
402.266702,-1184.329507,-9252.574275,0.000000
402.267030,1258.350101,-8438.347739,1072.533697
402.267357,2294.638420,-7179.997637,1685.410096
402.267685,3034.844362,-7624.121203,2374.896044
402.268012,2516.700203,-8216.285956,2221.676944
402.268340,0.000000,-9030.512492,1225.752797
402.268667,-1554.432478,-10436.903782,612.876398
402.268995,-2812.782580,-10955.047942,-229.828649
402.269322,-3108.864956,-10066.800811,-306.438199
402.269650,-1924.535449,-8882.471304,0.000000
402.269977,-370.102971,-7994.224174,0.000000
402.270305,1184.329507,-7328.038826,919.314598
402.270632,2146.597232,-7105.977043,1072.533697
402.270960,1332.370696,-7772.162391,919.314598
402.271287,148.041188,-8956.491898,459.657299
402.271615,-1406.391290,-9918.759623,-229.828649
402.271942,-2812.782580,-11103.089130,-306.438199
402.272270,-2886.803174,-10214.842000,-612.876398
402.272597,-2294.638420,-9474.636058,-459.657299
402.272925,-740.205942,-8660.409521,0.000000
402.273252,1628.453072,-7624.121203,995.924147
402.273580,2220.617826,-7179.997637,1149.143247
402.273907,2738.761985,-7772.162391,1608.800546
402.274235,1850.514855,-9030.512492,1532.190996
402.274562,-222.061783,-9918.759623,612.876398
402.274890,-1776.494261,-10955.047942,-153.219100
402.275217,-2516.700203,-10955.047942,229.828649
402.275545,-2220.617826,-9992.780217,-383.047749
402.275872,-962.267725,-9400.615463,76.609550
402.276200,962.267725,-8734.430116,612.876398
402.276527,1776.494261,-7402.059420,1378.971896
402.276855,2442.679609,-7550.100608,1378.971896
402.277182,1406.391290,-8808.450710,1225.752797
402.277510,-148.041188,-9548.656652,842.705048
402.277837,-2368.659014,-10584.944971,0.000000
402.278165,-3404.947333,-10436.903782,-229.828649
402.278492,-3552.988522,-9918.759623,-689.485948
402.278820,-2072.576638,-8734.430116,-153.219100
402.279147,-370.102971,-7846.182985,536.266849
402.279475,1924.535449,-7179.997637,1532.190996
402.279802,2516.700203,-7105.977043,1915.238745
402.280130,2368.659014,-7550.100608,2068.457845
402.280457,148.041188,-9326.594869,1455.581446
402.280785,-1258.350101,-10510.924376,995.924147
402.281112,-3108.864956,-11103.089130,0.000000
402.281440,-2960.823768,-10732.986159,0.000000
402.281767,-1702.473667,-9918.759623,536.266849
402.282095,-296.082377,-8882.471304,842.705048
402.282422,1184.329507,-7994.224174,1072.533697
402.282750,2220.617826,-7550.100608,1378.971896
402.283077,1924.535449,-7772.162391,1302.362347
402.283405,444.123565,-8956.491898,919.314598
402.283732,-1036.288319,-10288.862594,153.219100
402.284060,-2368.659014,-10955.047942,-536.266849
402.284387,-3330.926739,-11029.068536,-689.485948
402.284715,-2590.720797,-9770.718434,-766.095498
402.285042,-1184.329507,-8956.491898,0.000000
402.285370,888.247130,-7846.182985,689.485948
402.285697,2294.638420,-7179.997637,1225.752797
402.286025,2590.720797,-7328.038826,1532.190996
402.286352,1998.556043,-8734.430116,1072.533697
402.286680,444.123565,-9770.718434,842.705048
402.287007,-1480.411884,-9992.780217,0.000000
402.287335,-2442.679609,-10510.924376,-229.828649
402.287662,-1924.535449,-9992.780217,0.000000
402.287990,-814.226536,-8808.450710,306.438199
402.288317,740.205942,-7994.224174,919.314598
402.288645,2442.679609,-7402.059420,1302.362347
402.288972,3034.844362,-7550.100608,1378.971896
402.289300,1924.535449,-8586.388927,1225.752797
402.289628,222.061783,-9844.739029,459.657299
402.289955,-1480.411884,-11029.068536,0.000000
402.290283,-3034.844362,-10955.047942,-229.828649
402.290610,-2664.741391,-10732.986159,-383.047749
402.290938,-1628.453072,-9030.512492,229.828649
402.291265,222.061783,-7624.121203,1149.143247
402.291593,1702.473667,-6957.935855,1915.238745
402.291920,2368.659014,-6513.812290,2221.676944
402.292248,2368.659014,-7624.121203,2145.067394
402.292575,-222.061783,-8586.388927,1149.143247
402.292903,-2072.576638,-9622.677246,689.485948
402.293230,-2886.803174,-10732.986159,459.657299
402.293558,-3701.029710,-9992.780217,0.000000
402.293885,-2738.761985,-9252.574275,766.095498
402.294213,-666.185348,-7920.203579,1225.752797
402.294540,814.226536,-7105.977043,1532.190996
402.294868,962.267725,-7402.059420,1915.238745
402.295195,962.267725,-7624.121203,1532.190996
402.295523,0.000000,-8956.491898,1149.143247
402.295850,-1184.329507,-10732.986159,153.219100
402.296178,-3182.885551,-10807.006753,-612.876398
402.296505,-3775.050304,-10881.027347,-1149.143247
402.296833,-3404.947333,-10436.903782,-995.924147
402.297160,-1480.411884,-8438.347739,-536.266849
402.297488,814.226536,-7772.162391,766.095498
402.297815,2072.576638,-7179.997637,1072.533697
402.298143,2590.720797,-7179.997637,1302.362347
402.298470,2294.638420,-9178.553681,1378.971896
402.298798,222.061783,-10140.821405,459.657299
