#time,accel_x,accel_y,accel_z
576.849487,-222.061783,-9104.533087,383.047749
576.849815,-296.082377,-8882.471304,995.924147
576.850143,0.000000,-9326.594869,306.438199
576.850471,-296.082377,-9030.512492,459.657299
576.850799,-296.082377,-9178.553681,612.876398
576.851127,-370.102971,-9178.553681,536.266849
576.851455,-148.041188,-9178.553681,995.924147
576.851783,0.000000,-9030.512492,919.314598
576.852110,-222.061783,-9178.553681,689.485948
576.852438,-222.061783,-8956.491898,459.657299
576.852766,-296.082377,-9178.553681,766.095498
576.853094,-222.061783,-9104.533087,536.266849
576.853422,148.041188,-9326.594869,995.924147
576.853750,-370.102971,-8882.471304,459.657299
576.854078,-370.102971,-9178.553681,459.657299
576.854406,-370.102971,-9030.512492,689.485948
576.854734,-148.041188,-9252.574275,612.876398
576.855061,-296.082377,-9030.512492,306.438199
576.855389,-296.082377,-8734.430116,689.485948
576.855717,-370.102971,-9030.512492,459.657299
576.856045,-222.061783,-9252.574275,612.876398
576.856373,-222.061783,-9030.512492,383.047749
576.856701,-370.102971,-9030.512492,612.876398
576.857029,-592.164754,-9030.512492,766.095498
576.857357,0.000000,-9326.594869,306.438199
576.857684,-296.082377,-9104.533087,612.876398
576.858012,-148.041188,-9104.533087,536.266849
576.858340,0.000000,-9474.636058,1072.533697
576.858668,-222.061783,-9104.533087,689.485948
576.858996,-296.082377,-9178.553681,306.438199
576.859324,-666.185348,-9252.574275,383.047749
576.859652,-1036.288319,-9400.615463,153.219100
576.859980,-1258.350101,-9548.656652,-229.828649
576.860307,-1110.308913,-8808.450710,-306.438199
576.860635,-962.267725,-9178.553681,-383.047749
576.860963,-444.123565,-8956.491898,-306.438199
576.861291,-592.164754,-9030.512492,-306.438199
576.861619,-814.226536,-9252.574275,-612.876398
576.861947,-666.185348,-9178.553681,-919.314598
576.862275,-1554.432478,-8808.450710,-1455.581446
576.862603,-1258.350101,-9104.533087,-1378.971896
576.862931,-1036.288319,-9104.533087,-1302.362347
576.863258,-592.164754,-9252.574275,-1532.190996
576.863586,-296.082377,-8956.491898,-1225.752797
576.863914,-74.020594,-8882.471304,-766.095498
576.864242,0.000000,-9178.553681,-1532.190996
576.864570,-370.102971,-9178.553681,-1455.581446
576.864898,0.000000,-9252.574275,-1762.019645
576.865226,148.041188,-9326.594869,-1762.019645
576.865554,370.102971,-9178.553681,-1838.629195
576.865881,370.102971,-9252.574275,-1608.800546
576.866209,222.061783,-9400.615463,-1608.800546
576.866537,592.164754,-9326.594869,-1762.019645
576.866865,370.102971,-9326.594869,-1762.019645
576.867193,592.164754,-9474.636058,-2145.067394
576.867521,444.123565,-9474.636058,-1685.410096
576.867849,148.041188,-9252.574275,-1915.238745
576.868177,222.061783,-8882.471304,-1915.238745
576.868504,296.082377,-9326.594869,-1915.238745
576.868832,222.061783,-9252.574275,-1991.848295
576.869160,-370.102971,-9104.533087,-1838.629195
576.869488,-518.144159,-9104.533087,-1915.238745
576.869816,-1036.288319,-9030.512492,-1991.848295
576.870144,-1184.329507,-9326.594869,-1991.848295
576.870472,-1258.350101,-8956.491898,-2298.286494
576.870800,-1554.432478,-8586.388927,-3140.991542
576.871128,-1702.473667,-9178.553681,-2834.553343
576.871455,-1924.535449,-9030.512492,-3140.991542
576.871783,-2146.597232,-9104.533087,-3140.991542
576.872111,-2146.597232,-9030.512492,-3447.429741
576.872439,-2072.576638,-8586.388927,-3447.429741
576.872767,-1924.535449,-8808.450710,-4060.306139
576.873095,-1998.556043,-9178.553681,-4213.525239
576.873423,-1850.514855,-8882.471304,-4366.744339
576.873751,-1110.308913,-8882.471304,-3830.477490
576.874078,0.000000,-8364.327145,-3600.648841
576.874406,296.082377,-8882.471304,-3217.601092
576.874734,962.267725,-9178.553681,-3064.381992
576.875062,1628.453072,-9178.553681,-2451.505594
576.875390,2146.597232,-9030.512492,-2451.505594
576.875718,2072.576638,-9178.553681,-1608.800546
576.876046,2072.576638,-9844.739029,-2068.457845
576.876374,1258.350101,-10214.842000,-2451.505594
576.876702,370.102971,-10288.862594,-2451.505594
576.877029,-592.164754,-10362.883188,-3217.601092
576.877357,-1406.391290,-10362.883188,-4366.744339
576.877685,-1776.494261,-10066.800811,-3830.477490
576.878013,-1702.473667,-9400.615463,-4903.011187
576.878341,-666.185348,-8882.471304,-4443.353888
576.878669,518.144159,-7920.203579,-3983.696590
576.878997,2146.597232,-7328.038826,-3524.039291
576.879325,2886.803174,-7105.977043,-2528.115143
576.879652,2664.741391,-7624.121203,-2145.067394
576.879980,1628.453072,-8734.430116,-1685.410096
576.880308,0.000000,-9548.656652,-1838.629195
576.880636,-2072.576638,-10288.862594,-2145.067394
576.880964,-2960.823768,-10658.965565,-1915.238745
576.881292,-2960.823768,-10510.924376,-2451.505594
576.881620,-2220.617826,-10066.800811,-2145.067394
576.881948,-518.144159,-9252.574275,-1838.629195
576.882275,1554.432478,-7772.162391,-1072.533697
576.882603,4959.379811,-5921.647536,919.314598
576.882931,9030.512492,-4737.318029,2757.943793
576.883259,10732.986159,-5773.606348,4213.525239
576.883587,8364.327145,-7994.224174,4596.572988
576.883915,2590.720797,-11547.212695,3983.696590
576.884243,-4145.153275,-13619.789333,2528.115143
576.884571,-9252.574275,-14656.077652,919.314598
576.884899,-12065.356855,-14508.036463,-1302.362347
576.885226,-11621.233289,-13175.665768,-2221.676944
576.885554,-9548.656652,-10881.027347,-2528.115143
576.885882,-3108.864956,-7846.182985,-2221.676944
576.886210,-2590.720797,-5107.421000,-1915.238745
576.886538,-1036.288319,-3849.070898,-3677.258390
576.886866,-3849.070898,-5329.482782,-5209.449386
576.887194,-9030.512492,-7105.977043,-7737.564530
576.887522,-12361.439231,-8734.430116,-9882.631924
576.887849,-14656.077652,-8956.491898,-11031.775171
576.888177,-11843.295072,-8068.244768,-10035.851024
576.888505,-7698.141797,-8290.306550,-8733.488677
576.888833,-370.102971,-6735.874072,-6894.859482
576.889161,3478.967927,-7105.977043,-5669.106685
576.889489,5699.585753,-8216.285956,-5132.839837
576.889817,4367.215058,-9252.574275,-5898.935335
576.890145,4293.194464,-10732.986159,-6818.249932
576.890472,5033.400406,-10584.944971,-7354.516781
576.890800,9030.512492,-10658.965565,-5209.449386
576.891128,12361.439231,-10658.965565,-3294.210641
576.891456,12657.521608,-10066.800811,-2451.505594
576.891784,14211.954086,-10288.862594,-1225.752797
576.892112,13471.748144,-10288.862594,-1915.238745
576.892440,14211.954086,-8956.491898,-842.705048
576.892768,15174.221811,-10510.924376,-842.705048
576.893096,11325.150913,-11029.068536,-2221.676944
576.893423,5181.441594,-13175.665768,-2757.943793
576.893751,-3404.947333,-14211.954086,-5286.058936
576.894079,-11547.212695,-14656.077652,-7814.174080
576.894407,-10584.944971,-10658.965565,-8427.050478
576.894735,-3775.050304,-5255.462188,-7354.516781
576.895063,1406.391290,-2220.617826,-3983.696590
576.895391,5921.647536,-1480.411884,-1455.581446
576.895719,3627.009116,-2294.638420,0.000000
576.896046,-1480.411884,-3701.029710,-612.876398
576.896374,-4293.194464,-4441.235652,-1455.581446
576.896702,-7698.141797,-7328.038826,-689.485948
576.897030,-7476.080014,-8068.244768,-1149.143247
576.897358,-7476.080014,-9770.718434,842.705048
576.897686,-5773.606348,-10436.903782,3524.039291
576.898014,-4219.173869,-8956.491898,5515.887586
576.898342,-1628.453072,-7550.100608,5822.325785
576.898670,-1258.350101,-7698.141797,3677.258390
576.898997,-2960.823768,-10732.986159,1455.581446
576.899325,-5477.523971,-11843.295072,-536.266849
576.899653,-7328.038826,-10955.047942,-1762.019645
576.899981,-4811.338623,-9178.553681,-1225.752797
576.900309,-1554.432478,-8142.265362,0.000000
576.900637,-296.082377,-9030.512492,842.705048
576.900965,-148.041188,-9696.697840,1149.143247
576.901293,-3627.009116,-9696.697840,306.438199
576.901620,-4885.359217,-9178.553681,842.705048
576.901948,-4737.318029,-9770.718434,-689.485948
576.902276,-3627.009116,-11251.130318,-1302.362347
576.902604,-2812.782580,-11843.295072,-2528.115143
576.902932,-3182.885551,-10658.965565,-1991.848295
576.903260,-740.205942,-7994.224174,-1149.143247
576.903588,74.020594,-7328.038826,-1302.362347
576.903916,888.247130,-6143.709319,-2374.896044
576.904243,1924.535449,-7179.997637,-3983.696590
576.904571,3775.050304,-8216.285956,-4519.963438
576.904899,4737.318029,-8142.265362,-4903.011187
576.905227,6735.874072,-8512.368333,-3524.039291
576.905555,4811.338623,-10584.944971,-3830.477490
576.905883,4219.173869,-13767.830521,-3907.087040
576.906211,3627.009116,-14582.057057,-3600.648841
576.906539,3108.864956,-13989.892304,-3907.087040
576.906867,2368.659014,-12361.439231,-4443.353888
576.907194,592.164754,-11547.212695,-4060.306139
576.907522,1406.391290,-11399.171507,-3830.477490
576.907850,2368.659014,-10436.903782,-3064.381992
576.908178,2294.638420,-9178.553681,-3370.820191
576.908506,1110.308913,-8882.471304,-4213.525239
576.908833,-666.185348,-8660.409521,-4749.792088
576.909161,-1776.494261,-8068.244768,-5439.278036
576.909489,-2146.597232,-7254.018232,-5745.716235
576.909817,-1850.514855,-6735.874072,-5439.278036
576.910144,-518.144159,-5107.421000,-4366.744339
576.910472,1110.308913,-4737.318029,-2834.553343
576.910800,1184.329507,-4737.318029,-1838.629195
576.911128,148.041188,-6883.915261,-1532.190996
576.911455,-1110.308913,-8586.388927,-2145.067394
576.911783,-1776.494261,-9474.636058,-2451.505594
576.912111,-2516.700203,-10140.821405,-2757.943793
576.912438,-3701.029710,-10066.800811,-2374.896044
576.912766,-2960.823768,-8956.491898,-1685.410096
576.913094,-814.226536,-7920.203579,-842.705048
576.913422,74.020594,-7698.141797,-1225.752797
576.913749,-1554.432478,-8660.409521,-1838.629195
576.914077,-2368.659014,-8660.409521,-2987.772442
576.914405,-2886.803174,-8734.430116,-3830.477490
576.914732,-1776.494261,-9178.553681,-3830.477490
576.915060,-666.185348,-8734.430116,-3447.429741
576.915388,2516.700203,-7772.162391,-1378.971896
576.915716,5477.523971,-5995.668130,842.705048
576.916043,5477.523971,-5699.585753,1915.238745
576.916371,3404.947333,-7328.038826,2221.676944
576.916699,1184.329507,-8438.347739,1225.752797
576.917026,-444.123565,-9104.533087,766.095498
576.917354,-962.267725,-9844.739029,995.924147
576.917682,-1332.370696,-9992.780217,1225.752797
576.918010,666.185348,-8956.491898,1838.629195
576.918337,1776.494261,-8956.491898,1991.848295
576.918665,1628.453072,-9548.656652,1915.238745
576.918993,-592.164754,-8734.430116,153.219100
576.919320,-1998.556043,-7994.224174,-1225.752797
576.919648,-3775.050304,-9030.512492,-2145.067394
576.919976,-4071.132681,-9252.574275,-2145.067394
576.920304,-3404.947333,-9918.759623,-1532.190996
576.920631,-962.267725,-10288.862594,-536.266849
576.920959,296.082377,-10881.027347,229.828649
576.921287,-1850.514855,-11399.171507,842.705048
576.921614,-3923.091493,-11399.171507,0.000000
576.921942,-5329.482782,-11251.130318,-766.095498
576.922270,-5477.523971,-10881.027347,-689.485948
576.922598,-3849.070898,-9326.594869,153.219100
576.922925,-1480.411884,-7476.080014,459.657299
576.923253,1036.288319,-7550.100608,1762.019645
576.923581,1702.473667,-7846.182985,2068.457845
576.923908,1480.411884,-8586.388927,1532.190996
576.924236,1406.391290,-8142.265362,689.485948
576.924564,1776.494261,-9104.533087,612.876398
576.924892,2368.659014,-9474.636058,919.314598
576.925219,2590.720797,-9474.636058,1302.362347
576.925547,3256.906145,-10658.965565,2145.067394
576.925875,2886.803174,-11399.171507,2451.505594
576.926202,1184.329507,-11917.315666,2145.067394
576.926530,-370.102971,-11621.233289,459.657299
576.926858,296.082377,-12065.356855,1455.581446
576.927186,1184.329507,-11325.150913,842.705048
576.927513,-296.082377,-10732.986159,229.828649
576.927841,-962.267725,-10510.924376,-76.609550
576.928169,-2516.700203,-10066.800811,0.000000
576.928496,-3330.926739,-9252.574275,-919.314598
576.928824,-4663.297435,-8142.265362,-1915.238745
576.929152,-3108.864956,-8512.368333,-1685.410096
576.929480,-2516.700203,-7550.100608,-2451.505594
576.929807,-1406.391290,-6809.894666,-1378.971896
576.930135,-962.267725,-6809.894666,-1762.019645
576.930463,-666.185348,-6957.935855,-1225.752797
576.930790,-1258.350101,-7105.977043,-1072.533697
576.931118,-1332.370696,-7328.038826,-1302.362347
576.931446,-1406.391290,-7994.224174,-919.314598
576.931774,-518.144159,-8068.244768,0.000000
576.932101,0.000000,-8364.327145,153.219100
576.932429,1184.329507,-8734.430116,1072.533697
576.932757,1702.473667,-9030.512492,1608.800546
576.933084,3034.844362,-9178.553681,1838.629195
576.933412,3108.864956,-8734.430116,689.485948
576.933740,3923.091493,-9548.656652,1608.800546
576.934068,4219.173869,-9770.718434,1915.238745
576.934395,3701.029710,-9474.636058,2451.505594
576.934723,2886.803174,-9548.656652,2145.067394
576.935051,2368.659014,-10288.862594,3064.381992
576.935378,740.205942,-9622.677246,2451.505594
576.935706,-1554.432478,-8882.471304,1455.581446
576.936034,-1480.411884,-8660.409521,1608.800546
576.936362,0.000000,-7550.100608,1302.362347
576.936689,-666.185348,-7402.059420,1991.848295
576.937017,-1480.411884,-7105.977043,1532.190996
576.937345,-2590.720797,-7476.080014,1455.581446
576.937672,-4219.173869,-7105.977043,919.314598
576.938000,-4737.318029,-6809.894666,536.266849
576.938328,-4589.276840,-6883.915261,153.219100
576.938656,-2738.761985,-7328.038826,383.047749
576.938983,-1110.308913,-7105.977043,383.047749
576.939311,-1628.453072,-7698.141797,536.266849
576.939639,-1628.453072,-9326.594869,1149.143247
576.939967,-2516.700203,-9326.594869,0.000000
576.940294,-3404.947333,-9918.759623,-689.485948
576.940622,-2960.823768,-10436.903782,-1072.533697
576.940950,-518.144159,-10362.883188,-306.438199
576.941277,1258.350101,-10140.821405,459.657299
576.941605,2072.576638,-10288.862594,612.876398
576.941933,2368.659014,-10955.047942,1302.362347
576.942261,1480.411884,-11695.253884,919.314598
576.942588,74.020594,-11621.233289,76.609550
576.942916,148.041188,-11917.315666,306.438199
576.943244,1184.329507,-11399.171507,612.876398
576.943571,3182.885551,-9992.780217,995.924147
576.943899,3923.091493,-9622.677246,1378.971896
576.944227,3182.885551,-10658.965565,1762.019645
576.944555,2368.659014,-11029.068536,2374.896044
576.944882,0.000000,-9104.533087,306.438199
576.945210,-1036.288319,-9548.656652,229.828649
576.945538,148.041188,-9844.739029,-612.876398
576.945865,296.082377,-10584.944971,76.609550
576.946193,222.061783,-9992.780217,0.000000
576.946521,592.164754,-9992.780217,1225.752797
576.946849,-222.061783,-9844.739029,1225.752797
576.947176,-2072.576638,-10066.800811,-229.828649
576.947504,-2738.761985,-10510.924376,-536.266849
576.947832,-2294.638420,-9622.677246,-459.657299
576.948159,-370.102971,-8660.409521,-459.657299
576.948487,-518.144159,-8882.471304,383.047749
576.948815,-740.205942,-9548.656652,766.095498
576.949143,-1702.473667,-9548.656652,689.485948
576.949470,-3627.009116,-8956.491898,76.609550
576.949798,-4441.235652,-8882.471304,-383.047749
576.950126,-3330.926739,-8438.347739,-229.828649
576.950453,-1480.411884,-6957.935855,0.000000
576.950781,888.247130,-6439.791695,612.876398
576.951109,2072.576638,-7105.977043,1685.410096
576.951437,1628.453072,-7476.080014,1838.629195
576.951764,0.000000,-7698.141797,1302.362347
576.952092,0.000000,-8068.244768,1532.190996
576.952420,1406.391290,-7994.224174,1915.238745
576.952747,2516.700203,-8290.306550,2374.896044
576.953075,2442.679609,-8660.409521,2757.943793
576.953403,1480.411884,-9696.697840,3217.601092
576.953731,74.020594,-9252.574275,2221.676944
576.954058,-1258.350101,-8438.347739,1685.410096
576.954386,-1406.391290,-8512.368333,536.266849
576.954714,-1628.453072,-8438.347739,536.266849
576.955041,0.000000,-7328.038826,153.219100
576.955369,0.000000,-7105.977043,536.266849
576.955697,-518.144159,-7031.956449,306.438199
576.956025,-370.102971,-7254.018232,76.609550
576.956352,-2442.679609,-7105.977043,-459.657299
576.956680,-2516.700203,-7698.141797,-306.438199
576.957008,-1406.391290,-8068.244768,459.657299
576.957335,-888.247130,-7105.977043,383.047749
576.957663,-148.041188,-7402.059420,766.095498
576.957991,-370.102971,-8808.450710,1378.971896
576.958319,-1554.432478,-9400.615463,766.095498
576.958646,-3034.844362,-8808.450710,0.000000
576.958974,-4145.153275,-9178.553681,-842.705048
576.959302,-2442.679609,-8882.471304,-1149.143247
576.959629,-148.041188,-8734.430116,-766.095498
576.959957,1480.411884,-8364.327145,-689.485948
576.960285,2590.720797,-8734.430116,76.609550
576.960613,2738.761985,-9474.636058,229.828649
576.960940,1332.370696,-9844.739029,383.047749
576.961268,1628.453072,-10732.986159,689.485948
576.961596,2442.679609,-11251.130318,1532.190996
576.961923,2886.803174,-11917.315666,2374.896044
576.962251,2442.679609,-12657.521608,2298.286494
576.962579,888.247130,-13323.706956,2911.162892
576.962907,-666.185348,-13027.624579,2451.505594
576.963234,-2960.823768,-12287.418637,689.485948
576.963562,-3552.988522,-11917.315666,76.609550
576.963890,-1628.453072,-9770.718434,-153.219100
576.964217,-962.267725,-9178.553681,-536.266849
576.964545,0.000000,-7402.059420,-1225.752797
576.964873,592.164754,-7328.038826,-842.705048
576.965201,0.000000,-7105.977043,-1072.533697
576.965528,0.000000,-7179.997637,-689.485948
576.965856,-740.205942,-7772.162391,-995.924147
576.966184,0.000000,-8438.347739,383.047749
576.966511,518.144159,-8882.471304,1302.362347
576.966839,1036.288319,-9696.697840,2528.115143
576.967167,222.061783,-10955.047942,3064.381992
576.967495,-962.267725,-11769.274478,2604.724693
576.967822,-3997.112087,-11917.315666,1378.971896
576.968150,-5625.565159,-11695.253884,536.266849
576.968478,-3997.112087,-10510.924376,229.828649
576.968806,-2146.597232,-8142.265362,76.609550
576.969133,1036.288319,-7254.018232,-153.219100
576.969461,1776.494261,-6735.874072,76.609550
576.969789,1702.473667,-5921.647536,0.000000
576.970116,666.185348,-5699.585753,-383.047749
576.970444,0.000000,-6217.729913,-459.657299
576.970772,740.205942,-7105.977043,459.657299
576.971100,1258.350101,-7550.100608,1072.533697
576.971427,1184.329507,-7994.224174,2145.067394
576.971755,518.144159,-9104.533087,2911.162892
576.972083,-1258.350101,-9696.697840,2451.505594
576.972410,-3034.844362,-9474.636058,2528.115143
576.972738,-3330.926739,-9770.718434,1072.533697
576.973066,-3182.885551,-9252.574275,229.828649
576.973394,-1702.473667,-8142.265362,-229.828649
576.973721,-666.185348,-7105.977043,-766.095498
576.974049,444.123565,-5995.668130,-306.438199
576.974377,1924.535449,-6143.709319,-919.314598
576.974704,1184.329507,-6365.771101,-1072.533697
576.975032,888.247130,-7179.997637,-842.705048
576.975360,1850.514855,-8438.347739,-383.047749
576.975688,2294.638420,-9252.574275,1302.362347
576.976015,2368.659014,-9844.739029,1838.629195
576.976343,1776.494261,-11843.295072,2068.457845
576.976671,0.000000,-12805.562797,2221.676944
576.976998,-2664.741391,-12879.583391,1302.362347
576.977326,-3775.050304,-12879.583391,689.485948
576.977654,-3478.967927,-12287.418637,153.219100
576.977982,-2220.617826,-10510.924376,229.828649
576.978309,-740.205942,-9474.636058,-383.047749
576.978637,148.041188,-8956.491898,-459.657299
576.978965,888.247130,-7846.182985,-995.924147
576.979292,370.102971,-7254.018232,-842.705048
576.979620,814.226536,-7698.141797,-1225.752797
576.979948,1924.535449,-8216.285956,-459.657299
576.980276,3182.885551,-8660.409521,689.485948
576.980603,2590.720797,-9178.553681,1149.143247
576.980931,2072.576638,-10732.986159,2374.896044
576.981259,0.000000,-11621.233289,2068.457845
576.981586,-2294.638420,-11695.253884,1378.971896
576.981914,-3775.050304,-11917.315666,919.314598
576.982242,-2812.782580,-11399.171507,842.705048
576.982570,-1258.350101,-10584.944971,766.095498
576.982897,-1110.308913,-9030.512492,306.438199
576.983225,-592.164754,-9252.574275,-383.047749
576.983553,-370.102971,-8660.409521,-766.095498
576.983880,-1480.411884,-7402.059420,-1685.410096
576.984208,-444.123565,-7254.018232,-1532.190996
576.984536,814.226536,-6883.915261,-383.047749
576.984864,2220.617826,-7105.977043,76.609550
576.985191,2442.679609,-7772.162391,1685.410096
576.985519,1702.473667,-9252.574275,2298.286494
576.985847,666.185348,-10658.965565,3064.381992
576.986174,-2294.638420,-10881.027347,2221.676944
576.986502,-3552.988522,-10955.047942,1991.848295
576.986830,-3627.009116,-10584.944971,1378.971896
576.987158,-2368.659014,-9252.574275,1149.143247
576.987485,-1702.473667,-7476.080014,459.657299
576.987813,0.000000,-7476.080014,766.095498
576.988141,0.000000,-6735.874072,76.609550
576.988468,74.020594,-5921.647536,0.000000
576.988796,666.185348,-5921.647536,-229.828649
576.989124,2220.617826,-6587.832884,459.657299
576.989452,3849.070898,-7105.977043,1532.190996
576.989779,3478.967927,-7772.162391,2374.896044
576.990107,2812.782580,-10066.800811,3217.601092
576.990435,666.185348,-11177.109724,3370.820191
576.990762,-1850.514855,-11917.315666,2987.772442
576.991090,-4441.235652,-12435.459826,2145.067394
576.991418,-4293.194464,-12361.439231,2221.676944
576.991746,-3034.844362,-10807.006753,842.705048
576.992073,-2146.597232,-8734.430116,536.266849
576.992401,-962.267725,-7254.018232,-153.219100
576.992729,-666.185348,-6661.853478,-612.876398
576.993056,-962.267725,-5995.668130,-1455.581446
576.993384,-740.205942,-5403.503377,-1608.800546
576.993712,0.000000,-6291.750507,-1302.362347
576.994040,1406.391290,-6957.935855,-612.876398
576.994367,1702.473667,-7846.182985,383.047749
576.994695,1184.329507,-9474.636058,1302.362347
576.995023,370.102971,-11103.089130,1532.190996
576.995351,-2146.597232,-11473.192101,1225.752797
576.995678,-3478.967927,-12065.356855,766.095498
576.996006,-3775.050304,-11843.295072,0.000000
576.996334,-2516.700203,-11251.130318,-229.828649
576.996661,-1776.494261,-9400.615463,-1072.533697
576.996989,-592.164754,-8808.450710,-1225.752797
576.997317,0.000000,-7920.203579,-1762.019645
576.997645,666.185348,-7550.100608,-2374.896044
576.997972,1036.288319,-7105.977043,-2451.505594
576.998300,2368.659014,-7402.059420,-2145.067394
576.998628,3997.112087,-8142.265362,-766.095498
576.998955,4737.318029,-8290.306550,76.609550
576.999283,4959.379811,-10140.821405,1608.800546
576.999611,3256.906145,-11325.150913,2374.896044
576.999939,1036.288319,-12065.356855,2451.505594
577.000266,-1998.556043,-12731.542202,1838.629195
577.000594,-2590.720797,-12805.562797,1225.752797
577.000922,-2072.576638,-11473.192101,1378.971896
577.001249,-1628.453072,-9696.697840,842.705048
577.001577,-592.164754,-8882.471304,383.047749
577.001905,0.000000,-7624.121203,76.609550
577.002233,-296.082377,-6587.832884,-536.266849
577.002560,-666.185348,-5551.544565,-1455.581446
577.002888,518.144159,-5773.606348,-842.705048
577.003216,2220.617826,-6809.894666,229.828649
577.003543,1998.556043,-6217.729913,766.095498
577.003871,1924.535449,-8882.471304,2451.505594
577.004199,74.020594,-9770.718434,3294.210641
577.004527,-2220.617826,-11029.068536,3064.381992
577.004854,-5403.503377,-12435.459826,2451.505594
577.005182,-6143.709319,-13101.645173,1915.238745
577.005510,-5255.462188,-10955.047942,1838.629195
577.005837,-4145.153275,-9326.594869,1225.752797
577.006165,-3034.844362,-8660.409521,995.924147
577.006493,-2146.597232,-7846.182985,229.828649
577.006821,-1850.514855,-6587.832884,-612.876398
577.007148,-1924.535449,-5329.482782,-1225.752797
577.007476,296.082377,-5255.462188,-1378.971896
577.007804,2294.638420,-5699.585753,-536.266849
577.008131,3256.906145,-6883.915261,383.047749
577.008459,3775.050304,-8882.471304,1532.190996
577.008787,3256.906145,-10066.800811,2681.334243
577.009115,592.164754,-10807.006753,2451.505594
577.009442,-1406.391290,-11991.336260,1915.238745
577.009770,-1554.432478,-13027.624579,2221.676944
577.010097,-1036.288319,-12139.377449,1762.019645
577.010425,0.000000,-10362.883188,2145.067394
577.010752,1036.288319,-9696.697840,1149.143247
577.011079,814.226536,-9400.615463,612.876398
577.011407,370.102971,-8586.388927,-766.095498
577.011734,74.020594,-7105.977043,-1762.019645
577.012062,1332.370696,-6217.729913,-1378.971896
577.012389,3330.926739,-6143.709319,-919.314598
577.012716,3923.091493,-6661.853478,0.000000
577.013044,3775.050304,-8438.347739,612.876398
577.013371,1998.556043,-9770.718434,1455.581446
577.013698,0.000000,-10881.027347,1455.581446
577.014026,-3478.967927,-12213.398043,1225.752797
577.014353,-4145.153275,-13323.706956,1302.362347
577.014681,-4071.132681,-12953.603985,1302.362347
577.015008,-3701.029710,-10732.986159,919.314598
577.015335,-2886.803174,-10510.924376,1532.190996
577.015663,-1998.556043,-9474.636058,76.609550
577.015990,-2812.782580,-7476.080014,-689.485948
577.016317,-2812.782580,-5921.647536,-2068.457845
577.016645,-1406.391290,-5699.585753,-2451.505594
577.016972,1184.329507,-5551.544565,-1838.629195
577.017300,2294.638420,-5255.462188,-1455.581446
577.017627,3108.864956,-6587.832884,153.219100
577.017954,2146.597232,-8586.388927,995.924147
577.018282,-148.041188,-10066.800811,1149.143247
577.018609,-2146.597232,-11769.274478,1225.752797
577.018936,-2738.761985,-12731.542202,995.924147
577.019264,-1554.432478,-12065.356855,2451.505594
577.019591,-1332.370696,-10807.006753,1378.971896
577.019918,-666.185348,-10584.944971,1455.581446
577.020246,-740.205942,-9844.739029,536.266849
577.020573,-518.144159,-8068.244768,76.609550
577.020901,-1110.308913,-6883.915261,-1608.800546
577.021228,814.226536,-6069.688724,-1455.581446
577.021555,3849.070898,-5773.606348,-383.047749
577.021883,4885.359217,-5995.668130,229.828649
577.022210,4811.338623,-7179.997637,1455.581446
577.022537,3849.070898,-9030.512492,2068.457845
577.022865,1258.350101,-10436.903782,2221.676944
577.023192,-1332.370696,-11473.192101,2145.067394
577.023520,-1998.556043,-12213.398043,2451.505594
577.023847,-2294.638420,-12139.377449,2221.676944
577.024174,-1332.370696,-10881.027347,2681.334243
577.024502,-1480.411884,-10066.800811,1915.238745
577.024829,-1332.370696,-9252.574275,1455.581446
577.025156,-2442.679609,-7550.100608,76.609550
577.025484,-3182.885551,-7031.956449,-1608.800546
577.025811,-2146.597232,-6439.791695,-1532.190996
577.026139,-592.164754,-6291.750507,-1302.362347
577.026466,1258.350101,-6365.771101,-536.266849
577.026793,1702.473667,-7254.018232,689.485948
577.027121,888.247130,-9252.574275,1532.190996
577.027448,-518.144159,-9844.739029,1532.190996
577.027775,-2812.782580,-10807.006753,1762.019645
577.028103,-3330.926739,-12435.459826,1915.238745
577.028430,-3182.885551,-11843.295072,1762.019645
577.028757,-2146.597232,-11177.109724,2145.067394
577.029085,-1184.329507,-10732.986159,1838.629195
577.029412,-370.102971,-10732.986159,1762.019645
577.029740,-1258.350101,-9178.553681,536.266849
577.030067,-1554.432478,-7550.100608,-919.314598
577.030394,-592.164754,-7179.997637,-1072.533697
577.030722,1776.494261,-6883.915261,-1149.143247
577.031049,3923.091493,-6587.832884,-766.095498
577.031376,4367.215058,-7031.956449,612.876398
577.031704,2960.823768,-9030.512492,1072.533697
577.032031,1036.288319,-10362.883188,1149.143247
577.032359,-1406.391290,-11621.233289,842.705048
577.032686,-1924.535449,-11843.295072,689.485948
577.033013,-962.267725,-11769.274478,1608.800546
577.033341,-740.205942,-10955.047942,1302.362347
577.033668,-666.185348,-11251.130318,1302.362347
577.033995,-1110.308913,-10436.903782,1072.533697
577.034323,-1480.411884,-8438.347739,76.609550
577.034650,-1110.308913,-7254.018232,-1149.143247
577.034978,-962.267725,-7846.182985,-1532.190996
577.035305,1110.308913,-7698.141797,-1149.143247
577.035632,1776.494261,-6735.874072,-766.095498
577.035960,2960.823768,-7105.977043,229.828649
577.036287,2442.679609,-8068.244768,1149.143247
577.036614,888.247130,-9178.553681,1072.533697
577.036942,-1850.514855,-10732.986159,612.876398
577.037269,-2442.679609,-11103.089130,536.266849
577.037596,-2220.617826,-10214.842000,842.705048
577.037924,-1036.288319,-9548.656652,1685.410096
577.038251,-444.123565,-9474.636058,1608.800546
577.038579,-444.123565,-9770.718434,1762.019645
577.038906,-1554.432478,-8808.450710,995.924147
577.039233,-2220.617826,-7476.080014,0.000000
577.039561,-1998.556043,-7254.018232,-536.266849
577.039888,-222.061783,-6587.832884,-459.657299
577.040215,1036.288319,-6069.688724,-383.047749
577.040543,1850.514855,-6513.812290,459.657299
577.040870,2220.617826,-7105.977043,536.266849
577.041198,370.102971,-7920.203579,459.657299
577.041525,-1628.453072,-8956.491898,459.657299
577.041852,-1702.473667,-9918.759623,689.485948
577.042180,-962.267725,-10214.842000,1149.143247
577.042507,-666.185348,-9992.780217,919.314598
577.042834,-518.144159,-10140.821405,1225.752797
577.043162,-740.205942,-9696.697840,1532.190996
577.043489,-888.247130,-9400.615463,766.095498
577.043816,-1628.453072,-8660.409521,-306.438199
577.044144,-148.041188,-8734.430116,-153.219100
577.044471,888.247130,-8364.327145,-229.828649
577.044799,1998.556043,-7328.038826,-306.438199
577.045126,1480.411884,-8512.368333,306.438199
577.045453,1036.288319,-9770.718434,153.219100
577.045781,0.000000,-9918.759623,-153.219100
577.046108,-962.267725,-10362.883188,0.000000
577.046435,-1258.350101,-10881.027347,536.266849
577.046763,-740.205942,-10881.027347,919.314598
577.047090,0.000000,-10510.924376,766.095498
577.047418,296.082377,-10066.800811,1072.533697
577.047745,1258.350101,-10436.903782,1149.143247
577.048072,296.082377,-9622.677246,612.876398
577.048400,-740.205942,-9030.512492,0.000000
577.048727,-592.164754,-9474.636058,76.609550
577.049054,888.247130,-8660.409521,536.266849
577.049382,1998.556043,-8290.306550,995.924147
577.049709,1480.411884,-9400.615463,1149.143247
577.050037,518.144159,-10510.924376,2068.457845
577.050364,-740.205942,-10881.027347,1072.533697
577.050691,-2812.782580,-10436.903782,919.314598
577.051019,-2442.679609,-11029.068536,842.705048
577.051346,-1850.514855,-11103.089130,1455.581446
577.051673,-1184.329507,-10510.924376,1915.238745
577.052001,-1184.329507,-10510.924376,1072.533697
577.052328,-1258.350101,-9622.677246,1302.362347
577.052655,-1850.514855,-9326.594869,689.485948
577.052983,-3034.844362,-8734.430116,-383.047749
577.053310,-2294.638420,-8364.327145,-1532.190996
577.053638,-740.205942,-7328.038826,-229.828649
577.053965,518.144159,-6217.729913,383.047749
577.054292,962.267725,-7402.059420,842.705048
577.054620,444.123565,-8734.430116,1378.971896
577.054947,-444.123565,-9178.553681,1149.143247
577.055274,-2220.617826,-9400.615463,842.705048
577.055602,-2442.679609,-10214.842000,536.266849
577.055929,-1776.494261,-9622.677246,919.314598
577.056257,0.000000,-8734.430116,995.924147
577.056584,1480.411884,-8290.306550,1685.410096
577.056911,2146.597232,-8068.244768,1838.629195
577.057239,2220.617826,-7772.162391,1378.971896
577.057566,-148.041188,-7624.121203,229.828649
577.057893,-370.102971,-8068.244768,0.000000
577.058221,1184.329507,-7698.141797,0.000000
577.058548,1480.411884,-7031.956449,383.047749
577.058876,2146.597232,-7698.141797,995.924147
577.059203,1702.473667,-8734.430116,1762.019645
577.059530,222.061783,-8586.388927,1378.971896
577.059858,-1480.411884,-8660.409521,536.266849
577.060185,-1776.494261,-8956.491898,-306.438199
577.060512,-1332.370696,-9030.512492,0.000000
577.060840,-1184.329507,-7624.121203,0.000000
577.061167,-444.123565,-7105.977043,0.000000
577.061494,0.000000,-7254.018232,0.000000
577.061822,0.000000,-6809.894666,-229.828649
577.062149,-1184.329507,-5995.668130,-842.705048
577.062477,-740.205942,-6809.894666,-766.095498
577.062804,222.061783,-6809.894666,-459.657299
577.063131,814.226536,-7402.059420,76.609550
577.063459,814.226536,-8586.388927,383.047749
577.063786,74.020594,-9622.677246,995.924147
577.064113,-962.267725,-10658.965565,459.657299
577.064441,-2886.803174,-10732.986159,-536.266849
577.064768,-2516.700203,-11473.192101,-153.219100
577.065096,-2294.638420,-11103.089130,-612.876398
577.065423,-888.247130,-9696.697840,-612.876398
577.065750,222.061783,-9104.533087,-459.657299
577.066078,592.164754,-9548.656652,-612.876398
577.066405,148.041188,-9400.615463,-1225.752797
577.066732,-296.082377,-8808.450710,-1225.752797
577.067060,-222.061783,-9770.718434,-919.314598
577.067387,1184.329507,-9622.677246,-536.266849
577.067715,1776.494261,-9696.697840,459.657299
577.068042,1776.494261,-10362.883188,1378.971896
577.068369,1110.308913,-11177.109724,2068.457845
577.068697,74.020594,-11325.150913,2068.457845
577.069024,-740.205942,-11473.192101,1532.190996
577.069351,-1480.411884,-11251.130318,1072.533697
577.069679,-148.041188,-10732.986159,1072.533697
577.070006,1258.350101,-9474.636058,1302.362347
577.070333,1850.514855,-9474.636058,1302.362347
577.070661,2220.617826,-9548.656652,1915.238745
577.070988,1924.535449,-8586.388927,1302.362347
577.071316,296.082377,-9400.615463,1149.143247
577.071643,-222.061783,-9992.780217,1149.143247
577.071970,296.082377,-10510.924376,1838.629195
577.072298,962.267725,-9844.739029,2604.724693
577.072625,222.061783,-9918.759623,2681.334243
577.072952,-370.102971,-11399.171507,3140.991542
577.073280,-2738.761985,-11547.212695,2604.724693
577.073607,-5403.503377,-11029.068536,1608.800546
577.073935,-5921.647536,-10510.924376,919.314598
577.074262,-5033.400406,-9326.594869,536.266849
577.074589,-3478.967927,-8142.265362,306.438199
577.074917,-2368.659014,-7476.080014,306.438199
577.075244,-962.267725,-7698.141797,919.314598
577.075571,-1110.308913,-6439.791695,306.438199
577.075899,-1850.514855,-5403.503377,0.000000
577.076226,-1332.370696,-6513.812290,-383.047749
577.076554,0.000000,-6661.853478,229.828649
577.076881,592.164754,-7031.956449,995.924147
577.077208,888.247130,-7846.182985,1532.190996
577.077536,740.205942,-9474.636058,2451.505594
577.077863,296.082377,-9696.697840,2145.067394
577.078190,-1776.494261,-9474.636058,842.705048
577.078518,-1036.288319,-9992.780217,153.219100
577.078845,-444.123565,-8882.471304,0.000000
577.079172,1110.308913,-7994.224174,-459.657299
577.079500,1924.535449,-6661.853478,-689.485948
577.079827,3256.906145,-7179.997637,-459.657299
577.080155,3330.926739,-6587.832884,-306.438199
577.080482,1850.514855,-6735.874072,-1072.533697
577.080809,1480.411884,-7994.224174,-689.485948
577.081137,1924.535449,-8512.368333,383.047749
577.081464,2368.659014,-8068.244768,842.705048
577.081791,2886.803174,-8956.491898,1685.410096
577.082119,1258.350101,-10584.944971,1838.629195
577.082446,-444.123565,-11251.130318,1762.019645
577.082774,-3404.947333,-10510.924376,153.219100
577.083101,-4071.132681,-10288.862594,-536.266849
577.083428,-2960.823768,-9474.636058,-1149.143247
577.083756,-1480.411884,-8142.265362,-1225.752797
577.084083,-962.267725,-7772.162391,-1838.629195
577.084410,148.041188,-7476.080014,-919.314598
577.084738,518.144159,-6661.853478,-1608.800546
577.085065,-518.144159,-6883.915261,-1532.190996
577.085393,-888.247130,-8660.409521,-919.314598
577.085720,0.000000,-9622.677246,0.000000
577.086047,962.267725,-10214.842000,1072.533697
577.086375,888.247130,-10288.862594,1532.190996
577.086702,0.000000,-11843.295072,2374.896044
577.087029,-1184.329507,-12731.542202,2145.067394
577.087357,-3182.885551,-11991.336260,1225.752797
577.087684,-3330.926739,-11917.315666,536.266849
577.088011,-1628.453072,-10658.965565,612.876398
577.088339,-222.061783,-9474.636058,0.000000
577.088666,1036.288319,-8216.285956,229.828649
577.088994,1924.535449,-7846.182985,0.000000
577.089321,2220.617826,-7772.162391,0.000000
577.089648,1258.350101,-6809.894666,-459.657299
577.089976,1628.453072,-7846.182985,459.657299
577.090303,2146.597232,-8734.430116,842.705048
577.090630,2072.576638,-9474.636058,2374.896044
577.090958,1554.432478,-10881.027347,3140.991542
577.091285,222.061783,-11843.295072,4060.306139
577.091613,-1036.288319,-12657.521608,3524.039291
577.091940,-4367.215058,-12435.459826,2145.067394
577.092267,-4145.153275,-11843.295072,1838.629195
577.092595,-3478.967927,-10140.821405,995.924147
577.092922,-1850.514855,-8068.244768,459.657299
577.093249,-1480.411884,-6587.832884,76.609550
577.093577,0.000000,-7031.956449,0.000000
577.093904,0.000000,-5773.606348,0.000000
577.094231,-962.267725,-5181.441594,-766.095498
577.094559,-1036.288319,-7254.018232,-536.266849
577.094886,-296.082377,-7846.182985,153.219100
577.095214,518.144159,-7994.224174,1685.410096
577.095541,1110.308913,-9104.533087,2374.896044
577.095868,296.082377,-10658.965565,3370.820191
577.096196,-888.247130,-11843.295072,3600.648841
577.096523,-3256.906145,-11473.192101,2451.505594
577.096850,-4293.194464,-11325.150913,1302.362347
577.097178,-3034.844362,-10362.883188,689.485948
577.097505,-1850.514855,-8808.450710,0.000000
577.097833,-296.082377,-7772.162391,-536.266849
577.098160,666.185348,-7105.977043,-995.924147
577.098487,2368.659014,-6513.812290,-612.876398
577.098815,1406.391290,-5403.503377,-1838.629195
577.099142,1480.411884,-6587.832884,-1608.800546
577.099469,2812.782580,-7476.080014,-842.705048
577.099797,3404.947333,-8364.327145,76.609550
577.100124,2442.679609,-9252.574275,995.924147
577.100452,2368.659014,-11177.109724,1915.238745
577.100779,888.247130,-12065.356855,2221.676944
577.101106,-1924.535449,-11991.336260,1302.362347
577.101434,-3256.906145,-12657.521608,766.095498
577.101761,-2664.741391,-11769.274478,0.000000
577.102088,-1702.473667,-9400.615463,0.000000
577.102416,-888.247130,-7698.141797,-919.314598
577.102743,0.000000,-7476.080014,-1302.362347
577.103070,222.061783,-6883.915261,-1608.800546
577.103398,-370.102971,-5403.503377,-2298.286494
577.103725,592.164754,-5625.565159,-2298.286494
577.104053,2072.576638,-7031.956449,-842.705048
577.104380,2516.700203,-7698.141797,306.438199
577.104707,1850.514855,-9252.574275,1225.752797
577.105035,740.205942,-11251.130318,2221.676944
577.105362,-296.082377,-12213.398043,2681.334243
577.105689,-2442.679609,-11843.295072,2221.676944
577.106017,-3330.926739,-12731.542202,1532.190996
577.106344,-3108.864956,-12139.377449,1072.533697
577.106672,-2368.659014,-10658.965565,383.047749
577.106999,-962.267725,-7920.203579,-153.219100
577.107326,370.102971,-7179.997637,0.000000
577.107654,888.247130,-6883.915261,-306.438199
577.107981,0.000000,-6513.812290,-1378.971896
577.108308,444.123565,-6809.894666,-1072.533697
577.108636,2072.576638,-6883.915261,153.219100
577.108963,3849.070898,-7402.059420,1302.362347
577.109290,2590.720797,-8956.491898,2145.067394
577.109618,1702.473667,-10807.006753,3600.648841
577.109945,148.041188,-11325.150913,3447.429741
577.110273,-2072.576638,-11621.233289,3217.601092
577.110600,-3849.070898,-11843.295072,1838.629195
577.110927,-3997.112087,-11843.295072,1762.019645
577.111255,-3034.844362,-10436.903782,1225.752797
577.111582,-2368.659014,-8142.265362,153.219100
577.111909,-962.267725,-7179.997637,-229.828649
577.112237,-296.082377,-6365.771101,-536.266849
577.112564,-1332.370696,-6143.709319,-1685.410096
577.112891,-962.267725,-6513.812290,-1532.190996
577.113219,370.102971,-6957.935855,-1072.533697
577.113546,1554.432478,-7476.080014,306.438199
577.113874,2146.597232,-7920.203579,1149.143247
577.114201,1406.391290,-10288.862594,2145.067394
577.114528,74.020594,-11325.150913,2451.505594
577.114856,-2220.617826,-11695.253884,2221.676944
577.115183,-3627.009116,-12287.418637,1455.581446
577.115510,-2738.761985,-12065.356855,766.095498
577.115838,-1924.535449,-10436.903782,995.924147
577.116165,-740.205942,-9178.553681,229.828649
577.116492,370.102971,-7994.224174,0.000000
577.116820,1480.411884,-7105.977043,-459.657299
577.117147,1258.350101,-5921.647536,-1762.019645
577.117475,1702.473667,-6365.771101,-1302.362347
577.117802,2664.741391,-7105.977043,-1149.143247
577.118129,4145.153275,-7550.100608,459.657299
577.118457,3701.029710,-8586.388927,995.924147
577.118784,3256.906145,-10807.006753,2757.943793
577.119111,1406.391290,-12287.418637,2911.162892
577.119439,-1480.411884,-12583.501014,2451.505594
577.119766,-3923.091493,-13693.809927,1685.410096
577.120093,-3775.050304,-13101.645173,1532.190996
577.120421,-2960.823768,-11843.295072,1378.971896
577.120748,-2738.761985,-9918.759623,306.438199
577.121076,-1480.411884,-9696.697840,0.000000
577.121403,-1184.329507,-8216.285956,-689.485948
577.121730,-1776.494261,-6661.853478,-1991.848295
577.122058,-1258.350101,-5995.668130,-2528.115143
577.122385,888.247130,-6291.750507,-1762.019645
577.122712,2072.576638,-6217.729913,-919.314598
577.123040,2886.803174,-6883.915261,153.219100
577.123367,2442.679609,-9326.594869,1532.190996
577.123694,1628.453072,-10658.965565,2451.505594
577.124022,-1480.411884,-11695.253884,1991.848295
577.124349,-3404.947333,-12953.603985,1762.019645
577.124677,-3627.009116,-12805.562797,1455.581446
577.125004,-2442.679609,-11621.233289,1225.752797
577.125331,-1480.411884,-9992.780217,919.314598
577.125659,296.082377,-8586.388927,536.266849
577.125986,1110.308913,-7031.956449,153.219100
577.126313,888.247130,-5773.606348,-995.924147
577.126641,148.041188,-5847.626942,-2221.676944
577.126968,1406.391290,-6069.688724,-1608.800546
577.127295,3182.885551,-5847.626942,-459.657299
577.127623,2664.741391,-6439.791695,459.657299
577.127950,3182.885551,-8882.471304,2068.457845
577.128277,1480.411884,-10510.924376,2604.724693
577.128605,-1110.308913,-10584.944971,2451.505594
577.128932,-3552.988522,-11621.233289,1915.238745
577.129260,-3034.844362,-11399.171507,1991.848295
577.129587,-2368.659014,-9992.780217,1838.629195
577.129914,-1628.453072,-8512.368333,1378.971896
577.130242,-888.247130,-7698.141797,919.314598
577.130569,-740.205942,-6661.853478,459.657299
577.130896,-814.226536,-5181.441594,-842.705048
577.131224,-1628.453072,-4737.318029,-1302.362347
577.131551,0.000000,-5625.565159,-995.924147
577.131878,962.267725,-6291.750507,-383.047749
577.132206,1036.288319,-7476.080014,306.438199
577.132533,1628.453072,-8956.491898,2068.457845
577.132861,370.102971,-10140.821405,2604.724693
577.133188,-1406.391290,-11399.171507,2221.676944
577.133515,-3552.988522,-12139.377449,1532.190996
577.133843,-3552.988522,-11917.315666,1455.581446
577.134170,-2812.782580,-11029.068536,919.314598
577.134497,-2072.576638,-9548.656652,1072.533697
577.134825,-666.185348,-9104.533087,76.609550
577.135152,-296.082377,-8068.244768,0.000000
577.135479,-666.185348,-6883.915261,-1378.971896
577.135807,-740.205942,-7105.977043,-1991.848295
577.136134,888.247130,-7105.977043,-1685.410096
577.136462,1998.556043,-6587.832884,-689.485948
577.136789,3552.988522,-7105.977043,-153.219100
577.137116,3478.967927,-9400.615463,1455.581446
577.137444,2220.617826,-11473.192101,2451.505594
577.137771,0.000000,-11843.295072,2221.676944
577.138098,-1628.453072,-13175.665768,1991.848295
577.138426,-2590.720797,-13027.624579,1838.629195
577.138753,-1628.453072,-12879.583391,1838.629195
577.139080,-1036.288319,-11769.274478,1225.752797
577.139408,-296.082377,-10436.903782,1225.752797
577.139735,-518.144159,-9474.636058,536.266849
577.140063,-814.226536,-8438.347739,-612.876398
577.140390,-2072.576638,-7698.141797,-2298.286494
577.140717,-148.041188,-7402.059420,-1991.848295
577.141045,1480.411884,-7105.977043,-1455.581446
577.141372,2590.720797,-7031.956449,-459.657299
577.141699,3034.844362,-8438.347739,995.924147
577.142027,2220.617826,-9918.759623,1685.410096
577.142354,0.000000,-10881.027347,1991.848295
577.142681,-2368.659014,-11769.274478,1762.019645
577.143009,-3034.844362,-12435.459826,1762.019645
577.143336,-2516.700203,-11695.253884,1762.019645
577.143664,-2146.597232,-10362.883188,1225.752797
577.143991,-1406.391290,-9696.697840,1225.752797
577.144318,-962.267725,-9104.533087,536.266849
577.144646,-1036.288319,-7920.203579,0.000000
577.144973,-1628.453072,-6661.853478,-1149.143247
577.145300,-222.061783,-7105.977043,-1991.848295
577.145628,1480.411884,-7105.977043,-1302.362347
577.145955,2590.720797,-7254.018232,-842.705048
577.146282,2516.700203,-8882.471304,153.219100
577.146610,1850.514855,-9326.594869,766.095498
577.146937,296.082377,-10436.903782,1072.533697
577.147265,-1924.535449,-10881.027347,612.876398
577.147592,-1406.391290,-11843.295072,1455.581446
577.147919,-888.247130,-11325.150913,1838.629195
577.148247,-962.267725,-9844.739029,2374.896044
577.148574,-1036.288319,-9696.697840,995.924147
577.148901,-296.082377,-8438.347739,995.924147
577.149229,-518.144159,-7328.038826,153.219100
577.149556,-1110.308913,-6217.729913,-536.266849
577.149883,0.000000,-5699.585753,-536.266849
577.150211,1628.453072,-5181.441594,-536.266849
577.150538,2886.803174,-5181.441594,0.000000
577.150865,2664.741391,-6365.771101,383.047749
577.151193,3034.844362,-8216.285956,1149.143247
577.151520,592.164754,-9178.553681,76.609550
577.151848,-1998.556043,-10362.883188,995.924147
577.152175,-2368.659014,-11399.171507,1378.971896
577.152502,-1258.350101,-11547.212695,1762.019645
577.152830,-814.226536,-10732.986159,1838.629195
577.153157,-740.205942,-10807.006753,1608.800546
577.153484,-888.247130,-9918.759623,1455.581446
577.153812,-2146.597232,-8438.347739,383.047749
577.154139,-2812.782580,-7476.080014,-842.705048
577.154466,-1924.535449,-6883.915261,-1149.143247
577.154794,74.020594,-6439.791695,-689.485948
577.155121,1258.350101,-6365.771101,-766.095498
577.155449,1036.288319,-7105.977043,0.000000
577.155776,296.082377,-8586.388927,612.876398
577.156103,-888.247130,-9252.574275,1072.533697
577.156431,-2738.761985,-10436.903782,689.485948
577.156758,-2072.576638,-10881.027347,1455.581446
577.157085,-814.226536,-10732.986159,1915.238745
577.157413,-740.205942,-9696.697840,1532.190996
577.157740,-444.123565,-9844.739029,1532.190996
577.158067,-370.102971,-9770.718434,1455.581446
577.158395,-962.267725,-9252.574275,459.657299
577.158722,-1258.350101,-7994.224174,-612.876398
577.159050,-592.164754,-7698.141797,-459.657299
577.159377,1702.473667,-7328.038826,0.000000
577.159704,2220.617826,-7550.100608,306.438199
577.160032,2442.679609,-8586.388927,689.485948
577.160359,2220.617826,-9696.697840,842.705048
577.160686,518.144159,-10214.842000,1225.752797
577.161014,-1332.370696,-10955.047942,766.095498
577.161341,-1628.453072,-11843.295072,995.924147
577.161668,-814.226536,-11843.295072,1532.190996
577.161996,-592.164754,-10140.821405,1685.410096
577.162323,444.123565,-9992.780217,1225.752797
577.162651,296.082377,-9326.594869,1302.362347
577.162978,0.000000,-8068.244768,995.924147
577.163305,-1776.494261,-7550.100608,-306.438199
577.163633,-1258.350101,-7772.162391,0.000000
577.163960,-148.041188,-7698.141797,-459.657299
577.164287,148.041188,-7105.977043,0.000000
577.164615,814.226536,-8142.265362,383.047749
577.164942,592.164754,-9622.677246,1072.533697
577.165269,-666.185348,-9400.615463,689.485948
577.165597,-1850.514855,-9474.636058,0.000000
577.165924,-1850.514855,-10584.944971,306.438199
577.166252,-740.205942,-9992.780217,459.657299
577.166579,-814.226536,-9622.677246,919.314598
577.166906,-296.082377,-9770.718434,1072.533697
577.167234,592.164754,-9548.656652,1685.410096
577.167561,-222.061783,-9548.656652,919.314598
577.167888,-1554.432478,-8956.491898,0.000000
577.168216,-962.267725,-9326.594869,0.000000
577.168543,370.102971,-8882.471304,153.219100
577.168870,666.185348,-7920.203579,689.485948
577.169198,1480.411884,-8290.306550,536.266849
577.169525,444.123565,-9252.574275,689.485948
577.169853,74.020594,-9030.512492,842.705048
577.170180,-1702.473667,-8808.450710,0.000000
577.170507,-1332.370696,-8956.491898,229.828649
577.170835,-148.041188,-9696.697840,459.657299
577.171162,-222.061783,-8734.430116,306.438199
577.171489,0.000000,-9252.574275,689.485948
577.171817,444.123565,-9548.656652,1072.533697
577.172144,-592.164754,-8808.450710,689.485948
577.172471,-1924.535449,-8290.306550,-383.047749
577.172799,-1110.308913,-9474.636058,-229.828649
577.173126,148.041188,-8956.491898,306.438199
577.173453,1036.288319,-7624.121203,612.876398
577.173781,1554.432478,-8438.347739,995.924147
577.174108,1258.350101,-9178.553681,689.485948
577.174436,592.164754,-9030.512492,995.924147
577.174763,-1554.432478,-8808.450710,229.828649
577.175090,-1406.391290,-9696.697840,536.266849
577.175418,-518.144159,-9400.615463,459.657299
577.175745,-148.041188,-8956.491898,1225.752797
577.176072,666.185348,-8882.471304,919.314598
577.176400,0.000000,-9104.533087,1149.143247
577.176727,-666.185348,-9474.636058,1149.143247
577.177054,-2516.700203,-9104.533087,229.828649
577.177382,-1554.432478,-9030.512492,689.485948
577.177709,296.082377,-8290.306550,919.314598
577.178037,666.185348,-7994.224174,842.705048
577.178364,1332.370696,-8808.450710,1149.143247
577.178691,666.185348,-9178.553681,1685.410096
577.179019,0.000000,-9178.553681,1608.800546
577.179346,-2368.659014,-9252.574275,536.266849
577.179673,-2294.638420,-10436.903782,0.000000
577.180001,-1850.514855,-10362.883188,76.609550
577.180328,-962.267725,-9622.677246,0.000000
577.180655,0.000000,-9474.636058,536.266849
577.180983,370.102971,-9474.636058,689.485948
577.181310,888.247130,-9474.636058,995.924147
577.181638,-1184.329507,-8660.409521,0.000000
577.181965,-148.041188,-9252.574275,0.000000
577.182292,296.082377,-8734.430116,76.609550
577.182620,1258.350101,-7772.162391,995.924147
577.182947,1628.453072,-8586.388927,842.705048
577.183274,1480.411884,-9474.636058,1532.190996
577.183602,0.000000,-9770.718434,1072.533697
577.183929,-2220.617826,-9474.636058,0.000000
577.184256,-2220.617826,-9696.697840,-536.266849
577.184584,-1480.411884,-9918.759623,0.000000
577.184911,-666.185348,-8734.430116,0.000000
577.185239,370.102971,-9178.553681,306.438199
577.185566,1184.329507,-9548.656652,459.657299
577.185893,1036.288319,-9030.512492,612.876398
577.186221,0.000000,-7772.162391,0.000000
577.186548,222.061783,-8512.368333,0.000000
577.186875,1554.432478,-8438.347739,536.266849
577.187203,1480.411884,-8216.285956,1149.143247
577.187530,1184.329507,-8734.430116,1532.190996
577.187857,296.082377,-9696.697840,1915.238745
577.188185,-148.041188,-10288.862594,1762.019645
577.188512,-3108.864956,-10066.800811,229.828649
577.188840,-3182.885551,-10658.965565,0.000000
577.189167,-1924.535449,-10066.800811,153.219100
577.189494,-1184.329507,-8586.388927,383.047749
577.189822,0.000000,-8290.306550,766.095498
577.190149,0.000000,-8586.388927,229.828649
577.190476,0.000000,-8290.306550,383.047749
577.190804,-1480.411884,-7179.997637,-306.438199
577.191131,-1332.370696,-7772.162391,-1072.533697
577.191458,148.041188,-7772.162391,0.000000
577.191786,740.205942,-7698.141797,995.924147
577.192113,962.267725,-8512.368333,1455.581446
577.192440,518.144159,-9252.574275,1685.410096
577.192768,-444.123565,-9770.718434,1762.019645
577.193095,-3108.864956,-10140.821405,919.314598
577.193423,-3701.029710,-10436.903782,0.000000
577.193750,-2368.659014,-9918.759623,0.000000
577.194077,-888.247130,-8734.430116,0.000000
577.194405,666.185348,-8586.388927,536.266849
577.194732,2146.597232,-8364.327145,536.266849
577.195059,1776.494261,-7846.182985,383.047749
577.195387,814.226536,-7476.080014,0.000000
577.195714,740.205942,-8068.244768,153.219100
577.196041,1480.411884,-8808.450710,766.095498
577.196369,2220.617826,-8512.368333,1685.410096
577.196696,1258.350101,-9696.697840,1991.848295
577.197024,740.205942,-10807.006753,2681.334243
577.197351,-888.247130,-10510.924376,2298.286494
577.197678,-2590.720797,-9844.739029,1225.752797
577.198006,-3552.988522,-10362.883188,-306.438199
577.198333,-2368.659014,-9844.739029,689.485948
577.198660,-1554.432478,-7920.203579,0.000000
577.198988,-370.102971,-7846.182985,76.609550
577.199315,444.123565,-7994.224174,0.000000
577.199642,74.020594,-7698.141797,0.000000
577.199970,0.000000,-6439.791695,-459.657299
577.200297,-296.082377,-7772.162391,-612.876398
577.200625,1036.288319,-8364.327145,612.876398
577.200952,1332.370696,-8808.450710,1225.752797
577.201279,1332.370696,-9474.636058,2068.457845
577.201607,1702.473667,-10288.862594,2681.334243
577.201934,814.226536,-10584.944971,3217.601092
577.202261,-1036.288319,-10807.006753,2528.115143
577.202589,-1110.308913,-11917.315666,2604.724693
577.202916,-962.267725,-11547.212695,2604.724693
577.203243,0.000000,-10362.883188,2528.115143
577.203571,0.000000,-9474.636058,1072.533697
577.203898,148.041188,-9696.697840,1149.143247
577.204226,740.205942,-9030.512492,1225.752797
577.204553,-370.102971,-8068.244768,459.657299
577.204880,888.247130,-7846.182985,1532.190996
577.205208,1998.556043,-7031.956449,2374.896044
577.205535,3108.864956,-8068.244768,3524.039291
577.205862,2294.638420,-8956.491898,3983.696590
577.206190,148.041188,-11399.171507,4213.525239
577.206517,-3034.844362,-11621.233289,3830.477490
577.206844,-6069.688724,-11177.109724,3064.381992
577.207172,-7254.018232,-11843.295072,1838.629195
577.207499,-6291.750507,-11103.089130,1455.581446
577.207827,-3923.091493,-9104.533087,1532.190996
577.208154,-1110.308913,-6513.812290,1378.971896
577.208481,444.123565,-6069.688724,2374.896044
577.208809,1110.308913,-6291.750507,1532.190996
577.209136,814.226536,-5625.565159,1302.362347
577.209463,518.144159,-5995.668130,689.485948
577.209791,962.267725,-7698.141797,1915.238745
577.210118,1924.535449,-8882.471304,3370.820191
577.210446,2664.741391,-8956.491898,4596.572988
577.210773,3923.091493,-10288.862594,6358.592633
577.211101,3034.844362,-11325.150913,7354.516781
577.211428,1184.329507,-11769.274478,6971.469032
577.211756,0.000000,-11103.089130,6052.154434
577.212083,-814.226536,-11621.233289,4903.011187
577.212411,-1998.556043,-10807.006753,4366.744339
577.212738,-592.164754,-9104.533087,3830.477490
577.213066,1702.473667,-7328.038826,3983.696590
577.213393,1924.535449,-6439.791695,4290.134789
577.213721,1406.391290,-6587.832884,2987.772442
577.214048,-740.205942,-6513.812290,2374.896044
577.214375,-2368.659014,-7105.977043,2145.067394
577.214703,-2664.741391,-7846.182985,1915.238745
577.215030,-3478.967927,-8216.285956,1608.800546
577.215358,-2368.659014,-8734.430116,2451.505594
577.215685,-1406.391290,-8438.347739,3677.258390
577.216013,-1036.288319,-8734.430116,5056.230287
577.216340,-2220.617826,-9252.574275,4519.963438
577.216668,-3701.029710,-10066.800811,4136.915689
577.216995,-3923.091493,-9844.739029,3140.991542
577.217323,-3701.029710,-9178.553681,2145.067394
577.217650,-2664.741391,-8216.285956,1455.581446
577.217978,-518.144159,-7920.203579,1455.581446
577.218305,1184.329507,-7402.059420,2374.896044
577.218633,2664.741391,-7105.977043,2604.724693
577.218960,3478.967927,-7550.100608,3294.210641
577.219288,3330.926739,-9252.574275,2834.553343
577.219615,1332.370696,-10807.006753,2145.067394
577.219943,74.020594,-12065.356855,1762.019645
577.220270,148.041188,-12065.356855,2298.286494
577.220598,1480.411884,-11547.212695,2987.772442
577.220925,2590.720797,-11769.274478,4443.353888
577.221252,3182.885551,-11991.336260,5286.058936
577.221580,2960.823768,-10955.047942,5592.497135
577.221907,3775.050304,-9844.739029,5439.278036
577.222235,2220.617826,-9696.697840,5362.668486
577.222562,1406.391290,-9696.697840,4596.572988
577.222890,296.082377,-9770.718434,3370.820191
577.223217,-370.102971,-8956.491898,3447.429741
577.223545,-370.102971,-8216.285956,3294.210641
577.223872,0.000000,-8216.285956,3600.648841
577.224200,-518.144159,-8882.471304,3677.258390
577.224527,-2146.597232,-10362.883188,2528.115143
577.224855,-3552.988522,-9992.780217,2145.067394
577.225182,-3552.988522,-9622.677246,2145.067394
577.225510,-2886.803174,-9326.594869,2451.505594
577.225837,-2886.803174,-9474.636058,1991.848295
577.226165,-3330.926739,-10066.800811,2681.334243
577.226492,-3923.091493,-9918.759623,2528.115143
577.226820,-3256.906145,-8512.368333,2298.286494
577.227147,-1998.556043,-7920.203579,2528.115143
577.227474,-888.247130,-8216.285956,2528.115143
577.227802,-814.226536,-8586.388927,3140.991542
577.228129,-740.205942,-8438.347739,2834.553343
577.228457,444.123565,-8290.306550,3830.477490
577.228784,2220.617826,-7624.121203,4443.353888
577.229112,5033.400406,-8586.388927,5515.887586
577.229439,4811.338623,-8808.450710,5592.497135
577.229767,3627.009116,-10362.883188,5362.668486
577.230094,1332.370696,-10955.047942,5286.058936
577.230422,74.020594,-10807.006753,4903.011187
577.230749,1110.308913,-9992.780217,5362.668486
577.231077,2368.659014,-9104.533087,4673.182538
577.231404,888.247130,-9252.574275,4749.792088
577.231732,592.164754,-9178.553681,3370.820191
577.232059,-1776.494261,-9104.533087,2987.772442
577.232387,-2664.741391,-8438.347739,2374.896044
577.232714,-1776.494261,-6661.853478,2374.896044
577.233042,-592.164754,-7179.997637,2451.505594
577.233369,-518.144159,-7179.997637,2451.505594
577.233697,-1554.432478,-7698.141797,3140.991542
577.234024,-3256.906145,-7994.224174,2604.724693
577.234351,-4663.297435,-7698.141797,1532.190996
577.234679,-3923.091493,-7698.141797,1302.362347
577.235006,-3108.864956,-8216.285956,1532.190996
577.235334,-1036.288319,-7920.203579,2374.896044
577.235661,0.000000,-7698.141797,2681.334243
577.235989,148.041188,-7624.121203,3370.820191
577.236316,148.041188,-8290.306550,3447.429741
577.236644,-222.061783,-8808.450710,2451.505594
577.236971,0.000000,-9326.594869,1838.629195
577.237299,1184.329507,-9400.615463,1991.848295
577.237626,2590.720797,-9104.533087,3217.601092
577.237954,3701.029710,-8660.409521,4519.963438
577.238281,4367.215058,-10362.883188,5132.839837
577.238609,3256.906145,-11325.150913,4979.620737
577.238936,1776.494261,-11769.274478,4060.306139
577.239264,-666.185348,-11991.336260,2911.162892
577.239591,-222.061783,-11843.295072,3294.210641
577.239919,444.123565,-10658.965565,3600.648841
577.240246,444.123565,-9844.739029,4366.744339
577.240574,3034.844362,-9326.594869,4749.792088
577.240901,2072.576638,-8956.491898,5209.449386
577.241228,0.000000,-9400.615463,4519.963438
577.241556,-2812.782580,-9030.512492,2451.505594
577.241883,-4737.318029,-9474.636058,2451.505594
577.242211,-4885.359217,-9252.574275,1608.800546
577.242538,-3478.967927,-8660.409521,2374.896044
577.242866,-1110.308913,-7624.121203,3064.381992
577.243193,0.000000,-6661.853478,4136.915689
577.243521,962.267725,-7254.018232,4903.011187
577.243848,-814.226536,-8438.347739,4443.353888
577.244176,-2516.700203,-9400.615463,3370.820191
577.244503,-4071.132681,-10288.862594,2145.067394
577.244831,-4293.194464,-11029.068536,1685.410096
577.245158,-3849.070898,-10732.986159,1762.019645
577.245486,-1332.370696,-9992.780217,2911.162892
577.245813,962.267725,-9030.512492,4060.306139
577.246141,2812.782580,-8586.388927,4290.134789
577.246468,3404.947333,-8512.368333,4443.353888
577.246796,2220.617826,-9178.553681,3600.648841
577.247123,962.267725,-9622.677246,3294.210641
577.247450,296.082377,-10214.842000,3370.820191
577.247778,370.102971,-10288.862594,3370.820191
577.248105,814.226536,-9696.697840,3983.696590
577.248433,888.247130,-9326.594869,4596.572988
577.248760,888.247130,-9548.656652,4673.182538
577.249088,444.123565,-8586.388927,3217.601092
577.249415,-814.226536,-8438.347739,3140.991542
577.249743,740.205942,-7624.121203,2834.553343
577.250070,296.082377,-7624.121203,2451.505594
577.250398,888.247130,-7328.038826,2757.943793
577.250725,1924.535449,-7328.038826,3140.991542
577.251053,1332.370696,-7550.100608,3830.477490
577.251380,1036.288319,-8068.244768,3907.087040
577.251708,222.061783,-8586.388927,3830.477490
577.252035,-1110.308913,-9622.677246,3907.087040
577.252363,-1628.453072,-9622.677246,3600.648841
577.252690,-2368.659014,-9844.739029,3447.429741
577.253018,-2146.597232,-9622.677246,3217.601092
577.253345,-1628.453072,-8882.471304,3524.039291
577.253673,-1184.329507,-8956.491898,2604.724693
577.254000,-1258.350101,-8290.306550,2451.505594
577.254327,-962.267725,-8068.244768,2451.505594
577.254655,-1110.308913,-7846.182985,2145.067394
577.254982,-1036.288319,-7846.182985,2604.724693
577.255310,-592.164754,-8068.244768,2757.943793
577.255637,-888.247130,-8068.244768,2681.334243
577.255965,-666.185348,-8734.430116,3370.820191
577.256292,-148.041188,-9474.636058,3294.210641
577.256620,0.000000,-9622.677246,3140.991542
577.256947,518.144159,-9696.697840,4060.306139
577.257275,296.082377,-10140.821405,3524.039291
577.257602,148.041188,-9844.739029,3677.258390
577.257930,-444.123565,-9696.697840,2911.162892
577.258257,74.020594,-9696.697840,3217.601092
577.258585,1258.350101,-9326.594869,2834.553343
577.258912,666.185348,-9030.512492,2451.505594
577.259240,1480.411884,-9030.512492,2451.505594
577.259567,888.247130,-9474.636058,2757.943793
577.259895,370.102971,-9992.780217,2451.505594
577.260222,0.000000,-9844.739029,2298.286494
577.260550,-518.144159,-9844.739029,2145.067394
577.260877,-962.267725,-10066.800811,1915.238745
577.261204,-666.185348,-10066.800811,2298.286494
577.261532,-962.267725,-9696.697840,1915.238745
577.261859,-1184.329507,-9400.615463,1838.629195
577.262187,-1184.329507,-9400.615463,2221.676944
577.262514,-1924.535449,-9252.574275,1532.190996
577.262842,-1628.453072,-8956.491898,1455.581446
577.263169,-962.267725,-8438.347739,1532.190996
577.263497,-518.144159,-8142.265362,1302.362347
577.263824,370.102971,-8068.244768,1302.362347
577.264152,148.041188,-8216.285956,1608.800546
577.264479,370.102971,-8808.450710,1455.581446
577.264807,222.061783,-9178.553681,1685.410096
577.265134,0.000000,-9992.780217,1608.800546
577.265462,74.020594,-10288.862594,1455.581446
577.265789,592.164754,-10288.862594,1991.848295
577.266117,1110.308913,-10214.842000,2145.067394
577.266444,1628.453072,-9992.780217,2221.676944
577.266772,1258.350101,-9696.697840,2221.676944
577.267099,962.267725,-9474.636058,2221.676944
577.267426,740.205942,-8956.491898,1225.752797
577.267754,-592.164754,-9252.574275,1455.581446
577.268081,-592.164754,-8734.430116,995.924147
577.268409,-814.226536,-8512.368333,1072.533697
577.268736,-740.205942,-8216.285956,842.705048
577.269064,-370.102971,-8438.347739,995.924147
577.269391,-888.247130,-8364.327145,1149.143247
577.269719,-1110.308913,-8364.327145,842.705048
577.270046,-1332.370696,-8216.285956,383.047749
577.270374,-1406.391290,-8216.285956,459.657299
577.270701,-1406.391290,-7624.121203,536.266849
577.271029,-1036.288319,-8216.285956,536.266849
577.271356,-888.247130,-8438.347739,383.047749
577.271684,-666.185348,-8734.430116,842.705048
577.272011,-666.185348,-8586.388927,919.314598
577.272339,-370.102971,-8808.450710,1838.629195
577.272666,0.000000,-9030.512492,842.705048
577.272994,74.020594,-8956.491898,459.657299
577.273321,222.061783,-9178.553681,612.876398
577.273649,370.102971,-9326.594869,766.095498
577.273976,740.205942,-9252.574275,995.924147
577.274303,740.205942,-9696.697840,995.924147
577.274631,370.102971,-9474.636058,919.314598
577.274958,296.082377,-9622.677246,1072.533697
577.275286,296.082377,-9400.615463,842.705048
577.275613,296.082377,-9104.533087,842.705048
577.275941,222.061783,-9030.512492,229.828649
577.276268,0.000000,-8882.471304,612.876398
577.276596,0.000000,-8734.430116,459.657299
577.276923,-370.102971,-9030.512492,842.705048
577.277251,-592.164754,-8956.491898,612.876398
577.277578,-518.144159,-8882.471304,1072.533697
577.277906,-1406.391290,-9030.512492,536.266849
577.278233,-1110.308913,-9252.574275,536.266849
577.278561,-1332.370696,-9252.574275,306.438199
577.278888,-1110.308913,-9252.574275,306.438199
577.279216,-592.164754,-9252.574275,383.047749
577.279543,-666.185348,-9400.615463,919.314598
577.279871,-296.082377,-9326.594869,612.876398
577.280198,-444.123565,-9474.636058,536.266849
577.280526,-222.061783,-9474.636058,536.266849
577.280853,-370.102971,-9474.636058,76.609550
577.281180,-370.102971,-9696.697840,842.705048
577.281508,-592.164754,-9770.718434,689.485948
577.281835,-222.061783,-9770.718434,919.314598
577.282163,0.000000,-9770.718434,766.095498
577.282490,74.020594,-9474.636058,1072.533697
577.282818,592.164754,-9326.594869,919.314598
577.283145,518.144159,-8956.491898,689.485948
577.283473,370.102971,-9178.553681,689.485948
577.283800,222.061783,-9178.553681,612.876398
577.284128,0.000000,-9104.533087,689.485948
577.284455,74.020594,-8512.368333,459.657299
577.284783,-148.041188,-9030.512492,459.657299
577.285110,74.020594,-9104.533087,306.438199
577.285438,74.020594,-9178.553681,612.876398
577.285765,74.020594,-8956.491898,153.219100
577.286093,0.000000,-8956.491898,0.000000
577.286420,-296.082377,-8660.409521,76.609550
577.286748,-444.123565,-8734.430116,76.609550
577.287075,-518.144159,-8734.430116,153.219100
577.287402,-518.144159,-8956.491898,306.438199
577.287730,-518.144159,-8734.430116,0.000000
577.288057,-518.144159,-9030.512492,536.266849
577.288385,-592.164754,-9030.512492,153.219100
577.288712,-740.205942,-8512.368333,306.438199
577.289040,-222.061783,-8512.368333,459.657299
577.289367,-296.082377,-8438.347739,612.876398
577.289695,0.000000,-8586.388927,689.485948
577.290022,0.000000,-8660.409521,459.657299
577.290350,-444.123565,-8882.471304,842.705048
577.290677,-666.185348,-9030.512492,612.876398
577.291005,-962.267725,-9252.574275,919.314598
577.291332,-518.144159,-9548.656652,1608.800546
577.291660,-592.164754,-8734.430116,842.705048
577.291987,-518.144159,-8808.450710,842.705048
577.292315,-296.082377,-8734.430116,919.314598
577.292642,-296.082377,-8882.471304,536.266849
577.292970,0.000000,-9104.533087,153.219100
577.293297,-370.102971,-8734.430116,919.314598
577.293625,-740.205942,-9252.574275,842.705048
577.293952,-888.247130,-9474.636058,1072.533697
577.294279,-962.267725,-9326.594869,766.095498
577.294607,-740.205942,-9474.636058,306.438199
577.294934,-222.061783,-9030.512492,1302.362347
577.295262,-296.082377,-9326.594869,689.485948
577.295589,-444.123565,-9252.574275,612.876398
577.295917,-518.144159,-9400.615463,612.876398
577.296244,-370.102971,-9104.533087,1149.143247
577.296572,-740.205942,-9030.512492,766.095498
577.296899,-370.102971,-9548.656652,306.438199
577.297227,-296.082377,-9474.636058,612.876398
577.297554,-222.061783,-9326.594869,383.047749
577.297882,0.000000,-9104.533087,306.438199
577.298209,296.082377,-8512.368333,536.266849
577.298537,0.000000,-8882.471304,0.000000
577.298864,0.000000,-9104.533087,306.438199
577.299192,0.000000,-9474.636058,229.828649
577.299519,-296.082377,-9474.636058,459.657299
577.299847,-370.102971,-9622.677246,689.485948
577.300174,-222.061783,-9622.677246,536.266849
577.300502,0.000000,-9696.697840,612.876398
577.300829,0.000000,-9400.615463,536.266849
577.301156,0.000000,-8734.430116,306.438199
577.301484,-296.082377,-8068.244768,229.828649
577.301811,-296.082377,-8216.285956,459.657299
577.302139,-1036.288319,-8808.450710,383.047749
577.302466,-1332.370696,-8734.430116,459.657299
577.302794,-1110.308913,-8734.430116,536.266849
577.303121,-740.205942,-8882.471304,766.095498
577.303449,-666.185348,-8660.409521,1225.752797
577.303776,74.020594,-8956.491898,612.876398
577.304104,296.082377,-8660.409521,536.266849
577.304431,592.164754,-8290.306550,459.657299
577.304759,74.020594,-8586.388927,766.095498
577.305086,0.000000,-9400.615463,766.095498
577.305414,-444.123565,-9770.718434,1149.143247
577.305741,-222.061783,-9992.780217,1225.752797
577.306069,74.020594,-9696.697840,1225.752797
577.306396,0.000000,-9474.636058,1072.533697
577.306724,518.144159,-8882.471304,1378.971896
577.307051,1036.288319,-8586.388927,229.828649
577.307378,740.205942,-7624.121203,0.000000
577.307706,444.123565,-7624.121203,153.219100
577.308033,0.000000,-8216.285956,459.657299
577.308361,-666.185348,-8956.491898,919.314598
577.308688,-592.164754,-9104.533087,689.485948
577.309016,-592.164754,-9474.636058,919.314598
577.309343,-740.205942,-9400.615463,536.266849
577.309671,-296.082377,-9474.636058,536.266849
577.309998,0.000000,-8882.471304,76.609550
577.310326,370.102971,-8068.244768,-459.657299
577.310653,518.144159,-8216.285956,0.000000
577.310981,0.000000,-8808.450710,0.000000
577.311308,-370.102971,-9326.594869,536.266849
577.311636,-740.205942,-9696.697840,689.485948
577.311963,-296.082377,-10066.800811,995.924147
577.312290,-1184.329507,-9844.739029,536.266849
577.312618,-814.226536,-9918.759623,306.438199
577.312945,-74.020594,-9770.718434,383.047749
577.313273,74.020594,-9104.533087,0.000000
577.313600,1036.288319,-9326.594869,459.657299
577.313928,370.102971,-8734.430116,842.705048
577.314255,74.020594,-9474.636058,459.657299
577.314583,0.000000,-9696.697840,919.314598
577.314910,-444.123565,-9992.780217,995.924147
577.315237,-740.205942,-9844.739029,1149.143247
577.315565,-518.144159,-9770.718434,766.095498
577.315892,-740.205942,-9178.553681,536.266849
577.316220,-296.082377,-9030.512492,383.047749
577.316547,-370.102971,-8364.327145,459.657299
577.316875,-444.123565,-8586.388927,459.657299
577.317202,-518.144159,-9326.594869,842.705048
577.317530,-740.205942,-9178.553681,689.485948
577.317857,-740.205942,-9548.656652,766.095498
577.318184,-888.247130,-9622.677246,919.314598
577.318512,-666.185348,-9696.697840,689.485948
577.318839,-222.061783,-9474.636058,766.095498
577.319167,-222.061783,-9030.512492,459.657299
577.319494,-222.061783,-9252.574275,536.266849
577.319822,-222.061783,-9326.594869,536.266849
577.320149,-296.082377,-9474.636058,612.876398
577.320477,-370.102971,-9252.574275,1378.971896
577.320804,-518.144159,-9030.512492,1149.143247
577.321131,-370.102971,-9474.636058,919.314598
577.321459,-518.144159,-9252.574275,689.485948
577.321786,-740.205942,-8808.450710,536.266849
577.322114,-518.144159,-8512.368333,153.219100
577.322441,-518.144159,-7994.224174,689.485948
577.322769,-370.102971,-8512.368333,459.657299
577.323096,-740.205942,-8290.306550,229.828649
577.323424,-296.082377,-8438.347739,383.047749
577.323751,-296.082377,-8586.388927,689.485948
577.324078,-296.082377,-9030.512492,76.609550
577.324406,-518.144159,-8956.491898,766.095498
577.324733,-370.102971,-8956.491898,459.657299
577.325061,-222.061783,-8882.471304,306.438199
577.325388,-370.102971,-8882.471304,306.438199
577.325716,-222.061783,-9104.533087,76.609550
577.326043,-148.041188,-8734.430116,612.876398
577.326371,-518.144159,-9030.512492,689.485948
577.326698,-296.082377,-9030.512492,536.266849
577.327025,-222.061783,-8882.471304,536.266849
577.327353,0.000000,-8808.450710,76.609550
577.327680,370.102971,-8734.430116,536.266849
577.328008,222.061783,-8882.471304,306.438199
577.328335,296.082377,-9030.512492,459.657299
577.328663,74.020594,-9030.512492,842.705048
577.328990,0.000000,-9474.636058,689.485948
577.329317,74.020594,-9622.677246,153.219100
577.329645,444.123565,-9474.636058,919.314598
577.329972,0.000000,-9474.636058,766.095498
577.330300,0.000000,-9178.553681,536.266849
577.330627,0.000000,-8956.491898,536.266849
577.330955,-222.061783,-8660.409521,919.314598
577.331282,0.000000,-8512.368333,459.657299
577.331610,-222.061783,-8734.430116,459.657299
577.331937,-518.144159,-8734.430116,306.438199
577.332264,-296.082377,-8956.491898,459.657299
577.332592,0.000000,-9030.512492,459.657299
577.332919,0.000000,-9030.512492,612.876398
577.333247,-222.061783,-9474.636058,383.047749
577.333574,0.000000,-9400.615463,689.485948
577.333902,-148.041188,-9400.615463,536.266849
577.334229,-74.020594,-9400.615463,689.485948
577.334557,0.000000,-9474.636058,995.924147
577.334884,0.000000,-9844.739029,766.095498
577.335211,-296.082377,-9474.636058,766.095498
577.335539,-296.082377,-9252.574275,612.876398
577.335866,-222.061783,-9252.574275,612.876398
577.336194,-592.164754,-8734.430116,612.876398
577.336521,0.000000,-8882.471304,76.609550
577.336849,-148.041188,-8956.491898,383.047749
577.337176,0.000000,-9030.512492,306.438199
577.337504,-370.102971,-9326.594869,536.266849
577.337831,0.000000,-9252.574275,612.876398
577.338158,74.020594,-9622.677246,536.266849
577.338486,0.000000,-9622.677246,766.095498
577.338813,0.000000,-9252.574275,612.876398
577.339141,148.041188,-9474.636058,383.047749
577.339468,148.041188,-9326.594869,766.095498
577.339796,222.061783,-9326.594869,153.219100
577.340123,0.000000,-9474.636058,459.657299
577.340451,-296.082377,-9474.636058,459.657299
577.340778,-444.123565,-9104.533087,612.876398
577.341105,-592.164754,-9030.512492,612.876398
577.341433,-666.185348,-8290.306550,536.266849
577.341760,-444.123565,-8660.409521,459.657299
577.342088,-370.102971,-9030.512492,536.266849
577.342415,-222.061783,-8956.491898,612.876398
577.342743,-222.061783,-9104.533087,689.485948
577.343070,0.000000,-9252.574275,842.705048
577.343397,0.000000,-9400.615463,766.095498
577.343725,0.000000,-9474.636058,689.485948
577.344052,0.000000,-9326.594869,919.314598
577.344380,-296.082377,-9400.615463,689.485948
577.344707,0.000000,-8808.450710,612.876398
577.345035,-148.041188,-8956.491898,229.828649
577.345362,-222.061783,-9030.512492,536.266849
577.345690,-740.205942,-9178.553681,306.438199
577.346017,-444.123565,-8956.491898,383.047749
577.346344,-370.102971,-8808.450710,612.876398
577.346672,-444.123565,-8660.409521,0.000000
577.346999,-222.061783,-8956.491898,383.047749
577.347327,0.000000,-8734.430116,306.438199
577.347654,-222.061783,-8882.471304,536.266849
577.347982,-148.041188,-9104.533087,536.266849
577.348309,-222.061783,-9252.574275,612.876398
577.348637,-148.041188,-9178.553681,459.657299
577.348964,-296.082377,-9252.574275,459.657299
577.349291,-222.061783,-9326.594869,612.876398
577.349619,-518.144159,-9474.636058,536.266849
577.349946,-814.226536,-8882.471304,153.219100
577.350274,-518.144159,-8956.491898,842.705048
577.350601,-740.205942,-8956.491898,612.876398
577.350929,-518.144159,-9030.512492,536.266849
577.351256,-370.102971,-9030.512492,306.438199
577.351584,-592.164754,-8660.409521,995.924147
577.351911,0.000000,-9104.533087,153.219100
577.352238,-444.123565,-9326.594869,766.095498
577.352566,-222.061783,-9474.636058,689.485948
577.352893,-148.041188,-9400.615463,536.266849
577.353221,0.000000,-9030.512492,1072.533697
577.353548,-296.082377,-9400.615463,1072.533697
577.353876,-666.185348,-9104.533087,766.095498
577.354203,-592.164754,-9252.574275,536.266849
577.354531,-888.247130,-8808.450710,536.266849
577.354858,-666.185348,-8882.471304,689.485948
577.355185,-666.185348,-8734.430116,689.485948
577.355513,-518.144159,-8734.430116,76.609550
577.355840,-592.164754,-8512.368333,536.266849
577.356168,-592.164754,-8586.388927,612.876398
577.356495,-444.123565,-8512.368333,383.047749
577.356823,0.000000,-8956.491898,383.047749
577.357150,-222.061783,-8660.409521,459.657299
577.357478,-296.082377,-8956.491898,612.876398
577.357805,-370.102971,-9252.574275,612.876398
577.358132,-222.061783,-9474.636058,842.705048
577.358460,0.000000,-9252.574275,1072.533697
577.358787,0.000000,-8882.471304,306.438199
577.359115,-370.102971,-9030.512492,689.485948
577.359442,-444.123565,-8882.471304,306.438199
577.359770,-370.102971,-8956.491898,459.657299
577.360097,-444.123565,-8586.388927,383.047749
577.360424,-222.061783,-8216.285956,383.047749
577.360752,-370.102971,-8882.471304,459.657299
577.361079,-148.041188,-9178.553681,459.657299
577.361407,-222.061783,-9178.553681,536.266849
577.361734,0.000000,-9104.533087,459.657299
577.362062,0.000000,-9104.533087,612.876398
577.362389,0.000000,-9252.574275,306.438199
577.362717,0.000000,-9400.615463,306.438199
577.363044,0.000000,-9104.533087,536.266849
577.363371,74.020594,-9400.615463,383.047749
577.363699,0.000000,-9326.594869,153.219100
577.364026,-370.102971,-9252.574275,459.657299
577.364354,-296.082377,-9104.533087,306.438199
577.364681,-296.082377,-9030.512492,153.219100
577.365009,-296.082377,-9030.512492,306.438199
577.365336,148.041188,-8882.471304,76.609550
577.365664,0.000000,-8586.388927,459.657299
577.365991,148.041188,-9252.574275,689.485948
577.366318,0.000000,-9474.636058,689.485948
577.366646,0.000000,-9400.615463,766.095498
577.366973,148.041188,-9474.636058,1302.362347
577.367301,0.000000,-9622.677246,1225.752797
577.367628,-148.041188,-9622.677246,689.485948
577.367956,0.000000,-9474.636058,689.485948
577.368283,-222.061783,-9474.636058,536.266849
577.368611,-222.061783,-9400.615463,612.876398
577.368938,0.000000,-8956.491898,766.095498
577.369265,-296.082377,-9326.594869,689.485948
577.369593,-296.082377,-9178.553681,536.266849
577.369920,-370.102971,-9326.594869,383.047749
577.370248,-222.061783,-9400.615463,689.485948
577.370575,0.000000,-9252.574275,1378.971896
577.370903,74.020594,-9474.636058,459.657299
577.371230,0.000000,-9474.636058,459.657299
577.371558,0.000000,-9474.636058,842.705048
577.371885,-148.041188,-9326.594869,536.266849
577.372212,0.000000,-9178.553681,306.438199
577.372540,-222.061783,-9252.574275,689.485948
577.372867,-296.082377,-9326.594869,536.266849
577.373195,-296.082377,-9252.574275,459.657299
577.373522,-592.164754,-9178.553681,306.438199
577.373850,-296.082377,-8734.430116,612.876398
577.374177,0.000000,-9030.512492,0.000000
577.374505,-222.061783,-9030.512492,459.657299
577.374832,-370.102971,-8808.450710,229.828649
577.375159,0.000000,-9326.594869,306.438199
577.375487,-148.041188,-9252.574275,536.266849
577.375814,0.000000,-9030.512492,689.485948
577.376142,0.000000,-9474.636058,536.266849
577.376469,-148.041188,-9326.594869,536.266849
577.376797,-370.102971,-9400.615463,766.095498
577.377124,-444.123565,-9400.615463,459.657299
577.377451,-296.082377,-9178.553681,306.438199
577.377779,-592.164754,-8882.471304,766.095498
577.378106,-592.164754,-8808.450710,612.876398
577.378434,-592.164754,-8882.471304,459.657299
577.378761,-666.185348,-8808.450710,612.876398
577.379089,-370.102971,-8808.450710,229.828649
577.379416,-814.226536,-8216.285956,612.876398
577.379744,-888.247130,-8660.409521,459.657299
577.380071,-814.226536,-8882.471304,536.266849
577.380398,-444.123565,-8956.491898,842.705048
577.380726,-592.164754,-8808.450710,995.924147
577.381053,-592.164754,-8734.430116,1072.533697
577.381381,-592.164754,-8956.491898,689.485948
577.381708,-592.164754,-9104.533087,842.705048
577.382036,-888.247130,-9104.533087,536.266849
577.382363,-814.226536,-8808.450710,689.485948
577.382691,-962.267725,-8216.285956,1225.752797
577.383018,-518.144159,-8734.430116,842.705048
577.383345,-592.164754,-8808.450710,612.876398
577.383673,-444.123565,-8660.409521,612.876398
577.384000,-370.102971,-8438.347739,459.657299
577.384328,-666.185348,-8808.450710,919.314598
577.384655,0.000000,-9030.512492,766.095498
577.384983,-370.102971,-9030.512492,536.266849
577.385310,-370.102971,-9178.553681,306.438199
577.385638,-148.041188,-9104.533087,536.266849
577.385965,0.000000,-8882.471304,1072.533697
577.386292,-148.041188,-9178.553681,689.485948
577.386620,-444.123565,-9104.533087,459.657299
577.386947,-296.082377,-9030.512492,383.047749
577.387275,0.000000,-9030.512492,306.438199
577.387602,-148.041188,-9104.533087,459.657299
577.387930,-296.082377,-8660.409521,383.047749
577.388257,0.000000,-9326.594869,306.438199
577.388585,0.000000,-9326.594869,306.438199
577.388912,0.000000,-9400.615463,536.266849
577.389239,74.020594,-9474.636058,459.657299
577.389567,296.082377,-9548.656652,536.266849
577.389894,0.000000,-9474.636058,612.876398
577.390222,0.000000,-9400.615463,229.828649
577.390549,148.041188,-9326.594869,383.047749
577.390877,74.020594,-9622.677246,536.266849
577.391204,444.123565,-9474.636058,612.876398
577.391531,148.041188,-9104.533087,306.438199
577.391859,-148.041188,-9326.594869,459.657299
577.392186,-222.061783,-9104.533087,612.876398
577.392514,-222.061783,-9252.574275,383.047749
577.392841,-370.102971,-8660.409521,612.876398
577.393169,74.020594,-8956.491898,842.705048
577.393496,0.000000,-9030.512492,612.876398
577.393824,-370.102971,-9030.512492,536.266849
577.394151,0.000000,-9400.615463,689.485948
577.394478,0.000000,-9326.594869,536.266849
577.394806,0.000000,-9400.615463,459.657299
577.395133,-296.082377,-9474.636058,842.705048
577.395461,-296.082377,-9548.656652,919.314598
577.395788,-370.102971,-9400.615463,766.095498
577.396116,-370.102971,-9252.574275,612.876398
577.396443,-222.061783,-9104.533087,383.047749
577.396771,-592.164754,-9474.636058,919.314598
577.397098,-592.164754,-9252.574275,612.876398
577.397425,-518.144159,-9178.553681,612.876398
577.397753,-148.041188,-9326.594869,689.485948
577.398080,-444.123565,-8882.471304,612.876398
577.398408,-296.082377,-8734.430116,0.000000
577.398735,-296.082377,-9178.553681,536.266849
577.399063,-222.061783,-9030.512492,689.485948
577.399390,0.000000,-9104.533087,612.876398
577.399718,0.000000,-9252.574275,1072.533697
577.400045,74.020594,-9104.533087,842.705048
577.400372,0.000000,-9178.553681,459.657299
577.400700,-222.061783,-9252.574275,459.657299
577.401027,-370.102971,-9252.574275,536.266849
577.401355,-296.082377,-9178.553681,536.266849
577.401682,-370.102971,-8586.388927,612.876398
577.402010,-222.061783,-9326.594869,153.219100
577.402337,-222.061783,-9400.615463,459.657299
577.402665,-148.041188,-9326.594869,536.266849
577.402992,0.000000,-9252.574275,612.876398
577.403319,148.041188,-9400.615463,919.314598
577.403647,-222.061783,-9104.533087,459.657299
577.403974,0.000000,-9474.636058,306.438199
577.404302,0.000000,-9474.636058,306.438199
577.404629,0.000000,-9178.553681,383.047749
577.404957,0.000000,-9030.512492,383.047749
577.405284,-296.082377,-9178.553681,536.266849
577.405612,-444.123565,-9104.533087,229.828649
577.405939,-296.082377,-9030.512492,306.438199
577.406266,-444.123565,-8660.409521,306.438199
577.406594,-222.061783,-8808.450710,842.705048
577.406921,0.000000,-8956.491898,536.266849
577.407249,-444.123565,-8882.471304,689.485948
577.407576,-592.164754,-9104.533087,536.266849
577.407904,-518.144159,-9030.512492,383.047749
577.408231,-444.123565,-9104.533087,459.657299
577.408558,-370.102971,-8956.491898,766.095498
577.408886,0.000000,-9178.553681,612.876398
577.409213,-444.123565,-9104.533087,919.314598
577.409541,-296.082377,-9030.512492,689.485948
577.409868,-666.185348,-9178.553681,536.266849
577.410196,-518.144159,-8808.450710,842.705048
577.410523,-592.164754,-9252.574275,689.485948
577.410851,-592.164754,-9030.512492,612.876398
577.411179,-444.123565,-9030.512492,536.266849
577.411506,-370.102971,-8956.491898,995.924147
577.411834,-222.061783,-8660.409521,1225.752797
577.412161,-296.082377,-8586.388927,536.266849
577.412489,-444.123565,-9030.512492,612.876398
577.412816,-444.123565,-8882.471304,612.876398
577.413144,-370.102971,-8956.491898,689.485948
577.413471,0.000000,-8734.430116,689.485948
577.413799,0.000000,-8734.430116,995.924147
577.414126,-222.061783,-9104.533087,612.876398
577.414454,-370.102971,-8882.471304,612.876398
577.414781,-518.144159,-8956.491898,536.266849
577.415109,-518.144159,-9104.533087,459.657299
577.415436,-444.123565,-8956.491898,459.657299
577.415764,-296.082377,-8586.388927,76.609550
577.416091,-148.041188,-8956.491898,383.047749
577.416419,-222.061783,-9326.594869,459.657299
577.416746,-296.082377,-9326.594869,383.047749
577.417074,-296.082377,-8512.368333,689.485948
577.417401,0.000000,-9548.656652,919.314598
577.417729,-148.041188,-9252.574275,76.609550
577.418056,222.061783,-9178.553681,383.047749
577.418384,-148.041188,-9030.512492,459.657299
577.418712,-222.061783,-8734.430116,1225.752797
577.419039,-296.082377,-8808.450710,153.219100
577.419367,-222.061783,-8882.471304,383.047749
577.419694,-148.041188,-9104.533087,306.438199
577.420022,0.000000,-8956.491898,153.219100
577.420349,-222.061783,-8956.491898,536.266849
577.420677,0.000000,-8808.450710,536.266849
577.421004,-222.061783,-9178.553681,383.047749
577.421332,-148.041188,-9178.553681,306.438199
577.421659,-370.102971,-9474.636058,459.657299
577.421987,0.000000,-9548.656652,766.095498
577.422314,0.000000,-9622.677246,689.485948
577.422642,0.000000,-9696.697840,995.924147
577.422969,0.000000,-9622.677246,842.705048
577.423297,0.000000,-9474.636058,766.095498
577.423624,-148.041188,-9548.656652,689.485948
577.423952,222.061783,-9252.574275,842.705048
577.424279,0.000000,-9178.553681,383.047749
577.424607,-148.041188,-9104.533087,689.485948
577.424934,-296.082377,-9104.533087,766.095498
577.425262,-296.082377,-9178.553681,919.314598
577.425589,0.000000,-8956.491898,1532.190996
577.425917,0.000000,-8734.430116,766.095498
577.426245,-370.102971,-9400.615463,842.705048
577.426572,-148.041188,-9178.553681,689.485948
577.426900,-296.082377,-9252.574275,919.314598
577.427227,-296.082377,-8882.471304,306.438199
577.427555,222.061783,-9400.615463,842.705048
577.427882,-518.144159,-9104.533087,383.047749
577.428210,-444.123565,-9252.574275,229.828649
577.428537,-444.123565,-9326.594869,536.266849
577.428865,-444.123565,-9104.533087,229.828649
577.429192,0.000000,-9400.615463,153.219100
577.429520,0.000000,-8956.491898,459.657299
577.429847,0.000000,-8956.491898,383.047749
577.430175,-222.061783,-9030.512492,383.047749
577.430502,-370.102971,-9178.553681,536.266849
577.430830,-740.205942,-9178.553681,459.657299
577.431157,-296.082377,-9474.636058,766.095498
577.431485,-296.082377,-9400.615463,766.095498
577.431812,-296.082377,-9474.636058,536.266849
577.432140,-148.041188,-9400.615463,612.876398
577.432467,-296.082377,-8882.471304,1149.143247
577.432795,0.000000,-8512.368333,306.438199
577.433123,-222.061783,-8586.388927,306.438199
577.433450,0.000000,-8808.450710,383.047749
577.433778,-222.061783,-8660.409521,306.438199
577.434105,-148.041188,-8882.471304,459.657299
577.434433,-296.082377,-8660.409521,536.266849
577.434760,0.000000,-9178.553681,383.047749
577.435088,-148.041188,-9178.553681,536.266849
577.435415,-296.082377,-9104.533087,536.266849
577.435743,0.000000,-9252.574275,383.047749
577.436070,-148.041188,-8586.388927,306.438199
577.436398,-296.082377,-8882.471304,766.095498
577.436725,-222.061783,-8882.471304,536.266849
577.437053,-222.061783,-9030.512492,689.485948
577.437380,-370.102971,-8956.491898,383.047749
577.437708,-518.144159,-9030.512492,766.095498
577.438035,-444.123565,-9178.553681,766.095498
577.438363,-666.185348,-8512.368333,383.047749
577.438690,-518.144159,-8586.388927,383.047749
577.439018,-296.082377,-8660.409521,612.876398
577.439345,-370.102971,-8438.347739,1225.752797
577.439673,0.000000,-8512.368333,383.047749
577.440000,-518.144159,-9104.533087,536.266849
577.440328,-592.164754,-9178.553681,612.876398
577.440656,-518.144159,-9030.512492,459.657299
577.440983,-592.164754,-8808.450710,536.266849
577.441311,0.000000,-8734.430116,842.705048
577.441638,-222.061783,-8956.491898,459.657299
577.441966,-592.164754,-8882.471304,383.047749
577.442293,-444.123565,-8660.409521,229.828649
577.442621,-518.144159,-9030.512492,383.047749
577.442948,-740.205942,-8438.347739,612.876398
577.443276,-518.144159,-9474.636058,612.876398
577.443603,-592.164754,-9178.553681,536.266849
577.443931,-592.164754,-9104.533087,766.095498
577.444258,-370.102971,-9252.574275,459.657299
577.444586,-518.144159,-8882.471304,842.705048
577.444913,0.000000,-9474.636058,459.657299
577.445241,-296.082377,-9178.553681,459.657299
577.445568,-296.082377,-9178.553681,383.047749
577.445896,0.000000,-9178.553681,459.657299
577.446223,-222.061783,-9030.512492,766.095498
577.446551,0.000000,-8956.491898,383.047749
577.446878,-222.061783,-8956.491898,229.828649
577.447206,-370.102971,-9030.512492,229.828649
577.447533,-592.164754,-9030.512492,459.657299
577.447861,-370.102971,-9178.553681,383.047749
577.448189,74.020594,-9030.512492,612.876398
577.448516,0.000000,-9326.594869,383.047749
577.448844,0.000000,-9400.615463,383.047749
577.449171,-222.061783,-9474.636058,459.657299
577.449499,74.020594,-9548.656652,689.485948
577.449826,296.082377,-9326.594869,842.705048
577.450154,0.000000,-9474.636058,306.438199
577.450481,0.000000,-9326.594869,612.876398
577.450809,0.000000,-9252.574275,689.485948
577.451136,-296.082377,-9178.553681,459.657299
577.451464,74.020594,-8882.471304,1149.143247
577.451791,-148.041188,-9030.512492,306.438199
577.452119,-296.082377,-9326.594869,689.485948
577.452446,-148.041188,-9252.574275,612.876398
577.452774,-370.102971,-9178.553681,842.705048
577.453101,0.000000,-9178.553681,459.657299
577.453429,0.000000,-9400.615463,612.876398
577.453756,-74.020594,-9178.553681,919.314598
577.454084,-148.041188,-9326.594869,612.876398
577.454411,-296.082377,-9326.594869,842.705048
577.454739,-370.102971,-9400.615463,459.657299
577.455067,-444.123565,-9474.636058,383.047749
577.455394,-296.082377,-9178.553681,536.266849
577.455722,-370.102971,-9178.553681,612.876398
577.456049,-296.082377,-9178.553681,459.657299
577.456377,-444.123565,-9178.553681,459.657299
577.456704,-370.102971,-8364.327145,612.876398
577.457032,-148.041188,-9030.512492,689.485948
577.457359,0.000000,-8956.491898,459.657299
577.457687,0.000000,-9400.615463,536.266849
577.458014,74.020594,-9326.594869,459.657299
577.458342,-222.061783,-9104.533087,1378.971896
577.458669,148.041188,-9030.512492,229.828649
577.458997,0.000000,-9326.594869,689.485948
577.459324,0.000000,-9400.615463,536.266849
577.459652,-222.061783,-9178.553681,536.266849
577.459979,-222.061783,-9030.512492,995.924147
577.460307,0.000000,-8808.450710,383.047749
577.460634,-370.102971,-9030.512492,459.657299
577.460962,-222.061783,-8956.491898,459.657299
577.461289,-296.082377,-8882.471304,383.047749
577.461617,-222.061783,-8956.491898,229.828649
577.461944,0.000000,-9030.512492,383.047749
577.462272,-222.061783,-9030.512492,229.828649
577.462600,0.000000,-8808.450710,306.438199
577.462927,-296.082377,-8956.491898,383.047749
577.463255,0.000000,-9104.533087,383.047749
577.463582,-296.082377,-9252.574275,842.705048
577.463910,-370.102971,-9030.512492,536.266849
577.464237,-740.205942,-9104.533087,919.314598
577.464565,-740.205942,-9030.512492,689.485948
577.464892,-666.185348,-9030.512492,766.095498
577.465220,-444.123565,-8660.409521,1225.752797
577.465547,-148.041188,-8660.409521,612.876398
577.465875,-888.247130,-8586.388927,612.876398
577.466202,-814.226536,-8734.430116,459.657299
577.466530,-666.185348,-8586.388927,459.657299
577.466857,-444.123565,-8586.388927,459.657299
577.467185,74.020594,-9104.533087,612.876398
577.467512,-518.144159,-8956.491898,842.705048
577.467840,-444.123565,-9252.574275,919.314598
577.468167,-518.144159,-9400.615463,919.314598
577.468495,-518.144159,-9104.533087,536.266849
577.468822,-296.082377,-9474.636058,842.705048
577.469150,-740.205942,-9030.512492,459.657299
577.469477,-444.123565,-9326.594869,536.266849
577.469805,-444.123565,-8882.471304,536.266849
577.470133,-444.123565,-9030.512492,612.876398
577.470460,0.000000,-9030.512492,612.876398
577.470788,0.000000,-8956.491898,153.219100
577.471115,-148.041188,-9030.512492,306.438199
577.471443,0.000000,-9178.553681,536.266849
577.471770,0.000000,-9178.553681,229.828649
577.472098,222.061783,-9326.594869,612.876398
577.472425,370.102971,-9178.553681,306.438199
577.472753,296.082377,-9474.636058,536.266849
577.473080,222.061783,-9474.636058,536.266849
577.473408,0.000000,-9474.636058,766.095498
577.473735,0.000000,-9178.553681,536.266849
577.474063,0.000000,-8660.409521,459.657299
577.474390,-148.041188,-9178.553681,229.828649
577.474718,-296.082377,-9030.512492,153.219100
577.475045,-296.082377,-9326.594869,536.266849
577.475373,-370.102971,-8956.491898,459.657299
577.475700,-148.041188,-8586.388927,76.609550
577.476028,-296.082377,-9030.512492,766.095498
577.476355,-444.123565,-9178.553681,612.876398
577.476683,-370.102971,-9252.574275,612.876398
577.477011,-296.082377,-9326.594869,612.876398
577.477338,0.000000,-9252.574275,766.095498
577.477666,-444.123565,-9474.636058,1072.533697
577.477993,-370.102971,-9474.636058,919.314598
577.478321,-444.123565,-9400.615463,612.876398
577.478648,-666.185348,-9252.574275,689.485948
577.478976,-518.144159,-9030.512492,689.485948
577.479303,-518.144159,-8734.430116,612.876398
577.479631,-444.123565,-9104.533087,306.438199
577.479958,-370.102971,-8956.491898,536.266849
577.480286,-370.102971,-9030.512492,459.657299
577.480613,-222.061783,-9104.533087,689.485948
577.480941,0.000000,-9104.533087,229.828649
577.481268,0.000000,-9326.594869,383.047749
577.481596,0.000000,-9474.636058,306.438199
577.481923,0.000000,-9326.594869,383.047749
577.482251,0.000000,-9474.636058,383.047749
577.482578,222.061783,-9400.615463,919.314598
577.482906,74.020594,-9400.615463,459.657299
577.483233,0.000000,-9252.574275,306.438199
577.483561,74.020594,-9178.553681,76.609550
577.483888,0.000000,-8956.491898,383.047749
577.484216,0.000000,-8586.388927,766.095498
577.484544,370.102971,-8808.450710,0.000000
577.484871,0.000000,-8882.471304,153.219100
577.485199,0.000000,-9104.533087,383.047749
577.485526,0.000000,-9104.533087,459.657299
577.485854,0.000000,-9030.512492,536.266849
577.486181,222.061783,-9104.533087,766.095498
577.486509,74.020594,-9474.636058,229.828649
577.486836,0.000000,-9474.636058,536.266849
577.487164,-148.041188,-9252.574275,459.657299
577.487491,-222.061783,-9252.574275,612.876398
577.487819,-296.082377,-9104.533087,459.657299
577.488146,-592.164754,-9178.553681,689.485948
577.488474,-666.185348,-8808.450710,612.876398
577.488801,-592.164754,-8882.471304,536.266849
577.489129,-592.164754,-8956.491898,842.705048
577.489456,-518.144159,-8882.471304,459.657299
577.489784,-814.226536,-8808.450710,919.314598
577.490111,-444.123565,-8734.430116,842.705048
577.490439,-370.102971,-9030.512492,459.657299
577.490766,-666.185348,-8956.491898,919.314598
577.491094,-148.041188,-9178.553681,612.876398
577.491421,-370.102971,-9104.533087,1225.752797
577.491749,-370.102971,-9400.615463,842.705048
577.492077,-444.123565,-9326.594869,919.314598
577.492404,-444.123565,-9326.594869,766.095498
577.492732,-296.082377,-8808.450710,1378.971896
577.493059,-592.164754,-8808.450710,1149.143247
577.493387,-370.102971,-8882.471304,612.876398
577.493714,-296.082377,-8882.471304,689.485948
577.494042,-148.041188,-9178.553681,306.438199
577.494369,-370.102971,-9104.533087,612.876398
577.494697,-518.144159,-8586.388927,766.095498
577.495024,-222.061783,-8956.491898,612.876398
577.495352,-148.041188,-9104.533087,459.657299
577.495679,0.000000,-9326.594869,383.047749
577.496007,0.000000,-9104.533087,459.657299
577.496334,0.000000,-9104.533087,383.047749
577.496662,-592.164754,-8882.471304,153.219100
577.496989,-518.144159,-9104.533087,0.000000
577.497317,-444.123565,-8808.450710,306.438199
577.497644,-444.123565,-9104.533087,153.219100
577.497972,-370.102971,-9030.512492,306.438199
577.498299,-148.041188,-8438.347739,0.000000
577.498627,-370.102971,-8956.491898,306.438199
577.498955,-444.123565,-8882.471304,229.828649
577.499282,-222.061783,-8882.471304,306.438199
577.499610,-148.041188,-8734.430116,459.657299
577.499937,-222.061783,-8956.491898,536.266849
577.500265,0.000000,-9326.594869,306.438199
577.500592,-148.041188,-9252.574275,612.876398
577.500920,0.000000,-9400.615463,536.266849
577.501247,0.000000,-9326.594869,306.438199
577.501575,-296.082377,-9178.553681,842.705048
577.501902,-296.082377,-9178.553681,536.266849
577.502230,-592.164754,-9030.512492,459.657299
577.502557,-296.082377,-8956.491898,612.876398
577.502885,-370.102971,-8808.450710,536.266849
577.503212,0.000000,-8882.471304,995.924147
577.503540,-518.144159,-8660.409521,919.314598
577.503867,-222.061783,-9030.512492,459.657299
577.504195,-444.123565,-9326.594869,612.876398
577.504522,-666.185348,-9178.553681,766.095498
577.504850,-296.082377,-9326.594869,1149.143247
577.505177,-296.082377,-9400.615463,766.095498
577.505505,-370.102971,-9474.636058,919.314598
577.505832,-370.102971,-9400.615463,842.705048
577.506160,-296.082377,-9252.574275,689.485948
577.506488,-148.041188,-9030.512492,0.000000
577.506815,-370.102971,-9030.512492,919.314598
577.507143,0.000000,-8956.491898,612.876398
577.507470,-222.061783,-9030.512492,536.266849
577.507798,-296.082377,-8956.491898,536.266849
577.508125,-296.082377,-9252.574275,612.876398
577.508453,0.000000,-9030.512492,995.924147
577.508780,0.000000,-9474.636058,919.314598
577.509108,-222.061783,-9474.636058,842.705048
577.509435,-370.102971,-9474.636058,842.705048
577.509763,0.000000,-9400.615463,689.485948
577.510090,148.041188,-9474.636058,689.485948
577.510418,148.041188,-9030.512492,766.095498
577.510745,-148.041188,-9326.594869,689.485948
577.511073,0.000000,-9178.553681,689.485948
577.511401,-296.082377,-9104.533087,536.266849
577.511728,0.000000,-9326.594869,919.314598
577.512056,-296.082377,-9030.512492,536.266849
577.512383,-148.041188,-8956.491898,536.266849
577.512711,-444.123565,-9104.533087,689.485948
577.513039,-296.082377,-9252.574275,689.485948
577.513366,-592.164754,-9326.594869,536.266849
577.513694,-296.082377,-9178.553681,766.095498
577.514022,-222.061783,-9400.615463,612.876398
577.514349,-296.082377,-9474.636058,689.485948
577.514677,-148.041188,-9178.553681,612.876398
577.515004,-222.061783,-9104.533087,689.485948
577.515332,-222.061783,-8808.450710,842.705048
577.515660,-370.102971,-9030.512492,536.266849
577.515987,-444.123565,-9030.512492,459.657299
577.516315,-592.164754,-8734.430116,383.047749
577.516643,-518.144159,-8808.450710,153.219100
577.516970,0.000000,-8660.409521,536.266849
577.517298,0.000000,-8956.491898,229.828649
577.517625,-148.041188,-9104.533087,536.266849
577.517953,-444.123565,-8956.491898,612.876398
577.518281,-444.123565,-9178.553681,536.266849
577.518608,74.020594,-9030.512492,766.095498
577.518936,0.000000,-9104.533087,459.657299
577.519264,0.000000,-8882.471304,536.266849
577.519591,0.000000,-9104.533087,689.485948
577.519919,-370.102971,-8734.430116,612.876398
577.520246,-444.123565,-8808.450710,229.828649
577.520574,0.000000,-8660.409521,0.000000
577.520902,-814.226536,-8586.388927,229.828649
577.521229,-444.123565,-8808.450710,306.438199
577.521557,-296.082377,-8734.430116,383.047749
577.521885,-148.041188,-8808.450710,306.438199
577.522212,0.000000,-8586.388927,612.876398
577.522540,-148.041188,-8734.430116,612.876398
577.522867,-148.041188,-8808.450710,153.219100
577.523195,0.000000,-8956.491898,612.876398
577.523523,0.000000,-8882.471304,536.266849
577.523850,-296.082377,-8882.471304,383.047749
577.524178,0.000000,-9252.574275,536.266849
577.524506,-370.102971,-8882.471304,612.876398
577.524833,-592.164754,-8956.491898,459.657299
577.525161,-666.185348,-9104.533087,536.266849
577.525488,-370.102971,-8956.491898,536.266849
577.525816,-666.185348,-9030.512492,383.047749
577.526144,-370.102971,-9030.512492,383.047749
577.526471,-518.144159,-8956.491898,766.095498
577.526799,-666.185348,-9252.574275,689.485948
577.527127,-740.205942,-9400.615463,689.485948
577.527454,-518.144159,-8734.430116,919.314598
577.527782,-370.102971,-9400.615463,842.705048
577.528109,-296.082377,-9696.697840,919.314598
577.528437,-370.102971,-9696.697840,919.314598
577.528765,-296.082377,-9400.615463,919.314598
577.529092,-148.041188,-9104.533087,1149.143247
577.529420,-296.082377,-9104.533087,383.047749
577.529748,-592.164754,-9178.553681,536.266849
577.530075,-222.061783,-9474.636058,459.657299
577.530403,-296.082377,-9400.615463,536.266849
577.530730,0.000000,-9030.512492,919.314598
577.531058,0.000000,-9252.574275,153.219100
577.531386,-444.123565,-9400.615463,612.876398
577.531713,-296.082377,-9326.594869,612.876398
577.532041,-296.082377,-9400.615463,306.438199
577.532369,0.000000,-9252.574275,689.485948
577.532696,148.041188,-9104.533087,153.219100
577.533024,0.000000,-9178.553681,306.438199
577.533351,148.041188,-9326.594869,153.219100
577.533679,0.000000,-9252.574275,459.657299
577.534007,0.000000,-9252.574275,229.828649
577.534334,-518.144159,-9104.533087,536.266849
577.534662,-296.082377,-9326.594869,306.438199
577.534990,-74.020594,-9400.615463,76.609550
577.535317,0.000000,-8956.491898,306.438199
577.535645,0.000000,-9252.574275,229.828649
577.535972,0.000000,-8734.430116,0.000000
577.536300,0.000000,-8808.450710,689.485948
577.536628,0.000000,-9104.533087,383.047749
577.536955,222.061783,-9178.553681,766.095498
577.537283,74.020594,-9178.553681,383.047749
577.537611,74.020594,-9104.533087,383.047749
577.537938,-370.102971,-8660.409521,536.266849
577.538266,-370.102971,-9104.533087,842.705048
577.538593,-592.164754,-8956.491898,689.485948
577.538921,-814.226536,-8660.409521,612.876398
577.539249,-592.164754,-8808.450710,1149.143247
577.539576,-370.102971,-8734.430116,459.657299
577.539904,-444.123565,-8438.347739,766.095498
577.540232,-444.123565,-8660.409521,919.314598
577.540559,-592.164754,-8734.430116,766.095498
577.540887,-518.144159,-8956.491898,919.314598
577.541214,-1036.288319,-9178.553681,919.314598
577.541542,-518.144159,-9178.553681,1225.752797
577.541870,-444.123565,-9178.553681,612.876398
577.542197,-222.061783,-9400.615463,919.314598
577.542525,-370.102971,-9326.594869,995.924147
577.542852,-592.164754,-9030.512492,995.924147
577.543180,0.000000,-9252.574275,612.876398
577.543508,-444.123565,-9326.594869,612.876398
577.543835,-370.102971,-9104.533087,383.047749
577.544163,-296.082377,-8734.430116,383.047749
577.544491,296.082377,-8956.491898,766.095498
577.544818,0.000000,-8882.471304,459.657299
577.545146,0.000000,-8956.491898,76.609550
577.545473,0.000000,-9178.553681,459.657299
577.545801,-148.041188,-9178.553681,306.438199
577.546129,0.000000,-9400.615463,229.828649
577.546456,0.000000,-9252.574275,229.828649
577.546784,-296.082377,-9474.636058,459.657299
577.547112,-222.061783,-9252.574275,153.219100
577.547439,-222.061783,-9178.553681,459.657299
577.547767,-296.082377,-9178.553681,229.828649
577.548094,-370.102971,-8956.491898,536.266849
577.548422,-444.123565,-9104.533087,153.219100
577.548750,-296.082377,-8956.491898,229.828649
577.549077,-148.041188,-8882.471304,459.657299
577.549405,0.000000,-8882.471304,459.657299
577.549733,148.041188,-8956.491898,919.314598
577.550060,-296.082377,-9178.553681,306.438199
577.550388,-444.123565,-9400.615463,612.876398
577.550715,-592.164754,-9400.615463,612.876398
577.551043,-444.123565,-9400.615463,766.095498
577.551371,-370.102971,-9104.533087,919.314598
577.551698,-296.082377,-9178.553681,995.924147
577.552026,-592.164754,-9030.512492,1149.143247
577.552354,-888.247130,-8956.491898,842.705048
577.552681,-1036.288319,-8660.409521,536.266849
577.553009,-740.205942,-8660.409521,766.095498
577.553336,-666.185348,-8216.285956,536.266849
577.553664,-814.226536,-8512.368333,689.485948
577.553992,-666.185348,-8882.471304,689.485948
577.554319,-518.144159,-8882.471304,536.266849
577.554647,-370.102971,-8956.491898,689.485948
577.554975,-518.144159,-8660.409521,919.314598
577.555302,-370.102971,-8882.471304,1072.533697
577.555630,-148.041188,-9030.512492,612.876398
577.555957,0.000000,-9178.553681,459.657299
577.556285,0.000000,-9104.533087,383.047749
577.556613,0.000000,-9030.512492,689.485948
577.556940,222.061783,-9178.553681,306.438199
577.557268,-296.082377,-8882.471304,0.000000
577.557596,0.000000,-8882.471304,229.828649
577.557923,0.000000,-8956.491898,306.438199
577.558251,148.041188,-8956.491898,536.266849
577.558578,0.000000,-9474.636058,306.438199
577.558906,148.041188,-9178.553681,459.657299
577.559234,148.041188,-9326.594869,383.047749
577.559561,222.061783,-9474.636058,383.047749
577.559889,0.000000,-9400.615463,459.657299
577.560217,222.061783,-9030.512492,306.438199
577.560544,0.000000,-9178.553681,306.438199
577.560872,0.000000,-9474.636058,383.047749
577.561199,-444.123565,-9400.615463,459.657299
577.561527,-444.123565,-9104.533087,612.876398
577.561855,-518.144159,-8512.368333,536.266849
577.562182,-592.164754,-9104.533087,306.438199
577.562510,-444.123565,-9030.512492,383.047749
577.562838,-296.082377,-9104.533087,612.876398
577.563165,-296.082377,-9178.553681,842.705048
577.563493,0.000000,-8956.491898,1149.143247
577.563820,-148.041188,-9326.594869,689.485948
577.564148,-222.061783,-9474.636058,842.705048
577.564476,-370.102971,-9622.677246,1149.143247
577.564803,-444.123565,-9474.636058,919.314598
577.565131,0.000000,-9474.636058,842.705048
577.565459,0.000000,-9474.636058,689.485948
577.565786,-370.102971,-9326.594869,919.314598
577.566114,-666.185348,-9104.533087,919.314598
577.566441,-666.185348,-9178.553681,689.485948
577.566769,-518.144159,-9178.553681,842.705048
577.567097,0.000000,-9104.533087,536.266849
577.567424,-814.226536,-8956.491898,536.266849
577.567752,-444.123565,-9104.533087,612.876398
577.568080,-370.102971,-9326.594869,536.266849
577.568407,-296.082377,-9326.594869,459.657299
577.568735,0.000000,-9030.512492,919.314598
577.569062,-296.082377,-9474.636058,766.095498
577.569390,-222.061783,-9400.615463,612.876398
577.569718,-222.061783,-9400.615463,766.095498
577.570045,0.000000,-9104.533087,689.485948
577.570373,74.020594,-8882.471304,842.705048
577.570701,-222.061783,-8734.430116,306.438199
577.571028,-444.123565,-8882.471304,383.047749
577.571356,-444.123565,-8808.450710,383.047749
577.571683,-518.144159,-8734.430116,459.657299
577.572011,-74.020594,-8438.347739,306.438199
577.572339,0.000000,-8586.388927,306.438199
577.572666,0.000000,-8882.471304,383.047749
577.572994,-370.102971,-9030.512492,383.047749
577.573322,0.000000,-9104.533087,459.657299
577.573649,0.000000,-9104.533087,612.876398
577.573977,0.000000,-9104.533087,229.828649
577.574304,0.000000,-9178.553681,383.047749
577.574632,0.000000,-9474.636058,612.876398
577.574960,-222.061783,-9252.574275,612.876398
577.575287,-518.144159,-9104.533087,459.657299
577.575615,-444.123565,-8586.388927,306.438199
577.575943,-740.205942,-8956.491898,536.266849
577.576270,-444.123565,-8956.491898,459.657299
577.576598,-444.123565,-8808.450710,153.219100
577.576925,-296.082377,-8660.409521,306.438199
577.577253,0.000000,-8808.450710,306.438199
577.577581,-370.102971,-8734.430116,459.657299
577.577908,-444.123565,-8882.471304,689.485948
577.578236,-296.082377,-9252.574275,689.485948
577.578564,-592.164754,-9252.574275,612.876398
577.578891,-444.123565,-9178.553681,689.485948
577.579219,-370.102971,-9252.574275,919.314598
577.579546,-222.061783,-8808.450710,766.095498
577.579874,-444.123565,-8734.430116,306.438199
577.580202,-370.102971,-8586.388927,383.047749
577.580529,-444.123565,-8808.450710,306.438199
577.580857,-370.102971,-8364.327145,459.657299
577.581185,-296.082377,-8956.491898,153.219100
577.581512,-222.061783,-8882.471304,459.657299
577.581840,-222.061783,-9326.594869,459.657299
577.582167,0.000000,-9474.636058,766.095498
577.582495,148.041188,-9326.594869,842.705048
577.582823,-222.061783,-9030.512492,842.705048
577.583150,148.041188,-9474.636058,766.095498
577.583478,-222.061783,-9400.615463,689.485948
577.583806,0.000000,-9400.615463,612.876398
577.584133,0.000000,-9474.636058,842.705048
577.584461,-222.061783,-8956.491898,766.095498
577.584788,-518.144159,-9030.512492,766.095498
577.585116,-592.164754,-9326.594869,766.095498
577.585444,-444.123565,-9030.512492,612.876398
577.585771,-444.123565,-8882.471304,306.438199
577.586099,-296.082377,-8586.388927,919.314598
577.586427,-296.082377,-9252.574275,536.266849
577.586754,-222.061783,-9400.615463,689.485948
577.587082,-148.041188,-9400.615463,766.095498
577.587409,0.000000,-9622.677246,766.095498
577.587737,-222.061783,-9918.759623,766.095498
577.588065,0.000000,-9696.697840,689.485948
577.588392,-444.123565,-9474.636058,689.485948
577.588720,-148.041188,-9326.594869,766.095498
577.589048,-222.061783,-9252.574275,766.095498
577.589375,-148.041188,-8882.471304,1149.143247
577.589703,-592.164754,-8882.471304,536.266849
577.590030,-296.082377,-8808.450710,612.876398
577.590358,-296.082377,-8808.450710,536.266849
577.590686,-296.082377,-9030.512492,536.266849
577.591013,0.000000,-9104.533087,76.609550
577.591341,0.000000,-9252.574275,612.876398
577.591669,0.000000,-9104.533087,689.485948
577.591996,0.000000,-9326.594869,766.095498
577.592324,-222.061783,-9400.615463,766.095498
577.592651,0.000000,-9326.594869,689.485948
577.592979,-370.102971,-9178.553681,995.924147
577.593307,-296.082377,-9252.574275,689.485948
577.593634,-222.061783,-9400.615463,536.266849
577.593962,-370.102971,-9400.615463,536.266849
577.594290,-296.082377,-8882.471304,383.047749
577.594617,0.000000,-8660.409521,689.485948
577.594945,-222.061783,-8882.471304,229.828649
577.595272,-296.082377,-8808.450710,76.609550
577.595600,0.000000,-8956.491898,0.000000
577.595928,0.000000,-9030.512492,306.438199
577.596255,148.041188,-9104.533087,612.876398
577.596583,0.000000,-8808.450710,689.485948
577.596911,0.000000,-9252.574275,612.876398
577.597238,0.000000,-9474.636058,536.266849
577.597566,-370.102971,-9400.615463,383.047749
577.597893,-148.041188,-9400.615463,766.095498
577.598221,0.000000,-9104.533087,383.047749
577.598549,-370.102971,-9030.512492,459.657299
577.598876,-370.102971,-9104.533087,229.828649
577.599204,-666.185348,-8882.471304,306.438199
577.599532,-518.144159,-8734.430116,306.438199
577.599859,-370.102971,-8586.388927,612.876398
577.600187,0.000000,-8956.491898,229.828649
577.600514,-444.123565,-9252.574275,536.266849
577.600842,-370.102971,-9474.636058,383.047749
577.601170,-222.061783,-9252.574275,612.876398
577.601497,370.102971,-9104.533087,766.095498
577.601825,-592.164754,-9104.533087,919.314598
577.602153,-370.102971,-9474.636058,689.485948
577.602480,-666.185348,-9252.574275,766.095498
577.602808,-592.164754,-9178.553681,689.485948
577.603135,-148.041188,-9178.553681,766.095498
577.603463,-370.102971,-8956.491898,383.047749
577.603791,-666.185348,-8882.471304,459.657299
577.604118,-296.082377,-8956.491898,536.266849
577.604446,-666.185348,-9030.512492,689.485948
577.604774,-370.102971,-8882.471304,536.266849
577.605101,-666.185348,-8586.388927,842.705048
577.605429,-370.102971,-8956.491898,536.266849
577.605756,-296.082377,-9178.553681,1072.533697
577.606084,0.000000,-9474.636058,766.095498
577.606412,-148.041188,-9104.533087,842.705048
577.606739,74.020594,-9030.512492,842.705048
577.607067,-592.164754,-8882.471304,689.485948
577.607394,-592.164754,-8956.491898,612.876398
577.607722,-518.144159,-8956.491898,459.657299
577.608050,-666.185348,-8882.471304,383.047749
577.608377,-666.185348,-8882.471304,995.924147
577.608705,-444.123565,-8956.491898,612.876398
577.609033,-222.061783,-8956.491898,536.266849
577.609360,0.000000,-8882.471304,536.266849
577.609688,148.041188,-8808.450710,459.657299
577.610015,296.082377,-8808.450710,536.266849
577.610343,0.000000,-8882.471304,612.876398
577.610671,0.000000,-9178.553681,766.095498
577.610998,0.000000,-9400.615463,766.095498
577.611326,-148.041188,-9400.615463,459.657299
577.611653,-222.061783,-9474.636058,689.485948
577.611981,0.000000,-9178.553681,1072.533697
577.612309,0.000000,-9326.594869,229.828649
577.612636,-222.061783,-8882.471304,229.828649
577.612964,-444.123565,-8734.430116,306.438199
577.613291,-148.041188,-8956.491898,153.219100
577.613619,-74.020594,-8512.368333,229.828649
577.613947,0.000000,-8882.471304,383.047749
577.614274,-370.102971,-9178.553681,459.657299
577.614602,-148.041188,-9400.615463,306.438199
577.614929,0.000000,-9474.636058,842.705048
577.615257,370.102971,-9474.636058,842.705048
577.615585,148.041188,-9252.574275,842.705048
577.615912,0.000000,-9474.636058,689.485948
577.616240,74.020594,-9474.636058,766.095498
577.616567,0.000000,-9474.636058,612.876398
577.616895,148.041188,-9474.636058,1225.752797
577.617223,74.020594,-9178.553681,612.876398
577.617550,-148.041188,-9252.574275,842.705048
577.617878,-444.123565,-9474.636058,1072.533697
577.618205,-518.144159,-9178.553681,766.095498
577.618533,-518.144159,-9030.512492,459.657299
577.618861,-296.082377,-8512.368333,153.219100
577.619188,-370.102971,-8882.471304,612.876398
577.619516,-296.082377,-9030.512492,689.485948
577.619843,-370.102971,-9030.512492,689.485948
577.620171,-222.061783,-9178.553681,536.266849
577.620499,0.000000,-9400.615463,766.095498
577.620826,-296.082377,-9400.615463,995.924147
577.621154,-148.041188,-9326.594869,536.266849
577.621481,-370.102971,-9104.533087,612.876398
577.621809,-222.061783,-9178.553681,383.047749
577.622137,0.000000,-9178.553681,229.828649
577.622464,-518.144159,-8734.430116,459.657299
577.622792,-518.144159,-8882.471304,306.438199
577.623119,-444.123565,-9030.512492,536.266849
577.623447,-814.226536,-9030.512492,306.438199
577.623775,-518.144159,-9178.553681,383.047749
577.624102,-592.164754,-8808.450710,612.876398
577.624430,0.000000,-8882.471304,229.828649
577.624757,0.000000,-8956.491898,383.047749
577.625085,-148.041188,-9104.533087,229.828649
577.625413,0.000000,-9104.533087,306.438199
577.625740,0.000000,-9474.636058,612.876398
577.626068,-222.061783,-9030.512492,459.657299
577.626395,-148.041188,-9474.636058,536.266849
577.626723,0.000000,-9474.636058,612.876398
577.627050,0.000000,-9104.533087,612.876398
577.627378,74.020594,-8882.471304,459.657299
577.627706,296.082377,-8882.471304,612.876398
577.628033,-296.082377,-9104.533087,536.266849
577.628361,0.000000,-8956.491898,612.876398
577.628688,-222.061783,-8808.450710,383.047749
577.629016,-444.123565,-8734.430116,766.095498
577.629344,-518.144159,-8956.491898,536.266849
577.629671,-296.082377,-9030.512492,766.095498
577.629999,-370.102971,-8882.471304,612.876398
577.630326,-296.082377,-8734.430116,689.485948
577.630654,-444.123565,-8956.491898,459.657299
577.630982,-222.061783,-8956.491898,842.705048
577.631309,-518.144159,-8956.491898,536.266849
577.631637,-444.123565,-9104.533087,689.485948
577.631964,-592.164754,-8808.450710,536.266849
577.632292,-518.144159,-9178.553681,612.876398
577.632620,-518.144159,-9252.574275,536.266849
577.632947,-444.123565,-9104.533087,689.485948
577.633275,-370.102971,-8808.450710,536.266849
577.633602,0.000000,-9030.512492,306.438199
577.633930,-148.041188,-9252.574275,383.047749
577.634258,-444.123565,-8808.450710,459.657299
577.634585,74.020594,-9178.553681,612.876398
577.634913,-296.082377,-9178.553681,612.876398
577.635240,-222.061783,-9474.636058,766.095498
577.635568,0.000000,-9474.636058,766.095498
577.635896,74.020594,-9252.574275,383.047749
577.636223,0.000000,-8808.450710,612.876398
577.636551,-222.061783,-9104.533087,689.485948
577.636878,-444.123565,-9104.533087,612.876398
577.637206,-296.082377,-9030.512492,383.047749
577.637534,-370.102971,-9252.574275,766.095498
577.637861,-148.041188,-9252.574275,1072.533697
577.638189,-296.082377,-9400.615463,612.876398
577.638516,-370.102971,-9326.594869,766.095498
577.638844,-444.123565,-9326.594869,689.485948
577.639172,-444.123565,-9326.594869,689.485948
577.639499,0.000000,-9696.697840,459.657299
577.639827,-370.102971,-9474.636058,459.657299
577.640154,-296.082377,-9474.636058,612.876398
577.640482,-370.102971,-9548.656652,766.095498
577.640810,-370.102971,-9326.594869,536.266849
577.641137,-296.082377,-9474.636058,689.485948
577.641465,-370.102971,-8808.450710,1072.533697
577.641792,-592.164754,-8808.450710,536.266849
577.642120,-296.082377,-8956.491898,383.047749
577.642448,-518.144159,-8882.471304,383.047749
577.642775,-592.164754,-8808.450710,229.828649
577.643103,-222.061783,-8660.409521,689.485948
577.643430,-148.041188,-9030.512492,689.485948
577.643758,0.000000,-8882.471304,536.266849
577.644086,-148.041188,-9030.512492,459.657299
577.644413,-222.061783,-9104.533087,383.047749
577.644741,-296.082377,-8956.491898,536.266849
577.645068,-296.082377,-8882.471304,229.828649
577.645396,-296.082377,-9104.533087,229.828649
577.645724,-444.123565,-9252.574275,383.047749
577.646051,-592.164754,-8956.491898,229.828649
577.646379,0.000000,-8734.430116,612.876398
577.646706,0.000000,-8734.430116,229.828649
577.647034,0.000000,-8808.450710,306.438199
577.647362,0.000000,-8882.471304,229.828649
577.647689,-222.061783,-8882.471304,459.657299
577.648017,-296.082377,-8512.368333,306.438199
577.648344,-222.061783,-9104.533087,766.095498
577.648672,-592.164754,-9252.574275,689.485948
577.649000,0.000000,-9400.615463,612.876398
577.649327,0.000000,-9178.553681,766.095498
577.649655,74.020594,-8808.450710,383.047749
577.649982,222.061783,-8808.450710,1149.143247
577.650310,0.000000,-8660.409521,306.438199
577.650638,-296.082377,-8882.471304,612.876398
577.650965,-296.082377,-8882.471304,536.266849
577.651293,-444.123565,-9178.553681,459.657299
577.651620,-592.164754,-8882.471304,919.314598
577.651948,-222.061783,-9400.615463,536.266849
577.652276,0.000000,-9178.553681,766.095498
577.652603,0.000000,-9030.512492,612.876398
577.652931,0.000000,-8956.491898,536.266849
577.653258,222.061783,-9104.533087,0.000000
577.653586,-296.082377,-8808.450710,536.266849
577.653913,0.000000,-9030.512492,612.876398
577.654241,-296.082377,-9474.636058,766.095498
577.654569,-518.144159,-9548.656652,766.095498
577.654896,-370.102971,-9696.697840,689.485948
577.655224,-518.144159,-9252.574275,689.485948
577.655551,-444.123565,-9400.615463,766.095498
577.655879,-222.061783,-9030.512492,612.876398
577.656207,-148.041188,-8808.450710,536.266849
577.656534,0.000000,-8290.306550,383.047749
577.656862,0.000000,-8660.409521,842.705048
577.657189,-148.041188,-9252.574275,689.485948
577.657517,-592.164754,-9178.553681,383.047749
577.657845,-444.123565,-9326.594869,689.485948
577.658172,-444.123565,-9400.615463,459.657299
577.658500,-370.102971,-8882.471304,536.266849
577.658827,518.144159,-8734.430116,689.485948
577.659155,962.267725,-8734.430116,1225.752797
577.659483,1332.370696,-8808.450710,1455.581446
577.659810,962.267725,-8956.491898,1455.581446
577.660138,444.123565,-9030.512492,1991.848295
577.660465,0.000000,-9400.615463,1685.410096
577.660793,0.000000,-9400.615463,1991.848295
577.661121,0.000000,-9326.594869,1991.848295
577.661448,74.020594,-9400.615463,2068.457845
577.661776,296.082377,-8512.368333,1915.238745
577.662103,-148.041188,-8586.388927,2145.067394
577.662431,0.000000,-8512.368333,2298.286494
577.662759,-444.123565,-8438.347739,2145.067394
577.663086,-370.102971,-8734.430116,2145.067394
577.663414,-296.082377,-8734.430116,2451.505594
577.663741,-518.144159,-8586.388927,2757.943793
577.664069,-666.185348,-8808.450710,2757.943793
577.664397,-962.267725,-8882.471304,2757.943793
577.664724,-814.226536,-9030.512492,2681.334243
577.665052,-814.226536,-8808.450710,2987.772442
577.665379,-1184.329507,-8882.471304,2604.724693
577.665707,-1110.308913,-9104.533087,2757.943793
577.666035,-962.267725,-9030.512492,3140.991542
577.666362,-666.185348,-8956.491898,2987.772442
577.666690,-666.185348,-8734.430116,2911.162892
577.667017,-592.164754,-8364.327145,3140.991542
577.667345,-148.041188,-8956.491898,2911.162892
577.667673,-592.164754,-8956.491898,3064.381992
577.668000,-444.123565,-8808.450710,2987.772442
577.668328,-222.061783,-8956.491898,2987.772442
577.668655,148.041188,-8808.450710,3064.381992
577.668983,222.061783,-9178.553681,3524.039291
577.669311,0.000000,-9400.615463,3524.039291
577.669638,148.041188,-9252.574275,3447.429741
577.669966,296.082377,-9252.574275,3600.648841
577.670293,814.226536,-9178.553681,4213.525239
577.670621,666.185348,-8734.430116,4366.744339
577.670949,1184.329507,-9252.574275,4213.525239
577.671276,1480.411884,-9400.615463,4673.182538
577.671604,1554.432478,-9252.574275,4903.011187
577.671931,1258.350101,-9474.636058,5132.839837
577.672259,1332.370696,-9844.739029,5362.668486
577.672587,592.164754,-9844.739029,5209.449386
577.672914,0.000000,-10066.800811,4903.011187
577.673242,-518.144159,-10066.800811,4519.963438
577.673569,-814.226536,-9474.636058,4366.744339
577.673897,-666.185348,-9474.636058,4290.134789
577.674225,-1184.329507,-9474.636058,4136.915689
577.674552,-1850.514855,-9252.574275,3677.258390
577.674880,-2146.597232,-8956.491898,3370.820191
577.675207,-2368.659014,-8734.430116,3140.991542
577.675535,-1924.535449,-8216.285956,3370.820191
577.675863,-1554.432478,-7994.224174,3524.039291
577.676190,-148.041188,-8068.244768,3983.696590
577.676518,666.185348,-7698.141797,4903.011187
577.676845,1702.473667,-7920.203579,5592.497135
577.677173,1850.514855,-8364.327145,6511.811733
577.677501,1850.514855,-9030.512492,6741.640382
577.677828,740.205942,-9992.780217,6511.811733
577.678156,-666.185348,-10584.944971,5975.544884
577.678483,-2146.597232,-11177.109724,5132.839837
577.678811,-2664.741391,-10955.047942,4596.572988
577.679139,-2664.741391,-10362.883188,3753.867940
577.679466,-962.267725,-9178.553681,3907.087040
577.679794,592.164754,-8364.327145,3753.867940
577.680121,2368.659014,-7476.080014,4366.744339
577.680449,2590.720797,-7254.018232,4519.963438
577.680777,148.041188,-9030.512492,2834.553343
577.681104,-4441.235652,-10955.047942,1455.581446
577.681432,-9400.615463,-12435.459826,-1149.143247
577.681759,-12213.398043,-12213.398043,-3064.381992
