#time,accel_x,accel_y,accel_z
545.351993,0.000000,-9030.512492,383.047749
545.352321,-296.082377,-8956.491898,689.485948
545.352649,-296.082377,-9030.512492,536.266849
545.352977,-444.123565,-9104.533087,536.266849
545.353304,-444.123565,-8956.491898,459.657299
545.353632,0.000000,-8956.491898,766.095498
545.353960,0.000000,-9178.553681,459.657299
545.354287,-148.041188,-9252.574275,306.438199
545.354615,-148.041188,-9030.512492,459.657299
545.354943,-222.061783,-9104.533087,612.876398
545.355271,-296.082377,-9030.512492,919.314598
545.355598,0.000000,-9252.574275,306.438199
545.355926,-296.082377,-9178.553681,612.876398
545.356254,-222.061783,-9030.512492,612.876398
545.356581,-148.041188,-9178.553681,459.657299
545.356909,-222.061783,-8512.368333,153.219100
545.357237,-444.123565,-8882.471304,612.876398
545.357565,-296.082377,-9326.594869,459.657299
545.357892,-296.082377,-9178.553681,383.047749
545.358220,-296.082377,-9178.553681,459.657299
545.358548,148.041188,-9474.636058,0.000000
545.358875,0.000000,-8956.491898,689.485948
545.359203,-222.061783,-8956.491898,306.438199
545.359531,-222.061783,-9252.574275,612.876398
545.359859,-148.041188,-9104.533087,536.266849
545.360186,-296.082377,-9030.512492,459.657299
545.360514,-370.102971,-8808.450710,995.924147
545.360842,-370.102971,-9178.553681,459.657299
545.361169,-518.144159,-9474.636058,536.266849
545.361497,-814.226536,-9400.615463,229.828649
545.361825,-1480.411884,-9400.615463,-306.438199
545.362153,-1554.432478,-8808.450710,76.609550
545.362480,-444.123565,-9474.636058,-459.657299
545.362808,-740.205942,-8808.450710,-229.828649
545.363136,-666.185348,-8956.491898,-459.657299
545.363463,-888.247130,-9178.553681,-766.095498
545.363791,-888.247130,-9252.574275,-842.705048
545.364119,-1406.391290,-8438.347739,-1072.533697
545.364447,-1258.350101,-8882.471304,-1225.752797
545.364774,-888.247130,-9252.574275,-1302.362347
545.365102,-370.102971,-9474.636058,-1378.971896
545.365430,0.000000,-9030.512492,-1072.533697
545.365758,0.000000,-8660.409521,-1225.752797
545.366085,0.000000,-9252.574275,-1225.752797
545.366413,0.000000,-9252.574275,-1532.190996
545.366741,-148.041188,-9252.574275,-1838.629195
545.367068,222.061783,-9326.594869,-1685.410096
545.367396,222.061783,-9178.553681,-1378.971896
545.367724,518.144159,-9400.615463,-1455.581446
545.368052,296.082377,-9400.615463,-1608.800546
545.368379,444.123565,-9326.594869,-1685.410096
545.368707,296.082377,-9326.594869,-1991.848295
545.369035,296.082377,-9252.574275,-1915.238745
545.369362,296.082377,-9326.594869,-1915.238745
545.369690,74.020594,-9252.574275,-1991.848295
545.370018,370.102971,-9326.594869,-1838.629195
545.370346,222.061783,-9326.594869,-1915.238745
545.370673,0.000000,-9400.615463,-1685.410096
545.371001,-444.123565,-9178.553681,-1532.190996
545.371329,-592.164754,-9252.574275,-2068.457845
545.371656,-740.205942,-9030.512492,-1915.238745
545.371984,-962.267725,-9030.512492,-2068.457845
545.372312,-666.185348,-9622.677246,-2374.896044
545.372640,-1924.535449,-9178.553681,-2451.505594
545.372967,-1702.473667,-8956.491898,-2681.334243
545.373295,-2072.576638,-8882.471304,-2987.772442
545.373623,-2146.597232,-8882.471304,-3447.429741
545.373950,-1998.556043,-9104.533087,-3370.820191
545.374278,-2368.659014,-8956.491898,-2911.162892
545.374606,-1480.411884,-9030.512492,-3677.258390
545.374934,-1628.453072,-8734.430116,-3830.477490
545.375261,-1332.370696,-9030.512492,-3830.477490
545.375589,-962.267725,-9030.512492,-3830.477490
545.375917,-814.226536,-8956.491898,-2834.553343
545.376244,148.041188,-9326.594869,-3370.820191
545.376572,888.247130,-8882.471304,-3217.601092
545.376900,1480.411884,-9252.574275,-2604.724693
545.377228,1998.556043,-9030.512492,-2145.067394
545.377555,2072.576638,-8586.388927,-1532.190996
545.377883,2442.679609,-8956.491898,-1915.238745
545.378211,1184.329507,-9770.718434,-2298.286494
545.378538,148.041188,-10288.862594,-2528.115143
545.378866,-888.247130,-10658.965565,-3217.601092
545.379194,-1702.473667,-10881.027347,-3753.867940
545.379522,-2442.679609,-9696.697840,-4673.182538
545.379849,-1702.473667,-9178.553681,-4903.011187
545.380177,-962.267725,-8808.450710,-4826.401637
545.380505,444.123565,-8142.265362,-4366.744339
545.380832,1850.514855,-7254.018232,-3830.477490
545.381160,2664.741391,-6439.791695,-3217.601092
545.381488,2664.741391,-7402.059420,-2451.505594
545.381816,1628.453072,-8512.368333,-1991.848295
545.382143,0.000000,-9474.636058,-1991.848295
545.382471,-1702.473667,-10510.924376,-2068.457845
545.382799,-3478.967927,-10955.047942,-2145.067394
545.383127,-3627.009116,-10881.027347,-2757.943793
545.383454,-2738.761985,-10510.924376,-2757.943793
545.383782,-962.267725,-9178.553681,-2221.676944
545.384110,1998.556043,-7772.162391,-1608.800546
545.384437,5995.668130,-5995.668130,0.000000
545.384765,9918.759623,-4663.297435,2374.896044
545.385093,11325.150913,-5625.565159,3983.696590
545.385421,8512.368333,-7920.203579,4673.182538
545.385748,2368.659014,-11325.150913,3370.820191
545.386076,-5181.441594,-13767.830521,1685.410096
545.386404,-9696.697840,-14508.036463,0.000000
545.386731,-11621.233289,-14285.974681,-1532.190996
545.387059,-10732.986159,-12657.521608,-2451.505594
545.387387,-7772.162391,-10807.006753,-2451.505594
545.387715,-1258.350101,-7624.121203,-995.924147
545.388042,-1702.473667,-5033.400406,-612.876398
545.388370,-444.123565,-4589.276840,-2757.943793
545.388698,-4367.215058,-5847.626942,-5592.497135
545.389025,-9548.656652,-7402.059420,-8044.002729
545.389353,-13397.727550,-8808.450710,-9806.022374
545.389681,-14211.954086,-8364.327145,-10418.898773
545.390009,-11399.171507,-7698.141797,-10035.851024
545.390336,-5551.544565,-7402.059420,-7354.516781
545.390664,1480.411884,-6217.729913,-5439.278036
545.390992,3404.947333,-6661.853478,-4903.011187
545.391319,6439.791695,-7920.203579,-3677.258390
545.391647,3182.885551,-9844.739029,-6205.373534
545.391975,2368.659014,-11103.089130,-6818.249932
545.392303,3923.091493,-11103.089130,-6588.421283
545.392630,7698.141797,-10807.006753,-4979.620737
545.392958,11251.130318,-10436.903782,-2604.724693
545.393286,13323.706956,-9696.697840,-1762.019645
545.393613,12953.603985,-10214.842000,-612.876398
545.393941,12583.501014,-9918.759623,-842.705048
545.394269,12435.459826,-9178.553681,-1455.581446
545.394597,13027.624579,-10510.924376,-1149.143247
545.394924,9548.656652,-11325.150913,-2145.067394
545.395252,3775.050304,-13101.645173,-2528.115143
545.395580,-3775.050304,-13619.789333,-5286.058936
545.395907,-10510.924376,-14211.954086,-7048.078582
545.396235,-9400.615463,-9770.718434,-7354.516781
545.396563,-4219.173869,-4885.359217,-6128.763984
545.396891,814.226536,-2664.741391,-4136.915689
545.397218,4145.153275,-2294.638420,-2374.896044
545.397546,1924.535449,-3182.885551,-1225.752797
545.397874,-2146.597232,-3552.988522,-1225.752797
545.398201,-3330.926739,-4367.215058,-1378.971896
545.398529,-5847.626942,-6883.915261,-1455.581446
545.398857,-5107.421000,-8364.327145,-536.266849
545.399185,-6217.729913,-9770.718434,766.095498
545.399512,-5699.585753,-9992.780217,2757.943793
545.399840,-3775.050304,-9252.574275,4596.572988
545.400168,-1850.514855,-7550.100608,5209.449386
545.400496,-962.267725,-8512.368333,2604.724693
545.400823,-2146.597232,-10658.965565,842.705048
545.401151,-4737.318029,-12435.459826,-612.876398
545.401479,-6957.935855,-11103.089130,-1608.800546
545.401806,-3775.050304,-9326.594869,-766.095498
545.402134,-666.185348,-8882.471304,0.000000
545.402462,888.247130,-8512.368333,306.438199
545.402790,518.144159,-9992.780217,995.924147
545.403117,-2516.700203,-9474.636058,0.000000
545.403445,-3997.112087,-8290.306550,306.438199
545.403773,-3404.947333,-9400.615463,-536.266849
545.404100,-3034.844362,-11251.130318,-842.705048
545.404428,-2960.823768,-12435.459826,-1072.533697
545.404756,-3478.967927,-10807.006753,-2604.724693
545.405084,-3478.967927,-8956.491898,-1685.410096
545.405411,-592.164754,-6069.688724,-2911.162892
545.405739,518.144159,-6069.688724,-2374.896044
545.406067,2072.576638,-6957.935855,-4060.306139
545.406394,3627.009116,-7920.203579,-4673.182538
545.406722,3849.070898,-7476.080014,-4290.134789
545.407050,5477.523971,-8586.388927,-3907.087040
545.407378,4367.215058,-10362.883188,-3370.820191
545.407705,4071.132681,-12139.377449,-2987.772442
545.408033,5255.462188,-13841.851115,-2604.724693
545.408361,4811.338623,-13471.748144,-1991.848295
545.408689,3256.906145,-12139.377449,-1685.410096
545.409016,2442.679609,-11843.295072,-1991.848295
545.409344,2072.576638,-11843.295072,-1685.410096
545.409672,2442.679609,-10807.006753,-842.705048
545.409999,2516.700203,-10140.821405,-1302.362347
545.410327,814.226536,-9104.533087,-1838.629195
545.410655,0.000000,-8290.306550,-2834.553343
545.410983,-1184.329507,-8216.285956,-3064.381992
545.411310,-1554.432478,-7105.977043,-3447.429741
545.411638,-1480.411884,-6365.771101,-3830.477490
545.411966,-1628.453072,-6217.729913,-3447.429741
545.412294,-1628.453072,-5033.400406,-1532.190996
545.412621,-1110.308913,-5255.462188,-766.095498
545.412949,-1776.494261,-7031.956449,-689.485948
545.413277,-3552.988522,-8956.491898,-1378.971896
545.413604,-4071.132681,-9400.615463,-1225.752797
545.413932,-4737.318029,-8512.368333,-1378.971896
545.414260,-4441.235652,-8808.450710,-1072.533697
545.414588,-3404.947333,-8364.327145,-689.485948
545.414915,-592.164754,-7402.059420,459.657299
545.415243,814.226536,-6883.915261,689.485948
545.415571,1258.350101,-7994.224174,919.314598
545.415899,370.102971,-9252.574275,306.438199
545.416226,-888.247130,-9622.677246,0.000000
545.416554,-814.226536,-9474.636058,-459.657299
545.416882,962.267725,-9992.780217,0.000000
545.417210,1998.556043,-9104.533087,306.438199
545.417537,3552.988522,-7994.224174,1838.629195
545.417865,5403.503377,-6883.915261,3370.820191
545.418193,5329.482782,-7179.997637,4136.915689
545.418520,2442.679609,-8808.450710,3370.820191
545.418848,-444.123565,-9844.739029,1685.410096
545.419176,-2220.617826,-9770.718434,1302.362347
545.419504,-3182.885551,-9844.739029,1302.362347
545.419831,-2442.679609,-9252.574275,1532.190996
545.420159,-518.144159,-8216.285956,1685.410096
545.420487,2368.659014,-7254.018232,2681.334243
545.420815,2960.823768,-6735.874072,2681.334243
545.421142,-296.082377,-8808.450710,1685.410096
545.421470,-5181.441594,-9992.780217,-383.047749
545.421798,-6661.853478,-10510.924376,-1455.581446
545.422126,-7105.977043,-10955.047942,-2145.067394
545.422453,-5329.482782,-11325.150913,-1762.019645
545.422781,-2960.823768,-10732.986159,-919.314598
545.423109,-296.082377,-9326.594869,689.485948
545.423436,962.267725,-8512.368333,1608.800546
545.423764,-962.267725,-10066.800811,1378.971896
545.424092,-3330.926739,-10362.883188,0.000000
545.424420,-3701.029710,-10584.944971,-995.924147
545.424747,-3627.009116,-9696.697840,-1378.971896
545.425075,-1406.391290,-8882.471304,-383.047749
545.425403,2220.617826,-8512.368333,1302.362347
545.425731,5551.544565,-7846.182985,2681.334243
545.426058,7772.162391,-8142.265362,4136.915689
545.426386,4811.338623,-9474.636058,3064.381992
545.426714,1110.308913,-10658.965565,1532.190996
545.427042,-666.185348,-10807.006753,76.609550
545.427369,-592.164754,-11251.130318,-536.266849
545.427697,0.000000,-10955.047942,306.438199
545.428025,1480.411884,-11029.068536,383.047749
545.428352,3627.009116,-10214.842000,2528.115143
545.428680,5255.462188,-9104.533087,2987.772442
545.429008,2812.782580,-9622.677246,2528.115143
545.429336,-1776.494261,-10658.965565,383.047749
545.429663,-3923.091493,-11473.192101,-1378.971896
545.429991,-4885.359217,-9770.718434,-2451.505594
545.430319,-4811.338623,-9030.512492,-1991.848295
545.430647,-3034.844362,-7846.182985,-842.705048
545.430974,-222.061783,-7550.100608,1072.533697
545.431302,1480.411884,-7105.977043,1455.581446
545.431630,0.000000,-7031.956449,1072.533697
545.431957,-3034.844362,-7994.224174,-766.095498
545.432285,-5181.441594,-8290.306550,-2451.505594
545.432613,-4959.379811,-7698.141797,-3064.381992
545.432941,-3330.926739,-7550.100608,-2451.505594
545.433268,-962.267725,-7698.141797,-1072.533697
545.433596,1850.514855,-7402.059420,612.876398
545.433924,4737.318029,-6587.832884,2604.724693
545.434252,3701.029710,-7254.018232,2145.067394
545.434579,1406.391290,-9104.533087,842.705048
545.434907,-962.267725,-9992.780217,-995.924147
545.435235,-740.205942,-9918.759623,-1225.752797
545.435563,518.144159,-9400.615463,-612.876398
545.435890,2368.659014,-9326.594869,995.924147
545.436218,5181.441594,-8808.450710,2911.162892
545.436546,6513.812290,-8808.450710,4136.915689
545.436873,5033.400406,-9178.553681,4136.915689
545.437201,1554.432478,-10510.924376,2757.943793
545.437529,-3034.844362,-10732.986159,76.609550
545.437857,-3849.070898,-9770.718434,-229.828649
545.438184,-3182.885551,-8808.450710,-229.828649
545.438512,-1998.556043,-8586.388927,766.095498
545.438840,592.164754,-7105.977043,1762.019645
545.439168,2738.761985,-6217.729913,3064.381992
545.439495,1628.453072,-6143.709319,2911.162892
545.439823,-962.267725,-7772.162391,1685.410096
545.440151,-6069.688724,-8956.491898,-459.657299
545.440479,-7402.059420,-9104.533087,-1378.971896
545.440806,-6661.853478,-8660.409521,-1838.629195
545.441134,-5181.441594,-8586.388927,-919.314598
545.441462,-1628.453072,-8512.368333,612.876398
545.441789,1406.391290,-7624.121203,2298.286494
545.442117,1776.494261,-8142.265362,2374.896044
545.442445,0.000000,-9400.615463,1455.581446
545.442773,-3330.926739,-10658.965565,-306.438199
545.443100,-4441.235652,-10584.944971,-1532.190996
545.443428,-3182.885551,-10362.883188,-1532.190996
545.443756,-1184.329507,-10140.821405,-689.485948
545.444084,1924.535449,-9918.759623,919.314598
545.444411,5255.462188,-9548.656652,2834.553343
545.444739,6217.729913,-9474.636058,3830.477490
545.445067,4515.256246,-10362.883188,3064.381992
545.445394,148.041188,-11325.150913,995.924147
545.445722,-1480.411884,-11325.150913,-536.266849
545.446050,-1776.494261,-10732.986159,-842.705048
545.446378,-518.144159,-9992.780217,-459.657299
545.446705,0.000000,-8956.491898,-153.219100
545.447033,4293.194464,-8882.471304,2145.067394
545.447361,4959.379811,-7846.182985,2528.115143
545.447689,2516.700203,-9104.533087,2068.457845
545.448016,-666.185348,-10436.903782,383.047749
545.448344,-3108.864956,-10362.883188,-766.095498
545.448672,-3627.009116,-11399.171507,-1455.581446
545.449000,-3108.864956,-10436.903782,-1685.410096
545.449327,-1554.432478,-10362.883188,-306.438199
545.449655,1110.308913,-9400.615463,1072.533697
545.449983,3478.967927,-7846.182985,2374.896044
545.450310,2146.597232,-8216.285956,2068.457845
545.450638,-1332.370696,-9548.656652,306.438199
545.450966,-3330.926739,-9474.636058,-995.924147
545.451294,-4071.132681,-9326.594869,-1991.848295
545.451621,-3404.947333,-9252.574275,-1225.752797
545.451949,-2072.576638,-9178.553681,-612.876398
545.452277,666.185348,-8438.347739,612.876398
545.452605,2886.803174,-7698.141797,2681.334243
545.452932,2664.741391,-7624.121203,2528.115143
545.453260,592.164754,-8808.450710,1915.238745
545.453588,-1184.329507,-9548.656652,689.485948
545.453916,-2516.700203,-9474.636058,-689.485948
545.454243,-2664.741391,-9548.656652,-766.095498
545.454571,-1110.308913,-9104.533087,-229.828649
545.454899,1702.473667,-8438.347739,1608.800546
545.455226,4071.132681,-7476.080014,2911.162892
545.455554,4367.215058,-7920.203579,3064.381992
545.455882,1480.411884,-8882.471304,2834.553343
545.456210,-1628.453072,-9252.574275,383.047749
545.456537,-3849.070898,-9474.636058,0.000000
545.456865,-3627.009116,-8660.409521,-1762.019645
545.457193,-3034.844362,-8956.491898,-229.828649
545.457521,-592.164754,-7994.224174,0.000000
545.457848,2590.720797,-7105.977043,1685.410096
545.458176,3404.947333,-6809.894666,2451.505594
545.458504,2368.659014,-7328.038826,1685.410096
545.458832,-296.082377,-8586.388927,306.438199
545.459159,-1924.535449,-8882.471304,-689.485948
545.459487,-2960.823768,-9252.574275,-1532.190996
545.459815,-2516.700203,-9400.615463,-689.485948
545.460142,-444.123565,-8808.450710,306.438199
545.460470,2886.803174,-8808.450710,2987.772442
545.460798,3923.091493,-8660.409521,3064.381992
545.461126,2146.597232,-9400.615463,2681.334243
545.461453,-1110.308913,-10066.800811,919.314598
545.461781,-2960.823768,-9770.718434,-459.657299
545.462109,-3552.988522,-9770.718434,-1302.362347
545.462437,-2886.803174,-10066.800811,-919.314598
545.462764,-1998.556043,-9030.512492,-1302.362347
545.463092,1406.391290,-8364.327145,1072.533697
545.463420,2664.741391,-7772.162391,1685.410096
545.463747,1850.514855,-8660.409521,1608.800546
545.464075,-962.267725,-9104.533087,76.609550
545.464403,-2368.659014,-9918.759623,-612.876398
545.464731,-3552.988522,-10066.800811,-1302.362347
545.465058,-3923.091493,-10140.821405,-1685.410096
545.465386,-2442.679609,-10066.800811,0.000000
545.465714,740.205942,-8808.450710,1762.019645
545.466042,3627.009116,-7772.162391,3217.601092
545.466369,2738.761985,-8216.285956,3140.991542
545.466697,444.123565,-9474.636058,1608.800546
545.467025,-2146.597232,-9918.759623,153.219100
545.467353,-2368.659014,-9178.553681,-995.924147
545.467680,-2664.741391,-9696.697840,-1302.362347
545.468008,-888.247130,-9622.677246,-995.924147
545.468336,2294.638420,-8734.430116,229.828649
545.468663,4219.173869,-8438.347739,2068.457845
545.468991,3701.029710,-8216.285956,2451.505594
545.469319,1406.391290,-10140.821405,1149.143247
545.469647,-962.267725,-11695.253884,229.828649
545.469974,-2812.782580,-11029.068536,-1149.143247
545.470302,-2368.659014,-11325.150913,-612.876398
545.470630,-592.164754,-10214.842000,153.219100
545.470958,2442.679609,-9474.636058,2068.457845
545.471285,4515.256246,-8068.244768,3677.258390
545.471613,3627.009116,-9104.533087,3677.258390
545.471941,666.185348,-10362.883188,2757.943793
545.472269,-3034.844362,-10658.965565,842.705048
545.472596,-4737.318029,-9696.697840,-995.924147
545.472924,-5107.421000,-10362.883188,-1532.190996
545.473252,-3627.009116,-9400.615463,-1225.752797
545.473579,-666.185348,-8290.306550,0.000000
545.473907,1998.556043,-7105.977043,919.314598
545.474235,2812.782580,-6439.791695,1302.362347
545.474563,370.102971,-7624.121203,153.219100
545.474890,-2442.679609,-8586.388927,-995.924147
545.475218,-3182.885551,-8142.265362,-1762.019645
545.475546,-2664.741391,-8882.471304,-1302.362347
545.475874,-1258.350101,-8438.347739,0.000000
545.476201,1036.288319,-7994.224174,1838.629195
545.476529,3552.988522,-7476.080014,3753.867940
545.476857,3923.091493,-7846.182985,4443.353888
545.477184,1776.494261,-9400.615463,3907.087040
545.477512,-2960.823768,-10214.842000,1762.019645
545.477840,-3997.112087,-8882.471304,153.219100
545.478168,-4071.132681,-9400.615463,-459.657299
545.478495,-2516.700203,-8882.471304,-612.876398
545.478823,-222.061783,-7920.203579,306.438199
545.479151,2960.823768,-6809.894666,1685.410096
545.479479,3701.029710,-5477.523971,2221.676944
545.479806,1480.411884,-7105.977043,842.705048
545.480134,-3034.844362,-8660.409521,-995.924147
545.480462,-4959.379811,-9326.594869,-2298.286494
545.480790,-4589.276840,-8882.471304,-2451.505594
545.481117,-3552.988522,-8142.265362,-1149.143247
545.481445,-666.185348,-7550.100608,153.219100
545.481773,2220.617826,-7846.182985,2221.676944
545.482100,3256.906145,-7402.059420,3217.601092
545.482428,1110.308913,-7698.141797,1991.848295
545.482756,-1924.535449,-9400.615463,612.876398
545.483084,-3997.112087,-10066.800811,-1225.752797
545.483411,-4071.132681,-9918.759623,-2145.067394
545.483739,-2664.741391,-9326.594869,-2145.067394
545.484067,148.041188,-8956.491898,-1225.752797
545.484395,3849.070898,-8364.327145,153.219100
545.484722,5329.482782,-7994.224174,229.828649
545.485050,4737.318029,-9400.615463,766.095498
545.485378,1036.288319,-10436.903782,-842.705048
545.485706,-814.226536,-11399.171507,-1915.238745
545.486033,-2220.617826,-11769.274478,-2374.896044
545.486361,-1332.370696,-11843.295072,-1378.971896
545.486689,222.061783,-11029.068536,0.000000
545.487016,3775.050304,-10066.800811,2451.505594
545.487344,5477.523971,-9474.636058,3294.210641
545.487672,4367.215058,-10732.986159,3600.648841
545.488000,1184.329507,-11843.295072,2681.334243
545.488327,-1850.514855,-11325.150913,536.266849
545.488655,-3182.885551,-10658.965565,-766.095498
545.488983,-2738.761985,-10881.027347,-383.047749
545.489311,-2072.576638,-10584.944971,229.828649
545.489638,148.041188,-9400.615463,1608.800546
545.489966,2146.597232,-7550.100608,2221.676944
545.490294,2146.597232,-8438.347739,2451.505594
545.490622,-1036.288319,-10066.800811,1225.752797
545.490949,-4145.153275,-10658.965565,-383.047749
545.491277,-4959.379811,-10214.842000,-1302.362347
545.491605,-4589.276840,-9918.759623,-919.314598
545.491932,-3108.864956,-9622.677246,229.828649
545.492260,0.000000,-8586.388927,2221.676944
545.492588,2812.782580,-7105.977043,3524.039291
545.492916,3478.967927,-7254.018232,4290.134789
545.493243,1036.288319,-8438.347739,3217.601092
545.493571,-2146.597232,-8882.471304,1762.019645
545.493899,-3627.009116,-8882.471304,689.485948
545.494227,-3256.906145,-8956.491898,153.219100
545.494554,-2442.679609,-8808.450710,153.219100
545.494882,0.000000,-8216.285956,1149.143247
545.495210,2590.720797,-7254.018232,2604.724693
545.495537,3108.864956,-6809.894666,2604.724693
545.495865,814.226536,-8068.244768,1149.143247
545.496193,-2812.782580,-8808.450710,-459.657299
545.496521,-3108.864956,-8586.388927,-1762.019645
545.496848,-3775.050304,-7846.182985,-2451.505594
545.497176,-2072.576638,-7476.080014,-1608.800546
545.497504,666.185348,-7476.080014,0.000000
545.497832,3552.988522,-6661.853478,2068.457845
545.498159,3701.029710,-6513.812290,2374.896044
545.498487,3034.844362,-7402.059420,2298.286494
545.498815,-518.144159,-9252.574275,919.314598
545.499143,-1850.514855,-9474.636058,-383.047749
545.499470,-2368.659014,-9844.739029,-1149.143247
545.499798,-2146.597232,-9696.697840,-1149.143247
545.500126,-148.041188,-9844.739029,-612.876398
545.500453,2294.638420,-8512.368333,153.219100
545.500781,3701.029710,-7624.121203,842.705048
545.501109,1924.535449,-8216.285956,0.000000
545.501437,-666.185348,-9400.615463,-1608.800546
545.501764,-2146.597232,-9548.656652,-2681.334243
545.502092,-2072.576638,-8808.450710,-3447.429741
545.502420,-814.226536,-9178.553681,-1991.848295
545.502748,1332.370696,-8734.430116,-459.657299
545.503075,3997.112087,-8660.409521,1532.190996
545.503403,5107.421000,-8364.327145,3064.381992
545.503731,3182.885551,-9622.677246,3217.601092
545.504059,-296.082377,-11547.212695,2604.724693
545.504386,-2590.720797,-11473.192101,766.095498
545.504714,-3256.906145,-11695.253884,383.047749
545.505042,-2516.700203,-11473.192101,383.047749
545.505369,-1406.391290,-10436.903782,1302.362347
545.505697,1628.453072,-9326.594869,2221.676944
545.506025,3775.050304,-7920.203579,2757.943793
545.506353,2220.617826,-8660.409521,2145.067394
545.506680,-1184.329507,-10214.842000,383.047749
545.507008,-3997.112087,-9992.780217,-1149.143247
545.507336,-4959.379811,-9326.594869,-2221.676944
545.507664,-4441.235652,-9474.636058,-1838.629195
545.507991,-2590.720797,-9252.574275,0.000000
545.508319,0.000000,-8882.471304,1685.410096
545.508647,2886.803174,-8512.368333,4136.915689
545.508974,2368.659014,-8438.347739,4443.353888
545.509302,-592.164754,-9770.718434,3217.601092
545.509630,-3034.844362,-10510.924376,1608.800546
545.509958,-3923.091493,-9918.759623,229.828649
545.510285,-3627.009116,-10066.800811,0.000000
545.510613,-2294.638420,-9252.574275,76.609550
545.510941,222.061783,-8216.285956,1149.143247
545.511269,3108.864956,-7105.977043,2068.457845
545.511596,2812.782580,-7105.977043,1838.629195
545.511924,740.205942,-8586.388927,612.876398
545.512251,-1850.514855,-9326.594869,-995.924147
545.512579,-3627.009116,-9252.574275,-2451.505594
545.512906,-2812.782580,-10066.800811,-1225.752797
545.513234,-1702.473667,-9844.739029,-1762.019645
545.513561,518.144159,-9474.636058,383.047749
545.513889,3849.070898,-8586.388927,1762.019645
545.514216,4367.215058,-8216.285956,2911.162892
545.514544,2368.659014,-9178.553681,2451.505594
545.514871,0.000000,-9474.636058,1302.362347
545.515199,-1332.370696,-9326.594869,153.219100
545.515526,-1924.535449,-9474.636058,-919.314598
545.515854,-1184.329507,-8882.471304,229.828649
545.516181,666.185348,-8068.244768,919.314598
545.516509,3552.988522,-7179.997637,2068.457845
545.516836,3849.070898,-7254.018232,2298.286494
545.517164,2294.638420,-9104.533087,1991.848295
545.517491,-1480.411884,-9400.615463,0.000000
545.517819,-2960.823768,-9474.636058,-1378.971896
545.518146,-3478.967927,-9400.615463,-2298.286494
545.518474,-2368.659014,-9178.553681,-2068.457845
545.518801,-222.061783,-8734.430116,-612.876398
545.519129,2960.823768,-8364.327145,1378.971896
545.519456,3775.050304,-7031.956449,2221.676944
545.519784,1998.556043,-8512.368333,2298.286494
545.520111,-1258.350101,-9992.780217,1608.800546
545.520439,-3997.112087,-9918.759623,0.000000
545.520766,-4737.318029,-10214.842000,-689.485948
545.521093,-4293.194464,-9252.574275,-536.266849
545.521421,-2516.700203,-9030.512492,0.000000
545.521748,296.082377,-8068.244768,1149.143247
545.522076,2294.638420,-7105.977043,1685.410096
545.522403,1332.370696,-7624.121203,995.924147
545.522731,-1554.432478,-9474.636058,-306.438199
545.523058,-3478.967927,-9770.718434,-2068.457845
545.523386,-4663.297435,-8882.471304,-3447.429741
545.523713,-2960.823768,-9178.553681,-2911.162892
545.524041,-296.082377,-8882.471304,-1378.971896
545.524368,3256.906145,-8290.306550,1149.143247
545.524696,4737.318029,-7698.141797,2528.115143
545.525023,4515.256246,-8660.409521,2834.553343
545.525351,1332.370696,-10510.924376,1991.848295
545.525678,-1036.288319,-10732.986159,689.485948
545.526006,-1628.453072,-10732.986159,0.000000
545.526333,-1184.329507,-10955.047942,383.047749
545.526661,444.123565,-10140.821405,1072.533697
545.526988,2368.659014,-9474.636058,2451.505594
545.527316,4885.359217,-8512.368333,3370.820191
545.527643,4441.235652,-8956.491898,3064.381992
545.527971,962.267725,-9844.739029,1072.533697
545.528298,-2664.741391,-11177.109724,-919.314598
545.528626,-3775.050304,-10510.924376,-2068.457845
545.528953,-3552.988522,-9696.697840,-2374.896044
545.529281,-1480.411884,-9104.533087,-1149.143247
545.529608,1628.453072,-8068.244768,1532.190996
545.529936,3552.988522,-7550.100608,2451.505594
545.530263,2960.823768,-7624.121203,2911.162892
545.530591,296.082377,-9178.553681,2681.334243
545.530918,-3108.864956,-10066.800811,1149.143247
545.531246,-4367.215058,-10214.842000,995.924147
545.531573,-5033.400406,-11325.150913,0.000000
545.531901,-3849.070898,-10881.027347,919.314598
545.532228,-1554.432478,-9474.636058,2145.067394
545.532556,1998.556043,-8142.265362,3600.648841
545.532883,3108.864956,-7698.141797,3294.210641
545.533211,740.205942,-9104.533087,2451.505594
545.533538,-2442.679609,-9622.677246,536.266849
545.533865,-4219.173869,-9326.594869,-1072.533697
545.534193,-4885.359217,-9178.553681,-2374.896044
545.534520,-3627.009116,-8660.409521,-1991.848295
545.534848,-1406.391290,-7179.997637,-612.876398
545.535175,2220.617826,-7105.977043,919.314598
545.535503,3775.050304,-6069.688724,2221.676944
545.535830,2812.782580,-7328.038826,2298.286494
545.536158,-814.226536,-7846.182985,1225.752797
545.536485,-2738.761985,-9474.636058,229.828649
545.536813,-3627.009116,-9992.780217,-1149.143247
545.537140,-2886.803174,-9918.759623,-459.657299
545.537468,-592.164754,-9030.512492,459.657299
545.537795,2960.823768,-7772.162391,2145.067394
545.538123,4589.276840,-7254.018232,2604.724693
545.538450,3108.864956,-8512.368333,1532.190996
545.538778,74.020594,-9030.512492,-153.219100
545.539105,-1850.514855,-9178.553681,-2298.286494
545.539433,-2368.659014,-9252.574275,-3370.820191
545.539760,-1924.535449,-9252.574275,-3217.601092
545.540088,296.082377,-9178.553681,-2068.457845
545.540415,3627.009116,-8142.265362,229.828649
545.540743,6439.791695,-7550.100608,1838.629195
545.541070,5551.544565,-8068.244768,2451.505594
545.541398,1776.494261,-9548.656652,1532.190996
545.541725,-1850.514855,-10807.006753,0.000000
545.542053,-3701.029710,-11325.150913,-612.876398
545.542380,-3849.070898,-11399.171507,0.000000
545.542708,-2072.576638,-10140.821405,229.828649
545.543035,1036.288319,-9104.533087,1455.581446
545.543363,3478.967927,-8068.244768,2451.505594
545.543690,3108.864956,-8068.244768,2834.553343
545.544018,-148.041188,-8734.430116,919.314598
545.544345,-2812.782580,-9030.512492,-536.266849
545.544673,-4663.297435,-8956.491898,-2528.115143
545.545000,-4515.256246,-9326.594869,-2681.334243
545.545328,-3627.009116,-9474.636058,-2145.067394
545.545655,-296.082377,-8512.368333,-229.828649
545.545983,2368.659014,-7846.182985,1685.410096
545.546310,3256.906145,-8512.368333,3140.991542
545.546638,518.144159,-9622.677246,2451.505594
545.546965,-1998.556043,-11473.192101,1685.410096
545.547292,-3849.070898,-11103.089130,383.047749
545.547620,-4293.194464,-11177.109724,-153.219100
545.547947,-2516.700203,-10732.986159,689.485948
545.548275,592.164754,-9400.615463,1991.848295
545.548602,3997.112087,-8068.244768,3677.258390
545.548930,3997.112087,-8512.368333,3983.696590
545.549257,1776.494261,-9030.512492,2604.724693
545.549585,-1110.308913,-9622.677246,842.705048
545.549912,-2812.782580,-9992.780217,-766.095498
545.550240,-3923.091493,-10214.842000,-1608.800546
545.550567,-2960.823768,-9622.677246,-1762.019645
545.550895,-518.144159,-8808.450710,-306.438199
545.551222,2664.741391,-7846.182985,1685.410096
545.551550,4145.153275,-7179.997637,2681.334243
545.551877,2664.741391,-8660.409521,2298.286494
545.552205,-370.102971,-9548.656652,1072.533697
545.552532,-2960.823768,-10066.800811,-306.438199
545.552860,-4071.132681,-10214.842000,-766.095498
545.553187,-3108.864956,-9696.697840,-536.266849
545.553515,-296.082377,-8438.347739,536.266849
545.553842,2590.720797,-7476.080014,2068.457845
545.554170,3552.988522,-7254.018232,2681.334243
545.554497,2146.597232,-8438.347739,2068.457845
545.554825,-1406.391290,-9474.636058,229.828649
545.555152,-2516.700203,-9400.615463,-1532.190996
545.555480,-2738.761985,-9326.594869,-1838.629195
545.555807,-1554.432478,-9326.594869,-1762.019645
545.556135,814.226536,-8660.409521,-306.438199
545.556462,3552.988522,-8512.368333,1455.581446
545.556790,4589.276840,-7920.203579,2987.772442
545.557117,2738.761985,-8512.368333,2911.162892
545.557445,-518.144159,-9992.780217,1378.971896
545.557772,-3330.926739,-10140.821405,-229.828649
545.558100,-3775.050304,-10584.944971,-766.095498
545.558427,-3404.947333,-9844.739029,-612.876398
545.558755,-666.185348,-8290.306550,229.828649
545.559082,2886.803174,-6735.874072,1762.019645
545.559410,4441.235652,-6587.832884,2987.772442
545.559737,2368.659014,-7698.141797,2298.286494
545.560064,-1258.350101,-8882.471304,612.876398
545.560392,-4441.235652,-9474.636058,-1149.143247
545.560719,-4737.318029,-8808.450710,-1532.190996
545.561047,-3552.988522,-9548.656652,-1455.581446
545.561374,-1776.494261,-9252.574275,-306.438199
545.561702,1406.391290,-8142.265362,1225.752797
545.562029,2960.823768,-6809.894666,2374.896044
545.562357,2516.700203,-7254.018232,2834.553343
545.562684,-1036.288319,-8956.491898,766.095498
545.563012,-3330.926739,-10066.800811,-842.705048
545.563339,-4589.276840,-10066.800811,-1762.019645
545.563667,-3775.050304,-9252.574275,-1455.581446
545.563994,-1110.308913,-8364.327145,536.266849
545.564322,2368.659014,-7476.080014,1149.143247
545.564649,4589.276840,-7624.121203,2604.724693
545.564977,3330.926739,-8512.368333,2451.505594
545.565304,148.041188,-9474.636058,766.095498
545.565632,-2368.659014,-10510.924376,-1302.362347
545.565959,-3034.844362,-10658.965565,-1608.800546
545.566287,-2960.823768,-11029.068536,-1532.190996
545.566614,-962.267725,-10288.862594,-919.314598
545.566942,2072.576638,-9104.533087,766.095498
545.567269,5107.421000,-8068.244768,2451.505594
545.567597,4589.276840,-8142.265362,2451.505594
545.567924,962.267725,-9992.780217,1072.533697
545.568252,-1702.473667,-11029.068536,-383.047749
545.568579,-3478.967927,-11251.130318,-1608.800546
545.568907,-3182.885551,-11325.150913,-1378.971896
545.569234,-2368.659014,-10658.965565,0.000000
545.569562,148.041188,-9770.718434,766.095498
545.569889,3330.926739,-8660.409521,2451.505594
545.570217,3849.070898,-8660.409521,2528.115143
545.570544,1924.535449,-9992.780217,1762.019645
545.570872,-814.226536,-10288.862594,1225.752797
545.571199,-2368.659014,-10584.944971,0.000000
545.571527,-2590.720797,-10732.986159,-383.047749
545.571854,-2368.659014,-10807.006753,0.000000
545.572182,0.000000,-10066.800811,919.314598
545.572509,2812.782580,-7772.162391,2834.553343
545.572836,3627.009116,-7328.038826,3064.381992
545.573164,1554.432478,-8364.327145,2757.943793
545.573491,-1554.432478,-10214.842000,1149.143247
545.573819,-3849.070898,-10510.924376,76.609550
545.574146,-4293.194464,-10288.862594,-383.047749
545.574474,-4219.173869,-9326.594869,0.000000
545.574801,-1850.514855,-9326.594869,995.924147
545.575129,592.164754,-8808.450710,2451.505594
545.575456,1998.556043,-8142.265362,3140.991542
545.575784,444.123565,-8438.347739,2834.553343
545.576111,-1776.494261,-8512.368333,1685.410096
545.576439,-3404.947333,-8882.471304,-536.266849
545.576766,-3775.050304,-8808.450710,-1302.362347
545.577094,-3627.009116,-9178.553681,-1149.143247
545.577421,-1702.473667,-8216.285956,-229.828649
545.577749,1850.514855,-6587.832884,689.485948
545.578076,3330.926739,-6143.709319,2298.286494
545.578404,2664.741391,-7328.038826,2298.286494
545.578731,0.000000,-8586.388927,1378.971896
545.579059,-2664.741391,-9252.574275,-153.219100
545.579386,-2812.782580,-9400.615463,-1149.143247
545.579714,-2960.823768,-8956.491898,-1302.362347
545.580041,-1480.411884,-9178.553681,-612.876398
545.580369,1702.473667,-8364.327145,919.314598
545.580696,3923.091493,-7254.018232,1455.581446
545.581024,3923.091493,-6883.915261,1302.362347
545.581351,1628.453072,-8068.244768,612.876398
545.581679,-296.082377,-8808.450710,-306.438199
545.582006,-1702.473667,-8586.388927,-1608.800546
545.582334,-1406.391290,-9178.553681,-1302.362347
545.582661,-296.082377,-8808.450710,-612.876398
545.582989,2146.597232,-8068.244768,1302.362347
545.583316,3775.050304,-8142.265362,2374.896044
545.583644,2812.782580,-8882.471304,2528.115143
545.583971,0.000000,-9548.656652,1532.190996
545.584299,-2072.576638,-9918.759623,383.047749
545.584626,-2960.823768,-9474.636058,-1072.533697
545.584954,-2812.782580,-9252.574275,-1225.752797
545.585281,-1702.473667,-8586.388927,-689.485948
545.585608,666.185348,-7920.203579,612.876398
545.585936,2812.782580,-7328.038826,1532.190996
545.586263,2146.597232,-7105.977043,1532.190996
545.586591,0.000000,-8660.409521,842.705048
545.586918,-2664.741391,-9548.656652,-459.657299
545.587246,-3330.926739,-9844.739029,-1225.752797
545.587573,-3404.947333,-10140.821405,-1455.581446
545.587901,-1924.535449,-9474.636058,-383.047749
545.588228,1036.288319,-9104.533087,766.095498
545.588556,3552.988522,-8808.450710,2298.286494
545.588883,3627.009116,-9178.553681,2987.772442
545.589211,1184.329507,-10732.986159,2451.505594
545.589538,-2368.659014,-11991.336260,1072.533697
545.589866,-3701.029710,-11991.336260,-536.266849
545.590193,-4441.235652,-11769.274478,-689.485948
545.590521,-2442.679609,-10807.006753,-766.095498
545.590848,0.000000,-9696.697840,383.047749
545.591176,2368.659014,-8438.347739,1608.800546
545.591503,2886.803174,-7698.141797,2221.676944
545.591831,1332.370696,-8438.347739,1302.362347
545.592158,-1332.370696,-9622.677246,-459.657299
545.592486,-2812.782580,-10066.800811,-1762.019645
545.592813,-3478.967927,-10362.883188,-1991.848295
545.593141,-2886.803174,-10214.842000,-1072.533697
545.593468,-444.123565,-9622.677246,459.657299
545.593796,3182.885551,-8142.265362,2068.457845
545.594123,4663.297435,-7846.182985,3370.820191
545.594451,2960.823768,-9548.656652,3140.991542
545.594778,-222.061783,-11103.089130,1838.629195
545.595106,-2664.741391,-10510.924376,766.095498
545.595433,-2664.741391,-10881.027347,0.000000
545.595761,-2590.720797,-10510.924376,-383.047749
545.596088,-814.226536,-9178.553681,76.609550
545.596416,2294.638420,-8438.347739,1838.629195
545.596743,4367.215058,-6883.915261,2298.286494
545.597071,3627.009116,-7772.162391,2298.286494
545.597398,814.226536,-8438.347739,1378.971896
545.597726,-1184.329507,-9104.533087,536.266849
545.598053,-2590.720797,-9696.697840,-306.438199
545.598381,-2368.659014,-10214.842000,153.219100
545.598708,-2368.659014,-9474.636058,459.657299
545.599035,888.247130,-8956.491898,2604.724693
545.599363,3330.926739,-7402.059420,3907.087040
545.599690,2516.700203,-7698.141797,3830.477490
545.600018,-148.041188,-9178.553681,2757.943793
545.600345,-2738.761985,-9474.636058,1378.971896
545.600673,-5033.400406,-8808.450710,-306.438199
545.601000,-5329.482782,-8956.491898,-995.924147
545.601328,-4441.235652,-8438.347739,-1378.971896
545.601655,-1258.350101,-7920.203579,-536.266849
545.601983,1406.391290,-6883.915261,1225.752797
545.602310,1406.391290,-7105.977043,766.095498
545.602638,-370.102971,-8364.327145,0.000000
545.602965,-2590.720797,-9252.574275,-1149.143247
545.603293,-2886.803174,-9252.574275,-1991.848295
545.603620,-2368.659014,-9030.512492,-2757.943793
545.603948,-962.267725,-8586.388927,-1532.190996
545.604275,2294.638420,-7994.224174,383.047749
545.604603,4959.379811,-7179.997637,2451.505594
545.604930,5181.441594,-7550.100608,3217.601092
545.605258,2368.659014,-9326.594869,2221.676944
545.605585,-888.247130,-10510.924376,1608.800546
545.605913,-2442.679609,-10362.883188,-766.095498
545.606240,-2812.782580,-10288.862594,-1608.800546
545.606568,-1036.288319,-9474.636058,-1302.362347
545.606895,1850.514855,-8438.347739,-153.219100
545.607223,3997.112087,-7105.977043,1072.533697
545.607550,4663.297435,-6957.935855,689.485948
545.607878,2294.638420,-8068.244768,306.438199
545.608205,-814.226536,-9178.553681,-1072.533697
545.608533,-2812.782580,-9474.636058,-2068.457845
545.608860,-2590.720797,-10362.883188,-1915.238745
545.609188,-2738.761985,-10510.924376,-995.924147
545.609515,-222.061783,-9844.739029,612.876398
545.609843,2886.803174,-9326.594869,3447.429741
545.610169,3627.009116,-8956.491898,3983.696590
545.610497,2146.597232,-10066.800811,3983.696590
545.610824,-1628.453072,-11621.233289,1991.848295
545.611152,-3849.070898,-10807.006753,383.047749
545.611479,-4293.194464,-10436.903782,-612.876398
545.611807,-3849.070898,-9622.677246,-842.705048
545.612134,-1554.432478,-8882.471304,76.609550
545.612462,1924.535449,-8364.327145,1149.143247
545.612789,2664.741391,-7476.080014,1991.848295
545.613117,1776.494261,-8290.306550,1532.190996
545.613444,-1332.370696,-9326.594869,459.657299
545.613771,-3108.864956,-9992.780217,-459.657299
545.614099,-3849.070898,-10140.821405,-1072.533697
545.614426,-3552.988522,-10807.006753,-536.266849
545.614754,-1702.473667,-10066.800811,689.485948
545.615081,1850.514855,-8808.450710,2834.553343
545.615409,3404.947333,-8216.285956,3907.087040
545.615736,3182.885551,-8512.368333,4060.306139
545.616064,-296.082377,-10214.842000,2451.505594
545.616391,-2368.659014,-10362.883188,842.705048
545.616719,-3330.926739,-9844.739029,-459.657299
545.617046,-3775.050304,-9622.677246,-1149.143247
545.617374,-1554.432478,-8734.430116,-153.219100
545.617701,1184.329507,-7920.203579,0.000000
545.618028,3627.009116,-7031.956449,1072.533697
545.618356,3478.967927,-7550.100608,1532.190996
545.618683,1036.288319,-9030.512492,306.438199
545.619011,-1850.514855,-9696.697840,-459.657299
545.619338,-2072.576638,-9622.677246,-1608.800546
545.619666,-2812.782580,-9696.697840,-1455.581446
545.619993,-740.205942,-9030.512492,-383.047749
545.620321,1554.432478,-8142.265362,1455.581446
545.620648,3701.029710,-7772.162391,3294.210641
545.620976,3108.864956,-7698.141797,3524.039291
545.621303,370.102971,-9178.553681,2451.505594
545.621631,-2368.659014,-9474.636058,689.485948
545.621958,-3552.988522,-9548.656652,-536.266849
545.622286,-3552.988522,-9622.677246,-842.705048
545.622613,-1332.370696,-8512.368333,0.000000
545.622940,740.205942,-7624.121203,536.266849
545.623268,3849.070898,-7031.956449,1838.629195
545.623595,2368.659014,-6883.915261,1225.752797
545.623923,148.041188,-8290.306550,536.266849
545.624250,-3034.844362,-8734.430116,-995.924147
545.624578,-3997.112087,-9030.512492,-1762.019645
545.624905,-4515.256246,-9844.739029,-2068.457845
545.625233,-2886.803174,-9548.656652,-766.095498
545.625560,0.000000,-8438.347739,612.876398
545.625888,3256.906145,-7254.018232,2681.334243
545.626215,3701.029710,-7698.141797,2757.943793
545.626543,1406.391290,-9030.512492,2374.896044
545.626870,-1702.473667,-9844.739029,919.314598
545.627197,-2886.803174,-9844.739029,-229.828649
545.627525,-2960.823768,-9474.636058,-689.485948
545.627852,-1480.411884,-9104.533087,-612.876398
545.628180,518.144159,-8734.430116,459.657299
545.628507,3552.988522,-8142.265362,1608.800546
545.628835,3552.988522,-8438.347739,1608.800546
545.629162,1258.350101,-9474.636058,536.266849
545.629490,-1924.535449,-10214.842000,-1225.752797
545.629817,-3182.885551,-10658.965565,-2221.676944
545.630145,-3182.885551,-9918.759623,-2451.505594
545.630472,-1628.453072,-9844.739029,-1685.410096
545.630800,1628.453072,-9104.533087,0.000000
545.631127,4293.194464,-7846.182985,2604.724693
545.631455,5107.421000,-8216.285956,2528.115143
545.631782,3256.906145,-9770.718434,2451.505594
545.632109,-666.185348,-10955.047942,1225.752797
545.632437,-2146.597232,-11177.109724,383.047749
545.632764,-3034.844362,-11547.212695,-383.047749
545.633092,-2442.679609,-11769.274478,383.047749
545.633419,-1258.350101,-10658.965565,842.705048
545.633747,1480.411884,-9400.615463,2145.067394
545.634074,2738.761985,-8068.244768,2068.457845
545.634402,1554.432478,-9030.512492,1149.143247
545.634729,-740.205942,-9844.739029,536.266849
545.635057,-3330.926739,-9548.656652,-1225.752797
545.635384,-3849.070898,-9622.677246,-1608.800546
545.635712,-3404.947333,-9326.594869,-1608.800546
545.636039,-1332.370696,-8660.409521,0.000000
545.636366,2368.659014,-7920.203579,2298.286494
545.636694,3478.967927,-7179.997637,3753.867940
545.637021,2590.720797,-8290.306550,4136.915689
545.637349,-444.123565,-9622.677246,3294.210641
545.637676,-2294.638420,-9992.780217,2068.457845
545.638004,-3034.844362,-10066.800811,459.657299
545.638331,-3552.988522,-10066.800811,689.485948
545.638659,-2960.823768,-9474.636058,842.705048
545.638986,-592.164754,-8512.368333,1455.581446
545.639314,1776.494261,-7402.059420,1685.410096
545.639641,2072.576638,-6883.915261,1685.410096
545.639969,370.102971,-7328.038826,0.000000
545.640296,-2072.576638,-8068.244768,-1608.800546
545.640624,-2590.720797,-8290.306550,-2145.067394
545.640951,-2516.700203,-8808.450710,-2068.457845
545.641278,-296.082377,-8216.285956,-766.095498
545.641606,2590.720797,-7846.182985,1378.971896
545.641933,4885.359217,-8068.244768,3140.991542
545.642261,3404.947333,-9400.615463,3677.258390
545.642588,444.123565,-9844.739029,2681.334243
545.642916,-2220.617826,-10214.842000,1302.362347
545.643243,-2368.659014,-9918.759623,306.438199
545.643571,-3256.906145,-9474.636058,-612.876398
545.643898,-1258.350101,-9474.636058,-306.438199
545.644226,370.102971,-8216.285956,-76.609550
545.644553,3182.885551,-7105.977043,919.314598
545.644881,2812.782580,-6587.832884,842.705048
545.645208,1036.288319,-8142.265362,-459.657299
545.645535,-2886.803174,-9030.512492,-2221.676944
545.645863,-3775.050304,-8956.491898,-3217.601092
545.646190,-3552.988522,-9252.574275,-3140.991542
545.646518,-2516.700203,-8882.471304,-1991.848295
545.646845,296.082377,-8290.306550,0.000000
545.647173,2664.741391,-8660.409521,1838.629195
545.647500,3330.926739,-8512.368333,2451.505594
545.647828,740.205942,-9474.636058,1685.410096
545.648155,-2146.597232,-10288.862594,842.705048
545.648483,-3478.967927,-10066.800811,-612.876398
545.648810,-2590.720797,-10288.862594,-689.485948
545.649138,-1554.432478,-9474.636058,-229.828649
545.649465,1110.308913,-8586.388927,766.095498
545.649792,3923.091493,-8068.244768,1685.410096
545.650120,4145.153275,-8216.285956,1455.581446
545.650447,2294.638420,-9474.636058,689.485948
545.650775,-814.226536,-10436.903782,-612.876398
545.651102,-2516.700203,-10881.027347,-1838.629195
545.651430,-2368.659014,-11103.089130,-1915.238745
545.651757,-1776.494261,-10732.986159,-536.266849
545.652085,740.205942,-10066.800811,1149.143247
545.652412,3404.947333,-9030.512492,2757.943793
545.652740,4441.235652,-8808.450710,4136.915689
545.653067,2442.679609,-9918.759623,3600.648841
545.653395,-592.164754,-11029.068536,2068.457845
545.653722,-3108.864956,-10732.986159,1378.971896
545.654050,-4219.173869,-10658.965565,76.609550
545.654377,-4071.132681,-10658.965565,0.000000
545.654704,-2368.659014,-9622.677246,689.485948
545.655032,1036.288319,-8734.430116,2298.286494
545.655359,2368.659014,-7476.080014,2604.724693
545.655687,1850.514855,-8586.388927,2068.457845
545.656014,-1110.308913,-10214.842000,536.266849
545.656342,-3627.009116,-10807.006753,-1149.143247
545.656669,-4441.235652,-10732.986159,-2298.286494
545.656997,-3923.091493,-9992.780217,-2221.676944
545.657324,-2072.576638,-9400.615463,-689.485948
545.657652,888.247130,-8586.388927,1149.143247
545.657979,2886.803174,-7772.162391,2528.115143
545.658307,2960.823768,-7698.141797,3064.381992
545.658634,1258.350101,-9252.574275,2528.115143
545.658961,-1332.370696,-9400.615463,1149.143247
545.659289,-2738.761985,-9844.739029,76.609550
545.659616,-2590.720797,-10214.842000,229.828649
545.659944,-1036.288319,-9474.636058,306.438199
545.660271,1332.370696,-8068.244768,1532.190996
545.660599,4515.256246,-7031.956449,2374.896044
545.660926,3997.112087,-7402.059420,2451.505594
545.661254,1924.535449,-8290.306550,1302.362347
545.661581,-1184.329507,-8216.285956,-612.876398
545.661909,-2368.659014,-8216.285956,-1991.848295
545.662236,-2886.803174,-8438.347739,-2374.896044
545.662564,-2368.659014,-8660.409521,-1915.238745
545.662891,0.000000,-7772.162391,0.000000
545.663219,3034.844362,-6809.894666,1608.800546
545.663546,3701.029710,-6291.750507,2298.286494
545.663873,1332.370696,-7328.038826,2374.896044
545.664201,-1332.370696,-8956.491898,842.705048
545.664528,-3108.864956,-8734.430116,-153.219100
545.664856,-3627.009116,-9326.594869,-612.876398
545.665183,-3330.926739,-8660.409521,-842.705048
545.665511,-444.123565,-8068.244768,766.095498
545.665838,2368.659014,-7105.977043,1225.752797
545.666166,3182.885551,-6883.915261,1838.629195
545.666493,2220.617826,-8142.265362,995.924147
545.666821,-814.226536,-8808.450710,-383.047749
545.667148,-2812.782580,-9252.574275,-1608.800546
545.667476,-3182.885551,-8956.491898,-2911.162892
545.667803,-3182.885551,-9030.512492,-2528.115143
545.668130,-592.164754,-9178.553681,-689.485948
545.668458,2072.576638,-8660.409521,1455.581446
545.668785,3330.926739,-7846.182985,2451.505594
545.669113,2294.638420,-9474.636058,2604.724693
545.669440,-370.102971,-10658.965565,1991.848295
545.669768,-3256.906145,-10658.965565,383.047749
545.670095,-3627.009116,-10436.903782,-306.438199
545.670423,-2812.782580,-10288.862594,-689.485948
545.670750,-1110.308913,-9252.574275,459.657299
545.671078,2368.659014,-8438.347739,1838.629195
545.671405,3478.967927,-8142.265362,2528.115143
545.671733,2886.803174,-8290.306550,1532.190996
545.672060,-296.082377,-9918.759623,919.314598
545.672388,-2368.659014,-10288.862594,-536.266849
545.672715,-4515.256246,-10140.821405,-2068.457845
545.673042,-4145.153275,-11251.130318,-2221.676944
545.673370,-2368.659014,-10436.903782,-995.924147
545.673697,740.205942,-8956.491898,536.266849
545.674025,3552.988522,-7550.100608,2681.334243
545.674352,4071.132681,-8438.347739,2604.724693
545.674680,888.247130,-9918.759623,1991.848295
545.675007,-1184.329507,-10510.924376,1302.362347
545.675335,-2368.659014,-10955.047942,153.219100
545.675662,-3034.844362,-11029.068536,0.000000
545.675990,-1628.453072,-10732.986159,1685.410096
545.676317,666.185348,-9696.697840,2451.505594
545.676645,2960.823768,-8808.450710,3217.601092
545.676972,3108.864956,-9252.574275,3370.820191
545.677299,-222.061783,-9844.739029,1455.581446
545.677627,-2886.803174,-10362.883188,229.828649
545.677954,-3552.988522,-9770.718434,-995.924147
545.678282,-4219.173869,-9326.594869,-2145.067394
545.678609,-2220.617826,-8808.450710,-1225.752797
545.678937,1036.288319,-7624.121203,612.876398
545.679264,3923.091493,-7031.956449,2298.286494
545.679592,3923.091493,-6735.874072,2451.505594
545.679919,1480.411884,-8438.347739,2298.286494
545.680247,-2146.597232,-9474.636058,766.095498
545.680574,-3404.947333,-10066.800811,76.609550
545.680902,-3775.050304,-9992.780217,-459.657299
545.681229,-2368.659014,-9326.594869,229.828649
545.681556,148.041188,-8808.450710,1762.019645
545.681884,3404.947333,-7550.100608,2604.724693
545.682211,3775.050304,-7254.018232,2757.943793
545.682539,1554.432478,-8438.347739,1685.410096
545.682866,-2146.597232,-8364.327145,153.219100
545.683194,-3478.967927,-8956.491898,-1991.848295
545.683521,-3775.050304,-9622.677246,-2911.162892
545.683849,-2886.803174,-9474.636058,-2374.896044
545.684176,0.000000,-8660.409521,-1072.533697
545.684504,3182.885551,-7846.182985,995.924147
545.684831,4367.215058,-7772.162391,1608.800546
545.685159,2368.659014,-9400.615463,1532.190996
545.685486,-1036.288319,-10140.821405,0.000000
545.685814,-3108.864956,-9548.656652,-1302.362347
545.686141,-3552.988522,-9474.636058,-1915.238745
545.686468,-2368.659014,-9178.553681,-1072.533697
545.686796,518.144159,-8216.285956,76.609550
545.687123,3330.926739,-7772.162391,1838.629195
545.687451,4367.215058,-7105.977043,2298.286494
545.687778,2442.679609,-8512.368333,1685.410096
545.688106,-518.144159,-9474.636058,536.266849
545.688433,-2294.638420,-9400.615463,-1302.362347
545.688761,-2442.679609,-9844.739029,-2298.286494
545.689088,-2146.597232,-9992.780217,-1762.019645
545.689416,0.000000,-9104.533087,-689.485948
545.689743,3182.885551,-7402.059420,1378.971896
545.690071,4737.318029,-7179.997637,2451.505594
545.690398,3478.967927,-8512.368333,2298.286494
545.690725,0.000000,-10510.924376,1532.190996
545.691053,-2516.700203,-10584.944971,689.485948
545.691380,-4441.235652,-10436.903782,-766.095498
545.691708,-4145.153275,-10955.047942,-306.438199
545.692035,-2442.679609,-10288.862594,536.266849
545.692363,370.102971,-8734.430116,2221.676944
545.692690,2886.803174,-7846.182985,3064.381992
545.693018,2220.617826,-8290.306550,3294.210641
545.693345,-370.102971,-9474.636058,1838.629195
545.693673,-3182.885551,-9400.615463,229.828649
545.694000,-3478.967927,-8956.491898,-1149.143247
545.694328,-3108.864956,-9400.615463,-1302.362347
545.694655,-2294.638420,-8956.491898,-383.047749
545.694983,888.247130,-7550.100608,1225.752797
545.695310,2960.823768,-6957.935855,2374.896044
545.695637,2294.638420,-7920.203579,2604.724693
545.695965,0.000000,-10066.800811,1762.019645
545.696292,-3034.844362,-10362.883188,229.828649
545.696620,-3997.112087,-10436.903782,-459.657299
545.696947,-3997.112087,-10732.986159,-306.438199
545.697275,-2590.720797,-10436.903782,153.219100
545.697602,1110.308913,-9030.512492,1455.581446
545.697930,3997.112087,-7846.182985,2757.943793
545.698257,4367.215058,-7772.162391,2757.943793
545.698585,1480.411884,-9104.533087,1685.410096
545.698912,-1850.514855,-9548.656652,229.828649
545.699240,-2738.761985,-9104.533087,-1072.533697
545.699567,-2664.741391,-9622.677246,-1455.581446
545.699894,-2368.659014,-9474.636058,-919.314598
545.700222,444.123565,-8290.306550,-153.219100
545.700549,3404.947333,-7402.059420,1991.848295
545.700877,3182.885551,-7254.018232,2604.724693
545.701204,740.205942,-8586.388927,1762.019645
545.701532,-1850.514855,-9622.677246,612.876398
545.701859,-2664.741391,-9178.553681,0.000000
545.702187,-3849.070898,-9252.574275,-1225.752797
545.702514,-2886.803174,-9400.615463,-536.266849
545.702842,-444.123565,-8660.409521,383.047749
545.703169,2368.659014,-7624.121203,1532.190996
545.703497,3182.885551,-7105.977043,2374.896044
545.703824,1628.453072,-8512.368333,1378.971896
545.704152,-1480.411884,-9474.636058,0.000000
545.704479,-2590.720797,-9326.594869,-689.485948
545.704806,-3108.864956,-9474.636058,-1838.629195
545.705134,-1998.556043,-9326.594869,-1149.143247
545.705461,370.102971,-8586.388927,0.000000
545.705789,3034.844362,-7772.162391,1455.581446
545.706116,3997.112087,-7550.100608,2451.505594
545.706444,2294.638420,-9178.553681,2221.676944
545.706771,-888.247130,-10510.924376,1378.971896
545.707099,-2368.659014,-10436.903782,-766.095498
545.707426,-2960.823768,-10066.800811,-1455.581446
545.707754,-2368.659014,-9992.780217,-842.705048
545.708081,-296.082377,-8882.471304,0.000000
545.708409,2146.597232,-7624.121203,919.314598
545.708736,3701.029710,-6957.935855,2298.286494
545.709063,2664.741391,-8142.265362,1455.581446
545.709391,-740.205942,-9474.636058,153.219100
545.709718,-2960.823768,-10140.821405,-995.924147
545.710046,-3404.947333,-10214.842000,-1685.410096
545.710373,-2738.761985,-10436.903782,-842.705048
545.710701,-666.185348,-10140.821405,76.609550
545.711028,1406.391290,-9326.594869,1455.581446
545.711356,3701.029710,-8364.327145,2528.115143
545.711683,1998.556043,-9104.533087,2221.676944
545.712011,-444.123565,-10807.006753,766.095498
545.712338,-3330.926739,-9770.718434,0.000000
545.712665,-3627.009116,-9696.697840,-1225.752797
545.712993,-3182.885551,-9992.780217,-1149.143247
545.713320,-1406.391290,-9104.533087,-153.219100
545.713648,1332.370696,-8216.285956,1225.752797
545.713975,3330.926739,-7254.018232,2604.724693
545.714303,2664.741391,-8216.285956,2298.286494
545.714630,0.000000,-9622.677246,1378.971896
545.714957,-1998.556043,-10214.842000,459.657299
545.715285,-2886.803174,-10214.842000,-536.266849
545.715612,-2886.803174,-10436.903782,-612.876398
545.715940,-1702.473667,-10214.842000,229.828649
545.716267,1258.350101,-9400.615463,1915.238745
545.716595,3478.967927,-7698.141797,2757.943793
545.716922,3701.029710,-7920.203579,3217.601092
545.717249,1406.391290,-9030.512492,2604.724693
545.717577,-1702.473667,-9622.677246,689.485948
545.717904,-2738.761985,-9548.656652,-153.219100
545.718232,-3182.885551,-9548.656652,-612.876398
545.718559,-2368.659014,-9622.677246,-459.657299
545.718887,0.000000,-8586.388927,842.705048
545.719214,2368.659014,-7476.080014,2068.457845
545.719541,2368.659014,-7254.018232,2374.896044
545.719869,518.144159,-8734.430116,1915.238745
545.720196,-1998.556043,-9622.677246,689.485948
545.720524,-3330.926739,-9474.636058,-766.095498
545.720851,-3997.112087,-9696.697840,-1225.752797
545.721178,-3182.885551,-9696.697840,-459.657299
545.721506,-370.102971,-9178.553681,612.876398
545.721833,2590.720797,-7476.080014,1991.848295
545.722161,3404.947333,-7105.977043,2221.676944
545.722488,2294.638420,-8882.471304,2451.505594
545.722816,0.000000,-9844.739029,1072.533697
545.723143,-2368.659014,-9104.533087,-383.047749
545.723470,-2812.782580,-9622.677246,-1302.362347
545.723798,-2664.741391,-9992.780217,-1225.752797
545.724125,-1110.308913,-9548.656652,0.000000
545.724453,2294.638420,-8068.244768,459.657299
545.724780,3256.906145,-7920.203579,1455.581446
545.725108,1998.556043,-9400.615463,1455.581446
545.725435,-518.144159,-10362.883188,153.219100
545.725762,-2368.659014,-9474.636058,-689.485948
545.726090,-1998.556043,-9400.615463,-1685.410096
545.726417,-1776.494261,-9844.739029,-1302.362347
545.726745,296.082377,-9326.594869,-153.219100
545.727072,3330.926739,-7846.182985,1149.143247
545.727400,4293.194464,-7328.038826,2451.505594
545.727727,2442.679609,-8512.368333,2528.115143
545.728054,-1036.288319,-10140.821405,536.266849
545.728382,-3330.926739,-10066.800811,-766.095498
545.728709,-3552.988522,-9622.677246,-1455.581446
545.729037,-3108.864956,-10066.800811,-1378.971896
545.729364,-1258.350101,-9474.636058,-612.876398
545.729692,1480.411884,-8438.347739,766.095498
545.730019,3627.009116,-7476.080014,1762.019645
545.730346,2368.659014,-8142.265362,1608.800546
545.730674,-222.061783,-9696.697840,459.657299
545.731001,-2516.700203,-9918.759623,-536.266849
545.731329,-2960.823768,-10066.800811,-995.924147
545.731656,-2812.782580,-9992.780217,-842.705048
545.731984,-592.164754,-9178.553681,383.047749
545.732311,2664.741391,-7994.224174,2374.896044
545.732638,4959.379811,-7402.059420,3753.867940
545.732966,4145.153275,-8068.244768,3447.429741
545.733293,296.082377,-9474.636058,2604.724693
545.733621,-2738.761985,-10066.800811,995.924147
545.733948,-3849.070898,-10288.862594,-306.438199
545.734276,-4515.256246,-10510.924376,-842.705048
545.734603,-3108.864956,-10214.842000,-919.314598
545.734930,-592.164754,-8808.450710,919.314598
545.735258,2516.700203,-7402.059420,1991.848295
545.735585,2442.679609,-7402.059420,1915.238745
545.735913,370.102971,-9104.533087,919.314598
545.736240,-2368.659014,-9548.656652,-536.266849
545.736568,-3404.947333,-9104.533087,-1225.752797
545.736895,-3923.091493,-9400.615463,-1685.410096
545.737222,-2590.720797,-9178.553681,-689.485948
545.737550,370.102971,-8734.430116,995.924147
545.737877,2886.803174,-7254.018232,3140.991542
545.738205,3849.070898,-7179.997637,3524.039291
545.738532,1184.329507,-9252.574275,2528.115143
545.738860,-1702.473667,-9844.739029,995.924147
545.739187,-3108.864956,-9844.739029,-383.047749
545.739514,-3256.906145,-10362.883188,-995.924147
545.739842,-3256.906145,-9548.656652,-842.705048
545.740169,0.000000,-8956.491898,0.000000
545.740497,3256.906145,-7254.018232,1302.362347
545.740824,4145.153275,-6809.894666,1685.410096
545.741151,2590.720797,-8660.409521,1455.581446
545.741479,222.061783,-9770.718434,306.438199
545.741806,-2294.638420,-9844.739029,-995.924147
545.742134,-2664.741391,-10214.842000,-1378.971896
545.742461,-2590.720797,-10288.862594,-766.095498
545.742789,-296.082377,-9474.636058,919.314598
545.743116,3108.864956,-8068.244768,2681.334243
545.743443,4293.194464,-7846.182985,3907.087040
545.743771,2146.597232,-8808.450710,3140.991542
545.744098,-592.164754,-9918.759623,2221.676944
545.744426,-3034.844362,-9474.636058,306.438199
545.744753,-3627.009116,-9252.574275,-1072.533697
545.745081,-3849.070898,-9548.656652,-1149.143247
545.745408,-2146.597232,-9400.615463,-689.485948
545.745735,1110.308913,-8216.285956,536.266849
545.746063,2812.782580,-7031.956449,1608.800546
545.746390,2072.576638,-7550.100608,1149.143247
545.746718,-296.082377,-8956.491898,0.000000
545.747045,-2442.679609,-9992.780217,-842.705048
545.747373,-3701.029710,-9770.718434,-1532.190996
545.747700,-3256.906145,-9992.780217,-1378.971896
545.748027,-1554.432478,-9400.615463,-306.438199
545.748355,1776.494261,-8660.409521,2451.505594
545.748682,3627.009116,-8438.347739,2604.724693
545.749010,2590.720797,-9104.533087,2911.162892
545.749337,0.000000,-9622.677246,1762.019645
545.749665,-1924.535449,-10288.862594,612.876398
545.749992,-2886.803174,-10362.883188,-306.438199
545.750319,-2664.741391,-10510.924376,-919.314598
545.750647,-1258.350101,-10584.944971,-689.485948
545.750974,1776.494261,-8956.491898,536.266849
545.751302,3775.050304,-8364.327145,1838.629195
545.751629,3627.009116,-8586.388927,1685.410096
545.751957,518.144159,-9992.780217,459.657299
545.752284,-2146.597232,-10807.006753,-919.314598
545.752611,-2590.720797,-10140.821405,-1685.410096
545.752939,-2590.720797,-9844.739029,-1608.800546
545.753266,-962.267725,-9178.553681,-306.438199
545.753594,1776.494261,-7698.141797,1455.581446
545.753921,4145.153275,-7550.100608,3140.991542
545.754249,3330.926739,-8364.327145,3294.210641
545.754576,444.123565,-9622.677246,2604.724693
545.754903,-2664.741391,-9992.780217,1072.533697
545.755231,-3627.009116,-9400.615463,0.000000
545.755558,-4219.173869,-10066.800811,-995.924147
545.755886,-2960.823768,-9548.656652,-383.047749
545.756213,0.000000,-8660.409521,76.609550
545.756541,2220.617826,-6735.874072,1762.019645
545.756868,2812.782580,-6883.915261,1915.238745
545.757195,666.185348,-8660.409521,612.876398
545.757523,-2368.659014,-9474.636058,-536.266849
545.757850,-3256.906145,-9178.553681,-1378.971896
545.758178,-2368.659014,-8586.388927,-766.095498
545.758505,-740.205942,-8068.244768,383.047749
545.758832,2220.617826,-7624.121203,2604.724693
545.759160,4441.235652,-7550.100608,4903.011187
545.759487,5033.400406,-7846.182985,5822.325785
545.759815,2294.638420,-9104.533087,5132.839837
545.760142,-814.226536,-10584.944971,3983.696590
545.760470,-2738.761985,-10066.800811,2681.334243
545.760797,-2960.823768,-10288.862594,1991.848295
545.761124,-1702.473667,-9622.677246,2298.286494
545.761452,444.123565,-8290.306550,2834.553343
545.761779,2886.803174,-7105.977043,4060.306139
545.762107,4145.153275,-5551.544565,4979.620737
545.762434,2368.659014,-7402.059420,3983.696590
545.762762,-1406.391290,-9178.553681,2221.676944
545.763089,-4589.276840,-9326.594869,536.266849
545.763416,-5033.400406,-9326.594869,153.219100
545.763744,-5255.462188,-9252.574275,153.219100
545.764071,-3552.988522,-8068.244768,2145.067394
545.764399,-1036.288319,-7624.121203,2528.115143
545.764726,888.247130,-6809.894666,3830.477490
545.765054,814.226536,-7031.956449,4136.915689
545.765381,-888.247130,-8956.491898,3524.039291
545.765708,-3923.091493,-10214.842000,1838.629195
545.766036,-4589.276840,-10658.965565,995.924147
545.766363,-3330.926739,-9400.615463,1149.143247
545.766691,-814.226536,-9252.574275,2145.067394
545.767018,1702.473667,-8956.491898,2834.553343
545.767346,3256.906145,-8068.244768,3600.648841
545.767673,3701.029710,-8290.306550,3830.477490
545.768000,3108.864956,-8734.430116,3447.429741
545.768328,814.226536,-10510.924376,2374.896044
545.768655,-1406.391290,-11695.253884,1072.533697
545.768983,-1850.514855,-12213.398043,766.095498
545.769310,-740.205942,-11177.109724,2068.457845
545.769638,1702.473667,-10214.842000,3217.601092
545.769965,3478.967927,-9844.739029,4290.134789
545.770292,3923.091493,-10066.800811,4673.182538
545.770620,3182.885551,-9844.739029,5056.230287
545.770947,1998.556043,-9326.594869,4749.792088
545.771275,962.267725,-9474.636058,4136.915689
545.771602,0.000000,-10510.924376,3677.258390
545.771930,-1110.308913,-11251.130318,3677.258390
545.772257,-888.247130,-10436.903782,3983.696590
545.772584,-370.102971,-9252.574275,4673.182538
545.772912,0.000000,-8660.409521,4290.134789
545.773239,-1554.432478,-9622.677246,3830.477490
545.773567,-3701.029710,-9918.759623,2604.724693
545.773894,-4367.215058,-9400.615463,1838.629195
545.774222,-2886.803174,-7624.121203,1455.581446
545.774549,-1480.411884,-7550.100608,2221.676944
545.774876,-666.185348,-8586.388927,3064.381992
545.775204,-1776.494261,-9474.636058,2987.772442
545.775531,-3034.844362,-9992.780217,2528.115143
545.775859,-3404.947333,-9178.553681,2681.334243
545.776186,-2072.576638,-8882.471304,2911.162892
545.776513,-888.247130,-8586.388927,2604.724693
545.776841,-148.041188,-9178.553681,3140.991542
545.777168,0.000000,-9252.574275,3370.820191
545.777496,1258.350101,-8438.347739,4290.134789
545.777823,3552.988522,-7328.038826,4979.620737
545.778151,5181.441594,-8142.265362,5515.887586
545.778478,5329.482782,-9252.574275,6128.763984
545.778805,3330.926739,-10140.821405,5362.668486
545.779133,666.185348,-10584.944971,4596.572988
545.779460,-814.226536,-9918.759623,4213.525239
545.779788,814.226536,-8956.491898,3907.087040
545.780115,2368.659014,-8142.265362,4596.572988
545.780443,1924.535449,-8660.409521,4596.572988
545.780770,222.061783,-9474.636058,3830.477490
545.781097,-2146.597232,-9474.636058,3447.429741
545.781425,-3701.029710,-9104.533087,2068.457845
545.781752,-2960.823768,-7994.224174,2068.457845
545.782080,-1702.473667,-7254.018232,2145.067394
545.782407,-888.247130,-7624.121203,2451.505594
545.782735,-1406.391290,-7994.224174,2987.772442
545.783062,-3404.947333,-7550.100608,2681.334243
545.783389,-4959.379811,-7772.162391,1762.019645
545.783717,-4959.379811,-8068.244768,1149.143247
545.784044,-3330.926739,-8438.347739,1072.533697
545.784372,-666.185348,-7698.141797,2145.067394
545.784699,1110.308913,-7476.080014,3064.381992
545.785027,1332.370696,-7698.141797,3907.087040
545.785354,1110.308913,-8734.430116,3830.477490
545.785681,296.082377,-9400.615463,2834.553343
545.786009,222.061783,-9696.697840,1762.019645
545.786336,1184.329507,-9844.739029,2145.067394
545.786664,3108.864956,-9770.718434,3217.601092
545.786991,4293.194464,-9696.697840,4826.401637
545.787319,4885.359217,-10214.842000,5745.716235
545.787646,4367.215058,-11029.068536,5592.497135
545.787973,1480.411884,-11325.150913,3294.210641
545.788301,-518.144159,-11769.274478,3294.210641
545.788628,-1184.329507,-11103.089130,2911.162892
545.788956,-1480.411884,-10732.986159,2987.772442
545.789283,0.000000,-9474.636058,3753.867940
545.789611,2072.576638,-8882.471304,5286.058936
545.789938,2072.576638,-8660.409521,5669.106685
545.790265,0.000000,-8586.388927,4673.182538
545.790593,-3182.885551,-9178.553681,3370.820191
545.790920,-5551.544565,-9474.636058,2145.067394
545.791248,-5699.585753,-9400.615463,1532.190996
545.791575,-4219.173869,-8586.388927,1225.752797
545.791903,-2368.659014,-7476.080014,2451.505594
545.792230,148.041188,-6957.935855,3907.087040
545.792557,1184.329507,-7031.956449,5286.058936
545.792885,0.000000,-7476.080014,4903.011187
545.793212,-1628.453072,-9178.553681,3907.087040
545.793540,-3256.906145,-10214.842000,2451.505594
545.793867,-4515.256246,-11177.109724,1378.971896
545.794194,-3923.091493,-10881.027347,1455.581446
545.794522,-2072.576638,-10214.842000,2451.505594
545.794849,1332.370696,-9548.656652,3907.087040
545.795177,3627.009116,-8438.347739,4596.572988
545.795504,4293.194464,-8068.244768,4519.963438
545.795832,3404.947333,-9030.512492,3983.696590
545.796159,1924.535449,-9622.677246,3217.601092
545.796486,1036.288319,-10436.903782,3294.210641
545.796814,740.205942,-10510.924376,2757.943793
545.797141,148.041188,-10214.842000,2834.553343
545.797469,148.041188,-9770.718434,4443.353888
545.797796,1036.288319,-8956.491898,4060.306139
545.798124,0.000000,-9104.533087,3983.696590
545.798451,148.041188,-8068.244768,3370.820191
545.798778,-740.205942,-8364.327145,2298.286494
545.799106,-962.267725,-8068.244768,1991.848295
545.799433,-296.082377,-7772.162391,1838.629195
545.799761,592.164754,-7402.059420,2528.115143
545.800088,1184.329507,-7254.018232,3677.258390
545.800416,1554.432478,-7550.100608,3600.648841
545.800743,1110.308913,-8290.306550,3753.867940
545.801070,-296.082377,-9178.553681,3907.087040
545.801398,-962.267725,-9622.677246,3677.258390
545.801725,-2442.679609,-9474.636058,3447.429741
545.802053,-2368.659014,-9622.677246,3140.991542
545.802380,-1850.514855,-9918.759623,3524.039291
545.802708,-1554.432478,-9622.677246,3064.381992
545.803035,-740.205942,-8956.491898,3370.820191
545.803362,296.082377,-8216.285956,3370.820191
545.803690,74.020594,-8216.285956,3370.820191
545.804017,0.000000,-7994.224174,3064.381992
545.804345,-296.082377,-8290.306550,2911.162892
545.804672,-740.205942,-8216.285956,2681.334243
545.805000,-592.164754,-8808.450710,2987.772442
545.805327,370.102971,-9252.574275,3524.039291
545.805654,444.123565,-9474.636058,3753.867940
545.805982,1110.308913,-9918.759623,3983.696590
545.806309,592.164754,-10140.821405,4213.525239
545.806637,-592.164754,-10510.924376,3677.258390
545.806964,-592.164754,-10584.944971,3447.429741
545.807292,-1258.350101,-9400.615463,2987.772442
545.807619,-592.164754,-9400.615463,3064.381992
545.807946,74.020594,-8956.491898,2681.334243
545.808274,444.123565,-8808.450710,2604.724693
545.808601,888.247130,-9178.553681,2757.943793
545.808929,296.082377,-9474.636058,2221.676944
545.809256,-370.102971,-9918.759623,2451.505594
545.809584,-962.267725,-9844.739029,2068.457845
545.809911,-1184.329507,-9992.780217,1608.800546
545.810239,-592.164754,-9696.697840,2145.067394
545.810566,-740.205942,-9326.594869,2145.067394
545.810894,-518.144159,-9770.718434,1685.410096
545.811221,-1036.288319,-9696.697840,1685.410096
545.811549,-1184.329507,-9548.656652,1685.410096
545.811877,-1480.411884,-9178.553681,1225.752797
545.812204,-888.247130,-8438.347739,1302.362347
545.812532,-370.102971,-8660.409521,1072.533697
545.812859,296.082377,-8142.265362,919.314598
545.813187,1036.288319,-8216.285956,1225.752797
545.813514,1184.329507,-8364.327145,1072.533697
545.813842,888.247130,-8438.347739,1072.533697
545.814170,666.185348,-9400.615463,1838.629195
545.814497,222.061783,-9992.780217,1378.971896
545.814825,518.144159,-10510.924376,1455.581446
545.815152,888.247130,-10066.800811,1838.629195
545.815480,1406.391290,-9918.759623,2451.505594
545.815807,1924.535449,-9400.615463,1915.238745
545.816135,740.205942,-9548.656652,1915.238745
545.816463,444.123565,-9252.574275,1685.410096
545.816790,-518.144159,-8956.491898,1378.971896
545.817118,-814.226536,-8586.388927,1455.581446
545.817445,-740.205942,-8512.368333,536.266849
545.817773,-888.247130,-8512.368333,1072.533697
545.818101,-888.247130,-8142.265362,919.314598
545.818428,-962.267725,-7994.224174,842.705048
545.818756,-962.267725,-8068.244768,689.485948
545.819083,-888.247130,-7846.182985,689.485948
545.819411,-1184.329507,-7846.182985,229.828649
545.819738,-1184.329507,-7846.182985,383.047749
545.820066,-1036.288319,-7994.224174,689.485948
545.820394,-1110.308913,-8586.388927,612.876398
545.820721,-666.185348,-8882.471304,995.924147
545.821049,-592.164754,-8882.471304,1378.971896
545.821376,-518.144159,-8882.471304,1302.362347
545.821704,-148.041188,-9178.553681,995.924147
545.822031,0.000000,-9326.594869,995.924147
545.822359,296.082377,-9104.533087,612.876398
545.822687,666.185348,-9104.533087,919.314598
545.823014,518.144159,-9474.636058,1225.752797
545.823342,296.082377,-9474.636058,1149.143247
545.823669,296.082377,-9918.759623,1072.533697
545.823997,74.020594,-9844.739029,919.314598
545.824324,740.205942,-10214.842000,1378.971896
545.824652,222.061783,-9474.636058,459.657299
545.824980,-592.164754,-9252.574275,766.095498
545.825307,0.000000,-9104.533087,459.657299
545.825635,-370.102971,-9178.553681,842.705048
545.825962,-222.061783,-9178.553681,383.047749
545.826290,-518.144159,-8734.430116,766.095498
545.826618,-1036.288319,-9178.553681,766.095498
545.826945,-1184.329507,-9030.512492,306.438199
545.827273,-1406.391290,-9030.512492,383.047749
545.827600,-1480.411884,-8660.409521,229.828649
545.827928,-666.185348,-9326.594869,459.657299
545.828255,-814.226536,-8956.491898,383.047749
545.828583,-592.164754,-9252.574275,383.047749
545.828911,0.000000,-9548.656652,689.485948
545.829238,0.000000,-9104.533087,612.876398
545.829566,592.164754,-9622.677246,995.924147
545.829893,0.000000,-9770.718434,459.657299
545.830221,-296.082377,-10066.800811,459.657299
545.830548,-222.061783,-10066.800811,612.876398
545.830876,0.000000,-10214.842000,612.876398
545.831204,0.000000,-9770.718434,995.924147
545.831531,370.102971,-9622.677246,766.095498
545.831859,592.164754,-9400.615463,689.485948
545.832186,592.164754,-9178.553681,612.876398
545.832514,666.185348,-8956.491898,536.266849
545.832841,592.164754,-8882.471304,306.438199
545.833169,148.041188,-8956.491898,766.095498
545.833497,0.000000,-8882.471304,536.266849
545.833824,0.000000,-9178.553681,459.657299
545.834152,-222.061783,-8882.471304,459.657299
545.834479,-222.061783,-8734.430116,306.438199
545.834807,0.000000,-8808.450710,229.828649
545.835134,0.000000,-8734.430116,306.438199
545.835462,-370.102971,-8438.347739,76.609550
545.835790,-370.102971,-8290.306550,76.609550
545.836117,-444.123565,-8512.368333,383.047749
545.836445,-814.226536,-8734.430116,229.828649
545.836772,-814.226536,-8956.491898,153.219100
545.837100,-666.185348,-8882.471304,229.828649
545.837428,-518.144159,-8882.471304,229.828649
545.837755,-592.164754,-8734.430116,306.438199
545.838083,0.000000,-8512.368333,689.485948
545.838410,-296.082377,-8512.368333,383.047749
545.838738,-370.102971,-8660.409521,612.876398
545.839065,-518.144159,-8808.450710,536.266849
545.839393,-518.144159,-9178.553681,842.705048
545.839721,-814.226536,-8956.491898,1072.533697
545.840048,-814.226536,-9474.636058,766.095498
545.840376,-814.226536,-9252.574275,766.095498
545.840703,-666.185348,-9178.553681,689.485948
545.841031,-444.123565,-9030.512492,842.705048
545.841358,-148.041188,-9178.553681,995.924147
545.841686,74.020594,-8364.327145,229.828649
545.842014,-148.041188,-8808.450710,536.266849
545.842341,-444.123565,-9104.533087,842.705048
545.842669,-518.144159,-9326.594869,689.485948
545.842996,-814.226536,-9252.574275,919.314598
545.843324,-666.185348,-9326.594869,689.485948
545.843651,-518.144159,-9622.677246,459.657299
545.843979,-518.144159,-9474.636058,612.876398
545.844307,-370.102971,-9104.533087,306.438199
545.844634,-370.102971,-9400.615463,612.876398
545.844962,-444.123565,-8956.491898,459.657299
545.845289,-370.102971,-9252.574275,459.657299
545.845617,-592.164754,-9400.615463,766.095498
545.845945,-592.164754,-9474.636058,612.876398
545.846272,-592.164754,-9400.615463,459.657299
545.846600,0.000000,-9622.677246,0.000000
545.846927,-222.061783,-8882.471304,689.485948
545.847255,0.000000,-9104.533087,306.438199
545.847582,-148.041188,-9030.512492,459.657299
545.847910,-222.061783,-9252.574275,153.219100
545.848238,0.000000,-9474.636058,306.438199
545.848565,-592.164754,-9326.594869,1378.971896
545.848893,-444.123565,-9770.718434,459.657299
545.849220,-518.144159,-9770.718434,689.485948
545.849548,0.000000,-9622.677246,612.876398
545.849875,74.020594,-9474.636058,459.657299
545.850203,0.000000,-8956.491898,612.876398
545.850531,-370.102971,-8364.327145,229.828649
545.850858,-518.144159,-8586.388927,153.219100
545.851186,-962.267725,-8512.368333,383.047749
545.851513,-1036.288319,-8808.450710,536.266849
545.851841,-1258.350101,-8364.327145,459.657299
545.852168,-592.164754,-8882.471304,459.657299
545.852496,-370.102971,-8882.471304,306.438199
545.852824,74.020594,-8586.388927,536.266849
545.853151,370.102971,-8512.368333,459.657299
545.853479,888.247130,-8438.347739,536.266849
545.853806,370.102971,-8808.450710,153.219100
545.854134,0.000000,-9030.512492,536.266849
545.854462,-370.102971,-9622.677246,919.314598
545.854789,-444.123565,-9844.739029,995.924147
545.855117,-222.061783,-9622.677246,1378.971896
545.855444,0.000000,-9252.574275,919.314598
545.855772,444.123565,-8808.450710,459.657299
545.856099,814.226536,-8364.327145,383.047749
545.856427,444.123565,-8068.244768,306.438199
545.856755,222.061783,-7920.203579,689.485948
545.857082,-148.041188,-7920.203579,842.705048
545.857410,-592.164754,-8808.450710,459.657299
545.857737,-888.247130,-9252.574275,766.095498
545.858065,-962.267725,-9474.636058,842.705048
545.858392,-370.102971,-9400.615463,766.095498
545.858720,0.000000,-8956.491898,1072.533697
545.859048,148.041188,-8882.471304,76.609550
545.859375,296.082377,-8512.368333,383.047749
545.859703,370.102971,-8512.368333,153.219100
545.860030,0.000000,-8808.450710,153.219100
545.860358,-148.041188,-9178.553681,0.000000
545.860685,-666.185348,-9474.636058,459.657299
545.861013,-962.267725,-9770.718434,612.876398
545.861341,-740.205942,-9696.697840,536.266849
545.861668,-666.185348,-9770.718434,459.657299
545.861996,-296.082377,-9030.512492,383.047749
545.862323,148.041188,-8808.450710,459.657299
545.862651,592.164754,-8660.409521,229.828649
545.862978,444.123565,-9178.553681,306.438199
545.863306,222.061783,-9252.574275,459.657299
545.863634,0.000000,-10140.821405,995.924147
545.863961,0.000000,-10066.800811,612.876398
545.864289,-814.226536,-10140.821405,842.705048
545.864616,-740.205942,-9992.780217,766.095498
545.864944,-370.102971,-9474.636058,536.266849
545.865272,-370.102971,-8956.491898,306.438199
545.865599,-518.144159,-8512.368333,766.095498
545.865927,-592.164754,-8808.450710,689.485948
545.866254,-740.205942,-9252.574275,612.876398
545.866582,-962.267725,-9474.636058,842.705048
545.866909,-740.205942,-9474.636058,995.924147
545.867237,-962.267725,-9252.574275,1225.752797
545.867565,-370.102971,-9030.512492,689.485948
545.867892,-518.144159,-9474.636058,842.705048
545.868220,-592.164754,-9252.574275,459.657299
545.868547,-148.041188,-9178.553681,766.095498
545.868875,0.000000,-9326.594869,842.705048
545.869202,0.000000,-9252.574275,919.314598
545.869530,-444.123565,-9548.656652,995.924147
545.869858,-296.082377,-9696.697840,995.924147
545.870185,-444.123565,-9474.636058,766.095498
545.870513,-666.185348,-9400.615463,459.657299
545.870840,-888.247130,-8512.368333,536.266849
545.871168,-296.082377,-8882.471304,536.266849
545.871495,-370.102971,-8512.368333,459.657299
545.871823,-370.102971,-8364.327145,306.438199
545.872151,-148.041188,-8512.368333,459.657299
545.872478,0.000000,-9104.533087,689.485948
545.872806,-222.061783,-8438.347739,306.438199
545.873133,-222.061783,-8660.409521,76.609550
545.873461,-296.082377,-8882.471304,306.438199
545.873789,-370.102971,-9030.512492,383.047749
545.874116,0.000000,-9474.636058,383.047749
545.874444,0.000000,-8660.409521,229.828649
545.874771,222.061783,-9104.533087,536.266849
545.875099,222.061783,-9104.533087,383.047749
545.875426,0.000000,-9104.533087,459.657299
545.875754,-518.144159,-9178.553681,919.314598
545.876082,74.020594,-9400.615463,1225.752797
545.876409,-370.102971,-8956.491898,612.876398
545.876737,-296.082377,-8956.491898,459.657299
545.877064,-148.041188,-8734.430116,229.828649
545.877392,-148.041188,-8364.327145,306.438199
545.877719,0.000000,-8068.244768,383.047749
545.878047,-148.041188,-8512.368333,459.657299
545.878375,-518.144159,-8660.409521,612.876398
545.878702,-370.102971,-8882.471304,689.485948
545.879030,-444.123565,-8882.471304,689.485948
545.879357,-444.123565,-8956.491898,1378.971896
545.879685,-592.164754,-9178.553681,842.705048
545.880012,-444.123565,-9178.553681,766.095498
545.880340,-296.082377,-9400.615463,842.705048
545.880668,-222.061783,-9252.574275,459.657299
545.880995,-370.102971,-9326.594869,995.924147
545.881323,0.000000,-8660.409521,536.266849
545.881650,0.000000,-9326.594869,612.876398
545.881978,-370.102971,-9252.574275,766.095498
545.882306,-444.123565,-9252.574275,536.266849
545.882633,-444.123565,-9400.615463,842.705048
545.882961,-444.123565,-9104.533087,842.705048
545.883288,-296.082377,-9474.636058,306.438199
545.883616,-148.041188,-9400.615463,536.266849
545.883943,0.000000,-9474.636058,612.876398
545.884271,0.000000,-9400.615463,536.266849
545.884599,0.000000,-9104.533087,919.314598
545.884926,296.082377,-9178.553681,612.876398
545.885254,296.082377,-9326.594869,536.266849
545.885581,0.000000,-9474.636058,383.047749
545.885909,0.000000,-9548.656652,536.266849
545.886236,0.000000,-9844.739029,842.705048
545.886564,0.000000,-9474.636058,612.876398
545.886892,0.000000,-9326.594869,536.266849
545.887219,-148.041188,-9474.636058,459.657299
545.887547,-222.061783,-9474.636058,229.828649
545.887874,-222.061783,-8956.491898,306.438199
545.888202,0.000000,-8586.388927,459.657299
545.888529,-148.041188,-8956.491898,76.609550
545.888857,0.000000,-9252.574275,383.047749
545.889185,0.000000,-9178.553681,383.047749
545.889512,-296.082377,-9104.533087,306.438199
545.889840,-222.061783,-9178.553681,459.657299
545.890167,-296.082377,-8882.471304,689.485948
545.890495,-296.082377,-9178.553681,459.657299
545.890823,0.000000,-9104.533087,766.095498
545.891150,-370.102971,-8882.471304,766.095498
545.891478,-222.061783,-8660.409521,766.095498
545.891805,-518.144159,-8882.471304,766.095498
545.892133,-518.144159,-8882.471304,842.705048
545.892460,-370.102971,-8956.491898,689.485948
545.892788,-148.041188,-8956.491898,612.876398
545.893116,-148.041188,-8734.430116,383.047749
545.893443,0.000000,-8290.306550,383.047749
545.893771,-222.061783,-8734.430116,612.876398
545.894098,-296.082377,-8882.471304,612.876398
545.894426,-296.082377,-8956.491898,383.047749
545.894753,0.000000,-9252.574275,536.266849
545.895081,0.000000,-9104.533087,536.266849
545.895409,-296.082377,-9400.615463,689.485948
545.895736,0.000000,-9696.697840,689.485948
545.896064,0.000000,-9622.677246,689.485948
545.896391,74.020594,-9326.594869,536.266849
545.896719,0.000000,-9030.512492,536.266849
545.897046,-222.061783,-9104.533087,459.657299
545.897374,-370.102971,-9178.553681,536.266849
545.897702,0.000000,-9030.512492,383.047749
545.898029,0.000000,-9030.512492,306.438199
545.898357,-592.164754,-8586.388927,1149.143247
545.898684,-222.061783,-9252.574275,459.657299
545.899012,-518.144159,-9178.553681,229.828649
545.899339,-444.123565,-9030.512492,536.266849
545.899667,-370.102971,-9104.533087,536.266849
545.899995,-222.061783,-9400.615463,612.876398
545.900322,-518.144159,-9030.512492,842.705048
545.900650,-592.164754,-9400.615463,689.485948
545.900977,-296.082377,-9326.594869,842.705048
545.901305,-518.144159,-9474.636058,689.485948
545.901633,-592.164754,-9474.636058,919.314598
545.901960,-296.082377,-9326.594869,536.266849
545.902288,-518.144159,-9030.512492,766.095498
545.902615,-740.205942,-9104.533087,766.095498
545.902943,-740.205942,-9030.512492,689.485948
545.903270,-888.247130,-8808.450710,612.876398
545.903598,-1184.329507,-8438.347739,689.485948
545.903926,-666.185348,-8956.491898,536.266849
545.904253,-666.185348,-8882.471304,612.876398
545.904581,-814.226536,-8808.450710,689.485948
545.904908,-888.247130,-8660.409521,689.485948
545.905236,-666.185348,-8586.388927,76.609550
545.905563,-666.185348,-8438.347739,689.485948
545.905891,-592.164754,-8956.491898,766.095498
545.906219,-444.123565,-9030.512492,612.876398
545.906546,-370.102971,-9030.512492,459.657299
545.906874,0.000000,-8956.491898,306.438199
545.907201,0.000000,-9030.512492,689.485948
545.907529,-296.082377,-9326.594869,612.876398
545.907856,-296.082377,-9326.594869,459.657299
545.908184,-296.082377,-9178.553681,383.047749
545.908512,-296.082377,-8808.450710,612.876398
545.908839,-296.082377,-8734.430116,229.828649
545.909167,0.000000,-8882.471304,459.657299
545.909494,-222.061783,-8660.409521,153.219100
545.909822,0.000000,-8660.409521,383.047749
545.910150,0.000000,-8808.450710,536.266849
545.910477,0.000000,-8882.471304,995.924147
545.910805,-518.144159,-8660.409521,459.657299
545.911132,-370.102971,-8956.491898,459.657299
545.911460,-296.082377,-8956.491898,536.266849
545.911787,-222.061783,-9178.553681,459.657299
545.912115,74.020594,-9178.553681,383.047749
545.912442,74.020594,-9104.533087,995.924147
545.912770,74.020594,-9326.594869,766.095498
545.913098,74.020594,-8956.491898,689.485948
545.913425,-296.082377,-9104.533087,689.485948
545.913753,-592.164754,-9252.574275,76.609550
545.914080,-296.082377,-9104.533087,1149.143247
545.914408,-222.061783,-9104.533087,459.657299
545.914735,-222.061783,-9030.512492,612.876398
545.915063,-296.082377,-9030.512492,766.095498
545.915391,-74.020594,-9030.512492,842.705048
545.915718,148.041188,-9104.533087,612.876398
545.916046,0.000000,-9178.553681,536.266849
545.916373,-222.061783,-9326.594869,612.876398
545.916701,-222.061783,-9474.636058,689.485948
545.917028,0.000000,-9548.656652,536.266849
545.917356,222.061783,-9326.594869,1072.533697
545.917683,0.000000,-9548.656652,689.485948
545.918011,-296.082377,-9474.636058,689.485948
545.918339,0.000000,-9548.656652,536.266849
545.918666,0.000000,-9622.677246,383.047749
545.918994,0.000000,-9474.636058,383.047749
545.919321,0.000000,-9400.615463,842.705048
545.919649,-222.061783,-9400.615463,383.047749
545.919976,0.000000,-9474.636058,459.657299
545.920304,-370.102971,-9548.656652,383.047749
545.920631,0.000000,-9252.574275,536.266849
545.920959,-222.061783,-9252.574275,612.876398
545.921287,-296.082377,-9400.615463,536.266849
545.921614,-296.082377,-9400.615463,536.266849
545.921942,0.000000,-9474.636058,612.876398
545.922269,0.000000,-9178.553681,612.876398
545.922597,0.000000,-8512.368333,766.095498
545.922924,-148.041188,-9400.615463,383.047749
545.923252,-370.102971,-9474.636058,536.266849
545.923579,-444.123565,-9252.574275,459.657299
545.923907,-592.164754,-9252.574275,383.047749
545.924235,-518.144159,-9178.553681,995.924147
545.924562,-740.205942,-9178.553681,689.485948
545.924890,-592.164754,-8956.491898,459.657299
545.925217,-444.123565,-8660.409521,306.438199
545.925545,-370.102971,-8586.388927,612.876398
545.925872,0.000000,-8882.471304,766.095498
545.926200,-444.123565,-8586.388927,459.657299
545.926528,-666.185348,-8808.450710,229.828649
545.926855,-592.164754,-8882.471304,689.485948
545.927183,-444.123565,-8956.491898,766.095498
545.927510,-518.144159,-8882.471304,612.876398
545.927838,-518.144159,-8734.430116,919.314598
545.928165,-370.102971,-8956.491898,919.314598
545.928493,-296.082377,-8956.491898,612.876398
545.928820,-296.082377,-8808.450710,612.876398
545.929148,-592.164754,-8734.430116,766.095498
545.929476,-1036.288319,-8512.368333,919.314598
545.929803,-370.102971,-8734.430116,612.876398
545.930131,-296.082377,-8808.450710,459.657299
545.930458,-444.123565,-8734.430116,383.047749
545.930786,-592.164754,-8808.450710,459.657299
545.931113,-296.082377,-8512.368333,612.876398
545.931441,-296.082377,-8512.368333,229.828649
545.931768,-296.082377,-8734.430116,459.657299
545.932096,-518.144159,-8734.430116,612.876398
545.932424,-296.082377,-9178.553681,383.047749
545.932751,-148.041188,-9178.553681,612.876398
545.933079,0.000000,-8956.491898,766.095498
545.933406,0.000000,-9252.574275,612.876398
545.933734,-296.082377,-9326.594869,459.657299
545.934061,-296.082377,-9178.553681,689.485948
545.934389,-222.061783,-8956.491898,612.876398
545.934716,-444.123565,-9104.533087,536.266849
545.935044,-296.082377,-9252.574275,459.657299
545.935372,-518.144159,-9326.594869,612.876398
545.935699,-296.082377,-9326.594869,689.485948
545.936027,-444.123565,-9104.533087,536.266849
545.936354,-592.164754,-9030.512492,842.705048
545.936682,-518.144159,-9030.512492,459.657299
545.937009,-370.102971,-9326.594869,536.266849
545.937337,-888.247130,-9178.553681,536.266849
545.937665,-666.185348,-9400.615463,459.657299
545.937992,-444.123565,-9104.533087,153.219100
545.938320,-222.061783,-9178.553681,919.314598
545.938647,-148.041188,-9252.574275,766.095498
545.938975,0.000000,-9252.574275,766.095498
545.939302,-222.061783,-9474.636058,919.314598
545.939630,-370.102971,-9030.512492,842.705048
545.939957,-148.041188,-8956.491898,612.876398
545.940285,-222.061783,-9252.574275,612.876398
545.940613,-296.082377,-9326.594869,612.876398
545.940940,-148.041188,-9474.636058,612.876398
545.941268,0.000000,-9178.553681,919.314598
545.941595,74.020594,-9178.553681,766.095498
545.941923,-222.061783,-8808.450710,459.657299
545.942250,0.000000,-8956.491898,153.219100
545.942578,0.000000,-9030.512492,306.438199
545.942905,0.000000,-9104.533087,383.047749
545.943233,222.061783,-9178.553681,459.657299
545.943561,0.000000,-9252.574275,536.266849
545.943888,-222.061783,-9474.636058,536.266849
545.944216,74.020594,-9252.574275,689.485948
545.944543,296.082377,-9400.615463,459.657299
545.944871,222.061783,-9104.533087,1532.190996
545.945198,-148.041188,-9474.636058,536.266849
545.945526,-222.061783,-9326.594869,383.047749
545.945853,0.000000,-9252.574275,459.657299
545.946181,0.000000,-9030.512492,306.438199
545.946509,0.000000,-9104.533087,1302.362347
545.946836,0.000000,-9030.512492,153.219100
545.947164,-296.082377,-9104.533087,612.876398
545.947491,-222.061783,-8882.471304,459.657299
545.947819,-148.041188,-8882.471304,459.657299
545.948146,-296.082377,-8660.409521,689.485948
545.948474,0.000000,-8956.491898,689.485948
545.948802,0.000000,-8808.450710,689.485948
545.949129,0.000000,-9178.553681,612.876398
545.949457,-222.061783,-9400.615463,919.314598
545.949784,0.000000,-9474.636058,766.095498
545.950112,0.000000,-9400.615463,536.266849
545.950439,0.000000,-9474.636058,536.266849
545.950767,-444.123565,-9400.615463,612.876398
545.951094,-518.144159,-9178.553681,459.657299
545.951422,-444.123565,-9252.574275,612.876398
545.951750,-592.164754,-8586.388927,766.095498
545.952077,-370.102971,-9400.615463,536.266849
545.952405,-370.102971,-9252.574275,689.485948
545.952732,-518.144159,-9030.512492,536.266849
545.953060,-592.164754,-9104.533087,459.657299
545.953387,-296.082377,-8956.491898,689.485948
545.953715,0.000000,-8956.491898,536.266849
545.954042,-296.082377,-9178.553681,459.657299
545.954370,0.000000,-9400.615463,536.266849
545.954698,0.000000,-9400.615463,689.485948
545.955025,74.020594,-9474.636058,842.705048
545.955353,-222.061783,-8956.491898,689.485948
545.955680,-148.041188,-9474.636058,536.266849
545.956008,-370.102971,-9252.574275,459.657299
545.956335,-296.082377,-9178.553681,383.047749
545.956663,-222.061783,-9252.574275,612.876398
545.956990,148.041188,-8882.471304,1072.533697
545.957318,-296.082377,-9030.512492,383.047749
545.957646,-592.164754,-8882.471304,536.266849
545.957973,-518.144159,-9030.512492,306.438199
545.958301,-370.102971,-9104.533087,536.266849
545.958628,-666.185348,-9104.533087,383.047749
545.958956,0.000000,-9326.594869,306.438199
545.959283,-296.082377,-8956.491898,306.438199
545.959611,0.000000,-9104.533087,995.924147
545.959939,-370.102971,-8734.430116,612.876398
545.960266,0.000000,-8882.471304,612.876398
545.960594,-296.082377,-9030.512492,306.438199
545.960921,-666.185348,-9030.512492,612.876398
545.961249,-666.185348,-8808.450710,536.266849
545.961576,-518.144159,-9030.512492,612.876398
545.961904,-444.123565,-9474.636058,919.314598
545.962231,-444.123565,-8660.409521,612.876398
545.962559,-740.205942,-8734.430116,842.705048
545.962887,-592.164754,-8586.388927,459.657299
545.963214,-592.164754,-8734.430116,306.438199
545.963542,-444.123565,-8882.471304,459.657299
545.963869,-370.102971,-8364.327145,995.924147
545.964197,-148.041188,-8586.388927,536.266849
545.964524,-444.123565,-9252.574275,612.876398
545.964852,-296.082377,-8882.471304,689.485948
545.965179,-222.061783,-8956.491898,612.876398
545.965507,-296.082377,-8882.471304,1072.533697
545.965835,0.000000,-8660.409521,766.095498
545.966162,-444.123565,-9104.533087,612.876398
545.966490,-370.102971,-9252.574275,459.657299
545.966817,0.000000,-9178.553681,459.657299
545.967145,0.000000,-8882.471304,459.657299
545.967472,0.000000,-8956.491898,689.485948
545.967800,-222.061783,-9104.533087,612.876398
545.968127,-296.082377,-9104.533087,612.876398
545.968455,-222.061783,-9104.533087,306.438199
545.968783,0.000000,-9030.512492,306.438199
545.969110,-370.102971,-9030.512492,766.095498
545.969438,0.000000,-9252.574275,459.657299
545.969765,-296.082377,-9474.636058,536.266849
545.970093,-296.082377,-9474.636058,612.876398
545.970420,0.000000,-9548.656652,612.876398
545.970748,0.000000,-9696.697840,1072.533697
545.971075,0.000000,-9400.615463,459.657299
545.971403,0.000000,-9400.615463,306.438199
545.971731,-296.082377,-9474.636058,459.657299
545.972058,-518.144159,-9252.574275,459.657299
545.972386,-148.041188,-9474.636058,383.047749
545.972713,-296.082377,-9400.615463,383.047749
545.973041,-370.102971,-9252.574275,459.657299
545.973368,-222.061783,-9326.594869,689.485948
545.973696,-370.102971,-9326.594869,689.485948
545.974024,-592.164754,-9104.533087,766.095498
545.974351,148.041188,-9252.574275,842.705048
545.974679,0.000000,-9104.533087,459.657299
545.975006,0.000000,-9178.553681,689.485948
545.975334,-222.061783,-9104.533087,459.657299
545.975661,-222.061783,-9474.636058,842.705048
545.975989,-296.082377,-9400.615463,766.095498
545.976316,-148.041188,-9474.636058,766.095498
545.976644,-296.082377,-9474.636058,612.876398
545.976972,-296.082377,-9400.615463,459.657299
545.977299,-444.123565,-9400.615463,459.657299
545.977627,0.000000,-9178.553681,1072.533697
545.977954,-222.061783,-9400.615463,229.828649
545.978282,0.000000,-9326.594869,612.876398
545.978609,0.000000,-9178.553681,153.219100
545.978937,0.000000,-9030.512492,153.219100
545.979264,-444.123565,-8734.430116,689.485948
545.979592,0.000000,-8882.471304,766.095498
545.979920,-222.061783,-8956.491898,229.828649
545.980247,-222.061783,-8956.491898,766.095498
545.980575,-148.041188,-8956.491898,459.657299
545.980902,-222.061783,-9104.533087,0.000000
545.981230,-148.041188,-8956.491898,766.095498
545.981557,0.000000,-9030.512492,842.705048
545.981885,0.000000,-9030.512492,383.047749
545.982212,0.000000,-9178.553681,536.266849
545.982540,-444.123565,-8956.491898,383.047749
545.982868,-296.082377,-8808.450710,536.266849
545.983195,0.000000,-9104.533087,306.438199
545.983523,-222.061783,-8956.491898,612.876398
545.983850,-296.082377,-8882.471304,383.047749
545.984178,0.000000,-8882.471304,536.266849
545.984505,0.000000,-8364.327145,306.438199
545.984833,0.000000,-8734.430116,459.657299
545.985161,-370.102971,-8808.450710,536.266849
545.985488,-370.102971,-8956.491898,612.876398
545.985816,-518.144159,-8956.491898,689.485948
545.986143,-296.082377,-8734.430116,1072.533697
545.986471,-370.102971,-8660.409521,536.266849
545.986798,-518.144159,-8956.491898,689.485948
545.987126,-370.102971,-9030.512492,689.485948
545.987453,-444.123565,-9104.533087,919.314598
545.987781,-296.082377,-8956.491898,612.876398
545.988109,-518.144159,-8808.450710,995.924147
545.988436,-740.205942,-9178.553681,612.876398
545.988764,-592.164754,-9474.636058,842.705048
545.989091,-666.185348,-8956.491898,612.876398
545.989419,-444.123565,-9030.512492,689.485948
545.989746,-814.226536,-8216.285956,612.876398
545.990074,-592.164754,-9178.553681,612.876398
545.990401,-740.205942,-9104.533087,536.266849
545.990729,-444.123565,-9030.512492,612.876398
545.991057,-518.144159,-8956.491898,612.876398
545.991384,0.000000,-9178.553681,1072.533697
545.991712,-370.102971,-9030.512492,459.657299
545.992039,-444.123565,-9252.574275,612.876398
545.992367,-370.102971,-9178.553681,766.095498
545.992694,-444.123565,-9400.615463,689.485948
545.993022,-740.205942,-9400.615463,995.924147
545.993349,-444.123565,-9178.553681,919.314598
545.993677,0.000000,-9474.636058,306.438199
545.994005,-148.041188,-9104.533087,306.438199
545.994332,-296.082377,-9252.574275,229.828649
545.994660,-444.123565,-8882.471304,229.828649
545.994987,0.000000,-9030.512492,383.047749
545.995315,-148.041188,-9030.512492,153.219100
545.995642,-296.082377,-9030.512492,306.438199
545.995970,-370.102971,-9030.512492,229.828649
545.996298,0.000000,-9178.553681,383.047749
545.996625,148.041188,-9252.574275,229.828649
545.996953,296.082377,-8956.491898,306.438199
545.997280,0.000000,-9030.512492,536.266849
545.997608,0.000000,-9252.574275,459.657299
545.997935,0.000000,-9474.636058,153.219100
545.998263,-222.061783,-9030.512492,1302.362347
545.998590,-148.041188,-8808.450710,459.657299
545.998918,0.000000,-9030.512492,536.266849
545.999246,0.000000,-9400.615463,536.266849
545.999573,0.000000,-9178.553681,383.047749
545.999901,0.000000,-8882.471304,842.705048
546.000228,0.000000,-8660.409521,689.485948
546.000556,-222.061783,-8882.471304,459.657299
546.000883,-222.061783,-8956.491898,383.047749
546.001211,0.000000,-9104.533087,383.047749
546.001538,74.020594,-8956.491898,536.266849
546.001866,222.061783,-9104.533087,689.485948
546.002194,-148.041188,-9474.636058,919.314598
546.002521,0.000000,-9474.636058,459.657299
546.002849,0.000000,-9178.553681,842.705048
546.003176,0.000000,-9400.615463,842.705048
546.003504,0.000000,-9474.636058,306.438199
546.003831,-592.164754,-9326.594869,842.705048
546.004159,-148.041188,-9326.594869,842.705048
546.004486,-296.082377,-9030.512492,766.095498
546.004814,-222.061783,-8956.491898,459.657299
546.005142,-592.164754,-8586.388927,689.485948
546.005469,0.000000,-9178.553681,306.438199
546.005797,0.000000,-9178.553681,612.876398
546.006124,-296.082377,-9178.553681,689.485948
546.006452,-444.123565,-9252.574275,842.705048
546.006779,0.000000,-8882.471304,536.266849
546.007107,0.000000,-9178.553681,536.266849
546.007435,-296.082377,-9326.594869,459.657299
546.007762,-296.082377,-9474.636058,842.705048
546.008090,-148.041188,-9474.636058,612.876398
546.008417,0.000000,-9548.656652,1072.533697
546.008745,0.000000,-9178.553681,1072.533697
546.009072,-518.144159,-9474.636058,536.266849
546.009400,-666.185348,-9326.594869,766.095498
546.009727,-444.123565,-9474.636058,689.485948
546.010055,-370.102971,-9326.594869,689.485948
546.010383,-222.061783,-9104.533087,842.705048
546.010710,0.000000,-8734.430116,689.485948
546.011038,-370.102971,-9030.512492,383.047749
546.011365,-370.102971,-9030.512492,536.266849
546.011693,-518.144159,-8882.471304,612.876398
546.012020,148.041188,-8956.491898,689.485948
546.012348,-296.082377,-9252.574275,766.095498
546.012675,0.000000,-9252.574275,612.876398
546.013003,-296.082377,-9178.553681,459.657299
546.013331,0.000000,-9178.553681,612.876398
546.013658,0.000000,-8882.471304,1378.971896
546.013986,-148.041188,-8882.471304,612.876398
546.014313,-444.123565,-9030.512492,229.828649
546.014641,-370.102971,-9030.512492,383.047749
546.014969,-296.082377,-9030.512492,306.438199
546.015296,-370.102971,-9104.533087,459.657299
546.015624,0.000000,-9030.512492,919.314598
546.015951,-370.102971,-8808.450710,689.485948
546.016279,-518.144159,-8808.450710,459.657299
546.016606,-296.082377,-8956.491898,383.047749
546.016934,-444.123565,-8734.430116,383.047749
546.017262,-222.061783,-8956.491898,229.828649
546.017589,-296.082377,-8734.430116,536.266849
546.017917,-148.041188,-8734.430116,536.266849
546.018244,0.000000,-9104.533087,612.876398
546.018572,-222.061783,-9178.553681,536.266849
546.018899,-592.164754,-8956.491898,459.657299
546.019227,-518.144159,-8734.430116,919.314598
546.019555,-592.164754,-8956.491898,536.266849
546.019882,-370.102971,-8956.491898,689.485948
546.020210,-296.082377,-8808.450710,536.266849
546.020537,-370.102971,-8512.368333,1225.752797
546.020865,-444.123565,-8734.430116,1149.143247
546.021192,-666.185348,-8808.450710,459.657299
546.021520,-222.061783,-8956.491898,459.657299
546.021848,-592.164754,-9030.512492,459.657299
546.022175,-296.082377,-9178.553681,612.876398
546.022503,0.000000,-9030.512492,536.266849
546.022830,-222.061783,-9252.574275,612.876398
546.023158,-148.041188,-9400.615463,536.266849
546.023486,-222.061783,-9178.553681,536.266849
546.023813,0.000000,-9474.636058,383.047749
546.024141,148.041188,-9696.697840,306.438199
546.024468,0.000000,-9474.636058,536.266849
546.024796,0.000000,-9326.594869,536.266849
546.025123,74.020594,-9400.615463,536.266849
546.025451,0.000000,-9474.636058,383.047749
546.025779,0.000000,-9252.574275,153.219100
546.026106,0.000000,-9178.553681,459.657299
546.026434,-222.061783,-9030.512492,0.000000
546.026761,0.000000,-9178.553681,229.828649
546.027089,0.000000,-9474.636058,229.828649
546.027416,148.041188,-9252.574275,612.876398
546.027744,0.000000,-9030.512492,689.485948
546.028072,-148.041188,-9400.615463,536.266849
546.028399,-296.082377,-9696.697840,536.266849
546.028727,-222.061783,-9622.677246,536.266849
546.029054,0.000000,-9326.594869,612.876398
546.029382,592.164754,-9622.677246,306.438199
546.029710,0.000000,-9252.574275,766.095498
546.030037,-296.082377,-9474.636058,689.485948
546.030365,-592.164754,-9252.574275,842.705048
546.030692,-518.144159,-9104.533087,766.095498
546.031020,-740.205942,-8956.491898,383.047749
546.031347,-1036.288319,-9030.512492,1149.143247
546.031675,-592.164754,-9326.594869,842.705048
546.032003,-518.144159,-9030.512492,995.924147
546.032330,-222.061783,-8734.430116,766.095498
546.032658,-444.123565,-8956.491898,766.095498
546.032985,-296.082377,-8956.491898,689.485948
546.033313,-296.082377,-9252.574275,689.485948
546.033640,-444.123565,-8734.430116,689.485948
546.033968,-296.082377,-8808.450710,766.095498
546.034296,0.000000,-8882.471304,1072.533697
546.034623,0.000000,-9178.553681,1302.362347
546.034951,0.000000,-9178.553681,536.266849
546.035278,148.041188,-9326.594869,612.876398
546.035606,74.020594,-9104.533087,229.828649
546.035933,0.000000,-9178.553681,306.438199
546.036261,-296.082377,-8882.471304,459.657299
546.036589,0.000000,-9252.574275,536.266849
546.036916,74.020594,-9030.512492,306.438199
546.037244,0.000000,-9252.574275,76.609550
546.037571,-296.082377,-9178.553681,229.828649
546.037899,222.061783,-9252.574275,76.609550
546.038227,0.000000,-8660.409521,383.047749
546.038554,74.020594,-9030.512492,229.828649
546.038882,222.061783,-9104.533087,229.828649
546.039209,74.020594,-9104.533087,612.876398
546.039537,0.000000,-8956.491898,612.876398
546.039864,0.000000,-8882.471304,229.828649
546.040192,0.000000,-9252.574275,459.657299
546.040520,-148.041188,-9178.553681,383.047749
546.040847,-296.082377,-9178.553681,689.485948
546.041175,-444.123565,-9030.512492,612.876398
546.041502,-592.164754,-8956.491898,766.095498
546.041830,-518.144159,-9030.512492,689.485948
546.042157,-666.185348,-8808.450710,536.266849
546.042485,-814.226536,-8882.471304,842.705048
546.042813,-740.205942,-8956.491898,689.485948
546.043140,-888.247130,-8438.347739,689.485948
546.043468,-592.164754,-8956.491898,766.095498
546.043795,-592.164754,-8882.471304,919.314598
546.044123,-888.247130,-8956.491898,536.266849
546.044451,-666.185348,-9030.512492,689.485948
546.044778,-666.185348,-8734.430116,689.485948
546.045106,-888.247130,-8808.450710,842.705048
546.045433,-296.082377,-9326.594869,766.095498
546.045761,-370.102971,-9252.574275,766.095498
546.046088,-222.061783,-9030.512492,766.095498
546.046416,0.000000,-9326.594869,689.485948
546.046744,-444.123565,-8660.409521,1072.533697
546.047071,-518.144159,-9252.574275,842.705048
546.047399,-592.164754,-9030.512492,689.485948
546.047726,-518.144159,-8882.471304,459.657299
546.048054,-444.123565,-8882.471304,459.657299
546.048381,-296.082377,-8586.388927,919.314598
546.048709,-444.123565,-9104.533087,306.438199
546.049037,-592.164754,-9030.512492,459.657299
546.049364,-296.082377,-9104.533087,229.828649
546.049692,-518.144159,-9030.512492,383.047749
546.050019,-296.082377,-9030.512492,306.438199
546.050347,0.000000,-9326.594869,229.828649
546.050675,0.000000,-9400.615463,306.438199
546.051002,0.000000,-9400.615463,612.876398
546.051330,0.000000,-9326.594869,383.047749
546.051657,-148.041188,-9030.512492,153.219100
546.051985,-592.164754,-9178.553681,306.438199
546.052312,-370.102971,-9178.553681,459.657299
546.052640,-370.102971,-8808.450710,153.219100
546.052968,-444.123565,-8808.450710,536.266849
546.053295,0.000000,-8956.491898,0.000000
546.053623,-518.144159,-8660.409521,306.438199
546.053950,-444.123565,-8734.430116,383.047749
546.054278,-444.123565,-8660.409521,306.438199
546.054605,-296.082377,-8808.450710,383.047749
546.054933,-444.123565,-9178.553681,459.657299
546.055261,-740.205942,-9104.533087,995.924147
546.055588,148.041188,-9400.615463,689.485948
546.055916,0.000000,-9178.553681,459.657299
546.056243,0.000000,-9400.615463,919.314598
546.056571,-296.082377,-9400.615463,612.876398
546.056898,-370.102971,-8882.471304,842.705048
546.057226,0.000000,-9178.553681,459.657299
546.057554,-222.061783,-9400.615463,459.657299
546.057881,-370.102971,-9326.594869,306.438199
546.058209,-370.102971,-9252.574275,536.266849
546.058536,0.000000,-8512.368333,919.314598
546.058864,-148.041188,-8586.388927,229.828649
546.059192,0.000000,-9030.512492,229.828649
546.059519,-222.061783,-8882.471304,229.828649
546.059847,-296.082377,-8882.471304,153.219100
546.060174,74.020594,-9178.553681,689.485948
546.060502,-296.082377,-9030.512492,536.266849
546.060829,0.000000,-9252.574275,766.095498
546.061157,74.020594,-9252.574275,766.095498
546.061485,0.000000,-9326.594869,766.095498
546.061812,0.000000,-9474.636058,536.266849
546.062140,74.020594,-9104.533087,1149.143247
546.062467,-222.061783,-9104.533087,459.657299
546.062795,-222.061783,-9178.553681,536.266849
546.063122,-518.144159,-9400.615463,612.876398
546.063450,-592.164754,-9326.594869,689.485948
546.063778,-592.164754,-8734.430116,919.314598
546.064105,-444.123565,-9178.553681,689.485948
546.064433,-370.102971,-9030.512492,689.485948
546.064760,-370.102971,-9104.533087,766.095498
546.065088,-296.082377,-9104.533087,459.657299
546.065416,0.000000,-9178.553681,612.876398
546.065743,-370.102971,-9030.512492,842.705048
546.066071,-444.123565,-9178.553681,842.705048
546.066398,-296.082377,-9400.615463,919.314598
546.066726,-296.082377,-9178.553681,842.705048
546.067053,-222.061783,-9326.594869,536.266849
546.067381,-296.082377,-9178.553681,459.657299
546.067709,-222.061783,-9252.574275,536.266849
546.068036,-222.061783,-8956.491898,459.657299
546.068364,-222.061783,-9252.574275,612.876398
546.068691,0.000000,-9252.574275,459.657299
546.069019,0.000000,-9252.574275,306.438199
546.069346,-222.061783,-9178.553681,229.828649
546.069674,-222.061783,-9252.574275,229.828649
546.070002,-370.102971,-9178.553681,306.438199
546.070329,-148.041188,-8882.471304,306.438199
546.070657,74.020594,-8956.491898,536.266849
546.070984,0.000000,-9030.512492,229.828649
546.071312,0.000000,-9178.553681,459.657299
546.071639,-222.061783,-9030.512492,229.828649
546.071967,-222.061783,-9104.533087,383.047749
546.072295,0.000000,-8956.491898,459.657299
546.072622,0.000000,-8882.471304,1072.533697
546.072950,-222.061783,-8882.471304,612.876398
546.073277,-222.061783,-8882.471304,612.876398
546.073605,-518.144159,-8734.430116,76.609550
546.073933,-296.082377,-8808.450710,612.876398
546.074260,-296.082377,-8438.347739,536.266849
546.074588,-148.041188,-8882.471304,536.266849
546.074915,-148.041188,-8808.450710,459.657299
546.075243,-444.123565,-8660.409521,612.876398
546.075570,-444.123565,-8734.430116,536.266849
546.075898,-666.185348,-8660.409521,612.876398
546.076226,-666.185348,-8956.491898,536.266849
546.076553,-592.164754,-9030.512492,842.705048
546.076881,-444.123565,-8956.491898,536.266849
546.077208,-518.144159,-9104.533087,842.705048
546.077536,-444.123565,-8882.471304,229.828649
546.077863,-370.102971,-9030.512492,1149.143247
546.078191,-518.144159,-8956.491898,766.095498
546.078519,-740.205942,-9104.533087,612.876398
546.078846,-444.123565,-9104.533087,612.876398
546.079174,-740.205942,-8882.471304,612.876398
546.079501,-444.123565,-9104.533087,306.438199
546.079829,-222.061783,-9030.512492,536.266849
546.080157,-518.144159,-9178.553681,306.438199
546.080484,-370.102971,-9030.512492,383.047749
546.080812,-370.102971,-8956.491898,459.657299
546.081139,-148.041188,-9030.512492,0.000000
546.081467,0.000000,-9104.533087,612.876398
546.081794,-222.061783,-9252.574275,459.657299
546.082122,0.000000,-9326.594869,536.266849
546.082450,0.000000,-9474.636058,689.485948
546.082777,370.102971,-9252.574275,995.924147
546.083105,-222.061783,-9400.615463,766.095498
546.083432,0.000000,-9622.677246,459.657299
546.083760,0.000000,-9474.636058,612.876398
546.084087,-148.041188,-9400.615463,383.047749
546.084415,0.000000,-9548.656652,919.314598
546.084743,-444.123565,-9326.594869,536.266849
546.085070,-296.082377,-9474.636058,306.438199
546.085398,-222.061783,-9400.615463,612.876398
546.085725,-148.041188,-9252.574275,536.266849
546.086053,-222.061783,-8660.409521,689.485948
546.086380,-74.020594,-9178.553681,766.095498
546.086708,0.000000,-9178.553681,689.485948
546.087036,0.000000,-9252.574275,612.876398
546.087363,0.000000,-9104.533087,612.876398
546.087691,0.000000,-9326.594869,536.266849
546.088018,0.000000,-9252.574275,306.438199
546.088346,0.000000,-9400.615463,919.314598
546.088674,-296.082377,-9326.594869,459.657299
546.089001,-370.102971,-9326.594869,536.266849
546.089329,0.000000,-9178.553681,306.438199
546.089656,0.000000,-9326.594869,306.438199
546.089984,-370.102971,-8956.491898,612.876398
546.090311,-148.041188,-8956.491898,612.876398
546.090639,-296.082377,-9178.553681,459.657299
546.090967,0.000000,-9030.512492,612.876398
546.091294,0.000000,-9030.512492,766.095498
546.091622,-296.082377,-8956.491898,306.438199
546.091949,-222.061783,-9104.533087,536.266849
546.092277,-148.041188,-9030.512492,383.047749
546.092604,-370.102971,-9030.512492,689.485948
546.092932,-148.041188,-8882.471304,1149.143247
546.093260,0.000000,-8882.471304,842.705048
546.093587,-370.102971,-9030.512492,612.876398
546.093915,-444.123565,-9030.512492,766.095498
546.094242,-296.082377,-8956.491898,766.095498
546.094570,-296.082377,-8956.491898,842.705048
546.094898,-518.144159,-8734.430116,383.047749
546.095225,-592.164754,-9104.533087,459.657299
546.095553,-740.205942,-9030.512492,612.876398
546.095880,-592.164754,-8882.471304,459.657299
546.096208,-666.185348,-9030.512492,459.657299
546.096535,-740.205942,-8734.430116,-306.438199
546.096863,-592.164754,-8660.409521,536.266849
546.097191,-296.082377,-8660.409521,306.438199
546.097518,-296.082377,-9030.512492,383.047749
546.097846,-148.041188,-9252.574275,459.657299
546.098173,-222.061783,-9030.512492,1072.533697
546.098501,0.000000,-8956.491898,536.266849
546.098828,0.000000,-9252.574275,383.047749
546.099156,0.000000,-9326.594869,459.657299
546.099484,0.000000,-9252.574275,536.266849
546.099811,74.020594,-9030.512492,459.657299
546.100139,370.102971,-8808.450710,459.657299
546.100466,148.041188,-9326.594869,383.047749
546.100794,-296.082377,-9104.533087,383.047749
546.101122,-370.102971,-9326.594869,383.047749
546.101449,-222.061783,-9326.594869,383.047749
546.101777,-222.061783,-8882.471304,153.219100
546.102104,-222.061783,-9178.553681,306.438199
546.102432,-296.082377,-9030.512492,383.047749
546.102759,0.000000,-8956.491898,689.485948
546.103087,0.000000,-9326.594869,536.266849
546.103415,0.000000,-9178.553681,76.609550
546.103742,-222.061783,-8660.409521,459.657299
546.104070,-296.082377,-9326.594869,536.266849
546.104397,-222.061783,-9474.636058,459.657299
546.104725,-370.102971,-9400.615463,459.657299
546.105052,-1036.288319,-8808.450710,766.095498
546.105380,-296.082377,-9326.594869,536.266849
546.105708,-444.123565,-9252.574275,842.705048
546.106035,-518.144159,-9030.512492,612.876398
546.106363,-296.082377,-9104.533087,689.485948
546.106690,-444.123565,-8734.430116,536.266849
546.107018,-296.082377,-8882.471304,1302.362347
546.107345,-666.185348,-9030.512492,842.705048
546.107673,-518.144159,-8882.471304,536.266849
546.108001,-370.102971,-8956.491898,919.314598
546.108328,-592.164754,-9252.574275,766.095498
546.108656,-592.164754,-9326.594869,1149.143247
546.108983,-592.164754,-9252.574275,689.485948
546.109311,-444.123565,-9252.574275,766.095498
546.109639,-296.082377,-9400.615463,689.485948
546.109966,-370.102971,-9400.615463,689.485948
546.110294,-592.164754,-8882.471304,1072.533697
546.110621,-592.164754,-9178.553681,689.485948
546.110949,-444.123565,-9252.574275,612.876398
546.111276,-518.144159,-9178.553681,536.266849
546.111604,0.000000,-9030.512492,383.047749
546.111931,0.000000,-8956.491898,766.095498
546.112259,0.000000,-8734.430116,459.657299
546.112586,0.000000,-9104.533087,459.657299
546.112914,0.000000,-9030.512492,153.219100
546.113241,0.000000,-9104.533087,306.438199
546.113569,-74.020594,-9474.636058,383.047749
546.113896,370.102971,-9474.636058,842.705048
546.114224,0.000000,-9178.553681,459.657299
546.114551,0.000000,-9178.553681,229.828649
546.114879,0.000000,-9104.533087,306.438199
546.115206,-148.041188,-9030.512492,459.657299
546.115534,0.000000,-8808.450710,459.657299
546.115861,-148.041188,-8956.491898,229.828649
546.116189,-444.123565,-9178.553681,153.219100
546.116516,-444.123565,-9030.512492,459.657299
546.116844,-518.144159,-9178.553681,229.828649
546.117171,0.000000,-8956.491898,306.438199
546.117499,0.000000,-8808.450710,0.000000
546.117826,-296.082377,-8882.471304,306.438199
546.118154,-592.164754,-8808.450710,383.047749
546.118481,-518.144159,-9104.533087,459.657299
546.118809,-592.164754,-8808.450710,766.095498
546.119136,-296.082377,-8660.409521,766.095498
546.119464,-296.082377,-9030.512492,766.095498
546.119791,-296.082377,-9178.553681,919.314598
546.120119,0.000000,-9252.574275,842.705048
546.120446,-370.102971,-8956.491898,766.095498
546.120774,0.000000,-8956.491898,689.485948
546.121101,-148.041188,-9030.512492,766.095498
546.121429,-370.102971,-9030.512492,689.485948
546.121756,-370.102971,-9252.574275,919.314598
546.122084,-518.144159,-9104.533087,842.705048
546.122411,-444.123565,-8956.491898,995.924147
546.122739,-518.144159,-8882.471304,995.924147
546.123066,-370.102971,-9104.533087,612.876398
546.123394,-222.061783,-8956.491898,459.657299
546.123721,-296.082377,-9104.533087,689.485948
546.124049,0.000000,-9030.512492,842.705048
546.124376,0.000000,-9030.512492,229.828649
546.124704,-296.082377,-9326.594869,612.876398
546.125031,0.000000,-9252.574275,612.876398
546.125359,0.000000,-9400.615463,536.266849
546.125686,74.020594,-9030.512492,766.095498
546.126014,0.000000,-9326.594869,612.876398
546.126341,0.000000,-9252.574275,76.609550
546.126669,0.000000,-9104.533087,459.657299
546.126996,-370.102971,-9178.553681,306.438199
546.127324,-444.123565,-9030.512492,383.047749
546.127651,0.000000,-9104.533087,0.000000
546.127979,-296.082377,-9104.533087,306.438199
546.128306,-222.061783,-8956.491898,306.438199
546.128634,-222.061783,-8956.491898,459.657299
546.128961,-370.102971,-8808.450710,306.438199
546.129289,0.000000,-8512.368333,0.000000
546.129616,-370.102971,-8956.491898,459.657299
546.129944,-296.082377,-8882.471304,383.047749
546.130271,-148.041188,-9030.512492,612.876398
546.130599,-222.061783,-9178.553681,536.266849
546.130926,-222.061783,-9400.615463,919.314598
546.131254,-444.123565,-9252.574275,536.266849
546.131581,-370.102971,-9326.594869,842.705048
546.131909,-518.144159,-9030.512492,612.876398
546.132236,-444.123565,-8882.471304,459.657299
546.132564,-370.102971,-8956.491898,842.705048
546.132891,-370.102971,-8512.368333,612.876398
546.133219,-518.144159,-8512.368333,612.876398
546.133546,-666.185348,-8808.450710,842.705048
546.133874,-740.205942,-8882.471304,766.095498
546.134201,-592.164754,-8734.430116,689.485948
546.134529,-518.144159,-8808.450710,153.219100
546.134856,-444.123565,-9104.533087,689.485948
546.135184,-370.102971,-9104.533087,612.876398
546.135511,74.020594,-9030.512492,612.876398
546.135839,-222.061783,-8882.471304,612.876398
546.136166,222.061783,-9178.553681,76.609550
546.136494,74.020594,-9400.615463,689.485948
546.136821,-444.123565,-9178.553681,459.657299
546.137149,-222.061783,-9252.574275,536.266849
546.137476,-444.123565,-9104.533087,536.266849
546.137804,-148.041188,-9104.533087,766.095498
546.138131,0.000000,-9326.594869,383.047749
546.138459,0.000000,-9030.512492,306.438199
546.138786,0.000000,-8882.471304,306.438199
546.139114,0.000000,-8882.471304,153.219100
546.139441,0.000000,-9178.553681,689.485948
546.139769,222.061783,-9400.615463,995.924147
546.140096,-148.041188,-9178.553681,459.657299
546.140424,0.000000,-9400.615463,536.266849
546.140751,-296.082377,-9696.697840,612.876398
546.141079,-222.061783,-9474.636058,459.657299
546.141406,0.000000,-9400.615463,766.095498
546.141734,0.000000,-9252.574275,612.876398
546.142061,0.000000,-9252.574275,612.876398
546.142389,-370.102971,-9252.574275,536.266849
546.142716,-296.082377,-9400.615463,536.266849
546.143044,-592.164754,-9178.553681,919.314598
546.143371,-518.144159,-9252.574275,459.657299
546.143699,-592.164754,-9030.512492,383.047749
546.144026,-370.102971,-9030.512492,689.485948
546.144354,-370.102971,-8882.471304,612.876398
546.144681,-296.082377,-8734.430116,306.438199
546.145009,-296.082377,-8512.368333,766.095498
546.145336,-518.144159,-8956.491898,536.266849
546.145664,-296.082377,-9252.574275,612.876398
546.145991,-370.102971,-9400.615463,919.314598
546.146319,-222.061783,-9030.512492,459.657299
546.146646,0.000000,-9252.574275,1608.800546
546.146974,0.000000,-9474.636058,689.485948
546.147301,0.000000,-9326.594869,842.705048
546.147629,-148.041188,-9252.574275,612.876398
546.147956,-222.061783,-9030.512492,612.876398
546.148284,-296.082377,-8734.430116,919.314598
546.148611,-296.082377,-8808.450710,766.095498
546.148939,-296.082377,-9178.553681,689.485948
546.149266,-296.082377,-9030.512492,383.047749
546.149594,-148.041188,-8882.471304,689.485948
546.149921,-296.082377,-8586.388927,689.485948
546.150249,-222.061783,-8808.450710,459.657299
546.150576,-370.102971,-8808.450710,536.266849
546.150904,-296.082377,-8882.471304,459.657299
546.151231,-296.082377,-8956.491898,766.095498
546.151559,-148.041188,-8882.471304,1072.533697
546.151886,74.020594,-8882.471304,689.485948
546.152214,-148.041188,-9252.574275,689.485948
546.152541,-370.102971,-9104.533087,766.095498
546.152869,-148.041188,-8956.491898,383.047749
546.153196,-74.020594,-9178.553681,919.314598
546.153524,0.000000,-8882.471304,919.314598
546.153851,-444.123565,-8956.491898,536.266849
546.154179,-370.102971,-8956.491898,383.047749
546.154506,-296.082377,-8956.491898,459.657299
546.154834,-148.041188,-8956.491898,459.657299
546.155161,-666.185348,-8882.471304,766.095498
546.155489,0.000000,-9030.512492,459.657299
546.155816,-148.041188,-8956.491898,383.047749
546.156144,-222.061783,-9104.533087,459.657299
546.156471,-222.061783,-9030.512492,612.876398
546.156799,-148.041188,-9030.512492,766.095498
546.157126,74.020594,-9400.615463,229.828649
546.157454,0.000000,-9474.636058,153.219100
546.157781,0.000000,-9474.636058,306.438199
546.158109,0.000000,-9548.656652,383.047749
546.158436,0.000000,-9474.636058,0.000000
546.158764,148.041188,-9104.533087,229.828649
546.159091,-296.082377,-9178.553681,612.876398
546.159419,-296.082377,-9326.594869,229.828649
546.159746,-592.164754,-9252.574275,383.047749
546.160074,-296.082377,-9474.636058,229.828649
546.160401,0.000000,-9178.553681,842.705048
546.160729,0.000000,-8956.491898,383.047749
546.161056,-370.102971,-8956.491898,459.657299
546.161384,-444.123565,-8956.491898,459.657299
546.161711,-296.082377,-9326.594869,612.876398
546.162039,0.000000,-9030.512492,383.047749
546.162366,0.000000,-9104.533087,689.485948
546.162694,-518.144159,-9326.594869,536.266849
546.163021,-666.185348,-9400.615463,612.876398
546.163349,-518.144159,-9326.594869,842.705048
546.163676,-592.164754,-8808.450710,995.924147
546.164004,-370.102971,-9252.574275,919.314598
546.164331,-592.164754,-9104.533087,612.876398
546.164659,-740.205942,-9252.574275,536.266849
546.164986,-518.144159,-9104.533087,536.266849
546.165314,0.000000,-8808.450710,383.047749
546.165641,-148.041188,-8586.388927,842.705048
546.165969,-592.164754,-8882.471304,536.266849
546.166296,-444.123565,-9252.574275,612.876398
546.166624,-518.144159,-9178.553681,459.657299
546.166951,-222.061783,-8956.491898,612.876398
546.167279,0.000000,-8882.471304,306.438199
546.167606,0.000000,-8956.491898,612.876398
546.167934,0.000000,-9252.574275,459.657299
546.168261,0.000000,-9326.594869,459.657299
546.168589,-148.041188,-9178.553681,612.876398
546.168916,-444.123565,-9030.512492,1149.143247
546.169244,-296.082377,-9400.615463,612.876398
546.169571,0.000000,-9400.615463,383.047749
546.169899,74.020594,-9030.512492,689.485948
546.170226,148.041188,-8734.430116,536.266849
546.170554,0.000000,-8882.471304,766.095498
546.170881,-296.082377,-8808.450710,306.438199
546.171209,-444.123565,-8956.491898,306.438199
546.171536,-444.123565,-8660.409521,459.657299
546.171864,-296.082377,-8808.450710,536.266849
546.172191,0.000000,-9326.594869,383.047749
546.172519,-518.144159,-9030.512492,689.485948
546.172846,-592.164754,-8882.471304,536.266849
546.173174,0.000000,-8956.491898,612.876398
546.173501,-296.082377,-9178.553681,536.266849
546.173829,0.000000,-9400.615463,536.266849
546.174156,-296.082377,-9326.594869,766.095498
546.174484,-518.144159,-9104.533087,689.485948
546.174811,-666.185348,-9400.615463,842.705048
546.175139,-592.164754,-9474.636058,919.314598
546.175466,-666.185348,-9178.553681,689.485948
546.175794,-148.041188,-9252.574275,536.266849
546.176121,0.000000,-8734.430116,459.657299
546.176449,-222.061783,-8660.409521,459.657299
546.176776,-296.082377,-8882.471304,306.438199
546.177104,-222.061783,-9030.512492,229.828649
546.177431,0.000000,-8512.368333,766.095498
546.177759,-222.061783,-8956.491898,76.609550
546.178086,-296.082377,-9474.636058,689.485948
546.178414,0.000000,-9400.615463,536.266849
546.178741,0.000000,-9474.636058,536.266849
546.179069,0.000000,-9474.636058,229.828649
546.179396,-148.041188,-8956.491898,612.876398
546.179723,-148.041188,-9400.615463,306.438199
546.180051,-148.041188,-9252.574275,229.828649
