#time,accel_x,accel_y,accel_z
256.278931,-222.061783,-9030.512492,536.266849
256.279259,0.000000,-8956.491898,1225.752797
256.279587,-444.123565,-9104.533087,766.095498
256.279915,-444.123565,-9104.533087,689.485948
256.280243,-370.102971,-9030.512492,612.876398
256.280570,-148.041188,-9104.533087,536.266849
256.280898,-592.164754,-9030.512492,842.705048
256.281226,-518.144159,-8956.491898,459.657299
256.281554,-444.123565,-8956.491898,383.047749
256.281882,-222.061783,-9030.512492,536.266849
256.282210,-296.082377,-9030.512492,612.876398
256.282537,0.000000,-9400.615463,76.609550
256.282865,-592.164754,-8808.450710,612.876398
256.283193,-296.082377,-9178.553681,612.876398
256.283521,-222.061783,-9104.533087,306.438199
256.283849,-222.061783,-9252.574275,689.485948
256.284177,-296.082377,-9030.512492,536.266849
256.284504,-222.061783,-9104.533087,689.485948
256.284832,-148.041188,-9178.553681,689.485948
256.285160,-296.082377,-9104.533087,612.876398
256.285488,-444.123565,-9030.512492,459.657299
256.285816,-444.123565,-9178.553681,919.314598
256.286143,-296.082377,-9326.594869,689.485948
256.286471,-222.061783,-9030.512492,689.485948
256.286799,-296.082377,-8956.491898,766.095498
256.287127,-296.082377,-9104.533087,383.047749
256.287455,-148.041188,-9252.574275,459.657299
256.287783,0.000000,-9474.636058,153.219100
256.288110,-444.123565,-8808.450710,459.657299
256.288438,-148.041188,-9104.533087,689.485948
256.288766,-370.102971,-8956.491898,689.485948
256.289094,-370.102971,-9474.636058,536.266849
256.289422,-518.144159,-9104.533087,0.000000
256.289750,-814.226536,-9474.636058,306.438199
256.290077,-1480.411884,-9474.636058,-306.438199
256.290405,-1554.432478,-9474.636058,-459.657299
256.290733,-962.267725,-8956.491898,-459.657299
256.291061,0.000000,-8956.491898,-459.657299
256.291389,-296.082377,-8586.388927,-306.438199
256.291717,-666.185348,-9252.574275,-689.485948
256.292044,-1184.329507,-9252.574275,-919.314598
256.292372,-1036.288319,-9178.553681,-1225.752797
256.292700,-1184.329507,-9326.594869,-842.705048
256.293028,-666.185348,-9770.718434,-1378.971896
256.293356,-370.102971,-9252.574275,-1149.143247
256.293684,0.000000,-9178.553681,-919.314598
256.294011,222.061783,-8882.471304,-766.095498
256.294339,222.061783,-9178.553681,-995.924147
256.294667,518.144159,-9104.533087,-1225.752797
256.294995,370.102971,-9104.533087,-1225.752797
256.295323,370.102971,-9252.574275,-1302.362347
256.295650,740.205942,-9326.594869,-1225.752797
256.295978,666.185348,-9326.594869,-919.314598
256.296306,1110.308913,-9104.533087,-612.876398
256.296634,740.205942,-9326.594869,-766.095498
256.296962,518.144159,-9252.574275,-689.485948
256.297290,518.144159,-9178.553681,-919.314598
256.297617,296.082377,-9252.574275,-1149.143247
256.297945,222.061783,-9178.553681,-1225.752797
256.298273,0.000000,-9326.594869,-612.876398
256.298601,0.000000,-9252.574275,-612.876398
256.298929,0.000000,-9326.594869,-766.095498
256.299257,-296.082377,-8956.491898,-536.266849
256.299584,-666.185348,-9030.512492,-766.095498
256.299912,-1036.288319,-8808.450710,153.219100
256.300240,-1110.308913,-9030.512492,-1072.533697
256.300568,-1332.370696,-8808.450710,-1072.533697
256.300896,-1258.350101,-8808.450710,-612.876398
256.301224,-1184.329507,-8882.471304,-612.876398
256.301551,-740.205942,-8808.450710,-536.266849
256.301879,-1036.288319,-8660.409521,-995.924147
256.302207,-1184.329507,-8882.471304,-612.876398
256.302535,-1110.308913,-8882.471304,-383.047749
256.302863,-1184.329507,-9104.533087,-766.095498
256.303190,-1036.288319,-8956.491898,-612.876398
256.303518,-592.164754,-8956.491898,-995.924147
256.303846,-592.164754,-9030.512492,-612.876398
256.304174,-592.164754,-9178.553681,-766.095498
256.304502,-222.061783,-9178.553681,-383.047749
256.304830,0.000000,-9030.512492,-689.485948
256.305157,222.061783,-8882.471304,0.000000
256.305485,222.061783,-9178.553681,-153.219100
256.305813,222.061783,-9030.512492,0.000000
256.306141,518.144159,-9178.553681,0.000000
256.306469,444.123565,-9400.615463,229.828649
256.306797,888.247130,-9252.574275,-153.219100
256.307124,1036.288319,-9030.512492,76.609550
256.307452,518.144159,-9326.594869,306.438199
256.307780,518.144159,-9400.615463,153.219100
256.308108,592.164754,-9252.574275,536.266849
256.308436,740.205942,-8882.471304,536.266849
256.308764,1110.308913,-9104.533087,536.266849
256.309091,518.144159,-8956.491898,842.705048
256.309419,370.102971,-9030.512492,919.314598
256.309747,0.000000,-9030.512492,842.705048
256.310075,-518.144159,-9030.512492,1225.752797
256.310403,-888.247130,-8882.471304,1072.533697
256.310730,-1332.370696,-9326.594869,766.095498
256.311058,-1702.473667,-9326.594869,612.876398
256.311386,-1850.514855,-9474.636058,229.828649
256.311714,-1998.556043,-9474.636058,459.657299
256.312042,-1998.556043,-8956.491898,0.000000
256.312370,-2072.576638,-8956.491898,0.000000
256.312697,-1924.535449,-8882.471304,0.000000
256.313025,-1628.453072,-8882.471304,0.000000
256.313353,-1628.453072,-8660.409521,-383.047749
256.313681,-1184.329507,-8512.368333,229.828649
256.314009,-592.164754,-8586.388927,76.609550
256.314337,-370.102971,-8956.491898,153.219100
256.314664,-370.102971,-8956.491898,229.828649
256.314992,-222.061783,-9104.533087,383.047749
256.315320,0.000000,-9104.533087,1072.533697
256.315648,592.164754,-9252.574275,766.095498
256.315976,1036.288319,-9178.553681,919.314598
256.316304,1702.473667,-9104.533087,1072.533697
256.316631,2368.659014,-9030.512492,1378.971896
256.316959,2516.700203,-9400.615463,1455.581446
256.317287,2220.617826,-9400.615463,995.924147
256.317615,2072.576638,-9474.636058,1608.800546
256.317943,1258.350101,-9622.677246,1378.971896
256.318270,666.185348,-9696.697840,1378.971896
256.318598,148.041188,-9696.697840,1685.410096
256.318926,74.020594,-9770.718434,1685.410096
256.319254,-518.144159,-9400.615463,919.314598
256.319582,-962.267725,-9400.615463,919.314598
256.319910,-1776.494261,-9252.574275,612.876398
256.320237,-2146.597232,-9030.512492,153.219100
256.320565,-2146.597232,-8512.368333,0.000000
256.320893,-2442.679609,-8216.285956,-383.047749
256.321221,-2368.659014,-8438.347739,-229.828649
256.321549,-2368.659014,-8216.285956,-306.438199
256.321877,-2220.617826,-8068.244768,-306.438199
256.322204,-1776.494261,-7550.100608,-76.609550
256.322532,-1554.432478,-8290.306550,229.828649
256.322860,-1406.391290,-8512.368333,0.000000
256.323188,-1406.391290,-8660.409521,0.000000
256.323516,-1110.308913,-8956.491898,0.000000
256.323844,-370.102971,-9104.533087,153.219100
256.324171,222.061783,-9030.512492,153.219100
256.324499,1036.288319,-9104.533087,689.485948
256.324827,1702.473667,-9474.636058,919.314598
256.325155,1998.556043,-9400.615463,995.924147
256.325483,2146.597232,-9474.636058,1302.362347
256.325810,2072.576638,-9622.677246,1378.971896
256.326138,1924.535449,-9548.656652,842.705048
256.326466,1480.411884,-9622.677246,612.876398
256.326794,1036.288319,-9918.759623,995.924147
256.327122,1258.350101,-9696.697840,919.314598
256.327450,444.123565,-9844.739029,612.876398
256.327777,0.000000,-9622.677246,536.266849
256.328105,-666.185348,-9474.636058,229.828649
256.328433,-1184.329507,-9326.594869,0.000000
256.328761,-1702.473667,-9030.512492,0.000000
256.329089,-1332.370696,-8364.327145,-842.705048
256.329417,-1628.453072,-8290.306550,0.000000
256.329744,-1628.453072,-8142.265362,-612.876398
256.330072,-1332.370696,-8142.265362,-229.828649
256.330400,-1184.329507,-8068.244768,-383.047749
256.330728,-666.185348,-8364.327145,-229.828649
256.331056,-1110.308913,-7994.224174,-536.266849
256.331384,-1110.308913,-8586.388927,0.000000
256.331711,-888.247130,-8808.450710,76.609550
256.332039,-518.144159,-9326.594869,383.047749
256.332367,0.000000,-9400.615463,1072.533697
256.332695,444.123565,-9474.636058,842.705048
256.333023,888.247130,-9770.718434,919.314598
256.333350,814.226536,-9696.697840,995.924147
256.333678,1406.391290,-9622.677246,1302.362347
256.334006,1406.391290,-9696.697840,1455.581446
256.334334,1258.350101,-9622.677246,2145.067394
256.334662,1184.329507,-9474.636058,1455.581446
256.334989,888.247130,-9474.636058,1685.410096
256.335317,518.144159,-9400.615463,1532.190996
256.335644,-370.102971,-9400.615463,1378.971896
256.335972,-296.082377,-9178.553681,919.314598
256.336300,-740.205942,-8882.471304,842.705048
256.336627,-1702.473667,-9030.512492,689.485948
256.336955,-1924.535449,-8734.430116,153.219100
256.337282,-1850.514855,-8734.430116,76.609550
256.337610,-2072.576638,-8808.450710,306.438199
256.337938,-1850.514855,-8068.244768,0.000000
256.338265,-1850.514855,-8216.285956,0.000000
256.338593,-1628.453072,-8290.306550,0.000000
256.338920,-1332.370696,-8290.306550,459.657299
256.339248,-1184.329507,-8438.347739,0.000000
256.339576,-370.102971,-8660.409521,76.609550
256.339903,-296.082377,-8882.471304,76.609550
256.340231,74.020594,-9178.553681,229.828649
256.340558,222.061783,-9400.615463,459.657299
256.340886,296.082377,-9548.656652,766.095498
256.341214,740.205942,-9696.697840,229.828649
256.341541,740.205942,-9696.697840,1072.533697
256.341869,1258.350101,-9696.697840,919.314598
256.342196,1406.391290,-9696.697840,1225.752797
256.342524,1702.473667,-9622.677246,1149.143247
256.342852,1628.453072,-9400.615463,995.924147
256.343179,1258.350101,-9474.636058,1302.362347
256.343507,592.164754,-9548.656652,1149.143247
256.343834,148.041188,-9474.636058,1149.143247
256.344162,-444.123565,-9326.594869,306.438199
256.344490,-592.164754,-9622.677246,612.876398
256.344817,-1184.329507,-8660.409521,306.438199
256.345145,-1554.432478,-9326.594869,153.219100
256.345472,-1628.453072,-8882.471304,-153.219100
256.345800,-1332.370696,-8586.388927,-383.047749
256.346128,-1850.514855,-8512.368333,-306.438199
256.346455,-1480.411884,-8142.265362,-689.485948
256.346783,-1406.391290,-8364.327145,-153.219100
256.347110,-1332.370696,-8364.327145,-306.438199
256.347438,-1036.288319,-8438.347739,-229.828649
256.347766,-592.164754,-8586.388927,76.609550
256.348093,-222.061783,-8660.409521,0.000000
256.348421,222.061783,-9252.574275,383.047749
256.348748,370.102971,-9104.533087,306.438199
256.349076,592.164754,-9104.533087,842.705048
256.349404,592.164754,-9400.615463,1072.533697
256.349731,1110.308913,-9400.615463,1302.362347
256.350059,1702.473667,-9474.636058,1455.581446
256.350386,1554.432478,-9400.615463,1532.190996
256.350714,1480.411884,-9474.636058,1685.410096
256.351042,1184.329507,-9696.697840,1455.581446
256.351369,740.205942,-9474.636058,1532.190996
256.351697,370.102971,-9326.594869,1762.019645
256.352024,74.020594,-9400.615463,1302.362347
256.352352,-740.205942,-9474.636058,919.314598
256.352680,-666.185348,-9400.615463,995.924147
256.353007,-1332.370696,-9178.553681,689.485948
256.353335,-1702.473667,-8660.409521,919.314598
256.353662,-1702.473667,-9104.533087,306.438199
256.353990,-1998.556043,-8660.409521,306.438199
256.354318,-2368.659014,-8734.430116,153.219100
256.354645,-1924.535449,-8586.388927,76.609550
256.354973,-1702.473667,-8586.388927,689.485948
256.355300,-1406.391290,-8586.388927,76.609550
256.355628,-1110.308913,-8512.368333,229.828649
256.355956,-1110.308913,-8808.450710,536.266849
256.356283,-518.144159,-8734.430116,536.266849
256.356611,-518.144159,-9178.553681,842.705048
256.356938,74.020594,-9326.594869,1072.533697
256.357266,296.082377,-9474.636058,766.095498
256.357594,370.102971,-9622.677246,842.705048
256.357921,888.247130,-9622.677246,995.924147
256.358249,1184.329507,-9696.697840,995.924147
256.358576,1110.308913,-9400.615463,842.705048
256.358904,1554.432478,-9474.636058,1225.752797
256.359232,1554.432478,-9622.677246,1072.533697
256.359559,1110.308913,-9696.697840,995.924147
256.359887,888.247130,-9770.718434,995.924147
256.360214,74.020594,-9548.656652,689.485948
256.360542,-148.041188,-9474.636058,612.876398
256.360870,-296.082377,-9178.553681,383.047749
256.361197,-1036.288319,-9474.636058,383.047749
256.361525,-888.247130,-9178.553681,0.000000
256.361852,-1184.329507,-8956.491898,76.609550
256.362180,-1332.370696,-8808.450710,-383.047749
256.362508,-1702.473667,-8660.409521,-459.657299
256.362835,-1628.453072,-8364.327145,-383.047749
256.363163,-1480.411884,-8290.306550,-383.047749
256.363490,-1036.288319,-8290.306550,-459.657299
256.363818,-888.247130,-8142.265362,-459.657299
256.364146,-518.144159,-8660.409521,0.000000
256.364473,0.000000,-8660.409521,0.000000
256.364801,0.000000,-8808.450710,0.000000
256.365128,296.082377,-9178.553681,766.095498
256.365456,148.041188,-8956.491898,0.000000
256.365784,888.247130,-9326.594869,689.485948
256.366111,962.267725,-9178.553681,995.924147
256.366439,1184.329507,-9474.636058,1225.752797
256.366766,1332.370696,-9548.656652,1225.752797
256.367094,1628.453072,-9622.677246,1302.362347
256.367422,1406.391290,-9400.615463,1455.581446
256.367749,1110.308913,-9400.615463,1225.752797
256.368077,888.247130,-9400.615463,1455.581446
256.368404,296.082377,-9474.636058,1378.971896
256.368732,296.082377,-9178.553681,1225.752797
256.369060,-592.164754,-9030.512492,1302.362347
256.369387,-1480.411884,-9252.574275,1072.533697
256.369715,-1480.411884,-9178.553681,689.485948
256.370042,-2294.638420,-9030.512492,612.876398
256.370370,-2072.576638,-8956.491898,306.438199
256.370698,-2294.638420,-8438.347739,306.438199
256.371025,-2294.638420,-8660.409521,0.000000
256.371353,-2146.597232,-8364.327145,-153.219100
256.371680,-1998.556043,-8142.265362,0.000000
256.372008,-1702.473667,-8438.347739,153.219100
256.372336,-1332.370696,-8290.306550,306.438199
256.372663,-962.267725,-8808.450710,0.000000
256.372991,-370.102971,-9104.533087,229.828649
256.373318,74.020594,-9178.553681,536.266849
256.373646,222.061783,-9104.533087,536.266849
256.373974,518.144159,-9104.533087,689.485948
256.374301,888.247130,-9474.636058,1149.143247
256.374629,1110.308913,-9622.677246,842.705048
256.374956,1184.329507,-9548.656652,995.924147
256.375284,1628.453072,-9622.677246,1072.533697
256.375612,2072.576638,-9696.697840,1149.143247
256.375939,1480.411884,-9474.636058,1072.533697
256.376267,1480.411884,-9696.697840,1302.362347
256.376594,1184.329507,-9622.677246,1225.752797
256.376922,592.164754,-9474.636058,689.485948
256.377250,-296.082377,-9770.718434,919.314598
256.377577,-296.082377,-9474.636058,459.657299
256.377905,-962.267725,-9400.615463,306.438199
256.378232,-1702.473667,-9474.636058,0.000000
256.378560,-1998.556043,-9326.594869,0.000000
256.378888,-1924.535449,-8882.471304,0.000000
256.379215,-2294.638420,-8290.306550,-153.219100
256.379543,-1850.514855,-8438.347739,-689.485948
256.379870,-1850.514855,-8512.368333,-459.657299
256.380198,-1554.432478,-8438.347739,-612.876398
256.380526,-1110.308913,-8364.327145,-689.485948
256.380853,-74.020594,-8660.409521,0.000000
256.381181,0.000000,-8586.388927,0.000000
256.381508,148.041188,-8734.430116,0.000000
256.381836,222.061783,-9030.512492,306.438199
256.382164,518.144159,-9178.553681,766.095498
256.382491,1110.308913,-9326.594869,1378.971896
256.382819,1480.411884,-9474.636058,1225.752797
256.383146,1702.473667,-9474.636058,1455.581446
256.383474,1850.514855,-9548.656652,1532.190996
256.383802,1850.514855,-9474.636058,1762.019645
256.384129,1480.411884,-9400.615463,1608.800546
256.384457,1776.494261,-9474.636058,1378.971896
256.384784,1036.288319,-9474.636058,1685.410096
256.385112,148.041188,-9474.636058,689.485948
256.385440,-518.144159,-9474.636058,995.924147
256.385767,-518.144159,-9252.574275,842.705048
256.386095,-1480.411884,-9030.512492,1072.533697
256.386422,-1850.514855,-8882.471304,229.828649
256.386750,-1998.556043,-9030.512492,229.828649
256.387078,-2442.679609,-8660.409521,229.828649
256.387405,-2442.679609,-8586.388927,0.000000
256.387733,-2368.659014,-8142.265362,306.438199
256.388060,-2220.617826,-7994.224174,0.000000
256.388388,-2294.638420,-8216.285956,0.000000
256.388716,-1776.494261,-8216.285956,0.000000
256.389043,-1702.473667,-8290.306550,0.000000
256.389371,-814.226536,-8068.244768,229.828649
256.389698,-592.164754,-8364.327145,383.047749
256.390026,-148.041188,-9104.533087,536.266849
256.390354,0.000000,-9252.574275,612.876398
256.390681,592.164754,-9474.636058,842.705048
256.391009,740.205942,-9178.553681,1455.581446
256.391336,1480.411884,-9844.739029,919.314598
256.391664,1554.432478,-9622.677246,1378.971896
256.391992,1628.453072,-9622.677246,1302.362347
256.392319,1776.494261,-9696.697840,1608.800546
256.392647,1554.432478,-9844.739029,1225.752797
256.392974,1480.411884,-9548.656652,1149.143247
256.393302,1036.288319,-9918.759623,919.314598
256.393630,592.164754,-9548.656652,689.485948
256.393957,-296.082377,-9622.677246,459.657299
256.394285,-296.082377,-9474.636058,306.438199
256.394612,-888.247130,-9326.594869,459.657299
256.394940,-1628.453072,-9030.512492,0.000000
256.395268,-1702.473667,-9104.533087,-229.828649
256.395595,-1924.535449,-8734.430116,-383.047749
256.395923,-2220.617826,-8734.430116,-459.657299
256.396250,-1628.453072,-8068.244768,-1072.533697
256.396578,-1924.535449,-8216.285956,-306.438199
256.396906,-1110.308913,-8216.285956,-459.657299
256.397233,-666.185348,-8216.285956,-536.266849
256.397561,-666.185348,-8808.450710,0.000000
256.397888,-148.041188,-8882.471304,-153.219100
256.398216,0.000000,-8438.347739,0.000000
256.398544,296.082377,-9326.594869,0.000000
256.398871,666.185348,-9326.594869,612.876398
256.399199,814.226536,-9400.615463,536.266849
256.399527,1036.288319,-9696.697840,995.924147
256.399854,1332.370696,-9178.553681,1378.971896
256.400182,1850.514855,-9548.656652,1225.752797
256.400509,1628.453072,-9474.636058,1378.971896
256.400837,1332.370696,-9474.636058,1455.581446
256.401165,1036.288319,-9400.615463,1455.581446
256.401492,518.144159,-9474.636058,1762.019645
256.401820,74.020594,-9326.594869,1685.410096
256.402147,-148.041188,-9548.656652,1532.190996
256.402475,-592.164754,-9326.594869,919.314598
256.402803,-1850.514855,-9252.574275,842.705048
256.403130,-1554.432478,-9104.533087,306.438199
256.403458,-2220.617826,-8586.388927,689.485948
256.403785,-2442.679609,-8660.409521,229.828649
256.404113,-2294.638420,-8438.347739,0.000000
256.404441,-2294.638420,-8660.409521,0.000000
256.404768,-2072.576638,-8216.285956,-153.219100
256.405096,-1850.514855,-8438.347739,306.438199
256.405423,-1702.473667,-8290.306550,-153.219100
256.405751,-1184.329507,-8216.285956,76.609550
256.406079,-740.205942,-8512.368333,0.000000
256.406406,-444.123565,-8512.368333,153.219100
256.406734,0.000000,-8364.327145,383.047749
256.407061,148.041188,-9178.553681,536.266849
256.407389,592.164754,-9474.636058,459.657299
256.407717,888.247130,-9326.594869,842.705048
256.408044,1110.308913,-9400.615463,842.705048
256.408372,1776.494261,-9252.574275,1149.143247
256.408699,1702.473667,-9622.677246,1072.533697
256.409027,1628.453072,-9622.677246,1378.971896
256.409355,1628.453072,-9474.636058,1455.581446
256.409682,1332.370696,-9548.656652,1378.971896
256.410010,888.247130,-9696.697840,995.924147
256.410337,0.000000,-9474.636058,766.095498
256.410665,-370.102971,-9622.677246,766.095498
256.410993,-444.123565,-9178.553681,536.266849
256.411320,-1628.453072,-9770.718434,229.828649
256.411648,-1628.453072,-9400.615463,0.000000
256.411975,-1702.473667,-9474.636058,-153.219100
256.412303,-2146.597232,-8586.388927,-459.657299
256.412631,-2294.638420,-8660.409521,-536.266849
256.412958,-1850.514855,-8586.388927,-383.047749
256.413286,-1776.494261,-8438.347739,-459.657299
256.413613,-1036.288319,-7994.224174,0.000000
256.413941,-592.164754,-8142.265362,0.000000
256.414269,-666.185348,-8586.388927,0.000000
256.414596,0.000000,-8734.430116,153.219100
256.414924,0.000000,-8882.471304,76.609550
256.415251,148.041188,-8956.491898,842.705048
256.415579,1036.288319,-9400.615463,1149.143247
256.415907,962.267725,-9474.636058,1225.752797
256.416234,1480.411884,-9474.636058,1149.143247
256.416562,1776.494261,-9622.677246,1608.800546
256.416889,1702.473667,-9622.677246,1838.629195
256.417217,2294.638420,-9474.636058,1762.019645
256.417545,1406.391290,-9696.697840,1915.238745
256.417872,888.247130,-9622.677246,1838.629195
256.418200,370.102971,-9474.636058,1915.238745
256.418527,0.000000,-9622.677246,1378.971896
256.418855,-296.082377,-9548.656652,1685.410096
256.419183,-518.144159,-9622.677246,1072.533697
256.419510,-2146.597232,-9326.594869,766.095498
256.419838,-1628.453072,-9104.533087,459.657299
256.420165,-2368.659014,-9104.533087,383.047749
256.420493,-2442.679609,-8660.409521,0.000000
256.420821,-2072.576638,-8068.244768,-383.047749
256.421148,-2368.659014,-8290.306550,0.000000
256.421476,-2294.638420,-8142.265362,0.000000
256.421803,-1924.535449,-8216.285956,0.000000
256.422131,-1480.411884,-7624.121203,229.828649
256.422459,-962.267725,-7920.203579,459.657299
256.422786,-592.164754,-8290.306550,383.047749
256.423114,-296.082377,-8956.491898,153.219100
256.423441,74.020594,-9030.512492,536.266849
256.423769,296.082377,-9252.574275,689.485948
256.424097,740.205942,-9326.594869,766.095498
256.424424,1258.350101,-9474.636058,766.095498
256.424752,1184.329507,-9474.636058,1225.752797
256.425079,1554.432478,-9696.697840,1072.533697
256.425407,1776.494261,-9548.656652,1302.362347
256.425735,2072.576638,-9918.759623,919.314598
256.426062,1258.350101,-9622.677246,1455.581446
256.426390,1036.288319,-9696.697840,1072.533697
256.426717,740.205942,-9696.697840,1302.362347
256.427045,0.000000,-9474.636058,919.314598
256.427373,-592.164754,-9474.636058,612.876398
256.427700,-740.205942,-9178.553681,919.314598
256.428028,-1258.350101,-9474.636058,306.438199
256.428355,-1850.514855,-9030.512492,76.609550
256.428683,-1702.473667,-8956.491898,0.000000
256.429011,-1480.411884,-8808.450710,0.000000
256.429338,-1998.556043,-8290.306550,-536.266849
256.429666,-1406.391290,-8364.327145,-536.266849
256.429993,-1628.453072,-8290.306550,-306.438199
256.430321,-1184.329507,-8364.327145,0.000000
256.430649,-518.144159,-8512.368333,-153.219100
256.430976,-740.205942,-8882.471304,0.000000
256.431304,-222.061783,-8512.368333,76.609550
256.431631,148.041188,-9104.533087,306.438199
256.431959,296.082377,-9326.594869,842.705048
256.432287,888.247130,-9474.636058,842.705048
256.432614,518.144159,-9178.553681,1455.581446
256.432942,1406.391290,-9474.636058,1302.362347
256.433269,1184.329507,-9548.656652,1378.971896
256.433597,1036.288319,-9474.636058,1455.581446
256.433925,1184.329507,-9474.636058,1302.362347
256.434252,1406.391290,-9030.512492,1532.190996
256.434580,1332.370696,-9326.594869,1532.190996
256.434907,370.102971,-9474.636058,1378.971896
256.435235,0.000000,-9252.574275,1149.143247
256.435563,-592.164754,-9474.636058,1225.752797
256.435890,-592.164754,-9178.553681,995.924147
256.436218,-1998.556043,-9030.512492,1149.143247
256.436545,-1850.514855,-9178.553681,766.095498
256.436873,-2368.659014,-9178.553681,76.609550
256.437200,-2442.679609,-8956.491898,153.219100
256.437527,-2294.638420,-8586.388927,-153.219100
256.437855,-2146.597232,-8438.347739,0.000000
256.438182,-1776.494261,-8216.285956,-459.657299
256.438509,-1702.473667,-8364.327145,-229.828649
256.438837,-1258.350101,-8364.327145,0.000000
256.439164,-888.247130,-8438.347739,0.000000
256.439492,-222.061783,-8438.347739,76.609550
256.439819,0.000000,-8586.388927,306.438199
256.440146,0.000000,-9178.553681,153.219100
256.440474,592.164754,-9474.636058,536.266849
256.440801,740.205942,-9474.636058,689.485948
256.441128,962.267725,-9548.656652,536.266849
256.441456,1628.453072,-9474.636058,842.705048
256.441783,1628.453072,-9548.656652,1072.533697
256.442111,1776.494261,-9548.656652,1455.581446
256.442438,1702.473667,-9474.636058,1378.971896
256.442765,1332.370696,-9474.636058,1378.971896
256.443093,1258.350101,-9622.677246,1455.581446
256.443420,518.144159,-9474.636058,1225.752797
256.443747,148.041188,-9474.636058,766.095498
256.444075,-740.205942,-9622.677246,536.266849
256.444402,-666.185348,-9622.677246,536.266849
256.444730,-1184.329507,-9252.574275,229.828649
256.445057,-1850.514855,-9104.533087,-306.438199
256.445384,-1924.535449,-9104.533087,-383.047749
256.445712,-2294.638420,-8734.430116,-612.876398
256.446039,-2294.638420,-8808.450710,-612.876398
256.446366,-1776.494261,-8216.285956,0.000000
256.446694,-1480.411884,-8068.244768,-766.095498
256.447021,-1332.370696,-8290.306550,-383.047749
256.447349,-814.226536,-8364.327145,-383.047749
256.447676,-444.123565,-8512.368333,0.000000
256.448003,0.000000,-8586.388927,306.438199
256.448331,666.185348,-8808.450710,842.705048
256.448658,666.185348,-9030.512492,612.876398
256.448985,740.205942,-9326.594869,1149.143247
256.449313,1184.329507,-9474.636058,1225.752797
256.449640,1258.350101,-9622.677246,1532.190996
256.449968,1702.473667,-9030.512492,1532.190996
256.450295,1480.411884,-9474.636058,1762.019645
256.450622,1406.391290,-9696.697840,1762.019645
256.450950,1332.370696,-9622.677246,1608.800546
256.451277,1036.288319,-9622.677246,1762.019645
256.451604,592.164754,-9400.615463,1991.848295
256.451932,-370.102971,-9474.636058,612.876398
256.452259,-1036.288319,-9548.656652,995.924147
256.452587,-962.267725,-9474.636058,766.095498
256.452914,-1628.453072,-9474.636058,612.876398
256.453241,-2220.617826,-8808.450710,612.876398
256.453569,-2220.617826,-9252.574275,306.438199
256.453896,-2442.679609,-8882.471304,0.000000
256.454223,-2516.700203,-8660.409521,0.000000
256.454551,-2146.597232,-8142.265362,153.219100
256.454878,-2072.576638,-8142.265362,0.000000
256.455206,-1776.494261,-7994.224174,76.609550
256.455533,-1406.391290,-8290.306550,0.000000
256.455860,-1110.308913,-8364.327145,153.219100
256.456188,-444.123565,-8438.347739,383.047749
256.456515,-296.082377,-8956.491898,612.876398
256.456842,148.041188,-9326.594869,995.924147
256.457170,148.041188,-9252.574275,919.314598
256.457497,888.247130,-9474.636058,919.314598
256.457825,1110.308913,-9474.636058,995.924147
256.458152,1480.411884,-9622.677246,919.314598
256.458479,1776.494261,-10066.800811,1838.629195
256.458807,2072.576638,-9474.636058,1378.971896
256.459134,1702.473667,-9918.759623,1455.581446
256.459461,1332.370696,-9770.718434,1225.752797
256.459789,1036.288319,-9844.739029,1225.752797
256.460116,444.123565,-9696.697840,995.924147
256.460444,444.123565,-9474.636058,995.924147
256.460771,-592.164754,-9474.636058,153.219100
256.461098,-1184.329507,-9400.615463,612.876398
256.461426,-1258.350101,-8956.491898,76.609550
256.461753,-1850.514855,-9104.533087,76.609550
256.462080,-1702.473667,-8438.347739,-612.876398
256.462408,-1554.432478,-8586.388927,-383.047749
256.462735,-2072.576638,-8586.388927,-306.438199
256.463063,-1628.453072,-8290.306550,-459.657299
256.463390,-1406.391290,-8364.327145,-306.438199
256.463717,-962.267725,-8364.327145,-612.876398
256.464045,-518.144159,-8438.347739,-459.657299
256.464372,-592.164754,-8734.430116,0.000000
256.464699,0.000000,-8956.491898,76.609550
256.465027,296.082377,-9030.512492,76.609550
256.465354,518.144159,-8956.491898,459.657299
256.465682,888.247130,-9252.574275,842.705048
256.466009,962.267725,-9548.656652,919.314598
256.466336,1332.370696,-9622.677246,1149.143247
256.466664,1406.391290,-9696.697840,1302.362347
256.466991,1702.473667,-9474.636058,1072.533697
256.467318,1702.473667,-9400.615463,1072.533697
256.467646,1184.329507,-9474.636058,1302.362347
256.467973,962.267725,-9548.656652,1378.971896
256.468301,444.123565,-9400.615463,1225.752797
256.468628,0.000000,-9326.594869,689.485948
256.468955,-1332.370696,-9178.553681,1225.752797
256.469283,-592.164754,-9104.533087,612.876398
256.469610,-1850.514855,-9474.636058,766.095498
256.469937,-1776.494261,-8956.491898,229.828649
256.470265,-2146.597232,-8882.471304,76.609550
256.470592,-2516.700203,-8364.327145,0.000000
256.470920,-2072.576638,-8808.450710,-153.219100
256.471247,-2220.617826,-8290.306550,0.000000
256.471574,-1850.514855,-8142.265362,-229.828649
256.471902,-1776.494261,-8142.265362,-229.828649
256.472229,-1110.308913,-8142.265362,459.657299
256.472557,-740.205942,-8216.285956,-459.657299
256.472884,-370.102971,-8734.430116,153.219100
256.473211,-370.102971,-9104.533087,459.657299
256.473539,0.000000,-9178.553681,459.657299
256.473866,740.205942,-9252.574275,842.705048
256.474193,814.226536,-9326.594869,1302.362347
256.474521,1184.329507,-9400.615463,919.314598
256.474848,1628.453072,-9474.636058,1225.752797
256.475176,1628.453072,-9548.656652,995.924147
256.475503,1628.453072,-9770.718434,1225.752797
256.475830,1406.391290,-9326.594869,1532.190996
256.476158,1332.370696,-9622.677246,1149.143247
256.476485,1110.308913,-9622.677246,995.924147
256.476812,666.185348,-9548.656652,766.095498
256.477140,148.041188,-9474.636058,919.314598
256.477467,-518.144159,-9622.677246,153.219100
256.477795,-962.267725,-9474.636058,919.314598
256.478122,-1480.411884,-9104.533087,0.000000
256.478449,-1998.556043,-9178.553681,0.000000
256.478777,-2072.576638,-8956.491898,0.000000
256.479104,-2146.597232,-8364.327145,76.609550
256.479431,-1924.535449,-8142.265362,0.000000
256.479759,-1554.432478,-8216.285956,-306.438199
256.480086,-1554.432478,-8364.327145,-306.438199
256.480414,-1258.350101,-8142.265362,-536.266849
256.480741,-592.164754,-8290.306550,919.314598
256.481068,-518.144159,-8364.327145,229.828649
256.481396,0.000000,-8660.409521,536.266849
256.481723,148.041188,-9104.533087,842.705048
256.482050,518.144159,-9252.574275,919.314598
256.482378,814.226536,-9252.574275,1149.143247
256.482705,740.205942,-9326.594869,1532.190996
256.483033,962.267725,-9326.594869,1455.581446
256.483360,1258.350101,-9696.697840,1532.190996
256.483687,1480.411884,-9622.677246,1685.410096
256.484015,1628.453072,-9548.656652,1685.410096
256.484342,1332.370696,-9474.636058,1762.019645
256.484669,592.164754,-9622.677246,1455.581446
256.484997,222.061783,-9622.677246,1225.752797
256.485324,-222.061783,-9474.636058,766.095498
256.485652,-888.247130,-9474.636058,842.705048
256.485979,-1036.288319,-9178.553681,1455.581446
256.486306,-1554.432478,-9178.553681,612.876398
256.486634,-1998.556043,-8956.491898,383.047749
256.486961,-2220.617826,-8808.450710,306.438199
256.487288,-2368.659014,-8364.327145,76.609550
256.487616,-2368.659014,-8512.368333,0.000000
256.487943,-1258.350101,-8142.265362,-76.609550
256.488271,-2072.576638,-8142.265362,-153.219100
256.488598,-1406.391290,-8216.285956,-229.828649
256.488925,-814.226536,-8216.285956,0.000000
256.489253,-518.144159,-8438.347739,0.000000
256.489580,0.000000,-8734.430116,536.266849
256.489907,296.082377,-9104.533087,459.657299
256.490235,444.123565,-9474.636058,689.485948
256.490562,888.247130,-9400.615463,536.266849
256.490890,1036.288319,-9400.615463,919.314598
256.491217,1258.350101,-9326.594869,919.314598
256.491544,1776.494261,-9844.739029,1302.362347
256.491872,1776.494261,-9696.697840,1072.533697
256.492199,1702.473667,-9696.697840,1225.752797
256.492526,1332.370696,-9696.697840,1149.143247
256.492854,1110.308913,-9770.718434,995.924147
256.493181,962.267725,-9548.656652,1532.190996
256.493509,0.000000,-9622.677246,1072.533697
256.493836,-370.102971,-9622.677246,766.095498
256.494163,-296.082377,-9400.615463,459.657299
256.494491,-1776.494261,-9474.636058,383.047749
256.494818,-1258.350101,-9104.533087,76.609550
256.495145,-1776.494261,-9030.512492,0.000000
256.495473,-1998.556043,-8734.430116,-306.438199
256.495800,-1850.514855,-8438.347739,-383.047749
256.496128,-2146.597232,-8364.327145,-306.438199
256.496455,-1628.453072,-8142.265362,-689.485948
256.496782,-1406.391290,-8364.327145,-689.485948
256.497110,-962.267725,-8216.285956,-306.438199
256.497437,-962.267725,-8512.368333,0.000000
256.497764,-444.123565,-8660.409521,76.609550
256.498092,-444.123565,-8882.471304,383.047749
256.498419,444.123565,-8882.471304,153.219100
256.498747,518.144159,-9326.594869,689.485948
256.499074,740.205942,-9474.636058,919.314598
256.499401,1258.350101,-9844.739029,1302.362347
256.499729,1258.350101,-9474.636058,842.705048
256.500056,1480.411884,-9400.615463,1072.533697
256.500383,1184.329507,-9474.636058,1378.971896
256.500711,1184.329507,-9474.636058,1532.190996
256.501038,1110.308913,-9474.636058,1378.971896
256.501366,888.247130,-9548.656652,1378.971896
256.501693,222.061783,-9400.615463,1608.800546
256.502020,0.000000,-9252.574275,995.924147
256.502348,-1110.308913,-9400.615463,919.314598
256.502675,-1036.288319,-9474.636058,1072.533697
256.503002,-1702.473667,-9104.533087,459.657299
256.503330,-2294.638420,-8586.388927,306.438199
256.503657,-2146.597232,-8734.430116,76.609550
256.503985,-2220.617826,-8660.409521,0.000000
256.504312,-2442.679609,-8660.409521,0.000000
256.504639,-1850.514855,-8364.327145,0.000000
256.504967,-1702.473667,-8512.368333,0.000000
256.505294,-962.267725,-7994.224174,-383.047749
256.505621,-888.247130,-8364.327145,-153.219100
256.505949,-962.267725,-8808.450710,229.828649
256.506276,-222.061783,-8808.450710,383.047749
256.506604,-296.082377,-8734.430116,536.266849
256.506931,74.020594,-9104.533087,842.705048
256.507258,444.123565,-9474.636058,766.095498
256.507586,888.247130,-9474.636058,689.485948
256.507913,1184.329507,-9548.656652,919.314598
256.508240,1406.391290,-9474.636058,1149.143247
256.508568,1850.514855,-9622.677246,1608.800546
256.508895,1776.494261,-9622.677246,1149.143247
256.509223,1480.411884,-9548.656652,1072.533697
256.509550,1332.370696,-9622.677246,1149.143247
256.509877,1036.288319,-9548.656652,995.924147
256.510205,148.041188,-9474.636058,1072.533697
256.510532,-370.102971,-9326.594869,995.924147
256.510859,-444.123565,-9252.574275,459.657299
256.511187,-1480.411884,-9400.615463,612.876398
256.511514,-1258.350101,-9178.553681,0.000000
256.511842,-1924.535449,-9252.574275,229.828649
256.512169,-1998.556043,-8438.347739,-459.657299
256.512496,-2146.597232,-8512.368333,-459.657299
256.512824,-2146.597232,-8586.388927,-383.047749
256.513151,-1776.494261,-8142.265362,-766.095498
256.513478,-1702.473667,-8660.409521,-689.485948
256.513806,-1110.308913,-7994.224174,-995.924147
256.514133,-666.185348,-8512.368333,-306.438199
256.514461,-370.102971,-8438.347739,0.000000
256.514788,0.000000,-8734.430116,0.000000
256.515115,222.061783,-8956.491898,383.047749
256.515443,1110.308913,-9030.512492,766.095498
256.515770,888.247130,-9474.636058,766.095498
256.516097,1036.288319,-9474.636058,1149.143247
256.516425,1036.288319,-9474.636058,1455.581446
256.516752,1480.411884,-9474.636058,1455.581446
256.517080,1776.494261,-9548.656652,1762.019645
256.517407,1332.370696,-9178.553681,1762.019645
256.517734,1406.391290,-9474.636058,1838.629195
256.518062,888.247130,-9474.636058,1608.800546
256.518389,370.102971,-9326.594869,1532.190996
256.518716,148.041188,-9252.574275,919.314598
256.519044,-962.267725,-9474.636058,919.314598
256.519371,-1036.288319,-9400.615463,689.485948
256.519699,-1480.411884,-9178.553681,612.876398
256.520026,-2368.659014,-9030.512492,536.266849
256.520353,-2294.638420,-8956.491898,229.828649
256.520681,-2220.617826,-8142.265362,0.000000
256.521008,-2664.741391,-8660.409521,0.000000
256.521335,-2146.597232,-8290.306550,76.609550
256.521663,-1924.535449,-8290.306550,153.219100
256.521990,-1702.473667,-8290.306550,-153.219100
256.522318,-1332.370696,-7846.182985,-306.438199
256.522645,-1036.288319,-8512.368333,-229.828649
256.522972,-444.123565,-8808.450710,383.047749
256.523300,-444.123565,-9030.512492,229.828649
256.523627,0.000000,-9252.574275,536.266849
256.523955,592.164754,-9178.553681,383.047749
256.524282,814.226536,-9548.656652,842.705048
256.524609,1406.391290,-9622.677246,842.705048
256.524937,1628.453072,-9548.656652,1225.752797
256.525264,1184.329507,-9474.636058,919.314598
256.525591,1998.556043,-9992.780217,1072.533697
256.525919,1776.494261,-9326.594869,1685.410096
256.526246,1332.370696,-9992.780217,1225.752797
256.526574,444.123565,-9548.656652,1149.143247
256.526901,666.185348,-9918.759623,995.924147
256.527228,518.144159,-9622.677246,1455.581446
256.527556,-1036.288319,-9030.512492,383.047749
256.527883,-1480.411884,-9400.615463,459.657299
256.528210,-814.226536,-8734.430116,306.438199
256.528538,-1924.535449,-9178.553681,0.000000
256.528865,-1480.411884,-9030.512492,0.000000
256.529193,-2220.617826,-8142.265362,-536.266849
256.529520,-1702.473667,-8882.471304,0.000000
256.529847,-1628.453072,-8068.244768,-612.876398
256.530175,-1628.453072,-8586.388927,0.000000
256.530502,-1036.288319,-8216.285956,-153.219100
256.530829,-814.226536,-8142.265362,0.000000
256.531157,-296.082377,-8586.388927,76.609550
256.531484,-740.205942,-8956.491898,153.219100
256.531812,592.164754,-9030.512492,919.314598
256.532139,0.000000,-8956.491898,536.266849
256.532466,1628.453072,-9474.636058,1455.581446
256.532794,0.000000,-9326.594869,536.266849
256.533121,1406.391290,-9252.574275,2068.457845
256.533448,666.185348,-9474.636058,842.705048
256.533776,1924.535449,-9326.594869,1991.848295
256.534103,1036.288319,-9474.636058,1302.362347
256.534431,1184.329507,-8660.409521,1685.410096
256.534758,296.082377,-9548.656652,1302.362347
256.535085,518.144159,-9326.594869,1532.190996
256.535413,-222.061783,-9474.636058,1225.752797
256.535740,-444.123565,-9474.636058,1378.971896
256.536067,-1406.391290,-8956.491898,306.438199
256.536395,-2146.597232,-9400.615463,689.485948
256.536722,-1480.411884,-8956.491898,153.219100
256.537050,-1998.556043,-8956.491898,689.485948
256.537377,-2664.741391,-8438.347739,-306.438199
256.537704,-1406.391290,-8808.450710,306.438199
256.538032,-1554.432478,-8290.306550,-536.266849
256.538359,-1480.411884,-8364.327145,76.609550
256.538686,-1406.391290,-8290.306550,0.000000
256.539014,-1036.288319,-8956.491898,0.000000
256.539341,-222.061783,-8216.285956,0.000000
256.539668,-518.144159,-8808.450710,153.219100
256.539996,-518.144159,-9474.636058,76.609550
256.540323,592.164754,-9548.656652,766.095498
256.540650,518.144159,-9474.636058,306.438199
256.540977,370.102971,-9178.553681,766.095498
256.541305,1628.453072,-9400.615463,1608.800546
256.541632,1554.432478,-9770.718434,842.705048
256.541959,1332.370696,-9252.574275,1455.581446
256.542287,1110.308913,-9696.697840,842.705048
256.542614,1702.473667,-9918.759623,1532.190996
256.542941,1258.350101,-8882.471304,1072.533697
256.543269,666.185348,-9992.780217,1302.362347
256.543596,296.082377,-9400.615463,1455.581446
256.543923,-222.061783,-9474.636058,842.705048
256.544251,-1110.308913,-9548.656652,459.657299
256.544578,-814.226536,-9696.697840,459.657299
256.544905,-1406.391290,-8956.491898,76.609550
256.545233,-1850.514855,-9252.574275,0.000000
256.545560,-1998.556043,-8882.471304,-229.828649
256.545887,-1702.473667,-8660.409521,-459.657299
256.546215,-2294.638420,-8586.388927,-229.828649
256.546542,-1480.411884,-8068.244768,-153.219100
256.546869,-1628.453072,-8438.347739,0.000000
256.547197,-962.267725,-8290.306550,-306.438199
256.547524,-370.102971,-8364.327145,76.609550
256.547851,-370.102971,-8586.388927,76.609550
256.548179,148.041188,-8660.409521,919.314598
256.548506,296.082377,-9030.512492,536.266849
256.548833,814.226536,-9252.574275,1072.533697
256.549161,740.205942,-9326.594869,919.314598
256.549488,814.226536,-9474.636058,1378.971896
256.549815,1480.411884,-9252.574275,1149.143247
256.550143,1258.350101,-9474.636058,1455.581446
256.550470,1554.432478,-9474.636058,1455.581446
256.550797,1406.391290,-9474.636058,1608.800546
256.551125,1036.288319,-9400.615463,1762.019645
256.551452,888.247130,-9178.553681,1915.238745
256.551779,0.000000,-9400.615463,1378.971896
256.552107,-148.041188,-9326.594869,1225.752797
256.552434,-1332.370696,-9326.594869,1149.143247
256.552761,-1406.391290,-9252.574275,536.266849
256.553088,-1702.473667,-9030.512492,689.485948
256.553416,-1924.535449,-9178.553681,689.485948
256.553743,-2368.659014,-8586.388927,459.657299
256.554070,-2220.617826,-8512.368333,0.000000
256.554398,-2368.659014,-8364.327145,0.000000
256.554725,-1850.514855,-8216.285956,-306.438199
256.555052,-1554.432478,-8364.327145,0.000000
256.555380,-1480.411884,-8216.285956,0.000000
256.555707,-888.247130,-8586.388927,0.000000
256.556034,-888.247130,-8512.368333,0.000000
256.556362,0.000000,-8734.430116,306.438199
256.556689,74.020594,-9252.574275,153.219100
256.557016,222.061783,-8956.491898,229.828649
256.557344,814.226536,-9474.636058,612.876398
256.557671,962.267725,-9696.697840,612.876398
256.557998,1406.391290,-9474.636058,766.095498
256.558326,1924.535449,-9474.636058,1149.143247
256.558653,1776.494261,-9474.636058,1762.019645
256.558980,1924.535449,-9770.718434,1378.971896
256.559308,1554.432478,-9622.677246,1302.362347
256.559635,1184.329507,-9696.697840,1149.143247
256.559962,888.247130,-9622.677246,1072.533697
256.560290,0.000000,-9252.574275,612.876398
256.560617,-370.102971,-9548.656652,689.485948
256.560944,-518.144159,-9326.594869,689.485948
256.561272,-1184.329507,-9474.636058,229.828649
256.561599,-1628.453072,-9030.512492,76.609550
256.561926,-1332.370696,-8956.491898,-306.438199
256.562254,-1554.432478,-8660.409521,-153.219100
256.562581,-2146.597232,-8734.430116,-459.657299
256.562908,-1702.473667,-8364.327145,-383.047749
256.563236,-1554.432478,-8290.306550,-536.266849
256.563563,-1406.391290,-8216.285956,-153.219100
256.563890,-814.226536,-8438.347739,-306.438199
256.564218,-888.247130,-8586.388927,0.000000
256.564545,-370.102971,-8956.491898,0.000000
256.564872,-370.102971,-8956.491898,306.438199
256.565199,296.082377,-9178.553681,459.657299
256.565527,592.164754,-9252.574275,766.095498
256.565854,740.205942,-9548.656652,766.095498
256.566181,740.205942,-9474.636058,842.705048
256.566509,1258.350101,-9474.636058,1302.362347
256.566836,1406.391290,-9622.677246,1378.971896
256.567163,1332.370696,-9474.636058,1378.971896
256.567491,1184.329507,-9474.636058,1532.190996
256.567818,1036.288319,-9474.636058,1532.190996
256.568145,740.205942,-9474.636058,1378.971896
256.568473,296.082377,-9326.594869,1302.362347
256.568800,0.000000,-8956.491898,842.705048
256.569127,-962.267725,-9030.512492,1072.533697
256.569455,-1036.288319,-9252.574275,689.485948
256.569782,-1480.411884,-9030.512492,459.657299
256.570109,-2294.638420,-8808.450710,459.657299
256.570437,-2368.659014,-8290.306550,153.219100
256.570764,-1776.494261,-8808.450710,0.000000
256.571091,-2368.659014,-8512.368333,-229.828649
256.571419,-1924.535449,-8364.327145,-153.219100
256.571746,-1850.514855,-8364.327145,0.000000
256.572073,-1702.473667,-8216.285956,0.000000
256.572401,-962.267725,-8216.285956,-153.219100
256.572728,-740.205942,-8586.388927,0.000000
256.573055,-518.144159,-8956.491898,383.047749
256.573383,0.000000,-9252.574275,229.828649
256.573710,148.041188,-9474.636058,459.657299
256.574037,444.123565,-9030.512492,536.266849
256.574365,962.267725,-9474.636058,842.705048
256.574692,1332.370696,-9474.636058,919.314598
256.575019,1406.391290,-9474.636058,1149.143247
256.575347,1480.411884,-9770.718434,1072.533697
256.575674,1406.391290,-9622.677246,1149.143247
256.576001,1480.411884,-9474.636058,1762.019645
256.576329,1036.288319,-9622.677246,1225.752797
256.576656,444.123565,-9474.636058,1149.143247
256.576983,0.000000,-9474.636058,919.314598
256.577311,-296.082377,-9474.636058,1149.143247
256.577638,-444.123565,-9326.594869,612.876398
256.577965,-1998.556043,-9474.636058,383.047749
256.578292,-1258.350101,-9104.533087,0.000000
256.578620,-2072.576638,-9030.512492,0.000000
256.578947,-2146.597232,-9030.512492,-306.438199
256.579274,-1480.411884,-8882.471304,-612.876398
256.579602,-2220.617826,-8586.388927,-306.438199
256.579929,-1554.432478,-8216.285956,-612.876398
256.580256,-1332.370696,-8438.347739,-306.438199
256.580584,-740.205942,-8438.347739,-383.047749
256.580911,-148.041188,-8290.306550,-306.438199
256.581238,-296.082377,-8586.388927,76.609550
256.581566,74.020594,-8882.471304,229.828649
256.581893,444.123565,-9400.615463,689.485948
256.582220,666.185348,-9474.636058,689.485948
256.582548,888.247130,-9178.553681,766.095498
256.582875,1258.350101,-9474.636058,995.924147
256.583202,1480.411884,-9696.697840,1072.533697
256.583530,1702.473667,-9474.636058,1455.581446
256.583857,1776.494261,-9696.697840,1608.800546
256.584184,1258.350101,-9104.533087,1685.410096
256.584512,1036.288319,-9400.615463,1991.848295
256.584839,740.205942,-9622.677246,1455.581446
256.585166,0.000000,-9474.636058,1532.190996
256.585494,-148.041188,-9696.697840,1378.971896
256.585821,-888.247130,-9326.594869,689.485948
256.586148,-1628.453072,-9400.615463,612.876398
256.586476,-1628.453072,-8734.430116,612.876398
256.586803,-2368.659014,-8956.491898,612.876398
256.587130,-2368.659014,-8808.450710,76.609550
256.587458,-2220.617826,-8586.388927,0.000000
256.587785,-1998.556043,-8364.327145,306.438199
256.588112,-2146.597232,-7994.224174,-153.219100
256.588440,-1998.556043,-8364.327145,0.000000
256.588767,-1480.411884,-8142.265362,0.000000
256.589094,-1036.288319,-8290.306550,76.609550
256.589422,-592.164754,-8512.368333,153.219100
256.589749,-296.082377,-8808.450710,76.609550
256.590076,0.000000,-8956.491898,306.438199
256.590403,222.061783,-9326.594869,766.095498
256.590731,666.185348,-9474.636058,919.314598
256.591058,1332.370696,-9548.656652,995.924147
256.591385,1036.288319,-9104.533087,1532.190996
256.591713,1924.535449,-9770.718434,1149.143247
256.592040,1776.494261,-9548.656652,1302.362347
256.592367,1702.473667,-9548.656652,1302.362347
256.592695,1554.432478,-9622.677246,1149.143247
256.593022,1554.432478,-9400.615463,1225.752797
256.593349,740.205942,-9400.615463,919.314598
256.593677,0.000000,-9474.636058,612.876398
256.594004,-370.102971,-9622.677246,842.705048
256.594331,-518.144159,-9252.574275,689.485948
256.594659,-1332.370696,-9474.636058,459.657299
256.594986,-1258.350101,-9030.512492,-306.438199
256.595313,-1924.535449,-8882.471304,0.000000
256.595641,-2072.576638,-8586.388927,0.000000
256.595968,-2146.597232,-8438.347739,-306.438199
256.596295,-1628.453072,-8290.306550,-459.657299
256.596623,-1924.535449,-8142.265362,-229.828649
256.596950,-1480.411884,-8364.327145,0.000000
256.597277,-1036.288319,-8290.306550,0.000000
256.597605,-1036.288319,-8586.388927,76.609550
256.597932,-370.102971,-8808.450710,0.000000
256.598259,-222.061783,-9104.533087,153.219100
256.598587,148.041188,-9178.553681,689.485948
256.598914,592.164754,-9326.594869,766.095498
256.599241,888.247130,-9474.636058,919.314598
256.599569,1036.288319,-9474.636058,995.924147
256.599896,1332.370696,-9326.594869,1302.362347
256.600223,1554.432478,-9474.636058,1455.581446
256.600551,1406.391290,-9548.656652,1532.190996
256.600878,1332.370696,-9622.677246,1532.190996
256.601205,962.267725,-9548.656652,1685.410096
256.601533,592.164754,-9252.574275,1302.362347
256.601860,74.020594,-9252.574275,1532.190996
256.602187,-296.082377,-9030.512492,995.924147
256.602514,-1184.329507,-9474.636058,842.705048
256.602842,-814.226536,-9252.574275,612.876398
256.603169,-1776.494261,-8734.430116,1072.533697
256.603496,-1850.514855,-8882.471304,536.266849
256.603824,-2072.576638,-8808.450710,383.047749
256.604151,-2072.576638,-8586.388927,0.000000
256.604478,-2368.659014,-8512.368333,0.000000
256.604806,-1406.391290,-8068.244768,0.000000
256.605133,-1702.473667,-8734.430116,306.438199
256.605460,-1332.370696,-8512.368333,0.000000
256.605788,-740.205942,-8586.388927,229.828649
256.606115,-592.164754,-8808.450710,0.000000
256.606442,0.000000,-9104.533087,153.219100
256.606770,-370.102971,-9178.553681,689.485948
256.607097,148.041188,-9326.594869,612.876398
256.607424,666.185348,-9548.656652,612.876398
256.607752,962.267725,-9474.636058,766.095498
256.608079,1110.308913,-9548.656652,842.705048
256.608406,1776.494261,-9696.697840,842.705048
256.608734,1258.350101,-9326.594869,1302.362347
256.609061,1258.350101,-9548.656652,1378.971896
256.609388,962.267725,-9474.636058,1455.581446
256.609716,814.226536,-9696.697840,1149.143247
256.610043,592.164754,-9622.677246,766.095498
256.610370,74.020594,-9400.615463,842.705048
256.610698,-444.123565,-9400.615463,919.314598
256.611025,-666.185348,-9400.615463,306.438199
256.611352,-1924.535449,-9252.574275,459.657299
256.611680,-1628.453072,-8660.409521,0.000000
256.612007,-1998.556043,-8882.471304,-383.047749
256.612334,-2072.576638,-8734.430116,-306.438199
256.612662,-1702.473667,-8586.388927,-612.876398
256.612989,-1850.514855,-8660.409521,-536.266849
256.613316,-1258.350101,-8364.327145,-383.047749
256.613644,-1258.350101,-8438.347739,383.047749
256.613971,-370.102971,-8216.285956,-229.828649
256.614298,-592.164754,-8512.368333,0.000000
256.614625,0.000000,-8734.430116,0.000000
256.614953,222.061783,-8956.491898,306.438199
256.615280,740.205942,-8956.491898,459.657299
256.615607,740.205942,-9474.636058,919.314598
256.615935,962.267725,-9622.677246,1072.533697
256.616262,1184.329507,-9622.677246,1149.143247
256.616589,1258.350101,-9474.636058,1225.752797
256.616917,1554.432478,-9400.615463,2298.286494
256.617244,1628.453072,-9178.553681,1378.971896
256.617571,1406.391290,-9474.636058,1608.800546
256.617899,666.185348,-9474.636058,1225.752797
256.618226,296.082377,-9474.636058,1685.410096
256.618553,0.000000,-9474.636058,1455.581446
256.618881,-740.205942,-9622.677246,1149.143247
256.619208,-1110.308913,-9252.574275,766.095498
256.619535,-2072.576638,-9326.594869,919.314598
256.619863,-1924.535449,-8808.450710,306.438199
256.620190,-2442.679609,-9178.553681,306.438199
256.620517,-2590.720797,-8142.265362,76.609550
256.620845,-2146.597232,-8290.306550,0.000000
256.621172,-2368.659014,-8364.327145,0.000000
256.621499,-1998.556043,-8290.306550,0.000000
256.621827,-1628.453072,-8364.327145,0.000000
256.622154,-740.205942,-7550.100608,0.000000
256.622481,-1184.329507,-8364.327145,153.219100
256.622809,-592.164754,-8512.368333,76.609550
256.623136,-148.041188,-9178.553681,306.438199
256.623463,296.082377,-9474.636058,459.657299
256.623791,592.164754,-9104.533087,612.876398
256.624118,1110.308913,-9474.636058,612.876398
256.624445,1184.329507,-9474.636058,766.095498
256.624773,1776.494261,-9770.718434,1072.533697
256.625100,1850.514855,-9474.636058,995.924147
256.625427,2072.576638,-9696.697840,1455.581446
256.625755,1702.473667,-9770.718434,1302.362347
256.626082,1628.453072,-9844.739029,1302.362347
256.626409,962.267725,-9696.697840,1378.971896
256.626736,518.144159,-9622.677246,1378.971896
256.627064,296.082377,-9622.677246,1149.143247
256.627391,-666.185348,-9400.615463,919.314598
256.627718,-1036.288319,-9622.677246,689.485948
256.628046,-1480.411884,-9030.512492,306.438199
256.628373,-1924.535449,-9252.574275,229.828649
256.628700,-2072.576638,-8956.491898,0.000000
256.629028,-2072.576638,-7994.224174,-689.485948
256.629355,-2368.659014,-8216.285956,0.000000
256.629682,-1776.494261,-8438.347739,-459.657299
256.630010,-1776.494261,-8364.327145,-229.828649
256.630337,-1480.411884,-8512.368333,-536.266849
256.630664,-888.247130,-8364.327145,-612.876398
256.630992,-888.247130,-8290.306550,153.219100
256.631319,-222.061783,-8734.430116,76.609550
256.631646,0.000000,-9030.512492,459.657299
256.631974,370.102971,-9252.574275,919.314598
256.632301,666.185348,-9474.636058,995.924147
256.632628,1628.453072,-9474.636058,1302.362347
256.632956,1332.370696,-9474.636058,1072.533697
256.633283,1480.411884,-9696.697840,1302.362347
256.633610,1554.432478,-9548.656652,1532.190996
256.633938,1628.453072,-9696.697840,1532.190996
256.634265,1480.411884,-9548.656652,1378.971896
256.634592,1406.391290,-9474.636058,1455.581446
256.634920,370.102971,-9474.636058,1302.362347
256.635247,0.000000,-9474.636058,995.924147
256.635574,-444.123565,-9400.615463,1532.190996
256.635902,-1036.288319,-8290.306550,306.438199
256.636229,-1406.391290,-9474.636058,1072.533697
256.636556,-1702.473667,-8956.491898,153.219100
256.636884,-2294.638420,-8956.491898,459.657299
256.637211,-2516.700203,-8512.368333,76.609550
256.637538,-1998.556043,-8290.306550,-229.828649
256.637866,-1924.535449,-8438.347739,76.609550
256.638193,-1924.535449,-8364.327145,-153.219100
256.638520,-1628.453072,-8290.306550,-229.828649
256.638848,-1110.308913,-8290.306550,0.000000
256.639175,-962.267725,-8364.327145,76.609550
256.639502,-592.164754,-8660.409521,0.000000
256.639830,-296.082377,-9030.512492,0.000000
256.640157,0.000000,-9252.574275,459.657299
256.640484,592.164754,-9474.636058,612.876398
256.640812,740.205942,-9400.615463,766.095498
256.641139,1332.370696,-9400.615463,1149.143247
256.641466,1702.473667,-9622.677246,919.314598
256.641794,1776.494261,-9770.718434,995.924147
256.642121,1628.453072,-9696.697840,1302.362347
256.642448,1628.453072,-9622.677246,1455.581446
256.642776,1480.411884,-9474.636058,1302.362347
256.643103,1258.350101,-9622.677246,1149.143247
256.643430,518.144159,-9696.697840,919.314598
256.643758,74.020594,-9548.656652,459.657299
256.644085,-740.205942,-9474.636058,919.314598
256.644413,-518.144159,-9326.594869,383.047749
256.644740,-1258.350101,-9252.574275,229.828649
256.645067,-1850.514855,-8882.471304,0.000000
256.645395,-1776.494261,-9104.533087,-153.219100
256.645722,-2146.597232,-8512.368333,-383.047749
256.646049,-2146.597232,-8586.388927,-383.047749
256.646377,-1702.473667,-8216.285956,-459.657299
256.646704,-1480.411884,-8290.306550,0.000000
256.647031,-1110.308913,-8290.306550,-383.047749
256.647359,-740.205942,-8438.347739,-153.219100
256.647686,-666.185348,-8660.409521,-153.219100
256.648013,148.041188,-9252.574275,229.828649
256.648341,0.000000,-8956.491898,-383.047749
256.648668,370.102971,-9400.615463,689.485948
256.648996,666.185348,-9400.615463,919.314598
256.649323,1110.308913,-9696.697840,995.924147
256.649650,1332.370696,-9326.594869,1991.848295
256.649978,1776.494261,-10066.800811,1378.971896
256.650305,1998.556043,-9770.718434,1302.362347
256.650632,1702.473667,-9474.636058,1685.410096
256.650960,1406.391290,-9474.636058,1608.800546
256.651287,1036.288319,-9474.636058,1532.190996
256.651614,148.041188,-8956.491898,2145.067394
256.651942,-296.082377,-9474.636058,1149.143247
256.652269,-666.185348,-9474.636058,1532.190996
256.652596,-962.267725,-9252.574275,766.095498
256.652924,-2220.617826,-9104.533087,612.876398
256.653251,-1406.391290,-8586.388927,229.828649
256.653579,-2368.659014,-8438.347739,153.219100
256.653906,-2516.700203,-8660.409521,76.609550
256.654233,-2368.659014,-8438.347739,-229.828649
256.654561,-2368.659014,-8512.368333,229.828649
256.654888,-1702.473667,-8216.285956,0.000000
256.655215,-1480.411884,-8216.285956,76.609550
256.655543,-1036.288319,-8438.347739,0.000000
256.655870,-814.226536,-8586.388927,0.000000
256.656197,-296.082377,-8660.409521,229.828649
256.656525,-74.020594,-9252.574275,536.266849
256.656852,0.000000,-9030.512492,766.095498
256.657179,814.226536,-9400.615463,689.485948
256.657507,1110.308913,-9474.636058,536.266849
256.657834,1554.432478,-9770.718434,842.705048
256.658162,1702.473667,-9474.636058,842.705048
256.658489,2220.617826,-9474.636058,1838.629195
256.658816,2146.597232,-9992.780217,995.924147
256.659144,1776.494261,-9622.677246,1225.752797
256.659471,1406.391290,-9844.739029,1149.143247
256.659798,888.247130,-9548.656652,1225.752797
256.660126,740.205942,-9622.677246,1378.971896
256.660453,296.082377,-9400.615463,536.266849
256.660780,-1036.288319,-9474.636058,383.047749
256.661108,-962.267725,-9474.636058,383.047749
256.661435,-1332.370696,-8956.491898,0.000000
256.661762,-1924.535449,-8660.409521,0.000000
256.662090,-1850.514855,-8956.491898,-306.438199
256.662417,-1850.514855,-8734.430116,-536.266849
256.662745,-2220.617826,-8586.388927,-459.657299
256.663072,-1850.514855,-8142.265362,-383.047749
256.663399,-1776.494261,-8290.306550,-229.828649
256.663727,-888.247130,-8808.450710,-689.485948
256.664054,-888.247130,-8290.306550,0.000000
256.664381,-888.247130,-8586.388927,0.000000
256.664709,0.000000,-9326.594869,153.219100
256.665036,222.061783,-8808.450710,459.657299
256.665363,444.123565,-9326.594869,229.828649
256.665691,888.247130,-9178.553681,919.314598
256.666018,1110.308913,-9474.636058,1149.143247
256.666345,1332.370696,-9474.636058,995.924147
256.666673,1480.411884,-9548.656652,1455.581446
256.667000,1628.453072,-9400.615463,1532.190996
256.667327,1554.432478,-9400.615463,1915.238745
256.667655,1628.453072,-9474.636058,1762.019645
256.667982,1110.308913,-9696.697840,1608.800546
256.668310,518.144159,-9474.636058,1302.362347
256.668637,-370.102971,-9474.636058,995.924147
256.668964,-666.185348,-8808.450710,1378.971896
256.669292,-1036.288319,-9252.574275,689.485948
256.669619,-1924.535449,-8956.491898,766.095498
256.669946,-1702.473667,-9178.553681,459.657299
256.670274,-2368.659014,-8586.388927,76.609550
256.670601,-2368.659014,-8216.285956,536.266849
256.670928,-2072.576638,-8660.409521,306.438199
256.671256,-2220.617826,-8364.327145,459.657299
256.671583,-2146.597232,-7994.224174,76.609550
256.671910,-1628.453072,-8512.368333,229.828649
256.672238,-1036.288319,-8586.388927,306.438199
256.672565,-1110.308913,-8290.306550,306.438199
256.672893,-814.226536,-8512.368333,153.219100
256.673220,-592.164754,-9030.512492,383.047749
256.673547,0.000000,-9326.594869,766.095498
256.673875,370.102971,-9030.512492,689.485948
256.674202,592.164754,-9252.574275,919.314598
256.674529,962.267725,-9474.636058,919.314598
256.674857,1406.391290,-9548.656652,919.314598
256.675184,1480.411884,-9548.656652,1378.971896
256.675511,1702.473667,-9326.594869,919.314598
256.675839,1850.514855,-9622.677246,1225.752797
256.676166,1258.350101,-9696.697840,1072.533697
256.676493,888.247130,-9844.739029,1149.143247
256.676821,592.164754,-9622.677246,1072.533697
256.677148,-296.082377,-9474.636058,306.438199
256.677476,0.000000,-9770.718434,1149.143247
256.677803,-666.185348,-9030.512492,306.438199
256.678130,-1702.473667,-9474.636058,383.047749
256.678458,-1258.350101,-9030.512492,-153.219100
256.678785,-1998.556043,-8956.491898,-383.047749
256.679112,-1628.453072,-8808.450710,-459.657299
256.679440,-1776.494261,-8290.306550,-459.657299
256.679767,-1554.432478,-8438.347739,-536.266849
256.680094,-1258.350101,-8290.306550,-612.876398
256.680422,-888.247130,-8364.327145,-383.047749
256.680749,-592.164754,-8364.327145,-766.095498
256.681076,-444.123565,-8586.388927,153.219100
256.681404,296.082377,-8882.471304,0.000000
256.681731,222.061783,-9178.553681,612.876398
256.682059,740.205942,-9178.553681,689.485948
256.682386,888.247130,-8956.491898,995.924147
256.682713,1110.308913,-9252.574275,1149.143247
256.683041,1110.308913,-9474.636058,1378.971896
256.683368,1480.411884,-9548.656652,1378.971896
256.683695,1406.391290,-9474.636058,1532.190996
256.684023,1406.391290,-9474.636058,1532.190996
256.684350,1036.288319,-8956.491898,1608.800546
256.684677,814.226536,-9622.677246,1455.581446
256.685005,370.102971,-9548.656652,1302.362347
256.685332,-518.144159,-9474.636058,842.705048
256.685659,-1036.288319,-9400.615463,1072.533697
256.685987,-1332.370696,-8956.491898,383.047749
256.686314,-1924.535449,-9474.636058,689.485948
256.686642,-2220.617826,-9104.533087,76.609550
256.686969,-2294.638420,-8882.471304,229.828649
256.687296,-2590.720797,-8438.347739,76.609550
256.687624,-2146.597232,-7994.224174,229.828649
256.687951,-1998.556043,-8142.265362,76.609550
256.688278,-1776.494261,-8438.347739,0.000000
256.688606,-1480.411884,-8290.306550,0.000000
256.688933,-888.247130,-8364.327145,306.438199
256.689260,-666.185348,-8808.450710,383.047749
256.689588,-370.102971,-8512.368333,459.657299
256.689915,-148.041188,-8956.491898,459.657299
256.690242,370.102971,-9400.615463,536.266849
256.690570,592.164754,-9252.574275,689.485948
256.690897,666.185348,-9474.636058,919.314598
256.691224,1480.411884,-9474.636058,919.314598
256.691552,1776.494261,-9474.636058,1225.752797
256.691879,1554.432478,-9622.677246,1302.362347
256.692207,1554.432478,-9548.656652,1225.752797
256.692534,1406.391290,-9474.636058,1149.143247
256.692861,1110.308913,-9252.574275,1532.190996
256.693189,1258.350101,-9178.553681,1149.143247
256.693516,222.061783,-9622.677246,766.095498
256.693843,0.000000,-9548.656652,919.314598
256.694171,-592.164754,-9474.636058,229.828649
256.694498,-1480.411884,-9252.574275,536.266849
256.694825,-962.267725,-9104.533087,76.609550
256.695153,-1998.556043,-8734.430116,0.000000
256.695480,-2072.576638,-8882.471304,-229.828649
256.695807,-1998.556043,-8586.388927,-459.657299
256.696135,-1998.556043,-8512.368333,-536.266849
256.696462,-1480.411884,-8216.285956,-459.657299
256.696790,-1480.411884,-8586.388927,-306.438199
256.697117,-1406.391290,-8364.327145,-383.047749
256.697444,-962.267725,-8660.409521,0.000000
256.697772,-370.102971,-8734.430116,0.000000
256.698099,0.000000,-9030.512492,76.609550
256.698426,74.020594,-9178.553681,153.219100
256.698754,592.164754,-9474.636058,536.266849
256.699081,814.226536,-9400.615463,689.485948
256.699408,1110.308913,-9622.677246,995.924147
256.699736,1110.308913,-9474.636058,1455.581446
256.700063,1258.350101,-8956.491898,1685.410096
256.700390,1628.453072,-9474.636058,1302.362347
256.700718,1480.411884,-9548.656652,1455.581446
256.701045,1258.350101,-9474.636058,1608.800546
256.701373,962.267725,-9548.656652,1225.752797
256.701700,962.267725,-9178.553681,1302.362347
256.702027,0.000000,-9030.512492,995.924147
256.702355,-888.247130,-9474.636058,842.705048
256.702682,-814.226536,-9252.574275,689.485948
256.703009,-1554.432478,-9104.533087,459.657299
256.703337,-1850.514855,-8882.471304,612.876398
256.703664,-1850.514855,-8808.450710,383.047749
256.703991,-2294.638420,-8586.388927,229.828649
256.704319,-2368.659014,-8512.368333,0.000000
256.704646,-1924.535449,-8290.306550,76.609550
256.704973,-1924.535449,-8290.306550,0.000000
256.705301,-1850.514855,-7846.182985,0.000000
256.705628,-962.267725,-8438.347739,0.000000
256.705956,-1036.288319,-8808.450710,0.000000
256.706283,-518.144159,-9030.512492,229.828649
256.706610,-222.061783,-8734.430116,306.438199
256.706938,0.000000,-8882.471304,459.657299
256.707265,296.082377,-9326.594869,612.876398
256.707592,666.185348,-9474.636058,919.314598
256.707920,962.267725,-9474.636058,842.705048
256.708247,1480.411884,-9474.636058,995.924147
256.708574,1406.391290,-9400.615463,1608.800546
256.708902,1406.391290,-9474.636058,1302.362347
256.709229,1554.432478,-9548.656652,1225.752797
256.709556,1036.288319,-9622.677246,1225.752797
256.709884,814.226536,-9622.677246,842.705048
256.710211,444.123565,-9474.636058,1762.019645
256.710539,370.102971,-9548.656652,766.095498
256.710866,-888.247130,-9474.636058,153.219100
256.711193,-962.267725,-9474.636058,459.657299
256.711521,-1258.350101,-9030.512492,229.828649
256.711848,-1702.473667,-9104.533087,0.000000
256.712175,-1702.473667,-8660.409521,0.000000
256.712503,-1924.535449,-8586.388927,-383.047749
256.712830,-2072.576638,-8660.409521,-383.047749
256.713157,-1258.350101,-8438.347739,-306.438199
256.713485,-1036.288319,-8734.430116,-153.219100
256.713812,-962.267725,-8290.306550,-689.485948
256.714139,-518.144159,-8660.409521,0.000000
256.714467,-296.082377,-8734.430116,0.000000
256.714794,0.000000,-8956.491898,229.828649
256.715121,370.102971,-9326.594869,306.438199
256.715449,666.185348,-9252.574275,689.485948
256.715776,814.226536,-9400.615463,842.705048
256.716104,740.205942,-9548.656652,1149.143247
256.716431,1184.329507,-9474.636058,1225.752797
256.716758,1628.453072,-9548.656652,1455.581446
256.717086,1406.391290,-9030.512492,1762.019645
256.717413,1702.473667,-9474.636058,1378.971896
256.717740,1258.350101,-9548.656652,1532.190996
256.718068,740.205942,-9474.636058,1378.971896
256.718395,222.061783,-9178.553681,1378.971896
256.718722,-296.082377,-9104.533087,612.876398
256.719050,-666.185348,-9178.553681,995.924147
256.719377,-962.267725,-9104.533087,459.657299
256.719704,-1850.514855,-9178.553681,229.828649
256.720032,-2072.576638,-9030.512492,306.438199
256.720359,-2368.659014,-8586.388927,0.000000
256.720687,-2294.638420,-8216.285956,536.266849
256.721014,-2516.700203,-8364.327145,0.000000
256.721341,-1924.535449,-8142.265362,0.000000
256.721669,-1554.432478,-8586.388927,0.000000
256.721996,-1480.411884,-8364.327145,-153.219100
256.722323,-1110.308913,-8216.285956,459.657299
256.722651,-518.144159,-8956.491898,306.438199
256.722978,0.000000,-9030.512492,383.047749
256.723305,-148.041188,-9104.533087,612.876398
256.723633,74.020594,-9326.594869,612.876398
256.723960,592.164754,-9252.574275,1225.752797
256.724287,518.144159,-9474.636058,689.485948
256.724615,1184.329507,-9474.636058,842.705048
256.724942,1702.473667,-9474.636058,1149.143247
256.725270,1702.473667,-9548.656652,1072.533697
256.725597,1184.329507,-9178.553681,1455.581446
256.725924,1702.473667,-9400.615463,1455.581446
256.726252,1036.288319,-9622.677246,1225.752797
256.726579,592.164754,-9474.636058,1225.752797
256.726906,0.000000,-9474.636058,919.314598
256.727234,0.000000,-9622.677246,1072.533697
256.727561,-592.164754,-9252.574275,459.657299
256.727888,-1480.411884,-9400.615463,612.876398
256.728216,-1258.350101,-9252.574275,76.609550
256.728543,-1924.535449,-8956.491898,0.000000
256.728870,-1850.514855,-8808.450710,0.000000
256.729198,-1480.411884,-8882.471304,229.828649
256.729525,-2146.597232,-8438.347739,-306.438199
256.729853,-1554.432478,-8438.347739,-536.266849
256.730180,-1258.350101,-8216.285956,-306.438199
256.730507,-1184.329507,-8512.368333,-383.047749
256.730835,-370.102971,-8734.430116,459.657299
256.731162,-444.123565,-8734.430116,76.609550
256.731489,0.000000,-8882.471304,153.219100
256.731817,296.082377,-9104.533087,536.266849
256.732144,222.061783,-9252.574275,612.876398
256.732471,962.267725,-9918.759623,919.314598
256.732799,814.226536,-9178.553681,1149.143247
256.733126,1110.308913,-9474.636058,1225.752797
256.733453,1480.411884,-9696.697840,1455.581446
256.733781,1480.411884,-9770.718434,1455.581446
256.734108,1332.370696,-9548.656652,1532.190996
256.734436,1554.432478,-9548.656652,1915.238745
256.734763,518.144159,-9474.636058,1302.362347
256.735090,370.102971,-9400.615463,1378.971896
256.735418,0.000000,-9326.594869,1149.143247
256.735745,-888.247130,-9178.553681,919.314598
256.736072,-518.144159,-9104.533087,766.095498
256.736400,-1554.432478,-9252.574275,459.657299
256.736727,-1628.453072,-9030.512492,459.657299
256.737054,-2146.597232,-8734.430116,0.000000
256.737382,-2072.576638,-8660.409521,76.609550
256.737709,-1702.473667,-8364.327145,153.219100
256.738036,-1776.494261,-8438.347739,0.000000
256.738364,-1850.514855,-8438.347739,153.219100
256.738691,-1480.411884,-8438.347739,0.000000
256.739018,-1036.288319,-8512.368333,76.609550
256.739346,-1480.411884,-8808.450710,153.219100
256.739673,-370.102971,-8808.450710,153.219100
256.740001,-296.082377,-9178.553681,306.438199
256.740328,148.041188,-9252.574275,536.266849
256.740655,370.102971,-9178.553681,536.266849
256.740983,962.267725,-9474.636058,689.485948
256.741310,1480.411884,-9252.574275,1225.752797
256.741638,1480.411884,-9548.656652,1149.143247
256.741965,1406.391290,-9622.677246,1072.533697
256.742293,1258.350101,-9474.636058,1225.752797
256.742620,1184.329507,-9548.656652,1225.752797
256.742948,1036.288319,-9474.636058,1302.362347
256.743275,518.144159,-9548.656652,1225.752797
256.743603,0.000000,-9474.636058,919.314598
256.743930,-444.123565,-9696.697840,1149.143247
256.744258,-666.185348,-9178.553681,459.657299
256.744585,-1332.370696,-8808.450710,919.314598
256.744913,-1258.350101,-8512.368333,0.000000
256.745241,-1776.494261,-8956.491898,0.000000
256.745568,-1702.473667,-8882.471304,-383.047749
256.745896,-1480.411884,-8438.347739,-383.047749
256.746223,-1554.432478,-8660.409521,0.000000
256.746551,-888.247130,-8142.265362,-153.219100
256.746878,-1036.288319,-8438.347739,-153.219100
256.747206,-592.164754,-8364.327145,0.000000
256.747533,-296.082377,-8808.450710,153.219100
256.747861,0.000000,-8808.450710,306.438199
256.748188,370.102971,-8808.450710,459.657299
256.748516,740.205942,-9326.594869,842.705048
256.748843,518.144159,-9400.615463,842.705048
256.749171,814.226536,-9400.615463,1072.533697
256.749498,1184.329507,-9474.636058,1072.533697
256.749826,1036.288319,-9252.574275,1608.800546
256.750153,1480.411884,-9622.677246,1225.752797
256.750481,1628.453072,-9474.636058,1455.581446
256.750808,1480.411884,-9400.615463,1532.190996
256.751136,888.247130,-9400.615463,1532.190996
256.751463,148.041188,-9326.594869,1302.362347
256.751791,0.000000,-9474.636058,919.314598
256.752118,-740.205942,-9474.636058,1225.752797
256.752446,-1110.308913,-9400.615463,612.876398
256.752773,-2072.576638,-9030.512492,612.876398
256.753101,-2146.597232,-8660.409521,229.828649
256.753428,-2442.679609,-8808.450710,306.438199
256.753756,-2442.679609,-8734.430116,0.000000
256.754083,-2294.638420,-8290.306550,0.000000
256.754411,-2220.617826,-8364.327145,0.000000
256.754738,-1924.535449,-8142.265362,0.000000
256.755066,-1110.308913,-8660.409521,383.047749
256.755393,-1258.350101,-8438.347739,0.000000
256.755721,-666.185348,-8882.471304,153.219100
256.756048,-444.123565,-8882.471304,153.219100
256.756376,-148.041188,-9178.553681,459.657299
256.756703,370.102971,-9474.636058,842.705048
256.757031,444.123565,-9400.615463,536.266849
256.757358,888.247130,-9622.677246,766.095498
256.757686,1184.329507,-9474.636058,842.705048
256.758013,1406.391290,-9844.739029,919.314598
256.758341,1554.432478,-9548.656652,1378.971896
256.758668,1702.473667,-9178.553681,1532.190996
256.758996,1628.453072,-9400.615463,1149.143247
256.759323,1184.329507,-9548.656652,1072.533697
256.759651,814.226536,-9474.636058,1072.533697
256.759978,518.144159,-9548.656652,1072.533697
256.760306,666.185348,-9252.574275,995.924147
256.760633,-444.123565,-9474.636058,536.266849
256.760961,-1184.329507,-9474.636058,536.266849
256.761288,-1406.391290,-8956.491898,229.828649
256.761616,-1850.514855,-9030.512492,153.219100
256.761943,-1924.535449,-8734.430116,-383.047749
256.762271,-1998.556043,-8808.450710,-306.438199
256.762598,-2294.638420,-8660.409521,-459.657299
256.762926,-1850.514855,-8216.285956,-536.266849
256.763253,-1702.473667,-8438.347739,-383.047749
256.763581,-1480.411884,-8068.244768,-306.438199
256.763908,-1036.288319,-8438.347739,0.000000
256.764236,-888.247130,-8438.347739,-153.219100
256.764563,-444.123565,-8882.471304,0.000000
256.764891,74.020594,-9104.533087,153.219100
256.765218,222.061783,-8956.491898,459.657299
256.765546,888.247130,-9326.594869,766.095498
256.765873,962.267725,-9400.615463,1072.533697
256.766201,1406.391290,-9548.656652,995.924147
256.766528,1406.391290,-9474.636058,1072.533697
256.766856,1554.432478,-9622.677246,1455.581446
256.767183,1702.473667,-9326.594869,2145.067394
256.767511,1702.473667,-9252.574275,1608.800546
256.767838,1036.288319,-9474.636058,1608.800546
256.768166,888.247130,-9474.636058,1455.581446
256.768493,0.000000,-9252.574275,1072.533697
256.768821,0.000000,-9104.533087,1225.752797
256.769148,-740.205942,-8734.430116,1149.143247
256.769476,-1554.432478,-9252.574275,919.314598
256.769803,-1480.411884,-9030.512492,536.266849
256.770131,-2146.597232,-8956.491898,536.266849
256.770458,-2294.638420,-8882.471304,689.485948
256.770786,-1850.514855,-9030.512492,536.266849
256.771114,-2220.617826,-8512.368333,229.828649
256.771441,-2072.576638,-8512.368333,0.000000
256.771769,-1924.535449,-8734.430116,153.219100
256.772096,-1776.494261,-8142.265362,229.828649
256.772424,-1184.329507,-8734.430116,0.000000
256.772751,-962.267725,-8512.368333,229.828649
256.773079,-888.247130,-8956.491898,306.438199
256.773406,-592.164754,-9326.594869,383.047749
256.773734,0.000000,-9474.636058,229.828649
256.774061,666.185348,-9326.594869,536.266849
256.774389,814.226536,-9474.636058,842.705048
256.774716,1258.350101,-9770.718434,919.314598
256.775044,1332.370696,-9474.636058,1225.752797
256.775371,1554.432478,-9696.697840,1455.581446
256.775699,1702.473667,-9696.697840,1149.143247
256.776026,1258.350101,-9548.656652,1302.362347
256.776354,1110.308913,-9918.759623,1149.143247
256.776681,592.164754,-9770.718434,1072.533697
256.777009,370.102971,-9844.739029,1302.362347
256.777336,0.000000,-9622.677246,766.095498
256.777664,-444.123565,-9252.574275,229.828649
256.777991,-1258.350101,-9474.636058,229.828649
256.778319,-1332.370696,-8808.450710,0.000000
256.778646,-1776.494261,-9104.533087,0.000000
256.778974,-1628.453072,-8882.471304,-459.657299
256.779301,-1406.391290,-8882.471304,-229.828649
256.779629,-1554.432478,-8512.368333,-306.438199
256.779956,-1480.411884,-8216.285956,-612.876398
256.780284,-888.247130,-8660.409521,0.000000
256.780611,-518.144159,-8734.430116,-153.219100
256.780939,-592.164754,-8438.347739,0.000000
256.781266,0.000000,-8734.430116,459.657299
256.781594,0.000000,-9030.512492,536.266849
256.781921,370.102971,-9178.553681,612.876398
256.782249,370.102971,-9326.594869,766.095498
256.782576,888.247130,-9474.636058,1608.800546
256.782904,814.226536,-9252.574275,1072.533697
256.783231,1258.350101,-9400.615463,919.314598
256.783559,1110.308913,-9326.594869,1378.971896
256.783886,1332.370696,-9326.594869,1532.190996
256.784214,1480.411884,-9326.594869,1608.800546
256.784541,1184.329507,-9252.574275,1838.629195
256.784869,370.102971,-9474.636058,1685.410096
256.785196,-74.020594,-9474.636058,1302.362347
256.785524,-962.267725,-9030.512492,689.485948
256.785851,-1110.308913,-9474.636058,1225.752797
256.786179,-1184.329507,-8882.471304,919.314598
256.786506,-2146.597232,-9104.533087,612.876398
256.786834,-2146.597232,-8882.471304,153.219100
256.787161,-2294.638420,-8956.491898,0.000000
256.787489,-2294.638420,-8586.388927,0.000000
256.787816,-2294.638420,-8364.327145,1072.533697
256.788144,-1702.473667,-8290.306550,0.000000
256.788471,-1554.432478,-8216.285956,76.609550
256.788799,-1332.370696,-8290.306550,0.000000
256.789126,-444.123565,-8808.450710,229.828649
256.789454,-740.205942,-8216.285956,229.828649
256.789781,0.000000,-9400.615463,536.266849
256.790109,-296.082377,-9178.553681,306.438199
256.790436,592.164754,-9696.697840,612.876398
256.790764,814.226536,-9770.718434,766.095498
256.791091,222.061783,-9400.615463,459.657299
256.791419,1628.453072,-10066.800811,842.705048
256.791746,1258.350101,-9326.594869,536.266849
256.792074,1628.453072,-9548.656652,1149.143247
256.792401,1850.514855,-9696.697840,995.924147
256.792729,1110.308913,-9474.636058,766.095498
256.793056,1332.370696,-9474.636058,1302.362347
256.793384,518.144159,-9474.636058,842.705048
256.793711,0.000000,-9400.615463,689.485948
256.794039,-814.226536,-9400.615463,689.485948
256.794366,-444.123565,-9400.615463,536.266849
256.794694,-962.267725,-9696.697840,-76.609550
256.795021,-2220.617826,-8734.430116,0.000000
256.795349,-1850.514855,-9030.512492,-153.219100
256.795676,-2146.597232,-8734.430116,-229.828649
256.796004,-1924.535449,-8586.388927,-536.266849
256.796331,-1776.494261,-8956.491898,76.609550
256.796659,-814.226536,-8438.347739,-459.657299
256.796986,-1628.453072,-8364.327145,-383.047749
256.797314,-740.205942,-8512.368333,0.000000
256.797642,-1258.350101,-8364.327145,-306.438199
256.797969,0.000000,-8512.368333,689.485948
256.798297,0.000000,-8660.409521,229.828649
256.798624,592.164754,-9474.636058,842.705048
256.798952,814.226536,-9400.615463,689.485948
256.799279,888.247130,-9400.615463,1149.143247
256.799607,1110.308913,-9770.718434,1225.752797
256.799934,1554.432478,-9326.594869,1685.410096
256.800262,1258.350101,-9326.594869,1762.019645
256.800589,1332.370696,-9474.636058,1532.190996
256.800917,1628.453072,-9474.636058,1838.629195
256.801244,1036.288319,-9178.553681,1838.629195
256.801572,814.226536,-9548.656652,1378.971896
256.801899,74.020594,-9030.512492,1608.800546
256.802227,-222.061783,-9252.574275,1685.410096
256.802554,-666.185348,-9030.512492,766.095498
256.802882,-1776.494261,-8956.491898,766.095498
256.803209,-1702.473667,-8956.491898,536.266849
256.803537,-1850.514855,-8808.450710,536.266849
256.803864,-2294.638420,-8882.471304,0.000000
256.804192,-1998.556043,-8364.327145,0.000000
256.804519,-2220.617826,-8438.347739,0.000000
256.804847,-1850.514855,-8290.306550,-153.219100
256.805174,-2072.576638,-8512.368333,0.000000
256.805502,-1110.308913,-8290.306550,76.609550
256.805829,-1036.288319,-8586.388927,76.609550
256.806157,-592.164754,-8512.368333,153.219100
256.806484,-370.102971,-8734.430116,306.438199
256.806812,0.000000,-9400.615463,306.438199
256.807139,296.082377,-9252.574275,766.095498
256.807467,666.185348,-9178.553681,689.485948
256.807794,1036.288319,-9474.636058,919.314598
256.808122,1480.411884,-9400.615463,1149.143247
256.808449,1628.453072,-9548.656652,459.657299
256.808777,1702.473667,-9474.636058,1378.971896
256.809104,1406.391290,-9474.636058,1302.362347
256.809432,1110.308913,-9696.697840,1378.971896
256.809759,962.267725,-9696.697840,1149.143247
256.810087,444.123565,-9770.718434,1685.410096
256.810414,0.000000,-9400.615463,842.705048
256.810742,-740.205942,-9474.636058,459.657299
256.811069,-666.185348,-9400.615463,76.609550
256.811397,-1258.350101,-9474.636058,0.000000
256.811724,-1554.432478,-8586.388927,536.266849
256.812052,-1332.370696,-8956.491898,0.000000
256.812379,-1850.514855,-8808.450710,-383.047749
256.812707,-1924.535449,-8808.450710,-383.047749
256.813034,-1332.370696,-8512.368333,-153.219100
256.813362,-1406.391290,-8290.306550,-306.438199
256.813689,-1036.288319,-8068.244768,153.219100
256.814017,-296.082377,-8734.430116,-153.219100
256.814344,-296.082377,-8882.471304,153.219100
256.814672,0.000000,-9030.512492,153.219100
256.814999,222.061783,-9252.574275,689.485948
256.815327,1110.308913,-9474.636058,919.314598
256.815654,222.061783,-9400.615463,1302.362347
256.815982,740.205942,-9474.636058,1149.143247
256.816309,888.247130,-9548.656652,1378.971896
256.816637,1184.329507,-9474.636058,1455.581446
256.816964,1480.411884,-9326.594869,1762.019645
256.817292,1332.370696,-9178.553681,1762.019645
256.817619,1036.288319,-9474.636058,1302.362347
256.817947,518.144159,-9474.636058,1302.362347
256.818274,0.000000,-9326.594869,1378.971896
256.818602,-740.205942,-9326.594869,919.314598
256.818929,-888.247130,-9400.615463,1302.362347
256.819257,-1036.288319,-9252.574275,383.047749
256.819584,-1924.535449,-9252.574275,612.876398
256.819912,-1850.514855,-9104.533087,229.828649
256.820239,-2220.617826,-8808.450710,0.000000
256.820567,-2368.659014,-8512.368333,0.000000
256.820894,-2146.597232,-8438.347739,-153.219100
256.821222,-1702.473667,-8216.285956,-153.219100
256.821549,-1554.432478,-7920.203579,0.000000
256.821877,-1258.350101,-8290.306550,-229.828649
256.822204,-1184.329507,-8290.306550,76.609550
256.822532,-444.123565,-8734.430116,459.657299
256.822859,-296.082377,-8882.471304,306.438199
256.823187,0.000000,-9178.553681,229.828649
256.823515,0.000000,-9400.615463,153.219100
256.823842,296.082377,-9400.615463,0.000000
256.824170,814.226536,-9474.636058,612.876398
256.824497,1110.308913,-9622.677246,766.095498
256.824825,1406.391290,-9548.656652,842.705048
256.825152,1702.473667,-9474.636058,1225.752797
256.825480,1924.535449,-9474.636058,1149.143247
256.825807,2072.576638,-9548.656652,1608.800546
256.826135,1554.432478,-9474.636058,919.314598
256.826462,1036.288319,-9474.636058,1072.533697
256.826790,444.123565,-9474.636058,689.485948
256.827117,148.041188,-9548.656652,842.705048
256.827445,0.000000,-9548.656652,0.000000
256.827772,-1110.308913,-9178.553681,229.828649
256.828100,-1184.329507,-9326.594869,0.000000
256.828427,-1850.514855,-9104.533087,0.000000
256.828755,-2072.576638,-8882.471304,-229.828649
256.829082,-2368.659014,-8438.347739,-536.266849
256.829410,-2072.576638,-8808.450710,-229.828649
256.829737,-1776.494261,-8364.327145,-995.924147
256.830065,-1776.494261,-8512.368333,-842.705048
256.830392,-1258.350101,-8438.347739,-689.485948
256.830720,-814.226536,-8586.388927,0.000000
256.831047,-444.123565,-8586.388927,153.219100
256.831375,-148.041188,-9030.512492,0.000000
256.831702,148.041188,-9104.533087,229.828649
256.832030,444.123565,-9400.615463,229.828649
256.832357,740.205942,-9474.636058,842.705048
256.832685,1184.329507,-9474.636058,1072.533697
256.833012,1628.453072,-9400.615463,1302.362347
256.833340,1554.432478,-9474.636058,1378.971896
256.833667,1924.535449,-9770.718434,1532.190996
256.833995,1554.432478,-9548.656652,1762.019645
256.834322,1776.494261,-9696.697840,1302.362347
256.834650,1184.329507,-9104.533087,1532.190996
256.834977,740.205942,-9474.636058,1685.410096
256.835305,222.061783,-9548.656652,995.924147
256.835632,-1036.288319,-9326.594869,1149.143247
256.835960,-592.164754,-9178.553681,919.314598
256.836287,-1036.288319,-9104.533087,689.485948
256.836615,-2072.576638,-9104.533087,842.705048
256.836942,-2368.659014,-9178.553681,306.438199
256.837270,-2220.617826,-8734.430116,229.828649
256.837597,-2516.700203,-8216.285956,0.000000
256.837925,-1998.556043,-8438.347739,229.828649
256.838252,-2516.700203,-8364.327145,0.000000
256.838580,-2146.597232,-8660.409521,76.609550
256.838907,-1406.391290,-8216.285956,229.828649
256.839235,-1480.411884,-8586.388927,229.828649
256.839563,-888.247130,-8364.327145,536.266849
256.839890,-666.185348,-8882.471304,612.876398
256.840218,-296.082377,-9104.533087,536.266849
256.840545,74.020594,-9104.533087,536.266849
256.840873,592.164754,-8882.471304,689.485948
256.841201,888.247130,-8808.450710,1455.581446
256.841528,1850.514855,-9474.636058,1225.752797
256.841856,1554.432478,-9474.636058,1225.752797
256.842184,1850.514855,-9770.718434,1455.581446
256.842511,1628.453072,-9548.656652,1378.971896
256.842839,1184.329507,-9400.615463,1685.410096
256.843166,1110.308913,-9548.656652,1455.581446
256.843494,518.144159,-9770.718434,1072.533697
256.843822,0.000000,-9696.697840,459.657299
256.844149,-666.185348,-9474.636058,689.485948
256.844477,-74.020594,-9326.594869,612.876398
256.844804,-888.247130,-9178.553681,76.609550
256.845132,-1702.473667,-8734.430116,153.219100
256.845460,-1480.411884,-8882.471304,0.000000
256.845787,-1554.432478,-8660.409521,-383.047749
256.846115,-1850.514855,-8438.347739,-536.266849
256.846443,-1480.411884,-8364.327145,-536.266849
256.846770,-1480.411884,-8290.306550,-306.438199
256.847098,-1036.288319,-8512.368333,0.000000
256.847425,-444.123565,-8586.388927,0.000000
256.847753,-666.185348,-8734.430116,0.000000
256.848081,0.000000,-8586.388927,306.438199
256.848408,0.000000,-9104.533087,459.657299
256.848736,148.041188,-9326.594869,689.485948
256.849063,444.123565,-9622.677246,766.095498
256.849391,592.164754,-9622.677246,1149.143247
256.849719,740.205942,-9400.615463,1378.971896
256.850046,888.247130,-9104.533087,1532.190996
256.850374,1110.308913,-9622.677246,1455.581446
256.850702,1184.329507,-9622.677246,1685.410096
256.851029,888.247130,-9400.615463,1455.581446
256.851357,444.123565,-9474.636058,1378.971896
256.851684,222.061783,-9252.574275,1072.533697
256.852012,0.000000,-9252.574275,1302.362347
256.852340,-518.144159,-9474.636058,919.314598
256.852667,-1628.453072,-9400.615463,612.876398
256.852995,-1480.411884,-9326.594869,919.314598
256.853322,-1332.370696,-8882.471304,689.485948
256.853650,-1998.556043,-8956.491898,536.266849
256.853978,-2220.617826,-8660.409521,76.609550
256.854305,-1554.432478,-8438.347739,0.000000
256.854633,-1924.535449,-8438.347739,-153.219100
256.854961,-1110.308913,-7994.224174,76.609550
256.855288,-1406.391290,-8142.265362,0.000000
256.855616,-740.205942,-8734.430116,0.000000
256.855943,-370.102971,-8660.409521,229.828649
256.856271,-370.102971,-8660.409521,229.828649
256.856599,0.000000,-8808.450710,383.047749
256.856926,-222.061783,-8734.430116,995.924147
256.857254,370.102971,-9474.636058,612.876398
256.857581,740.205942,-9400.615463,766.095498
256.857909,1258.350101,-9474.636058,919.314598
256.858237,1332.370696,-9474.636058,919.314598
256.858564,1776.494261,-9030.512492,1302.362347
256.858892,1332.370696,-9400.615463,1072.533697
256.859220,1258.350101,-9400.615463,1225.752797
256.859547,888.247130,-9104.533087,1225.752797
256.859875,592.164754,-9252.574275,1072.533697
256.860202,296.082377,-9104.533087,1225.752797
256.860530,-444.123565,-9252.574275,612.876398
256.860858,-1184.329507,-9326.594869,536.266849
256.861185,-1184.329507,-8956.491898,306.438199
256.861513,-1776.494261,-9252.574275,229.828649
256.861840,-1924.535449,-8512.368333,0.000000
256.862168,-2072.576638,-8956.491898,-306.438199
256.862496,-2072.576638,-8364.327145,-383.047749
256.862823,-1924.535449,-8660.409521,-306.438199
256.863151,-1628.453072,-8290.306550,-459.657299
256.863479,-1406.391290,-8660.409521,-536.266849
256.863806,-962.267725,-8586.388927,-459.657299
256.864134,-444.123565,-8512.368333,-306.438199
256.864461,-444.123565,-8882.471304,0.000000
256.864789,0.000000,-8956.491898,229.828649
256.865117,222.061783,-9178.553681,0.000000
256.865444,1110.308913,-9326.594869,536.266849
256.865772,1036.288319,-9400.615463,842.705048
256.866099,1480.411884,-9252.574275,995.924147
256.866427,1406.391290,-9474.636058,995.924147
256.866755,1480.411884,-9548.656652,1225.752797
256.867082,1924.535449,-9326.594869,1455.581446
256.867410,1628.453072,-9252.574275,1225.752797
256.867738,1184.329507,-9474.636058,1225.752797
256.868065,814.226536,-9400.615463,1532.190996
256.868393,296.082377,-9326.594869,1455.581446
256.868720,370.102971,-9178.553681,1149.143247
256.869048,-888.247130,-8956.491898,842.705048
256.869376,-1184.329507,-9400.615463,842.705048
256.869703,-1628.453072,-8956.491898,536.266849
256.870031,-2294.638420,-9178.553681,536.266849
256.870358,-2368.659014,-8808.450710,383.047749
256.870686,-2442.679609,-8586.388927,76.609550
256.871014,-2590.720797,-8956.491898,153.219100
256.871341,-2220.617826,-8438.347739,0.000000
256.871669,-2368.659014,-8586.388927,0.000000
256.871997,-1776.494261,-8438.347739,0.000000
256.872324,-1258.350101,-8290.306550,76.609550
256.872652,-962.267725,-8512.368333,76.609550
256.872979,-740.205942,-8808.450710,459.657299
256.873307,-296.082377,-9104.533087,306.438199
256.873635,74.020594,-9326.594869,612.876398
256.873962,962.267725,-8956.491898,383.047749
256.874290,1036.288319,-9400.615463,766.095498
256.874617,1332.370696,-9326.594869,995.924147
256.874945,1702.473667,-9474.636058,842.705048
256.875273,1924.535449,-9622.677246,1302.362347
256.875600,1924.535449,-9622.677246,1302.362347
256.875928,1332.370696,-9474.636058,1915.238745
256.876256,1110.308913,-9622.677246,1455.581446
256.876583,814.226536,-9696.697840,1149.143247
256.876911,370.102971,-9622.677246,1149.143247
256.877238,-222.061783,-9770.718434,1302.362347
256.877566,-444.123565,-9030.512492,766.095498
256.877894,-1554.432478,-9252.574275,689.485948
256.878221,-1258.350101,-9104.533087,306.438199
256.878549,-1702.473667,-9178.553681,229.828649
256.878876,-2146.597232,-8808.450710,0.000000
256.879204,-1998.556043,-8068.244768,-306.438199
256.879532,-2072.576638,-8586.388927,0.000000
256.879859,-1702.473667,-8216.285956,-306.438199
256.880187,-1480.411884,-8586.388927,-153.219100
256.880515,-1110.308913,-8364.327145,0.000000
256.880842,-1184.329507,-8660.409521,919.314598
256.881170,-222.061783,-8808.450710,153.219100
256.881497,-296.082377,-8808.450710,459.657299
256.881825,74.020594,-9178.553681,689.485948
256.882153,296.082377,-9178.553681,612.876398
256.882480,740.205942,-9326.594869,1149.143247
256.882808,962.267725,-9474.636058,1685.410096
256.883135,1184.329507,-9474.636058,766.095498
256.883463,1406.391290,-9474.636058,1302.362347
256.883791,1628.453072,-9548.656652,1455.581446
256.884118,1480.411884,-9548.656652,1378.971896
256.884446,1554.432478,-9474.636058,1685.410096
256.884774,740.205942,-9400.615463,1608.800546
256.885101,222.061783,-9696.697840,1302.362347
256.885429,-222.061783,-9622.677246,995.924147
256.885756,-888.247130,-9400.615463,1149.143247
256.886084,-666.185348,-9104.533087,766.095498
256.886412,-1702.473667,-9326.594869,689.485948
256.886739,-2146.597232,-9030.512492,229.828649
256.887067,-2368.659014,-8808.450710,76.609550
256.887394,-2442.679609,-8438.347739,0.000000
256.887722,-2220.617826,-8142.265362,0.000000
256.888050,-1850.514855,-8364.327145,-306.438199
256.888377,-1702.473667,-8364.327145,-153.219100
256.888705,-1184.329507,-8586.388927,-306.438199
256.889033,-814.226536,-8290.306550,76.609550
256.889360,-814.226536,-8512.368333,459.657299
256.889688,-296.082377,-8586.388927,766.095498
256.890015,-296.082377,-9252.574275,229.828649
256.890343,222.061783,-9474.636058,229.828649
256.890671,296.082377,-9474.636058,229.828649
256.890998,814.226536,-9770.718434,459.657299
256.891326,1628.453072,-9918.759623,689.485948
256.891653,1776.494261,-9696.697840,1072.533697
256.891981,1924.535449,-9474.636058,919.314598
256.892309,1702.473667,-9622.677246,842.705048
256.892636,1628.453072,-9770.718434,1149.143247
256.892964,1480.411884,-9474.636058,1762.019645
256.893292,1110.308913,-9474.636058,1072.533697
256.893619,518.144159,-9474.636058,766.095498
256.893947,0.000000,-9474.636058,842.705048
256.894274,-1036.288319,-9474.636058,612.876398
256.894602,-740.205942,-9252.574275,229.828649
256.894930,-1702.473667,-8512.368333,153.219100
256.895257,-2072.576638,-8956.491898,0.000000
256.895585,-1998.556043,-8882.471304,-383.047749
256.895912,-1998.556043,-8586.388927,-306.438199
256.896240,-2368.659014,-8290.306550,-689.485948
256.896568,-1258.350101,-8216.285956,-229.828649
256.896895,-1776.494261,-8438.347739,-153.219100
256.897223,-1258.350101,-8734.430116,-536.266849
256.897551,-518.144159,-8586.388927,0.000000
256.897878,-592.164754,-8660.409521,0.000000
256.898206,-222.061783,-8586.388927,306.438199
256.898533,222.061783,-9030.512492,383.047749
256.898861,444.123565,-9252.574275,536.266849
256.899189,962.267725,-9474.636058,919.314598
256.899516,1110.308913,-9548.656652,1378.971896
256.899844,1258.350101,-9548.656652,995.924147
256.900171,1480.411884,-9252.574275,1608.800546
256.900499,1628.453072,-9474.636058,1685.410096
256.900827,1480.411884,-9474.636058,1608.800546
256.901154,1406.391290,-9548.656652,1225.752797
256.901482,666.185348,-9474.636058,1915.238745
256.901810,370.102971,-9474.636058,1455.581446
256.902137,-444.123565,-9326.594869,995.924147
256.902465,-1036.288319,-9326.594869,1225.752797
256.902792,-1110.308913,-9252.574275,842.705048
256.903120,-2072.576638,-8882.471304,689.485948
256.903448,-1776.494261,-9178.553681,536.266849
256.903775,-2294.638420,-8734.430116,76.609550
256.904103,-2368.659014,-8808.450710,153.219100
256.904430,-2220.617826,-8956.491898,-153.219100
256.904758,-1998.556043,-8660.409521,153.219100
256.905086,-1406.391290,-8290.306550,306.438199
256.905413,-1480.411884,-8512.368333,229.828649
256.905741,-962.267725,-8660.409521,229.828649
256.906069,-888.247130,-9030.512492,0.000000
256.906396,-370.102971,-8956.491898,229.828649
256.906724,0.000000,-9104.533087,229.828649
256.907051,518.144159,-8882.471304,383.047749
256.907379,592.164754,-9400.615463,536.266849
256.907707,1332.370696,-9770.718434,536.266849
256.908034,1554.432478,-9474.636058,919.314598
256.908362,1406.391290,-9104.533087,1302.362347
256.908689,1554.432478,-9548.656652,1608.800546
256.909017,1702.473667,-9622.677246,1072.533697
256.909345,1480.411884,-9918.759623,1225.752797
256.909672,1110.308913,-9696.697840,1072.533697
256.910000,666.185348,-9770.718434,1532.190996
256.910328,296.082377,-9696.697840,1149.143247
256.910655,-296.082377,-9770.718434,1302.362347
256.910983,-666.185348,-9326.594869,229.828649
256.911310,-1480.411884,-9326.594869,689.485948
256.911638,-1406.391290,-8660.409521,0.000000
256.911966,-1702.473667,-8808.450710,0.000000
256.912293,-1924.535449,-8734.430116,0.000000
256.912621,-1702.473667,-8438.347739,-383.047749
256.912948,-1850.514855,-8438.347739,0.000000
256.913276,-1480.411884,-8290.306550,-536.266849
256.913604,-962.267725,-8068.244768,76.609550
256.913931,-1036.288319,-8438.347739,0.000000
256.914259,-518.144159,-8660.409521,229.828649
256.914587,-148.041188,-8734.430116,383.047749
256.914914,0.000000,-8956.491898,459.657299
256.915242,518.144159,-8882.471304,1072.533697
256.915569,740.205942,-9178.553681,842.705048
256.915897,888.247130,-9474.636058,1149.143247
256.916225,888.247130,-9474.636058,1072.533697
256.916552,1258.350101,-9326.594869,1302.362347
256.916880,1110.308913,-9474.636058,1225.752797
256.917207,1480.411884,-9474.636058,1072.533697
256.917535,1332.370696,-9474.636058,1455.581446
256.917863,740.205942,-9474.636058,1302.362347
256.918190,370.102971,-9400.615463,1302.362347
256.918518,0.000000,-9400.615463,1302.362347
256.918846,-592.164754,-9252.574275,306.438199
256.919173,-1406.391290,-9178.553681,842.705048
256.919501,-1406.391290,-9252.574275,842.705048
256.919828,-1850.514855,-8808.450710,459.657299
256.920156,-2146.597232,-8808.450710,459.657299
256.920484,-2146.597232,-8586.388927,0.000000
256.920811,-2220.617826,-8660.409521,76.609550
256.921139,-2146.597232,-8512.368333,0.000000
256.921466,-1332.370696,-8216.285956,0.000000
256.921794,-1406.391290,-8364.327145,0.000000
256.922122,-1184.329507,-7772.162391,766.095498
256.922449,-592.164754,-8364.327145,306.438199
256.922777,-370.102971,-9178.553681,0.000000
256.923105,0.000000,-9252.574275,536.266849
256.923432,74.020594,-9252.574275,612.876398
256.923760,518.144159,-9548.656652,766.095498
256.924087,592.164754,-9474.636058,919.314598
256.924415,888.247130,-9844.739029,536.266849
256.924743,1184.329507,-9696.697840,919.314598
256.925070,1406.391290,-9696.697840,919.314598
256.925398,1480.411884,-9622.677246,842.705048
256.925725,1184.329507,-9400.615463,1149.143247
256.926053,1036.288319,-9474.636058,995.924147
256.926381,740.205942,-9548.656652,842.705048
256.926708,444.123565,-9104.533087,919.314598
256.927036,0.000000,-9400.615463,612.876398
256.927364,-814.226536,-9178.553681,842.705048
256.927691,-1036.288319,-9326.594869,229.828649
256.928019,-1554.432478,-9104.533087,153.219100
256.928346,-1850.514855,-9178.553681,0.000000
256.928674,-2146.597232,-8882.471304,0.000000
256.929002,-1850.514855,-8586.388927,-306.438199
256.929329,-1924.535449,-8364.327145,0.000000
256.929657,-1480.411884,-8586.388927,-306.438199
256.929984,-1480.411884,-8438.347739,-383.047749
256.930312,-1036.288319,-8512.368333,-383.047749
256.930640,-666.185348,-8660.409521,-229.828649
256.930967,-222.061783,-8438.347739,-306.438199
256.931295,74.020594,-8956.491898,0.000000
256.931623,370.102971,-9104.533087,383.047749
256.931950,740.205942,-9474.636058,459.657299
256.932278,962.267725,-9400.615463,536.266849
256.932605,1258.350101,-9104.533087,1378.971896
256.932933,1554.432478,-9548.656652,995.924147
256.933261,1480.411884,-9548.656652,1072.533697
256.933588,1702.473667,-9622.677246,1225.752797
256.933916,1554.432478,-9474.636058,1532.190996
256.934243,1184.329507,-9030.512492,1685.410096
256.934571,1036.288319,-9252.574275,1455.581446
256.934899,592.164754,-9474.636058,1149.143247
256.935226,-148.041188,-9252.574275,919.314598
256.935554,-666.185348,-9474.636058,995.924147
256.935882,-518.144159,-9474.636058,766.095498
256.936209,-1702.473667,-8956.491898,459.657299
256.936537,-1924.535449,-9104.533087,153.219100
256.936864,-2146.597232,-9104.533087,153.219100
256.937192,-2368.659014,-8882.471304,153.219100
256.937520,-2368.659014,-8734.430116,-153.219100
256.937847,-2368.659014,-8290.306550,229.828649
256.938175,-1776.494261,-8512.368333,76.609550
256.938502,-1702.473667,-8512.368333,76.609550
256.938830,-1332.370696,-8512.368333,153.219100
256.939158,-1258.350101,-8438.347739,153.219100
256.939485,-1036.288319,-8290.306550,536.266849
256.939813,-148.041188,-8956.491898,153.219100
256.940141,74.020594,-9104.533087,536.266849
256.940468,370.102971,-9326.594869,612.876398
256.940796,888.247130,-9400.615463,766.095498
256.941123,1480.411884,-9474.636058,1455.581446
256.941451,1850.514855,-8882.471304,1149.143247
256.941778,1776.494261,-9622.677246,1378.971896
256.942106,1554.432478,-9474.636058,1378.971896
256.942434,1406.391290,-9622.677246,1532.190996
256.942761,1554.432478,-9622.677246,1149.143247
256.943089,888.247130,-9548.656652,1225.752797
256.943416,370.102971,-9548.656652,1072.533697
256.943744,148.041188,-9622.677246,1225.752797
256.944072,-666.185348,-9548.656652,689.485948
256.944399,-1258.350101,-9474.636058,919.314598
256.944727,-1480.411884,-8734.430116,306.438199
256.945054,-2072.576638,-9030.512492,76.609550
256.945382,-1850.514855,-8808.450710,-153.219100
256.945710,-1998.556043,-8660.409521,-306.438199
256.946037,-2146.597232,-8660.409521,-153.219100
256.946365,-1480.411884,-7994.224174,-536.266849
256.946692,-1406.391290,-8216.285956,229.828649
256.947020,-1036.288319,-8290.306550,0.000000
256.947348,-666.185348,-8512.368333,76.609550
256.947675,-592.164754,-8660.409521,0.000000
256.948003,0.000000,-9030.512492,842.705048
256.948330,0.000000,-8734.430116,689.485948
256.948658,370.102971,-9400.615463,919.314598
256.948986,814.226536,-9474.636058,842.705048
256.949313,1036.288319,-9474.636058,919.314598
256.949641,1036.288319,-9622.677246,1225.752797
256.949968,1332.370696,-9474.636058,1838.629195
256.950296,1554.432478,-9548.656652,1455.581446
256.950623,1406.391290,-9400.615463,1608.800546
256.950951,1036.288319,-9548.656652,1378.971896
256.951279,740.205942,-9622.677246,1378.971896
256.951606,222.061783,-9252.574275,1455.581446
256.951934,-370.102971,-9400.615463,995.924147
256.952261,-962.267725,-9474.636058,919.314598
256.952589,-962.267725,-9326.594869,612.876398
256.952917,-1702.473667,-9400.615463,536.266849
256.953244,-2072.576638,-8734.430116,689.485948
256.953572,-2146.597232,-8660.409521,306.438199
256.953899,-2146.597232,-8586.388927,0.000000
256.954227,-2294.638420,-8290.306550,-153.219100
256.954555,-1776.494261,-8142.265362,0.000000
256.954882,-1480.411884,-8586.388927,0.000000
256.955210,-814.226536,-8290.306550,153.219100
256.955537,-814.226536,-8364.327145,0.000000
256.955865,-592.164754,-8660.409521,153.219100
256.956193,-222.061783,-8808.450710,383.047749
256.956520,0.000000,-9252.574275,383.047749
256.956848,370.102971,-9252.574275,459.657299
256.957175,592.164754,-9474.636058,383.047749
256.957503,814.226536,-9696.697840,459.657299
256.957831,1258.350101,-9844.739029,766.095498
256.958158,1258.350101,-9474.636058,689.485948
256.958486,1850.514855,-9400.615463,1072.533697
256.958813,1554.432478,-9622.677246,995.924147
256.959141,1332.370696,-9770.718434,995.924147
256.959468,962.267725,-9474.636058,1072.533697
256.959796,740.205942,-9326.594869,995.924147
256.960124,370.102971,-9474.636058,1302.362347
256.960451,0.000000,-9474.636058,995.924147
256.960779,-814.226536,-9252.574275,612.876398
256.961106,-1702.473667,-9252.574275,612.876398
256.961434,-1480.411884,-8882.471304,0.000000
256.961762,-1850.514855,-8734.430116,76.609550
256.962089,-1850.514855,-8882.471304,-306.438199
256.962417,-1924.535449,-8660.409521,0.000000
256.962744,-2072.576638,-8734.430116,-383.047749
256.963072,-1554.432478,-8438.347739,-842.705048
256.963400,-1406.391290,-8364.327145,-383.047749
256.963727,-814.226536,-8290.306550,0.000000
256.964055,-740.205942,-8586.388927,-229.828649
256.964382,-370.102971,-8808.450710,0.000000
256.964710,74.020594,-9252.574275,0.000000
256.965038,296.082377,-9178.553681,306.438199
256.965365,888.247130,-9326.594869,919.314598
256.965693,888.247130,-9474.636058,995.924147
256.966020,1184.329507,-9696.697840,995.924147
256.966348,1480.411884,-9548.656652,1225.752797
256.966675,1554.432478,-9474.636058,1378.971896
256.967003,1554.432478,-9252.574275,1378.971896
256.967331,1480.411884,-9400.615463,1685.410096
256.967658,1110.308913,-9548.656652,1608.800546
256.967986,888.247130,-9326.594869,1455.581446
256.968313,370.102971,-8956.491898,1455.581446
256.968641,0.000000,-9030.512492,1225.752797
256.968969,-814.226536,-9326.594869,1455.581446
256.969296,-1332.370696,-9104.533087,766.095498
256.969624,-1702.473667,-9104.533087,766.095498
256.969951,-2146.597232,-8808.450710,459.657299
256.970279,-2146.597232,-8956.491898,76.609550
256.970607,-1998.556043,-8882.471304,76.609550
256.970934,-2442.679609,-8660.409521,0.000000
256.971262,-1998.556043,-8290.306550,0.000000
256.971589,-1998.556043,-8660.409521,0.000000
256.971917,-1850.514855,-8290.306550,0.000000
256.972245,-1110.308913,-8068.244768,0.000000
256.972572,-1184.329507,-8512.368333,76.609550
256.972900,-592.164754,-8734.430116,76.609550
256.973227,-370.102971,-9030.512492,229.828649
256.973555,74.020594,-9400.615463,306.438199
256.973883,518.144159,-8956.491898,612.876398
256.974210,888.247130,-9030.512492,919.314598
256.974538,1480.411884,-9474.636058,842.705048
256.974865,1702.473667,-9622.677246,995.924147
256.975193,1924.535449,-9622.677246,1378.971896
256.975520,1998.556043,-9548.656652,1608.800546
256.975848,1628.453072,-9474.636058,1762.019645
256.976176,1406.391290,-9696.697840,1149.143247
256.976503,1036.288319,-9622.677246,1225.752797
256.976831,296.082377,-9622.677246,995.924147
256.977158,0.000000,-9770.718434,1149.143247
256.977486,-148.041188,-9400.615463,536.266849
256.977814,-1480.411884,-9474.636058,766.095498
256.978141,-1332.370696,-9030.512492,153.219100
256.978469,-1776.494261,-8956.491898,76.609550
256.978796,-1850.514855,-8660.409521,-153.219100
256.979124,-1554.432478,-8438.347739,-306.438199
256.979452,-1924.535449,-8586.388927,153.219100
256.979779,-1850.514855,-8142.265362,-383.047749
256.980107,-1480.411884,-8364.327145,0.000000
256.980434,-1110.308913,-8290.306550,-153.219100
256.980762,-888.247130,-8808.450710,-229.828649
256.981090,-592.164754,-8660.409521,612.876398
256.981417,-370.102971,-8882.471304,536.266849
256.981745,74.020594,-8882.471304,689.485948
256.982072,222.061783,-9178.553681,766.095498
256.982400,592.164754,-9178.553681,1072.533697
256.982727,962.267725,-9548.656652,1838.629195
256.983055,962.267725,-9474.636058,1378.971896
256.983383,1036.288319,-9548.656652,1455.581446
256.983710,1110.308913,-9474.636058,1532.190996
256.984038,1258.350101,-9474.636058,1838.629195
256.984365,1036.288319,-9770.718434,1532.190996
256.984693,740.205942,-9474.636058,1685.410096
256.985021,0.000000,-9474.636058,1532.190996
256.985348,-740.205942,-9474.636058,919.314598
256.985676,-814.226536,-9474.636058,1149.143247
256.986003,-962.267725,-9104.533087,1302.362347
256.986331,-2146.597232,-8882.471304,536.266849
256.986659,-1628.453072,-8882.471304,153.219100
256.986986,-2294.638420,-8882.471304,306.438199
256.987314,-1998.556043,-8512.368333,153.219100
256.987641,-1628.453072,-8290.306550,0.000000
256.987969,-1776.494261,-8290.306550,0.000000
256.988297,-1628.453072,-8290.306550,-153.219100
256.988624,-1110.308913,-8438.347739,0.000000
256.988952,-666.185348,-8660.409521,0.000000
256.989279,-592.164754,-8586.388927,0.000000
256.989607,148.041188,-8808.450710,766.095498
256.989935,-148.041188,-9474.636058,229.828649
256.990262,148.041188,-9622.677246,383.047749
256.990590,592.164754,-9622.677246,612.876398
256.990917,814.226536,-9548.656652,766.095498
256.991245,1110.308913,-9992.780217,689.485948
256.991572,1184.329507,-9844.739029,842.705048
256.991900,1480.411884,-9622.677246,1149.143247
256.992228,1406.391290,-9474.636058,1149.143247
256.992555,1258.350101,-9548.656652,1072.533697
256.992883,592.164754,-9474.636058,1455.581446
256.993210,1036.288319,-9548.656652,1378.971896
256.993538,222.061783,-9252.574275,1149.143247
256.993866,0.000000,-9400.615463,842.705048
256.994193,-1036.288319,-9252.574275,306.438199
256.994521,-1554.432478,-9252.574275,383.047749
256.994848,-1258.350101,-8956.491898,76.609550
256.995176,-1702.473667,-9030.512492,229.828649
256.995504,-2294.638420,-8808.450710,-383.047749
256.995831,-1924.535449,-8512.368333,-306.438199
256.996159,-2072.576638,-8512.368333,-306.438199
256.996486,-1184.329507,-8290.306550,0.000000
256.996814,-1110.308913,-8438.347739,-383.047749
256.997142,-888.247130,-8660.409521,-459.657299
256.997469,-740.205942,-8586.388927,0.000000
256.997797,-444.123565,-8808.450710,0.000000
256.998124,296.082377,-8956.491898,842.705048
256.998452,592.164754,-8956.491898,76.609550
256.998779,518.144159,-8956.491898,689.485948
256.999107,962.267725,-9474.636058,766.095498
256.999435,1110.308913,-9696.697840,1149.143247
256.999762,1258.350101,-9622.677246,1378.971896
257.000090,1776.494261,-9252.574275,919.314598
257.000417,1554.432478,-9474.636058,1378.971896
257.000745,1258.350101,-9474.636058,1532.190996
257.001073,1184.329507,-9178.553681,1685.410096
257.001400,814.226536,-9178.553681,1302.362347
257.001728,74.020594,-8808.450710,1685.410096
257.002055,-370.102971,-9252.574275,1149.143247
257.002383,-1184.329507,-9178.553681,1072.533697
257.002711,-1184.329507,-9178.553681,995.924147
257.003038,-1480.411884,-9104.533087,383.047749
257.003366,-2294.638420,-8660.409521,536.266849
257.003693,-1998.556043,-8956.491898,0.000000
257.004021,-1998.556043,-8734.430116,76.609550
257.004349,-2442.679609,-8586.388927,76.609550
257.004676,-1924.535449,-8586.388927,0.000000
257.005004,-2072.576638,-8290.306550,229.828649
257.005331,-1628.453072,-8882.471304,-306.438199
257.005659,-1184.329507,-8512.368333,0.000000
257.005987,-1110.308913,-8660.409521,76.609550
257.006314,-444.123565,-9030.512492,76.609550
257.006642,-222.061783,-9326.594869,229.828649
257.006969,0.000000,-9400.615463,689.485948
257.007297,518.144159,-9252.574275,383.047749
257.007624,1258.350101,-9400.615463,842.705048
257.007952,1554.432478,-9622.677246,919.314598
257.008280,1628.453072,-9622.677246,1149.143247
257.008607,2072.576638,-9474.636058,1378.971896
257.008935,2072.576638,-9622.677246,1378.971896
257.009262,1628.453072,-9696.697840,1378.971896
257.009590,1332.370696,-9844.739029,1378.971896
257.009918,814.226536,-9770.718434,1225.752797
257.010245,518.144159,-10066.800811,842.705048
257.010573,-592.164754,-9474.636058,1149.143247
257.010900,-370.102971,-9474.636058,612.876398
257.011228,-1258.350101,-9696.697840,536.266849
257.011556,-1480.411884,-9252.574275,0.000000
257.011883,-2146.597232,-9252.574275,612.876398
257.012211,-1776.494261,-8438.347739,-153.219100
257.012538,-2146.597232,-8734.430116,-459.657299
257.012866,-2146.597232,-8364.327145,0.000000
257.013194,-1998.556043,-8068.244768,-383.047749
257.013521,-1480.411884,-8068.244768,0.000000
257.013849,-962.267725,-7846.182985,0.000000
257.014176,-962.267725,-8586.388927,76.609550
257.014504,-740.205942,-8586.388927,306.438199
257.014832,-148.041188,-8882.471304,459.657299
257.015159,0.000000,-9178.553681,842.705048
257.015487,592.164754,-9178.553681,612.876398
257.015814,592.164754,-9400.615463,919.314598
257.016142,962.267725,-9474.636058,1302.362347
257.016469,1258.350101,-9622.677246,1378.971896
257.016797,1332.370696,-9400.615463,1302.362347
257.017125,1702.473667,-9400.615463,1532.190996
257.017452,1406.391290,-9548.656652,1455.581446
257.017780,1036.288319,-9622.677246,1532.190996
257.018107,814.226536,-9548.656652,1608.800546
257.018435,222.061783,-9400.615463,1378.971896
257.018763,0.000000,-9252.574275,1455.581446
257.019090,-592.164754,-9178.553681,919.314598
257.019418,-1332.370696,-9252.574275,689.485948
257.019745,-1332.370696,-8956.491898,383.047749
257.020073,-2072.576638,-8956.491898,459.657299
257.020401,-1998.556043,-8660.409521,229.828649
257.020728,-1998.556043,-8364.327145,-229.828649
257.021056,-2146.597232,-8364.327145,0.000000
257.021383,-1554.432478,-7920.203579,0.000000
257.021711,-1776.494261,-8216.285956,0.000000
257.022039,-1332.370696,-8216.285956,0.000000
257.022366,-666.185348,-8512.368333,153.219100
257.022694,-666.185348,-8734.430116,229.828649
257.023021,0.000000,-8882.471304,383.047749
257.023349,0.000000,-9178.553681,536.266849
257.023676,74.020594,-9400.615463,536.266849
257.024004,518.144159,-9474.636058,766.095498
257.024332,666.185348,-9474.636058,1072.533697
257.024659,814.226536,-9474.636058,919.314598
257.024987,1258.350101,-9696.697840,766.095498
257.025314,1480.411884,-9548.656652,1149.143247
257.025642,1628.453072,-9474.636058,1072.533697
257.025970,1480.411884,-9400.615463,1072.533697
257.026297,740.205942,-9474.636058,919.314598
257.026625,518.144159,-9696.697840,766.095498
257.026952,0.000000,-9474.636058,919.314598
257.027280,0.000000,-9474.636058,766.095498
257.027608,-962.267725,-9030.512492,383.047749
257.027935,-1480.411884,-9474.636058,689.485948
257.028263,-1480.411884,-8882.471304,0.000000
257.028590,-1850.514855,-9104.533087,0.000000
257.028918,-1924.535449,-8586.388927,0.000000
257.029246,-1998.556043,-8512.368333,0.000000
257.029573,-1850.514855,-8512.368333,-306.438199
257.029901,-1406.391290,-8216.285956,-689.485948
257.030228,-1332.370696,-8438.347739,-306.438199
257.030556,-740.205942,-8586.388927,-306.438199
257.030884,-222.061783,-8882.471304,-383.047749
257.031211,-148.041188,-8660.409521,76.609550
257.031539,0.000000,-8956.491898,306.438199
257.031866,370.102971,-9178.553681,459.657299
257.032194,666.185348,-9252.574275,612.876398
257.032521,592.164754,-9178.553681,766.095498
257.032849,1036.288319,-9252.574275,1225.752797
257.033177,1332.370696,-9400.615463,1072.533697
257.033504,1332.370696,-9326.594869,1149.143247
257.033832,1406.391290,-9252.574275,1225.752797
257.034159,1480.411884,-9252.574275,1685.410096
257.034487,1406.391290,-9474.636058,1455.581446
257.034815,740.205942,-9252.574275,1225.752797
257.035142,296.082377,-9252.574275,1149.143247
257.035470,0.000000,-9030.512492,842.705048
257.035797,-888.247130,-9104.533087,919.314598
257.036125,-740.205942,-9400.615463,383.047749
257.036453,-1702.473667,-9474.636058,689.485948
257.036780,-2146.597232,-9104.533087,383.047749
257.037108,-2294.638420,-8734.430116,76.609550
257.037435,-2368.659014,-8438.347739,76.609550
257.037763,-2220.617826,-9178.553681,-612.876398
257.038091,-2220.617826,-8290.306550,76.609550
257.038418,-1776.494261,-8438.347739,-153.219100
257.038746,-1554.432478,-8216.285956,-229.828649
257.039073,-962.267725,-8586.388927,0.000000
257.039401,-666.185348,-8734.430116,689.485948
257.039728,-370.102971,-8956.491898,459.657299
257.040056,0.000000,-8808.450710,383.047749
257.040384,222.061783,-9104.533087,306.438199
257.040711,518.144159,-9326.594869,612.876398
257.041039,962.267725,-9548.656652,995.924147
257.041366,1332.370696,-9030.512492,1532.190996
257.041694,1850.514855,-9474.636058,1455.581446
257.042022,1850.514855,-9548.656652,1302.362347
257.042349,1702.473667,-9474.636058,1149.143247
257.042677,1480.411884,-9696.697840,1225.752797
257.043004,1184.329507,-9400.615463,919.314598
257.043332,888.247130,-9622.677246,1149.143247
257.043660,148.041188,-9918.759623,689.485948
257.043987,-444.123565,-9770.718434,919.314598
257.044315,-518.144159,-9326.594869,536.266849
257.044642,-1554.432478,-9326.594869,536.266849
257.044970,-1110.308913,-9326.594869,76.609550
257.045297,-1850.514855,-9030.512492,0.000000
257.045625,-2220.617826,-8808.450710,-229.828649
257.045953,-2146.597232,-8586.388927,-383.047749
257.046280,-1554.432478,-8290.306550,-459.657299
257.046608,-1480.411884,-8068.244768,-306.438199
257.046935,-1554.432478,-8216.285956,0.000000
257.047263,-1110.308913,-8512.368333,-229.828649
257.047591,-888.247130,-8438.347739,153.219100
257.047918,-222.061783,-8808.450710,229.828649
257.048246,74.020594,-8660.409521,459.657299
257.048573,222.061783,-8956.491898,995.924147
257.048901,370.102971,-9474.636058,919.314598
257.049229,888.247130,-9474.636058,995.924147
257.049556,1110.308913,-9474.636058,1149.143247
257.049884,1332.370696,-8956.491898,1762.019645
257.050211,1702.473667,-9548.656652,1455.581446
257.050539,1480.411884,-9622.677246,1455.581446
257.050866,1554.432478,-9622.677246,1302.362347
257.051194,1258.350101,-9474.636058,1378.971896
257.051522,740.205942,-9400.615463,1378.971896
257.051849,0.000000,-9844.739029,1608.800546
257.052177,-296.082377,-9622.677246,1302.362347
257.052504,-1036.288319,-9252.574275,536.266849
257.052832,-1850.514855,-9178.553681,766.095498
257.053160,-1998.556043,-8660.409521,612.876398
257.053487,-2220.617826,-8882.471304,612.876398
257.053815,-2220.617826,-8882.471304,76.609550
257.054142,-2072.576638,-8290.306550,0.000000
257.054470,-2072.576638,-8364.327145,0.000000
257.054798,-1554.432478,-8142.265362,0.000000
257.055125,-1480.411884,-8142.265362,383.047749
257.055453,-1258.350101,-8438.347739,0.000000
257.055780,-740.205942,-8512.368333,0.000000
257.056108,-296.082377,-8808.450710,76.609550
257.056435,-444.123565,-9030.512492,306.438199
257.056763,0.000000,-9326.594869,383.047749
257.057091,74.020594,-9252.574275,766.095498
257.057418,370.102971,-9622.677246,766.095498
257.057746,888.247130,-9844.739029,689.485948
257.058073,1184.329507,-9696.697840,1072.533697
257.058401,1628.453072,-10362.883188,1225.752797
257.058729,1776.494261,-9548.656652,1302.362347
257.059056,1332.370696,-9622.677246,995.924147
257.059384,1110.308913,-9548.656652,995.924147
257.059711,666.185348,-9548.656652,919.314598
257.060039,296.082377,-9770.718434,842.705048
257.060366,-222.061783,-9030.512492,306.438199
257.060694,-370.102971,-9474.636058,766.095498
257.061022,-296.082377,-9178.553681,383.047749
257.061349,-1702.473667,-9030.512492,153.219100
257.061677,-1406.391290,-9178.553681,0.000000
257.062004,-1554.432478,-8512.368333,229.828649
257.062332,-2072.576638,-8586.388927,-459.657299
257.062660,-1924.535449,-8660.409521,-689.485948
257.062987,-1554.432478,-8660.409521,-229.828649
257.063315,-1554.432478,-8142.265362,-919.314598
257.063642,-888.247130,-8660.409521,76.609550
257.063970,-296.082377,-8290.306550,-383.047749
257.064298,-444.123565,-8586.388927,-153.219100
257.064625,0.000000,-9178.553681,76.609550
257.064953,74.020594,-9030.512492,306.438199
257.065280,888.247130,-9252.574275,229.828649
257.065608,1184.329507,-9252.574275,842.705048
257.065935,888.247130,-9474.636058,995.924147
257.066263,1332.370696,-9548.656652,995.924147
257.066591,1406.391290,-9326.594869,1225.752797
257.066918,1332.370696,-9252.574275,995.924147
257.067246,1554.432478,-9326.594869,1685.410096
257.067573,1406.391290,-9326.594869,1608.800546
257.067901,962.267725,-9400.615463,1455.581446
257.068229,592.164754,-9326.594869,1455.581446
257.068556,0.000000,-9252.574275,1072.533697
257.068884,-222.061783,-8956.491898,1838.629195
257.069211,-1036.288319,-9178.553681,612.876398
257.069539,-1998.556043,-9104.533087,766.095498
257.069866,-1924.535449,-8882.471304,229.828649
257.070194,-2368.659014,-8734.430116,306.438199
257.070522,-2442.679609,-9104.533087,0.000000
257.070849,-2442.679609,-8068.244768,76.609550
257.071177,-2368.659014,-8660.409521,0.000000
257.071504,-1998.556043,-8512.368333,-306.438199
257.071832,-1924.535449,-8364.327145,-306.438199
257.072160,-962.267725,-8586.388927,0.000000
257.072487,-1110.308913,-8364.327145,76.609550
257.072815,-518.144159,-8882.471304,76.609550
257.073142,-444.123565,-9252.574275,0.000000
257.073470,296.082377,-9178.553681,459.657299
257.073798,518.144159,-9400.615463,153.219100
257.074125,1480.411884,-9400.615463,995.924147
257.074453,1332.370696,-9548.656652,612.876398
257.074780,1480.411884,-9770.718434,842.705048
257.075108,2220.617826,-9622.677246,1225.752797
257.075435,1998.556043,-9696.697840,1072.533697
257.075763,1998.556043,-9918.759623,1455.581446
257.076091,1480.411884,-9622.677246,995.924147
257.076418,1110.308913,-9770.718434,1149.143247
257.076746,518.144159,-9622.677246,842.705048
257.077073,0.000000,-9918.759623,1225.752797
257.077401,-370.102971,-9474.636058,919.314598
257.077729,-888.247130,-9622.677246,536.266849
257.078056,-1258.350101,-8956.491898,536.266849
257.078384,-2072.576638,-9252.574275,0.000000
257.078711,-1924.535449,-9252.574275,0.000000
257.079039,-2220.617826,-8068.244768,0.000000
257.079367,-1924.535449,-8808.450710,-306.438199
257.079694,-1924.535449,-8364.327145,-459.657299
257.080022,-1850.514855,-8882.471304,-306.438199
257.080349,-1554.432478,-8142.265362,-383.047749
257.080677,-666.185348,-8438.347739,0.000000
257.081004,-962.267725,-8734.430116,76.609550
257.081332,-370.102971,-8586.388927,689.485948
257.081660,0.000000,-8808.450710,306.438199
257.081987,296.082377,-9178.553681,536.266849
257.082315,888.247130,-9474.636058,842.705048
257.082642,1332.370696,-9770.718434,842.705048
257.082970,1184.329507,-9696.697840,1532.190996
257.083298,1406.391290,-9548.656652,1149.143247
257.083625,1480.411884,-10066.800811,1378.971896
257.083953,1702.473667,-9548.656652,1225.752797
257.084280,1702.473667,-10362.883188,1378.971896
257.084608,1184.329507,-9400.615463,1685.410096
257.084935,1036.288319,-9770.718434,1685.410096
257.085263,-518.144159,-9326.594869,689.485948
257.085591,-592.164754,-9770.718434,1455.581446
257.085918,-814.226536,-8882.471304,766.095498
257.086246,-1998.556043,-9252.574275,842.705048
257.086573,-1628.453072,-9252.574275,306.438199
257.086901,-1998.556043,-8734.430116,76.609550
257.087229,-1998.556043,-8956.491898,229.828649
257.087556,-2664.741391,-8142.265362,0.000000
257.087884,-2368.659014,-8660.409521,536.266849
257.088211,-1850.514855,-8216.285956,-306.438199
257.088539,-1628.453072,-7772.162391,0.000000
257.088867,-1258.350101,-8586.388927,0.000000
257.089194,-962.267725,-8364.327145,306.438199
257.089522,-222.061783,-8364.327145,536.266849
257.089849,-370.102971,-8734.430116,612.876398
257.090177,0.000000,-9400.615463,459.657299
257.090504,444.123565,-9400.615463,383.047749
257.090832,666.185348,-9474.636058,842.705048
257.091160,814.226536,-9400.615463,919.314598
257.091487,1702.473667,-9622.677246,1072.533697
257.091815,1406.391290,-9622.677246,1149.143247
257.092142,1406.391290,-9548.656652,919.314598
257.092470,1776.494261,-9844.739029,1302.362347
257.092798,1480.411884,-9844.739029,1072.533697
257.093125,1110.308913,-9622.677246,1149.143247
257.093453,962.267725,-9770.718434,1149.143247
257.093780,-148.041188,-9178.553681,306.438199
257.094108,-518.144159,-9548.656652,1072.533697
257.094435,-814.226536,-9178.553681,459.657299
257.094763,-1554.432478,-8956.491898,383.047749
257.095091,-1480.411884,-8808.450710,229.828649
257.095418,-1554.432478,-8882.471304,-229.828649
257.095746,-2072.576638,-8660.409521,-383.047749
257.096073,-1998.556043,-8586.388927,-536.266849
257.096401,-1332.370696,-8512.368333,-919.314598
257.096729,-1554.432478,-8216.285956,-153.219100
257.097056,-1110.308913,-8438.347739,-229.828649
257.097384,-666.185348,-8586.388927,0.000000
257.097711,-666.185348,-9030.512492,0.000000
257.098039,148.041188,-9252.574275,459.657299
257.098367,370.102971,-9104.533087,153.219100
257.098694,444.123565,-9400.615463,612.876398
257.099022,592.164754,-9548.656652,612.876398
257.099349,814.226536,-9696.697840,842.705048
257.099677,1258.350101,-9474.636058,1532.190996
257.100004,1332.370696,-9474.636058,919.314598
257.100332,1406.391290,-9622.677246,1455.581446
257.100660,1258.350101,-9548.656652,1225.752797
257.100987,1184.329507,-9326.594869,1532.190996
257.101315,814.226536,-9400.615463,1378.971896
257.101642,296.082377,-9030.512492,1225.752797
257.101970,0.000000,-9252.574275,1225.752797
257.102298,-444.123565,-9252.574275,1149.143247
257.102625,-1110.308913,-9030.512492,689.485948
257.102953,-1850.514855,-8956.491898,689.485948
257.103280,-1554.432478,-8364.327145,536.266849
257.103608,-2220.617826,-8882.471304,536.266849
257.103936,-2442.679609,-8660.409521,76.609550
257.104263,-1998.556043,-8438.347739,0.000000
257.104591,-2072.576638,-8512.368333,0.000000
257.104918,-1480.411884,-8290.306550,76.609550
257.105246,-1628.453072,-8364.327145,-153.219100
257.105573,-1036.288319,-8142.265362,-306.438199
257.105901,-740.205942,-8660.409521,0.000000
257.106229,-370.102971,-9104.533087,76.609550
257.106556,0.000000,-9252.574275,0.000000
257.106884,148.041188,-9178.553681,536.266849
257.107211,592.164754,-9326.594869,229.828649
257.107539,888.247130,-9474.636058,612.876398
257.107867,1036.288319,-9252.574275,536.266849
257.108194,1554.432478,-9474.636058,919.314598
257.108522,1776.494261,-9030.512492,1532.190996
257.108849,2072.576638,-9474.636058,1149.143247
257.109177,1554.432478,-9474.636058,1225.752797
257.109504,1184.329507,-9548.656652,1225.752797
257.109832,962.267725,-9696.697840,1149.143247
257.110160,370.102971,-9474.636058,1302.362347
257.110487,0.000000,-9030.512492,306.438199
257.110815,-740.205942,-9474.636058,766.095498
257.111142,-666.185348,-9400.615463,612.876398
257.111470,-1480.411884,-9252.574275,153.219100
257.111798,-1924.535449,-8882.471304,153.219100
257.112125,-1924.535449,-8882.471304,153.219100
257.112453,-1776.494261,-8808.450710,-229.828649
