#time,accel_x,accel_y,accel_z
371.024565,-222.061783,-9252.574275,383.047749
371.024893,-222.061783,-9030.512492,766.095498
371.025221,-222.061783,-9252.574275,689.485948
371.025549,-222.061783,-9178.553681,766.095498
371.025877,0.000000,-9622.677246,842.705048
371.026205,0.000000,-9030.512492,459.657299
371.026532,-222.061783,-9104.533087,612.876398
371.026860,-222.061783,-9400.615463,459.657299
371.027188,-296.082377,-9326.594869,383.047749
371.027516,-222.061783,-8956.491898,689.485948
371.027844,0.000000,-9030.512492,459.657299
371.028172,-296.082377,-8956.491898,306.438199
371.028500,-444.123565,-9252.574275,306.438199
371.028828,-222.061783,-9252.574275,536.266849
371.029156,0.000000,-9104.533087,536.266849
371.029483,0.000000,-8660.409521,383.047749
371.029811,0.000000,-9252.574275,306.438199
371.030139,-222.061783,-9326.594869,536.266849
371.030467,-222.061783,-9474.636058,536.266849
371.030795,-222.061783,-8882.471304,459.657299
371.031123,0.000000,-9104.533087,306.438199
371.031451,-592.164754,-8882.471304,766.095498
371.031779,-296.082377,-9474.636058,612.876398
371.032107,-518.144159,-9104.533087,612.876398
371.032434,-222.061783,-8882.471304,536.266849
371.032762,-296.082377,-8882.471304,0.000000
371.033090,-222.061783,-9178.553681,1149.143247
371.033418,-592.164754,-9474.636058,536.266849
371.033746,-814.226536,-9252.574275,459.657299
371.034074,-1406.391290,-9400.615463,-153.219100
371.034402,-1480.411884,-9474.636058,-536.266849
371.034730,-1258.350101,-9252.574275,0.000000
371.035058,-740.205942,-9178.553681,-612.876398
371.035385,-518.144159,-8808.450710,-459.657299
371.035713,-592.164754,-9104.533087,-612.876398
371.036041,-962.267725,-9030.512492,-689.485948
371.036369,-1258.350101,-8512.368333,-1378.971896
371.036697,-1110.308913,-8956.491898,-1378.971896
371.037025,-962.267725,-9252.574275,-1455.581446
371.037353,-740.205942,-9474.636058,-1378.971896
371.037681,-296.082377,-9178.553681,-1455.581446
371.038009,74.020594,-8808.450710,-1225.752797
371.038336,296.082377,-9400.615463,-1532.190996
371.038664,0.000000,-9252.574275,-995.924147
371.038992,0.000000,-9326.594869,-1608.800546
371.039320,0.000000,-9252.574275,-1762.019645
371.039648,518.144159,-9474.636058,-1455.581446
371.039976,0.000000,-9252.574275,-1685.410096
371.040304,74.020594,-9400.615463,-1762.019645
371.040632,592.164754,-9252.574275,-1378.971896
371.040960,592.164754,-8882.471304,-1532.190996
371.041287,740.205942,-9030.512492,-1302.362347
371.041615,444.123565,-8882.471304,-1225.752797
371.041943,74.020594,-9474.636058,-1762.019645
371.042271,0.000000,-9178.553681,-2068.457845
371.042599,0.000000,-9252.574275,-1378.971896
371.042927,-148.041188,-9326.594869,-1685.410096
371.043255,-222.061783,-9178.553681,-1225.752797
371.043583,-518.144159,-9030.512492,-1915.238745
371.043911,-962.267725,-9104.533087,-1915.238745
371.044238,-1036.288319,-9030.512492,-2298.286494
371.044566,-1406.391290,-9104.533087,-2451.505594
371.044894,-1628.453072,-8882.471304,-2681.334243
371.045222,-1480.411884,-9252.574275,-2911.162892
371.045550,-1998.556043,-8882.471304,-3064.381992
371.045878,-2072.576638,-8808.450710,-3140.991542
371.046206,-1998.556043,-9030.512492,-3294.210641
371.046534,-1554.432478,-8882.471304,-3677.258390
371.046862,-1850.514855,-8956.491898,-3064.381992
371.047189,-1628.453072,-8882.471304,-3830.477490
371.047517,-1184.329507,-8956.491898,-3907.087040
371.047845,-592.164754,-8586.388927,-3447.429741
371.048173,148.041188,-9104.533087,-2911.162892
371.048501,888.247130,-8586.388927,-2604.724693
371.048829,1258.350101,-8956.491898,-2451.505594
371.049157,1924.535449,-8808.450710,-2068.457845
371.049485,2294.638420,-9178.553681,-1455.581446
371.049813,2516.700203,-9178.553681,-919.314598
371.050141,2738.761985,-9104.533087,-1302.362347
371.050468,2072.576638,-9696.697840,-766.095498
371.050796,1258.350101,-10066.800811,-1302.362347
371.051124,592.164754,-10140.821405,-1302.362347
371.051452,-370.102971,-10214.842000,-2145.067394
371.051780,-1924.535449,-10288.862594,-2681.334243
371.052108,-2368.659014,-9844.739029,-2987.772442
371.052436,-2368.659014,-9622.677246,-3600.648841
371.052764,-1924.535449,-8808.450710,-3753.867940
371.053092,-666.185348,-7920.203579,-3064.381992
371.053419,518.144159,-7105.977043,-2374.896044
371.053747,1850.514855,-6661.853478,-1302.362347
371.054075,2220.617826,-7179.997637,-612.876398
371.054403,1554.432478,-7846.182985,0.000000
371.054731,222.061783,-9030.512492,306.438199
371.055059,-962.267725,-9696.697840,76.609550
371.055387,-1628.453072,-10436.903782,612.876398
371.055715,-2738.761985,-10658.965565,76.609550
371.056043,-2664.741391,-10658.965565,76.609550
371.056370,-2220.617826,-9918.759623,0.000000
371.056698,-888.247130,-9030.512492,-153.219100
371.057026,740.205942,-7846.182985,0.000000
371.057354,2220.617826,-7476.080014,0.000000
371.057682,2886.803174,-7105.977043,0.000000
371.058010,3108.864956,-7698.141797,689.485948
371.058338,2294.638420,-8586.388927,1072.533697
371.058666,888.247130,-9326.594869,1762.019645
371.058994,-1036.288319,-10510.924376,1608.800546
371.059321,-3256.906145,-11621.233289,1225.752797
371.059649,-4811.338623,-12139.377449,919.314598
371.059977,-5329.482782,-11621.233289,536.266849
371.060305,-4367.215058,-10807.006753,229.828649
371.060633,-3034.844362,-8660.409521,306.438199
371.060961,-740.205942,-7402.059420,383.047749
371.061289,1110.308913,-6439.791695,689.485948
371.061617,2590.720797,-5847.626942,1225.752797
371.061945,2664.741391,-5921.647536,1302.362347
371.062272,1406.391290,-6587.832884,1072.533697
371.062600,0.000000,-7994.224174,1072.533697
371.062928,-1628.453072,-9622.677246,766.095498
371.063256,-2664.741391,-10436.903782,229.828649
371.063584,-3182.885551,-11473.192101,153.219100
371.063912,-2886.803174,-10732.986159,536.266849
371.064240,-1702.473667,-10510.924376,459.657299
371.064568,0.000000,-9770.718434,383.047749
371.064896,1628.453072,-8956.491898,612.876398
371.065223,2442.679609,-8290.306550,689.485948
371.065551,2664.741391,-7920.203579,842.705048
371.065879,1776.494261,-8142.265362,153.219100
371.066207,518.144159,-8882.471304,536.266849
371.066535,-740.205942,-9548.656652,229.828649
371.066863,-1776.494261,-10140.821405,0.000000
371.067191,-1998.556043,-10066.800811,0.000000
371.067519,-814.226536,-9844.739029,0.000000
371.067847,0.000000,-9474.636058,459.657299
371.068174,1406.391290,-8364.327145,612.876398
371.068502,2368.659014,-8142.265362,1302.362347
371.068830,2590.720797,-7698.141797,1532.190996
371.069158,2886.803174,-7772.162391,1838.629195
371.069486,1628.453072,-7994.224174,1608.800546
371.069814,0.000000,-8586.388927,1072.533697
371.070142,-1036.288319,-9252.574275,919.314598
371.070470,-1998.556043,-9622.677246,842.705048
371.070798,-2294.638420,-9252.574275,383.047749
371.071125,-1184.329507,-9326.594869,383.047749
371.071453,-1110.308913,-9326.594869,306.438199
371.071781,-296.082377,-9178.553681,612.876398
371.072109,0.000000,-9178.553681,536.266849
371.072437,-148.041188,-8364.327145,766.095498
371.072765,-148.041188,-8956.491898,766.095498
371.073093,-444.123565,-8882.471304,689.485948
371.073421,-1184.329507,-9030.512492,612.876398
371.073749,-2072.576638,-9252.574275,612.876398
371.074076,-2812.782580,-9178.553681,459.657299
371.074404,-3034.844362,-9104.533087,-459.657299
371.074732,-2738.761985,-9104.533087,-459.657299
371.075060,-1924.535449,-8586.388927,-612.876398
371.075388,-518.144159,-8142.265362,-459.657299
371.075716,888.247130,-7920.203579,0.000000
371.076044,2146.597232,-7624.121203,0.000000
371.076372,2590.720797,-7550.100608,1072.533697
371.076700,2294.638420,-8142.265362,1149.143247
371.077027,1702.473667,-9178.553681,1685.410096
371.077355,444.123565,-10288.862594,1149.143247
371.077683,-666.185348,-11029.068536,842.705048
371.078011,-1332.370696,-11399.171507,612.876398
371.078339,-1480.411884,-11177.109724,76.609550
371.078667,-1036.288319,-10732.986159,0.000000
371.078995,518.144159,-9844.739029,76.609550
371.079323,1702.473667,-9178.553681,229.828649
371.079650,1702.473667,-8364.327145,-383.047749
371.079978,1702.473667,-8216.285956,76.609550
371.080306,1184.329507,-8216.285956,383.047749
371.080634,370.102971,-8660.409521,153.219100
371.080961,-814.226536,-8882.471304,459.657299
371.081289,-1554.432478,-9844.739029,0.000000
371.081617,-2664.741391,-9992.780217,0.000000
371.081945,-3404.947333,-10140.821405,-536.266849
371.082272,-3108.864956,-9548.656652,-383.047749
371.082600,-1924.535449,-8956.491898,-459.657299
371.082928,222.061783,-8438.347739,-306.438199
371.083255,814.226536,-7402.059420,153.219100
371.083583,2146.597232,-7254.018232,766.095498
371.083911,2590.720797,-7550.100608,1302.362347
371.084239,2146.597232,-8216.285956,1838.629195
371.084566,1110.308913,-9400.615463,1302.362347
371.084894,-296.082377,-10362.883188,1302.362347
371.085222,-1850.514855,-11177.109724,1149.143247
371.085550,-2368.659014,-11251.130318,1072.533697
371.085877,-1776.494261,-10807.006753,995.924147
371.086205,-592.164754,-9770.718434,842.705048
371.086533,814.226536,-9252.574275,1378.971896
371.086860,1554.432478,-8734.430116,1149.143247
371.087188,1628.453072,-8586.388927,1149.143247
371.087516,1184.329507,-8142.265362,1455.581446
371.087844,518.144159,-7698.141797,1149.143247
371.088171,-666.185348,-8142.265362,1378.971896
371.088499,-1924.535449,-8808.450710,1072.533697
371.088827,-2960.823768,-9252.574275,536.266849
371.089155,-3701.029710,-9104.533087,306.438199
371.089482,-3256.906145,-9030.512492,536.266849
371.089810,-2072.576638,-9104.533087,459.657299
371.090138,-1110.308913,-7920.203579,229.828649
371.090465,148.041188,-8068.244768,383.047749
371.090793,888.247130,-7994.224174,689.485948
371.091121,1258.350101,-7846.182985,842.705048
371.091449,1628.453072,-8290.306550,1149.143247
371.091776,666.185348,-8808.450710,995.924147
371.092104,0.000000,-9770.718434,1225.752797
371.092432,-1036.288319,-10362.883188,995.924147
371.092760,-2072.576638,-10658.965565,459.657299
371.093087,-2220.617826,-10362.883188,459.657299
371.093415,-1184.329507,-10510.924376,459.657299
371.093743,-370.102971,-9622.677246,-229.828649
371.094070,296.082377,-9030.512492,-306.438199
371.094398,1628.453072,-8512.368333,76.609550
371.094726,1998.556043,-8068.244768,383.047749
371.095054,1776.494261,-7402.059420,766.095498
371.095381,1554.432478,-8364.327145,536.266849
371.095709,296.082377,-8882.471304,229.828649
371.096037,-1332.370696,-9474.636058,229.828649
371.096365,-2294.638420,-9844.739029,0.000000
371.096692,-2664.741391,-10288.862594,-153.219100
371.097020,-1850.514855,-9548.656652,-919.314598
371.097348,-222.061783,-9252.574275,-689.485948
371.097675,1258.350101,-8438.347739,-153.219100
371.098003,2368.659014,-7920.203579,306.438199
371.098331,2960.823768,-8290.306550,306.438199
371.098659,2368.659014,-7550.100608,1225.752797
371.098986,1776.494261,-8808.450710,995.924147
371.099314,888.247130,-9548.656652,1072.533697
371.099642,-370.102971,-10436.903782,766.095498
371.099970,-1554.432478,-10510.924376,383.047749
371.100297,-2146.597232,-10658.965565,536.266849
371.100625,-1776.494261,-10732.986159,459.657299
371.100953,-1110.308913,-9770.718434,383.047749
371.101280,-370.102971,-9104.533087,536.266849
371.101608,222.061783,-8290.306550,306.438199
371.101936,666.185348,-8216.285956,995.924147
371.102264,740.205942,-7476.080014,536.266849
371.102591,444.123565,-7920.203579,1149.143247
371.102919,0.000000,-8216.285956,1072.533697
371.103247,-1184.329507,-8882.471304,995.924147
371.103575,-2368.659014,-9474.636058,689.485948
371.103902,-3404.947333,-9548.656652,766.095498
371.104230,-3330.926739,-9548.656652,536.266849
371.104558,-2294.638420,-9252.574275,459.657299
371.104885,-740.205942,-8660.409521,459.657299
371.105213,740.205942,-8142.265362,1378.971896
371.105541,1628.453072,-7846.182985,1302.362347
371.105869,1850.514855,-7920.203579,1762.019645
371.106196,1406.391290,-8142.265362,1838.629195
371.106524,962.267725,-8808.450710,1838.629195
371.106852,-222.061783,-9474.636058,1378.971896
371.107180,-1332.370696,-9918.759623,2221.676944
371.107507,-2368.659014,-10436.903782,995.924147
371.107835,-2590.720797,-10584.944971,536.266849
371.108163,-2886.803174,-10214.842000,76.609550
371.108491,-1924.535449,-9696.697840,0.000000
371.108818,-444.123565,-8512.368333,0.000000
371.109146,518.144159,-8364.327145,76.609550
371.109474,1036.288319,-7550.100608,0.000000
371.109801,1332.370696,-7698.141797,383.047749
371.110129,814.226536,-7994.224174,306.438199
371.110457,74.020594,-8586.388927,612.876398
371.110785,-1480.411884,-9474.636058,229.828649
371.111112,-2590.720797,-9992.780217,0.000000
371.111440,-2738.761985,-10214.842000,-383.047749
371.111768,-2368.659014,-9992.780217,-536.266849
371.112096,-814.226536,-9474.636058,-229.828649
371.112423,1628.453072,-8512.368333,459.657299
371.112751,3182.885551,-8438.347739,459.657299
371.113079,3701.029710,-8438.347739,995.924147
371.113406,3552.988522,-8512.368333,995.924147
371.113734,2738.761985,-8808.450710,1302.362347
371.114062,1924.535449,-9474.636058,1225.752797
371.114390,592.164754,-10288.862594,919.314598
371.114717,-1036.288319,-10732.986159,1072.533697
371.115045,-1850.514855,-10955.047942,842.705048
371.115373,-1924.535449,-10584.944971,612.876398
371.115701,-1406.391290,-9770.718434,612.876398
371.116028,-592.164754,-9400.615463,76.609550
371.116356,148.041188,-8882.471304,153.219100
371.116684,740.205942,-8438.347739,306.438199
371.117011,444.123565,-7624.121203,459.657299
371.117339,296.082377,-7328.038826,1072.533697
371.117667,-370.102971,-7846.182985,766.095498
371.117995,-1702.473667,-8660.409521,1072.533697
371.118322,-2886.803174,-9252.574275,766.095498
371.118650,-3627.009116,-9474.636058,459.657299
371.118978,-3404.947333,-9622.677246,383.047749
371.119306,-2368.659014,-9326.594869,0.000000
371.119633,-1480.411884,-9030.512492,229.828649
371.119961,0.000000,-8734.430116,536.266849
371.120289,1036.288319,-8364.327145,995.924147
371.120616,1480.411884,-7994.224174,1302.362347
371.120944,1628.453072,-7994.224174,1149.143247
371.121272,1332.370696,-8660.409521,1685.410096
371.121600,814.226536,-9474.636058,1685.410096
371.121927,-444.123565,-9992.780217,1225.752797
371.122255,-1776.494261,-10584.944971,919.314598
371.122583,-2072.576638,-10584.944971,459.657299
371.122911,-2146.597232,-9992.780217,536.266849
371.123238,-962.267725,-9548.656652,459.657299
371.123566,148.041188,-9030.512492,383.047749
371.123894,666.185348,-8438.347739,306.438199
371.124221,1406.391290,-7476.080014,383.047749
371.124549,1036.288319,-7550.100608,383.047749
371.124877,814.226536,-7772.162391,689.485948
371.125205,0.000000,-8438.347739,536.266849
371.125532,-1110.308913,-9104.533087,306.438199
371.125860,-1924.535449,-9474.636058,0.000000
371.126188,-2886.803174,-9844.739029,-306.438199
371.126516,-3034.844362,-9992.780217,-383.047749
371.126843,-2072.576638,-9474.636058,-842.705048
371.127171,-296.082377,-8586.388927,-612.876398
371.127499,1480.411884,-8068.244768,0.000000
371.127826,2368.659014,-7254.018232,459.657299
371.128154,2738.761985,-7772.162391,459.657299
371.128482,2516.700203,-8512.368333,766.095498
371.128810,1628.453072,-8956.491898,1149.143247
371.129137,444.123565,-9844.739029,1149.143247
371.129465,-814.226536,-10436.903782,919.314598
371.129793,-1628.453072,-10881.027347,383.047749
371.130121,-1776.494261,-10807.006753,459.657299
371.130448,-962.267725,-10066.800811,459.657299
371.130776,0.000000,-9252.574275,459.657299
371.131104,1554.432478,-8364.327145,919.314598
371.131431,1776.494261,-8586.388927,842.705048
371.131759,1776.494261,-7624.121203,689.485948
371.132087,1184.329507,-8068.244768,766.095498
371.132415,222.061783,-8290.306550,689.485948
371.132742,-444.123565,-8808.450710,612.876398
371.133070,-2146.597232,-9770.718434,766.095498
371.133398,-3182.885551,-9770.718434,76.609550
371.133726,-3552.988522,-9770.718434,153.219100
371.134053,-3404.947333,-9844.739029,76.609550
371.134381,-2294.638420,-9474.636058,76.609550
371.134709,-740.205942,-8586.388927,0.000000
371.135036,370.102971,-8364.327145,459.657299
371.135364,1110.308913,-7846.182985,766.095498
371.135692,1332.370696,-7846.182985,919.314598
371.136020,1184.329507,-8290.306550,1149.143247
371.136347,518.144159,-8808.450710,1762.019645
371.136675,-148.041188,-9770.718434,612.876398
371.137003,-1924.535449,-10288.862594,1072.533697
371.137331,-2516.700203,-10584.944971,612.876398
371.137658,-2368.659014,-10584.944971,689.485948
371.137986,-1776.494261,-9622.677246,459.657299
371.138314,0.000000,-9548.656652,229.828649
371.138641,1258.350101,-8808.450710,536.266849
371.138969,1924.535449,-8290.306550,766.095498
371.139297,1702.473667,-7624.121203,919.314598
371.139625,1406.391290,-7920.203579,612.876398
371.139952,1036.288319,-8068.244768,536.266849
371.140280,-444.123565,-9178.553681,842.705048
371.140608,-1776.494261,-9622.677246,459.657299
371.140936,-2960.823768,-10288.862594,383.047749
371.141263,-3034.844362,-10214.842000,153.219100
371.141591,-1628.453072,-9622.677246,0.000000
371.141919,-666.185348,-8956.491898,0.000000
371.142246,666.185348,-8438.347739,229.828649
371.142574,1850.514855,-7920.203579,612.876398
371.142902,1998.556043,-7846.182985,919.314598
371.143230,2146.597232,-7772.162391,919.314598
371.143557,888.247130,-8290.306550,1378.971896
371.143885,370.102971,-9400.615463,842.705048
371.144213,-666.185348,-10214.842000,1072.533697
371.144541,-1924.535449,-10510.924376,766.095498
371.144868,-2220.617826,-10214.842000,689.485948
371.145196,-1480.411884,-9918.759623,612.876398
371.145524,-888.247130,-9326.594869,0.000000
371.145851,222.061783,-8956.491898,306.438199
371.146179,1036.288319,-8438.347739,153.219100
371.146507,1406.391290,-7994.224174,536.266849
371.146835,1480.411884,-7994.224174,383.047749
371.147162,1184.329507,-8586.388927,612.876398
371.147490,-148.041188,-8734.430116,919.314598
371.147818,-1036.288319,-9474.636058,612.876398
371.148146,-2220.617826,-9918.759623,0.000000
371.148473,-2812.782580,-9992.780217,306.438199
371.148801,-2664.741391,-9770.718434,0.000000
371.149129,-1628.453072,-9474.636058,-153.219100
371.149456,-222.061783,-8808.450710,0.000000
371.149784,1184.329507,-8216.285956,0.000000
371.150112,2072.576638,-7476.080014,229.828649
371.150440,2146.597232,-7550.100608,1149.143247
371.150767,1554.432478,-7994.224174,1072.533697
371.151095,1258.350101,-8586.388927,1225.752797
371.151423,74.020594,-9474.636058,995.924147
371.151751,-888.247130,-10066.800811,842.705048
371.152078,-2146.597232,-10584.944971,612.876398
371.152406,-2590.720797,-10881.027347,0.000000
371.152734,-2220.617826,-10362.883188,0.000000
371.153061,-1036.288319,-9548.656652,0.000000
371.153389,0.000000,-8808.450710,0.000000
371.153717,666.185348,-7698.141797,-153.219100
371.154045,1850.514855,-7772.162391,383.047749
371.154372,1628.453072,-7698.141797,459.657299
371.154700,1110.308913,-8142.265362,766.095498
371.155028,74.020594,-8808.450710,1072.533697
371.155356,-1628.453072,-9030.512492,842.705048
371.155683,-3034.844362,-10510.924376,536.266849
371.156011,-3330.926739,-10362.883188,459.657299
371.156339,-2590.720797,-10214.842000,-153.219100
371.156666,-1480.411884,-9252.574275,0.000000
371.156994,666.185348,-8438.347739,76.609550
371.157322,1776.494261,-8216.285956,1072.533697
371.157650,2738.761985,-7254.018232,1072.533697
371.157977,2516.700203,-7994.224174,1225.752797
371.158305,2072.576638,-8068.244768,1149.143247
371.158633,888.247130,-9326.594869,1608.800546
371.158961,-592.164754,-9918.759623,995.924147
371.159288,-1998.556043,-10732.986159,842.705048
371.159616,-2442.679609,-11029.068536,766.095498
371.159944,-2220.617826,-10584.944971,459.657299
371.160272,-1258.350101,-10140.821405,153.219100
371.160599,-518.144159,-9326.594869,459.657299
371.160927,370.102971,-8586.388927,306.438199
371.161255,1184.329507,-8216.285956,306.438199
371.161582,1184.329507,-7772.162391,383.047749
371.161910,1184.329507,-8068.244768,612.876398
371.162238,444.123565,-7772.162391,1149.143247
371.162566,-666.185348,-8956.491898,995.924147
371.162893,-2146.597232,-9622.677246,306.438199
371.163221,-2886.803174,-9696.697840,536.266849
371.163549,-2516.700203,-9696.697840,153.219100
371.163877,-1554.432478,-9326.594869,689.485948
371.164204,-444.123565,-8956.491898,383.047749
371.164532,592.164754,-8364.327145,612.876398
371.164860,1628.453072,-7994.224174,689.485948
371.165187,1776.494261,-7920.203579,995.924147
371.165515,1406.391290,-7994.224174,1455.581446
371.165843,1036.288319,-8808.450710,1762.019645
371.166171,0.000000,-9548.656652,1225.752797
371.166498,-1554.432478,-9992.780217,842.705048
371.166826,-2516.700203,-10362.883188,536.266849
371.167154,-3034.844362,-10658.965565,459.657299
371.167482,-2220.617826,-10288.862594,-536.266849
371.167809,-1924.535449,-9474.636058,-536.266849
371.168137,-222.061783,-8808.450710,-383.047749
371.168465,518.144159,-8290.306550,-306.438199
371.168792,1480.411884,-7550.100608,76.609550
371.169120,1702.473667,-7402.059420,612.876398
371.169448,1332.370696,-7846.182985,919.314598
371.169776,0.000000,-8512.368333,689.485948
371.170103,-1332.370696,-9474.636058,306.438199
371.170431,-2664.741391,-10362.883188,229.828649
371.170759,-3108.864956,-10362.883188,153.219100
371.171087,-2294.638420,-9844.739029,-153.219100
371.171414,-666.185348,-9548.656652,0.000000
371.171742,1036.288319,-8882.471304,229.828649
371.172070,2590.720797,-8438.347739,459.657299
371.172397,3404.947333,-7994.224174,689.485948
371.172725,2886.803174,-7772.162391,612.876398
371.173053,2368.659014,-8734.430116,995.924147
371.173381,1406.391290,-9548.656652,766.095498
371.173708,222.061783,-10658.965565,995.924147
371.174036,-1110.308913,-11103.089130,919.314598
371.174364,-1998.556043,-11251.130318,306.438199
371.174692,-2516.700203,-11103.089130,612.876398
371.175019,-2072.576638,-10436.903782,229.828649
371.175347,-962.267725,-9844.739029,0.000000
371.175675,148.041188,-8808.450710,76.609550
371.176002,740.205942,-8068.244768,-306.438199
371.176330,1036.288319,-7698.141797,536.266849
371.176658,592.164754,-7402.059420,612.876398
371.176986,148.041188,-7920.203579,689.485948
371.177313,-888.247130,-8364.327145,842.705048
371.177641,-1998.556043,-9474.636058,536.266849
371.177969,-3108.864956,-9326.594869,536.266849
371.178297,-2960.823768,-9770.718434,306.438199
371.178624,-2368.659014,-9474.636058,459.657299
371.178952,-888.247130,-9104.533087,536.266849
371.179280,888.247130,-8734.430116,1455.581446
371.179607,1480.411884,-8216.285956,1685.410096
371.179935,2072.576638,-8068.244768,1532.190996
371.180263,2072.576638,-8512.368333,1838.629195
371.180591,1406.391290,-8734.430116,1685.410096
371.180918,370.102971,-9400.615463,1685.410096
371.181246,-962.267725,-9252.574275,1532.190996
371.181574,-2072.576638,-10214.842000,1149.143247
371.181901,-2368.659014,-10436.903782,842.705048
371.182229,-2368.659014,-9770.718434,612.876398
371.182556,-888.247130,-9326.594869,459.657299
371.182884,0.000000,-8660.409521,1225.752797
371.183212,222.061783,-7698.141797,612.876398
371.183539,666.185348,-8068.244768,995.924147
371.183867,444.123565,-7624.121203,1225.752797
371.184194,0.000000,-7772.162391,919.314598
371.184522,-518.144159,-8734.430116,1302.362347
371.184850,-1850.514855,-8956.491898,459.657299
371.185177,-2960.823768,-9474.636058,76.609550
371.185505,-3997.112087,-9696.697840,0.000000
371.185832,-3330.926739,-9400.615463,-459.657299
371.186160,-1924.535449,-8734.430116,-459.657299
371.186487,222.061783,-8438.347739,-306.438199
371.186815,1628.453072,-8068.244768,-153.219100
371.187143,2368.659014,-7846.182985,229.828649
371.187470,2738.761985,-7920.203579,536.266849
371.187798,2516.700203,-8586.388927,842.705048
371.188125,2072.576638,-9918.759623,842.705048
371.188453,518.144159,-9992.780217,995.924147
371.188781,-740.205942,-10955.047942,766.095498
371.189108,-1776.494261,-11473.192101,612.876398
371.189436,-1998.556043,-11103.089130,383.047749
371.189763,-1110.308913,-10807.006753,0.000000
371.190091,148.041188,-9844.739029,-229.828649
371.190419,518.144159,-8808.450710,0.000000
371.190746,2294.638420,-8142.265362,0.000000
371.191074,2072.576638,-7772.162391,76.609550
371.191401,1924.535449,-7772.162391,919.314598
371.191729,1332.370696,-7920.203579,153.219100
371.192057,0.000000,-8882.471304,306.438199
371.192384,-1258.350101,-9622.677246,76.609550
371.192712,-2442.679609,-10436.903782,0.000000
371.193039,-3256.906145,-10510.924376,76.609550
371.193367,-2368.659014,-10140.821405,76.609550
371.193695,-1406.391290,-9474.636058,0.000000
371.194022,-148.041188,-9030.512492,306.438199
371.194350,888.247130,-8364.327145,459.657299
371.194677,1406.391290,-8068.244768,612.876398
371.195005,1776.494261,-7624.121203,919.314598
371.195333,1554.432478,-8586.388927,995.924147
371.195660,444.123565,-9030.512492,1149.143247
371.195988,-592.164754,-9548.656652,1225.752797
371.196315,-1776.494261,-10288.862594,919.314598
371.196643,-2442.679609,-10214.842000,1072.533697
371.196971,-2368.659014,-10214.842000,612.876398
371.197298,-1850.514855,-9474.636058,306.438199
371.197626,-518.144159,-8882.471304,612.876398
371.197953,740.205942,-8216.285956,612.876398
371.198281,1406.391290,-7846.182985,306.438199
371.198609,1258.350101,-7328.038826,1455.581446
371.198936,888.247130,-7550.100608,1225.752797
371.199264,444.123565,-8142.265362,1455.581446
371.199591,-814.226536,-9030.512492,1149.143247
371.199919,-2146.597232,-9844.739029,1072.533697
371.200247,-3034.844362,-9992.780217,229.828649
371.200574,-3108.864956,-10140.821405,0.000000
371.200902,-2146.597232,-9474.636058,76.609550
371.201229,-444.123565,-8956.491898,306.438199
371.201557,1184.329507,-8438.347739,459.657299
371.201885,1776.494261,-7550.100608,995.924147
371.202212,2516.700203,-7994.224174,1455.581446
371.202540,2072.576638,-7920.203579,1455.581446
371.202867,1332.370696,-8882.471304,1532.190996
371.203195,0.000000,-9770.718434,1378.971896
371.203522,-1554.432478,-10436.903782,1149.143247
371.203850,-2146.597232,-11103.089130,842.705048
371.204178,-3108.864956,-10288.862594,306.438199
371.204505,-2442.679609,-9992.780217,153.219100
371.204833,-740.205942,-9474.636058,153.219100
371.205160,0.000000,-9104.533087,229.828649
371.205488,1036.288319,-8512.368333,0.000000
371.205816,1036.288319,-7772.162391,76.609550
371.206143,1110.308913,-7994.224174,229.828649
371.206471,592.164754,-8290.306550,0.000000
371.206798,0.000000,-9104.533087,229.828649
371.207126,-962.267725,-9400.615463,306.438199
371.207454,-2294.638420,-10288.862594,229.828649
371.207781,-2738.761985,-10510.924376,-153.219100
371.208109,-2590.720797,-10658.965565,-229.828649
371.208436,-1480.411884,-9992.780217,-306.438199
371.208764,222.061783,-9252.574275,-612.876398
371.209092,1332.370696,-8882.471304,0.000000
371.209419,2516.700203,-8586.388927,383.047749
371.209747,2960.823768,-8364.327145,766.095498
371.210074,2960.823768,-8438.347739,1072.533697
371.210402,2442.679609,-8956.491898,1072.533697
371.210730,1036.288319,-9770.718434,919.314598
371.211057,-666.185348,-10732.986159,766.095498
371.211385,-1480.411884,-11177.109724,536.266849
371.211712,-2072.576638,-10658.965565,153.219100
371.212040,-1184.329507,-10214.842000,229.828649
371.212368,0.000000,-9400.615463,0.000000
371.212695,740.205942,-9030.512492,229.828649
371.213023,1332.370696,-7846.182985,536.266849
371.213350,1110.308913,-7550.100608,536.266849
371.213678,1258.350101,-7476.080014,766.095498
371.214006,962.267725,-7772.162391,612.876398
371.214333,-740.205942,-8290.306550,459.657299
371.214661,-2220.617826,-9104.533087,383.047749
371.214988,-3256.906145,-10066.800811,229.828649
371.215316,-3849.070898,-9696.697840,0.000000
371.215644,-3182.885551,-9622.677246,0.000000
371.215971,-2220.617826,-8882.471304,153.219100
371.216299,0.000000,-8438.347739,229.828649
371.216626,1036.288319,-7772.162391,536.266849
371.216954,1776.494261,-7624.121203,995.924147
371.217282,2220.617826,-7328.038826,1838.629195
371.217609,1702.473667,-7920.203579,1532.190996
371.217937,296.082377,-8882.471304,1302.362347
371.218264,-888.247130,-9696.697840,1302.362347
371.218592,-1850.514855,-10214.842000,1072.533697
371.218920,-2368.659014,-10658.965565,919.314598
371.219247,-2220.617826,-9992.780217,1225.752797
371.219575,-1258.350101,-9548.656652,689.485948
371.219902,444.123565,-8956.491898,536.266849
371.220230,888.247130,-8438.347739,383.047749
371.220557,1924.535449,-7846.182985,1072.533697
371.220885,1628.453072,-7920.203579,995.924147
371.221213,1036.288319,-8068.244768,1302.362347
371.221540,148.041188,-8438.347739,612.876398
371.221868,-962.267725,-9400.615463,1072.533697
371.222195,-1924.535449,-9770.718434,689.485948
371.222523,-3256.906145,-9252.574275,459.657299
371.222851,-2812.782580,-9844.739029,0.000000
371.223178,-2146.597232,-9474.636058,0.000000
371.223506,-888.247130,-8882.471304,0.000000
371.223833,444.123565,-8364.327145,76.609550
371.224161,1924.535449,-7624.121203,0.000000
371.224489,1924.535449,-7698.141797,536.266849
371.224816,1702.473667,-7994.224174,842.705048
371.225144,1110.308913,-8734.430116,1072.533697
371.225471,0.000000,-9474.636058,995.924147
371.225799,-1554.432478,-10288.862594,766.095498
371.226127,-2516.700203,-10436.903782,766.095498
371.226454,-2738.761985,-10732.986159,0.000000
371.226782,-2294.638420,-10436.903782,0.000000
371.227109,-1184.329507,-9918.759623,0.000000
371.227437,592.164754,-8808.450710,0.000000
371.227765,1406.391290,-8142.265362,153.219100
371.228092,2368.659014,-7772.162391,536.266849
371.228420,1924.535449,-7994.224174,612.876398
371.228747,1776.494261,-7994.224174,689.485948
371.229075,222.061783,-8660.409521,459.657299
371.229403,-962.267725,-9474.636058,459.657299
371.229730,-2220.617826,-10140.821405,153.219100
371.230058,-2368.659014,-10288.862594,0.000000
371.230385,-1924.535449,-9770.718434,0.000000
371.230713,-444.123565,-9252.574275,0.000000
371.231041,1332.370696,-8660.409521,153.219100
371.231368,2294.638420,-8068.244768,1378.971896
371.231696,2368.659014,-7920.203579,995.924147
371.232023,2146.597232,-8216.285956,1455.581446
371.232351,1480.411884,-8882.471304,1149.143247
371.232679,296.082377,-9252.574275,1149.143247
371.233006,-814.226536,-9770.718434,1225.752797
371.233334,-1998.556043,-10436.903782,842.705048
371.233661,-2664.741391,-10881.027347,612.876398
371.233989,-2886.803174,-10436.903782,459.657299
371.234317,-2294.638420,-9770.718434,0.000000
371.234644,-1184.329507,-9474.636058,-536.266849
371.234972,0.000000,-8882.471304,-306.438199
371.235299,296.082377,-8290.306550,0.000000
371.235627,518.144159,-7920.203579,306.438199
371.235955,666.185348,-7994.224174,306.438199
371.236282,0.000000,-8216.285956,306.438199
371.236610,-666.185348,-8956.491898,842.705048
371.236937,-1998.556043,-9622.677246,383.047749
371.237265,-2886.803174,-9992.780217,76.609550
371.237592,-2664.741391,-9844.739029,0.000000
371.237920,-1850.514855,-9326.594869,0.000000
371.238248,0.000000,-9252.574275,0.000000
371.238575,1258.350101,-8512.368333,383.047749
371.238903,2368.659014,-8068.244768,995.924147
371.239230,2812.782580,-7698.141797,1072.533697
371.239558,2886.803174,-8216.285956,1532.190996
371.239886,2146.597232,-8216.285956,1685.410096
371.240213,1110.308913,-9474.636058,1532.190996
371.240541,-296.082377,-10214.842000,1532.190996
371.240868,-1554.432478,-10807.006753,1072.533697
371.241196,-2146.597232,-10732.986159,689.485948
371.241524,-1554.432478,-9844.739029,383.047749
371.241851,-592.164754,-9770.718434,612.876398
371.242179,370.102971,-9030.512492,766.095498
371.242506,888.247130,-8512.368333,612.876398
371.242834,592.164754,-7846.182985,766.095498
371.243162,592.164754,-7476.080014,766.095498
371.243489,222.061783,-7179.997637,689.485948
371.243817,-518.144159,-8216.285956,766.095498
371.244144,-1924.535449,-8956.491898,536.266849
371.244472,-2886.803174,-9474.636058,76.609550
371.244800,-3701.029710,-9400.615463,0.000000
371.245127,-3034.844362,-9474.636058,0.000000
371.245455,-2368.659014,-9030.512492,0.000000
371.245782,-888.247130,-8586.388927,76.609550
371.246110,888.247130,-8216.285956,459.657299
371.246438,1628.453072,-7772.162391,689.485948
371.246765,2294.638420,-7402.059420,1149.143247
371.247093,1998.556043,-8068.244768,1532.190996
371.247420,1480.411884,-9178.553681,1455.581446
371.247748,444.123565,-10140.821405,1378.971896
371.248076,-888.247130,-10881.027347,919.314598
371.248403,-1850.514855,-10732.986159,1532.190996
371.248731,-2146.597232,-10510.924376,153.219100
371.249058,-1184.329507,-10214.842000,536.266849
371.249386,296.082377,-9474.636058,229.828649
371.249714,1184.329507,-9326.594869,229.828649
371.250041,1554.432478,-8142.265362,612.876398
371.250369,1776.494261,-8068.244768,0.000000
371.250696,1110.308913,-7920.203579,306.438199
371.251024,296.082377,-8142.265362,536.266849
371.251352,-370.102971,-8956.491898,612.876398
371.251679,-1776.494261,-9400.615463,383.047749
371.252007,-2368.659014,-9770.718434,76.609550
371.252334,-3256.906145,-9918.759623,-229.828649
371.252662,-3108.864956,-9622.677246,-612.876398
371.252990,-1776.494261,-9178.553681,-612.876398
371.253317,-592.164754,-8882.471304,-536.266849
371.253645,888.247130,-7772.162391,0.000000
371.253972,1702.473667,-7698.141797,153.219100
371.254300,2368.659014,-7846.182985,459.657299
371.254627,2220.617826,-8290.306550,995.924147
371.254955,1406.391290,-9030.512492,1149.143247
371.255283,0.000000,-9696.697840,1378.971896
371.255610,-1406.391290,-10584.944971,689.485948
371.255938,-2146.597232,-10955.047942,536.266849
371.256265,-1776.494261,-10807.006753,612.876398
371.256593,-740.205942,-9918.759623,689.485948
371.256921,518.144159,-9178.553681,842.705048
371.257248,1776.494261,-8438.347739,1149.143247
371.257576,1332.370696,-7920.203579,995.924147
371.257903,1702.473667,-7772.162391,919.314598
371.258231,1332.370696,-7846.182985,995.924147
371.258559,222.061783,-8512.368333,1302.362347
371.258886,-1110.308913,-8956.491898,1225.752797
371.259214,-2516.700203,-9844.739029,766.095498
371.259541,-3256.906145,-9918.759623,229.828649
371.259869,-3330.926739,-9992.780217,383.047749
371.260197,-2590.720797,-9326.594869,0.000000
371.260524,-740.205942,-9178.553681,0.000000
371.260852,370.102971,-8364.327145,153.219100
371.261179,1110.308913,-7698.141797,919.314598
371.261507,1702.473667,-7550.100608,1072.533697
371.261835,1184.329507,-8142.265362,1378.971896
371.262162,444.123565,-8512.368333,1455.581446
371.262490,-370.102971,-9548.656652,1838.629195
371.262817,-1776.494261,-10288.862594,1225.752797
371.263145,-2590.720797,-10955.047942,919.314598
371.263473,-2590.720797,-10436.903782,766.095498
371.263800,-1776.494261,-10066.800811,229.828649
371.264128,-740.205942,-9474.636058,306.438199
371.264455,518.144159,-8956.491898,689.485948
371.264783,1184.329507,-8660.409521,383.047749
371.265111,1406.391290,-8512.368333,612.876398
371.265438,1110.308913,-8290.306550,612.876398
371.265766,518.144159,-8216.285956,612.876398
371.266093,0.000000,-9178.553681,459.657299
371.266421,-1036.288319,-9844.739029,459.657299
371.266749,-2072.576638,-10288.862594,76.609550
371.267076,-2664.741391,-10362.883188,76.609550
371.267404,-2664.741391,-9844.739029,-383.047749
371.267731,-1850.514855,-9696.697840,-536.266849
371.268059,-592.164754,-8956.491898,-383.047749
371.268387,1036.288319,-8364.327145,0.000000
371.268714,2368.659014,-7772.162391,0.000000
371.269042,3034.844362,-7328.038826,766.095498
371.269369,2886.803174,-8068.244768,1225.752797
371.269697,1924.535449,-8660.409521,995.924147
371.270025,518.144159,-9622.677246,689.485948
371.270352,-1184.329507,-10584.944971,536.266849
371.270680,-1850.514855,-10807.006753,229.828649
371.271007,-1850.514855,-11103.089130,536.266849
371.271335,-1036.288319,-10288.862594,306.438199
371.271662,296.082377,-9474.636058,766.095498
371.271990,1110.308913,-8956.491898,766.095498
371.272318,2072.576638,-8364.327145,689.485948
371.272645,2368.659014,-7624.121203,766.095498
371.272973,1406.391290,-7846.182985,1072.533697
371.273300,296.082377,-8290.306550,612.876398
371.273628,-740.205942,-9178.553681,995.924147
371.273956,-2220.617826,-9696.697840,842.705048
371.274283,-2812.782580,-9844.739029,536.266849
371.274611,-3552.988522,-9622.677246,0.000000
371.274938,-2738.761985,-9696.697840,0.000000
371.275266,-1702.473667,-9104.533087,76.609550
371.275594,0.000000,-8290.306550,306.438199
371.275921,962.267725,-7179.997637,919.314598
371.276249,2220.617826,-7476.080014,1302.362347
371.276576,1776.494261,-7476.080014,1532.190996
371.276904,1258.350101,-8216.285956,1838.629195
371.277232,148.041188,-9104.533087,1608.800546
371.277559,-1110.308913,-9918.759623,766.095498
371.277887,-2294.638420,-10140.821405,612.876398
371.278214,-2590.720797,-10510.924376,842.705048
371.278542,-2220.617826,-10288.862594,689.485948
371.278870,-1258.350101,-9548.656652,459.657299
371.279197,0.000000,-9030.512492,459.657299
371.279525,888.247130,-8068.244768,383.047749
371.279852,962.267725,-7920.203579,536.266849
371.280180,962.267725,-7920.203579,536.266849
371.280508,666.185348,-8142.265362,536.266849
371.280835,-148.041188,-8734.430116,536.266849
371.281163,-1184.329507,-9252.574275,766.095498
371.281490,-2294.638420,-9696.697840,153.219100
371.281818,-3330.926739,-9770.718434,-229.828649
371.282146,-3404.947333,-9844.739029,-459.657299
371.282473,-2368.659014,-9474.636058,-459.657299
371.282801,-888.247130,-8734.430116,0.000000
371.283128,1184.329507,-8142.265362,-536.266849
371.283456,2146.597232,-7698.141797,76.609550
371.283784,2590.720797,-7550.100608,459.657299
371.284111,2812.782580,-7772.162391,842.705048
371.284439,2590.720797,-8364.327145,1149.143247
371.284766,888.247130,-9178.553681,1378.971896
371.285094,-296.082377,-10436.903782,612.876398
371.285422,-1332.370696,-10955.047942,459.657299
371.285749,-1776.494261,-11029.068536,0.000000
371.286077,-1406.391290,-10732.986159,0.000000
371.286404,370.102971,-9918.759623,383.047749
371.286732,1258.350101,-9474.636058,76.609550
371.287060,2072.576638,-8586.388927,306.438199
371.287387,2220.617826,-8142.265362,536.266849
371.287715,2146.597232,-8068.244768,612.876398
371.288042,1036.288319,-8882.471304,153.219100
371.288370,-222.061783,-8586.388927,689.485948
371.288698,-1480.411884,-9770.718434,612.876398
371.289025,-2738.761985,-9844.739029,153.219100
371.289353,-3182.885551,-9770.718434,153.219100
371.289680,-2590.720797,-9178.553681,0.000000
371.290008,-1036.288319,-8586.388927,536.266849
371.290336,74.020594,-7994.224174,689.485948
371.290663,1110.308913,-7846.182985,1072.533697
371.290991,1480.411884,-7476.080014,1762.019645
371.291319,1406.391290,-7772.162391,2298.286494
371.291646,1036.288319,-8068.244768,1455.581446
371.291974,0.000000,-9178.553681,1915.238745
371.292301,-1184.329507,-9770.718434,1838.629195
371.292629,-2368.659014,-10140.821405,1532.190996
371.292957,-2960.823768,-10510.924376,1302.362347
371.293284,-2738.761985,-9992.780217,995.924147
371.293612,-1998.556043,-9770.718434,995.924147
371.293939,-740.205942,-9178.553681,766.095498
371.294267,0.000000,-8660.409521,689.485948
371.294595,592.164754,-8290.306550,919.314598
371.294922,666.185348,-7994.224174,995.924147
371.295250,444.123565,-7920.203579,919.314598
371.295577,-370.102971,-8290.306550,1149.143247
371.295905,-1480.411884,-8882.471304,919.314598
371.296233,-2516.700203,-9474.636058,689.485948
371.296560,-3330.926739,-9696.697840,459.657299
371.296888,-3330.926739,-9474.636058,0.000000
371.297215,-2664.741391,-9178.553681,-536.266849
371.297543,-962.267725,-8956.491898,-306.438199
371.297871,444.123565,-8216.285956,-229.828649
371.298198,1850.514855,-7846.182985,76.609550
371.298526,2886.803174,-7179.997637,76.609550
371.298854,2664.741391,-7846.182985,995.924147
371.299181,2220.617826,-8512.368333,612.876398
371.299509,1110.308913,-9252.574275,459.657299
371.299836,0.000000,-10140.821405,306.438199
371.300164,-1184.329507,-10658.965565,612.876398
371.300492,-1998.556043,-10807.006753,0.000000
371.300819,-1480.411884,-10510.924376,76.609550
371.301147,222.061783,-9844.739029,0.000000
371.301474,666.185348,-9326.594869,0.000000
371.301802,2368.659014,-8586.388927,-229.828649
371.302130,1998.556043,-7994.224174,0.000000
371.302457,1850.514855,-7994.224174,153.219100
371.302785,1480.411884,-8512.368333,383.047749
371.303112,222.061783,-8586.388927,0.000000
371.303440,-518.144159,-9178.553681,153.219100
371.303768,-1702.473667,-9770.718434,0.000000
371.304095,-2442.679609,-9918.759623,0.000000
371.304423,-2442.679609,-9770.718434,0.000000
371.304751,-1554.432478,-8882.471304,0.000000
371.305078,-148.041188,-8734.430116,153.219100
371.305406,1406.391290,-8364.327145,459.657299
371.305733,1406.391290,-8364.327145,842.705048
371.306061,1110.308913,-8216.285956,1072.533697
371.306389,1184.329507,-8660.409521,1455.581446
371.306716,444.123565,-8882.471304,1532.190996
371.307044,0.000000,-9548.656652,1378.971896
371.307371,-1924.535449,-10288.862594,1455.581446
371.307699,-2442.679609,-10881.027347,919.314598
371.308027,-3034.844362,-10658.965565,459.657299
371.308354,-2886.803174,-10362.883188,306.438199
371.308682,-1332.370696,-9622.677246,306.438199
371.309009,-444.123565,-9030.512492,0.000000
371.309337,370.102971,-8142.265362,153.219100
371.309665,1110.308913,-8438.347739,383.047749
371.309992,888.247130,-8142.265362,995.924147
371.310320,296.082377,-8734.430116,1225.752797
371.310648,-814.226536,-8808.450710,1149.143247
371.310975,-1924.535449,-9770.718434,306.438199
371.311303,-2960.823768,-10214.842000,459.657299
371.311630,-2886.803174,-10140.821405,76.609550
371.311958,-2220.617826,-9992.780217,0.000000
371.312286,-74.020594,-9178.553681,229.828649
371.312613,1110.308913,-8956.491898,536.266849
371.312941,2146.597232,-8512.368333,383.047749
371.313268,2738.761985,-8290.306550,995.924147
371.313596,2516.700203,-8438.347739,1072.533697
371.313924,2146.597232,-8882.471304,1302.362347
371.314251,1110.308913,-9474.636058,1072.533697
371.314579,-148.041188,-10510.924376,1149.143247
371.314906,-1480.411884,-11103.089130,766.095498
371.315234,-2294.638420,-10955.047942,536.266849
371.315562,-1924.535449,-10288.862594,0.000000
371.315889,-888.247130,-9696.697840,383.047749
371.316217,0.000000,-9030.512492,229.828649
371.316545,814.226536,-8586.388927,306.438199
371.316872,1258.350101,-7994.224174,229.828649
371.317200,1332.370696,-7476.080014,995.924147
371.317527,962.267725,-7476.080014,1225.752797
371.317855,0.000000,-8068.244768,919.314598
371.318183,-1332.370696,-9030.512492,766.095498
371.318510,-2516.700203,-9474.636058,536.266849
371.318838,-3330.926739,-9548.656652,153.219100
371.319165,-3108.864956,-9474.636058,383.047749
371.319493,-1776.494261,-9030.512492,153.219100
371.319821,0.000000,-8734.430116,306.438199
371.320148,1184.329507,-8216.285956,919.314598
371.320476,2072.576638,-8068.244768,1072.533697
371.320803,2072.576638,-8068.244768,1455.581446
371.321131,1702.473667,-8290.306550,1378.971896
371.321459,1036.288319,-8956.491898,1608.800546
371.321786,0.000000,-9918.759623,1302.362347
371.322114,-1332.370696,-10362.883188,919.314598
371.322441,-1998.556043,-10362.883188,842.705048
371.322769,-2294.638420,-9548.656652,766.095498
371.323097,-2072.576638,-9844.739029,383.047749
371.323424,-592.164754,-9178.553681,383.047749
371.323752,444.123565,-8512.368333,459.657299
371.324080,814.226536,-7698.141797,536.266849
371.324407,1480.411884,-7402.059420,842.705048
371.324735,962.267725,-7624.121203,689.485948
371.325062,296.082377,-8142.265362,689.485948
371.325390,-444.123565,-8660.409521,842.705048
371.325718,-1628.453072,-9474.636058,459.657299
371.326045,-2368.659014,-9992.780217,1149.143247
371.326373,-3034.844362,-10140.821405,76.609550
371.326700,-2738.761985,-9770.718434,-229.828649
371.327028,-1628.453072,-9326.594869,0.000000
371.327356,74.020594,-8808.450710,-229.828649
371.327683,1184.329507,-8290.306550,-153.219100
371.328011,2072.576638,-7994.224174,76.609550
371.328338,2072.576638,-7920.203579,536.266849
371.328666,1702.473667,-8438.347739,689.485948
371.328994,962.267725,-9178.553681,612.876398
371.329321,-296.082377,-9992.780217,919.314598
371.329649,-1332.370696,-10732.986159,306.438199
371.329977,-2146.597232,-10732.986159,0.000000
371.330304,-1998.556043,-10658.965565,0.000000
371.330632,-1406.391290,-10066.800811,0.000000
371.330959,444.123565,-9622.677246,0.000000
371.331287,1702.473667,-9030.512492,-229.828649
371.331615,1776.494261,-7920.203579,153.219100
371.331942,2146.597232,-7920.203579,459.657299
371.332270,1998.556043,-7772.162391,689.485948
371.332597,1480.411884,-8364.327145,612.876398
371.332925,222.061783,-9178.553681,229.828649
371.333253,-1258.350101,-9548.656652,689.485948
371.333580,-2368.659014,-9992.780217,229.828649
371.333908,-2368.659014,-9844.739029,0.000000
371.334235,-1776.494261,-9548.656652,229.828649
371.334563,0.000000,-9030.512492,536.266849
371.334891,1258.350101,-8882.471304,1225.752797
371.335218,1998.556043,-8290.306550,1072.533697
371.335546,2146.597232,-8216.285956,1302.362347
371.335874,1406.391290,-8290.306550,1455.581446
371.336201,814.226536,-8734.430116,2221.676944
371.336529,-296.082377,-9474.636058,2068.457845
371.336856,-1628.453072,-9992.780217,1378.971896
371.337184,-2812.782580,-10214.842000,919.314598
371.337512,-3330.926739,-10214.842000,536.266849
371.337839,-2738.761985,-9622.677246,306.438199
371.338167,-1628.453072,-9030.512492,689.485948
371.338494,-888.247130,-8438.347739,536.266849
371.338822,0.000000,-8142.265362,536.266849
371.339150,444.123565,-7772.162391,612.876398
371.339477,444.123565,-7550.100608,919.314598
371.339805,296.082377,-7772.162391,1149.143247
371.340132,-444.123565,-8438.347739,1302.362347
371.340460,-1406.391290,-9252.574275,1072.533697
371.340788,-2442.679609,-9844.739029,612.876398
371.341115,-3108.864956,-10288.862594,229.828649
371.341443,-2960.823768,-9844.739029,-229.828649
371.341770,-1776.494261,-9474.636058,76.609550
371.342098,74.020594,-8956.491898,0.000000
371.342426,1332.370696,-8216.285956,153.219100
371.342753,2368.659014,-7846.182985,459.657299
371.343081,2590.720797,-7698.141797,995.924147
371.343409,2368.659014,-7846.182985,1302.362347
371.343736,1702.473667,-8808.450710,1072.533697
371.344064,444.123565,-9918.759623,995.924147
371.344391,-888.247130,-10510.924376,459.657299
371.344719,-2072.576638,-10732.986159,229.828649
371.345047,-2220.617826,-10732.986159,0.000000
371.345374,-1998.556043,-10140.821405,-306.438199
371.345702,-740.205942,-9548.656652,-536.266849
371.346029,370.102971,-8882.471304,-383.047749
371.346357,1332.370696,-8068.244768,-306.438199
371.346685,1998.556043,-7624.121203,229.828649
371.347012,1998.556043,-7328.038826,459.657299
371.347340,1258.350101,-7994.224174,229.828649
371.347667,222.061783,-8956.491898,383.047749
371.347995,-1258.350101,-9696.697840,229.828649
371.348323,-2368.659014,-10066.800811,-383.047749
371.348650,-2590.720797,-10214.842000,76.609550
371.348978,-1998.556043,-9844.739029,0.000000
371.349306,-444.123565,-9474.636058,383.047749
371.349633,814.226536,-8882.471304,536.266849
371.349961,1924.535449,-8142.265362,1149.143247
371.350288,2590.720797,-7920.203579,1608.800546
371.350616,2294.638420,-8142.265362,1378.971896
371.350944,1702.473667,-8660.409521,1455.581446
371.351271,444.123565,-9400.615463,1532.190996
371.351599,-592.164754,-9770.718434,1455.581446
371.351926,-1776.494261,-10214.842000,842.705048
371.352254,-2738.761985,-10140.821405,1149.143247
371.352582,-1998.556043,-10214.842000,1072.533697
371.352909,-1258.350101,-9474.636058,995.924147
371.353237,-518.144159,-9104.533087,919.314598
371.353564,518.144159,-8364.327145,1378.971896
371.353892,148.041188,-8068.244768,689.485948
371.354220,74.020594,-8142.265362,1072.533697
371.354547,0.000000,-8438.347739,1302.362347
371.354875,-962.267725,-8512.368333,1225.752797
371.355203,-1628.453072,-8956.491898,1532.190996
371.355530,-2664.741391,-9474.636058,612.876398
371.355858,-3775.050304,-9844.739029,153.219100
371.356185,-3552.988522,-9844.739029,76.609550
371.356513,-3034.844362,-9474.636058,-229.828649
371.356841,-1480.411884,-9030.512492,-306.438199
371.357168,0.000000,-8364.327145,0.000000
371.357496,1110.308913,-7846.182985,0.000000
371.357823,1924.535449,-7772.162391,536.266849
371.358151,2294.638420,-8068.244768,919.314598
371.358479,1776.494261,-8808.450710,1072.533697
371.358806,518.144159,-9252.574275,766.095498
371.359134,-296.082377,-10362.883188,766.095498
371.359461,-1702.473667,-10955.047942,229.828649
371.359789,-2072.576638,-11251.130318,0.000000
371.360117,-1924.535449,-10658.965565,-229.828649
371.360444,-296.082377,-9548.656652,-229.828649
371.360772,1924.535449,-9178.553681,-306.438199
371.361099,2368.659014,-8364.327145,0.000000
371.361427,2886.803174,-7698.141797,153.219100
371.361755,2886.803174,-7920.203579,536.266849
371.362082,2442.679609,-8142.265362,612.876398
371.362410,1110.308913,-8882.471304,536.266849
371.362738,-296.082377,-9770.718434,536.266849
371.363065,-1850.514855,-10288.862594,229.828649
371.363393,-2590.720797,-10584.944971,76.609550
371.363720,-2738.761985,-10584.944971,0.000000
371.364048,-1480.411884,-9622.677246,0.000000
371.364376,-222.061783,-8734.430116,153.219100
371.364703,1110.308913,-8068.244768,536.266849
371.365031,1702.473667,-7624.121203,919.314598
371.365358,1998.556043,-7402.059420,1225.752797
371.365686,1480.411884,-7624.121203,1532.190996
371.366014,814.226536,-8660.409521,1532.190996
371.366341,-888.247130,-9474.636058,1455.581446
371.366669,-2220.617826,-10140.821405,1149.143247
371.366996,-2812.782580,-10288.862594,919.314598
371.367324,-2960.823768,-9622.677246,1225.752797
371.367652,-1702.473667,-9844.739029,842.705048
371.367979,-666.185348,-9178.553681,1302.362347
371.368307,296.082377,-8734.430116,1455.581446
371.368635,592.164754,-7994.224174,1149.143247
371.368962,444.123565,-8364.327145,1532.190996
371.369290,148.041188,-8216.285956,842.705048
371.369617,-222.061783,-8586.388927,1685.410096
371.369945,-1850.514855,-8882.471304,1072.533697
371.370273,-2220.617826,-9474.636058,1072.533697
371.370600,-3108.864956,-9622.677246,459.657299
371.370928,-2960.823768,-9474.636058,383.047749
371.371255,-2664.741391,-9252.574275,0.000000
371.371583,-1702.473667,-9030.512492,0.000000
371.371911,-370.102971,-8438.347739,-383.047749
371.372238,888.247130,-8142.265362,0.000000
371.372566,1924.535449,-7402.059420,459.657299
371.372893,1702.473667,-7624.121203,919.314598
371.373221,1850.514855,-8216.285956,995.924147
371.373549,888.247130,-9326.594869,919.314598
371.373876,-518.144159,-9918.759623,536.266849
371.374204,-1776.494261,-10436.903782,459.657299
371.374532,-2516.700203,-10732.986159,0.000000
371.374859,-2294.638420,-10436.903782,-459.657299
371.375187,-1110.308913,-9844.739029,-612.876398
371.375514,888.247130,-9252.574275,-383.047749
371.375842,1406.391290,-8290.306550,0.000000
371.376170,3256.906145,-7402.059420,153.219100
371.376497,2886.803174,-7624.121203,76.609550
371.376825,2368.659014,-8216.285956,459.657299
371.377152,1110.308913,-8734.430116,153.219100
371.377480,-148.041188,-9548.656652,153.219100
371.377808,-1628.453072,-10140.821405,0.000000
371.378135,-2442.679609,-10584.944971,0.000000
371.378463,-2368.659014,-10362.883188,-306.438199
371.378790,-1110.308913,-9918.759623,0.000000
371.379118,222.061783,-9104.533087,229.828649
371.379446,1628.453072,-8068.244768,536.266849
371.379773,2072.576638,-7846.182985,1072.533697
371.380101,1924.535449,-7624.121203,1072.533697
371.380429,1702.473667,-7994.224174,919.314598
371.380756,962.267725,-8512.368333,1455.581446
371.381084,0.000000,-9400.615463,1072.533697
371.381411,-1332.370696,-10140.821405,1762.019645
371.381739,-2368.659014,-10288.862594,995.924147
371.382067,-2368.659014,-10140.821405,995.924147
371.382394,-2072.576638,-9770.718434,1149.143247
371.382722,-1110.308913,-9030.512492,1072.533697
371.383049,-444.123565,-8660.409521,1302.362347
371.383377,296.082377,-8512.368333,1149.143247
371.383705,74.020594,-7920.203579,1149.143247
371.384032,0.000000,-8068.244768,1225.752797
371.384360,-296.082377,-8216.285956,1149.143247
371.384687,-1110.308913,-8438.347739,1302.362347
371.385014,-1998.556043,-9326.594869,995.924147
371.385342,-2886.803174,-9844.739029,536.266849
371.385669,-3404.947333,-9474.636058,153.219100
371.385997,-3034.844362,-9474.636058,0.000000
371.386324,-1924.535449,-8882.471304,0.000000
371.386652,-370.102971,-8734.430116,612.876398
371.386979,962.267725,-8364.327145,612.876398
371.387306,1776.494261,-8142.265362,689.485948
371.387634,2146.597232,-8438.347739,1302.362347
371.387961,1850.514855,-8956.491898,1455.581446
371.388289,1110.308913,-9400.615463,1762.019645
371.388616,-296.082377,-10140.821405,995.924147
371.388944,-1628.453072,-10732.986159,459.657299
371.389271,-2590.720797,-10955.047942,0.000000
371.389598,-2072.576638,-10658.965565,-383.047749
371.389926,-1554.432478,-9844.739029,76.609550
371.390253,74.020594,-9400.615463,-536.266849
371.390581,1332.370696,-8734.430116,-612.876398
371.390908,1924.535449,-8068.244768,-153.219100
371.391236,2368.659014,-7698.141797,0.000000
371.391563,1850.514855,-7698.141797,766.095498
371.391890,1628.453072,-8438.347739,229.828649
371.392218,-148.041188,-9326.594869,153.219100
371.392545,-1554.432478,-10066.800811,229.828649
371.392873,-2664.741391,-10510.924376,0.000000
371.393200,-2294.638420,-10436.903782,0.000000
371.393528,-1332.370696,-9622.677246,-153.219100
371.393855,0.000000,-9178.553681,0.000000
371.394182,1406.391290,-8808.450710,383.047749
371.394510,2220.617826,-7920.203579,766.095498
371.394837,2590.720797,-7920.203579,1072.533697
371.395165,2368.659014,-7772.162391,1225.752797
371.395492,1554.432478,-9104.533087,1608.800546
371.395820,370.102971,-9696.697840,1072.533697
371.396147,-666.185348,-10362.883188,1149.143247
371.396474,-1850.514855,-10510.924376,842.705048
371.396802,-2294.638420,-10510.924376,1915.238745
371.397129,-1924.535449,-10362.883188,536.266849
371.397457,-1480.411884,-9252.574275,459.657299
371.397784,-370.102971,-8956.491898,536.266849
371.398112,0.000000,-8216.285956,842.705048
371.398439,222.061783,-7402.059420,1302.362347
371.398766,740.205942,-7550.100608,1072.533697
371.399094,222.061783,-7698.141797,1225.752797
371.399421,-666.185348,-8142.265362,1302.362347
371.399749,-1628.453072,-9030.512492,1149.143247
371.400076,-2812.782580,-9104.533087,919.314598
371.400404,-3330.926739,-9474.636058,306.438199
371.400731,-2886.803174,-9474.636058,306.438199
371.401058,-1776.494261,-9104.533087,76.609550
371.401386,-370.102971,-8734.430116,459.657299
371.401713,962.267725,-8586.388927,536.266849
371.402041,1628.453072,-8586.388927,1302.362347
371.402368,1628.453072,-8216.285956,1378.971896
371.402695,1258.350101,-8586.388927,919.314598
371.403023,518.144159,-9326.594869,1225.752797
371.403350,-592.164754,-9918.759623,1302.362347
371.403678,-1776.494261,-10510.924376,536.266849
371.404005,-2220.617826,-10510.924376,76.609550
371.404333,-2368.659014,-10436.903782,153.219100
371.404660,-1480.411884,-9696.697840,0.000000
371.404987,-592.164754,-9474.636058,0.000000
371.405315,370.102971,-7994.224174,0.000000
371.405642,1406.391290,-7920.203579,459.657299
371.405970,1776.494261,-7772.162391,153.219100
371.406297,1776.494261,-7772.162391,76.609550
371.406625,1110.308913,-8216.285956,459.657299
371.406952,296.082377,-8808.450710,383.047749
371.407279,-888.247130,-9696.697840,229.828649
371.407607,-1998.556043,-10362.883188,0.000000
371.407934,-2368.659014,-10362.883188,0.000000
371.408262,-1702.473667,-9696.697840,-229.828649
371.408589,0.000000,-9178.553681,-153.219100
371.408917,1850.514855,-8364.327145,76.609550
371.409244,2442.679609,-8586.388927,536.266849
371.409571,2886.803174,-8068.244768,842.705048
371.409899,2516.700203,-8216.285956,1149.143247
371.410226,2072.576638,-9104.533087,1378.971896
371.410554,962.267725,-9548.656652,842.705048
371.410881,-444.123565,-10362.883188,1378.971896
371.411209,-1850.514855,-10658.965565,1072.533697
371.411536,-2368.659014,-10510.924376,766.095498
371.411863,-2220.617826,-10066.800811,842.705048
371.412191,-1480.411884,-9400.615463,995.924147
371.412518,-444.123565,-8438.347739,459.657299
371.412846,74.020594,-8438.347739,383.047749
371.413173,148.041188,-7994.224174,383.047749
371.413501,0.000000,-7624.121203,536.266849
371.413828,-296.082377,-7698.141797,689.485948
371.414155,-666.185348,-7624.121203,689.485948
371.414483,-1628.453072,-8512.368333,766.095498
371.414810,-2812.782580,-9252.574275,612.876398
371.415138,-3627.009116,-9548.656652,153.219100
371.415465,-3552.988522,-9474.636058,0.000000
371.415793,-2590.720797,-9252.574275,153.219100
371.416120,-1480.411884,-8882.471304,153.219100
371.416447,74.020594,-8660.409521,306.438199
371.416775,1258.350101,-8364.327145,766.095498
371.417102,1776.494261,-8142.265362,1072.533697
371.417430,1924.535449,-8290.306550,1455.581446
371.417757,1036.288319,-8364.327145,1455.581446
371.418085,444.123565,-9474.636058,1378.971896
371.418412,-962.267725,-10362.883188,842.705048
371.418739,-1924.535449,-10584.944971,383.047749
371.419067,-2368.659014,-10288.862594,153.219100
371.419394,-1702.473667,-9548.656652,612.876398
371.419722,0.000000,-9252.574275,0.000000
371.420049,518.144159,-8808.450710,0.000000
371.420376,1924.535449,-8216.285956,0.000000
371.420704,1776.494261,-7994.224174,459.657299
371.421031,1702.473667,-7920.203579,383.047749
371.421359,1036.288319,-8438.347739,612.876398
371.421686,0.000000,-9326.594869,612.876398
371.422014,-1258.350101,-9844.739029,459.657299
371.422341,-2294.638420,-10288.862594,76.609550
371.422668,-3034.844362,-10066.800811,306.438199
371.422996,-2590.720797,-9622.677246,-536.266849
371.423323,-962.267725,-9400.615463,-459.657299
371.423651,444.123565,-8660.409521,-383.047749
371.423978,1776.494261,-8142.265362,76.609550
371.424306,2590.720797,-8290.306550,612.876398
371.424633,2738.761985,-7550.100608,1225.752797
371.424960,2072.576638,-8512.368333,995.924147
371.425288,1332.370696,-9474.636058,1072.533697
371.425615,-222.061783,-10510.924376,1149.143247
371.425943,-1554.432478,-10955.047942,1302.362347
371.426270,-2146.597232,-10510.924376,1302.362347
371.426598,-1924.535449,-10584.944971,919.314598
371.426925,-1406.391290,-10066.800811,842.705048
371.427252,148.041188,-9474.636058,1072.533697
371.427580,666.185348,-8956.491898,766.095498
371.427907,1110.308913,-7698.141797,995.924147
371.428235,962.267725,-8068.244768,689.485948
371.428562,666.185348,-7920.203579,766.095498
371.428890,-222.061783,-9030.512492,689.485948
371.429217,-888.247130,-9178.553681,689.485948
371.429544,-2146.597232,-9474.636058,612.876398
371.429872,-3404.947333,-10140.821405,153.219100
371.430199,-3627.009116,-9992.780217,229.828649
371.430527,-3256.906145,-9844.739029,0.000000
371.430854,-1776.494261,-9178.553681,0.000000
371.431182,-148.041188,-8216.285956,76.609550
371.431509,962.267725,-7994.224174,383.047749
371.431836,1406.391290,-7994.224174,995.924147
371.432164,1702.473667,-7920.203579,1302.362347
371.432491,1332.370696,-8142.265362,1225.752797
371.432819,592.164754,-9030.512492,1225.752797
371.433146,-592.164754,-9548.656652,842.705048
371.433474,-1776.494261,-10510.924376,306.438199
371.433801,-1850.514855,-10658.965565,306.438199
371.434128,-1554.432478,-10066.800811,0.000000
371.434456,-296.082377,-9696.697840,0.000000
371.434783,814.226536,-8882.471304,0.000000
371.435111,1554.432478,-8660.409521,153.219100
371.435438,2368.659014,-8290.306550,383.047749
371.435766,2146.597232,-8142.265362,612.876398
371.436093,1628.453072,-8364.327145,612.876398
371.436420,592.164754,-9030.512492,995.924147
371.436748,-444.123565,-9844.739029,459.657299
371.437075,-2072.576638,-9992.780217,76.609550
371.437403,-2738.761985,-10288.862594,0.000000
371.437730,-2590.720797,-9992.780217,-306.438199
371.438057,-1406.391290,-9400.615463,-306.438199
371.438385,0.000000,-8660.409521,0.000000
371.438712,1554.432478,-7920.203579,0.000000
371.439040,2368.659014,-7476.080014,536.266849
371.439367,2442.679609,-7254.018232,612.876398
371.439695,2368.659014,-7772.162391,1302.362347
371.440022,1628.453072,-8586.388927,1225.752797
371.440349,74.020594,-9474.636058,1302.362347
371.440677,-1258.350101,-9992.780217,1378.971896
371.441004,-2294.638420,-10436.903782,919.314598
371.441332,-1924.535449,-10436.903782,1225.752797
371.441659,-1332.370696,-9918.759623,1455.581446
371.441987,0.000000,-8956.491898,995.924147
371.442314,148.041188,-8512.368333,1455.581446
371.442641,666.185348,-8290.306550,1072.533697
371.442969,148.041188,-7994.224174,1149.143247
371.443296,0.000000,-7698.141797,919.314598
371.443624,-518.144159,-7920.203579,1149.143247
371.443951,-1406.391290,-8882.471304,1225.752797
371.444279,-2516.700203,-9326.594869,1072.533697
371.444606,-3182.885551,-9474.636058,689.485948
371.444933,-3701.029710,-9326.594869,383.047749
371.445261,-3182.885551,-8956.491898,153.219100
371.445588,-2368.659014,-9178.553681,0.000000
371.445916,-1036.288319,-8586.388927,153.219100
371.446243,222.061783,-8068.244768,383.047749
371.446571,1406.391290,-7624.121203,995.924147
371.446898,2146.597232,-7772.162391,1762.019645
371.447225,1628.453072,-8438.347739,1608.800546
371.447553,962.267725,-9178.553681,1455.581446
371.447880,-296.082377,-9992.780217,1225.752797
371.448208,-1702.473667,-10732.986159,766.095498
371.448535,-2368.659014,-10955.047942,766.095498
371.448863,-1850.514855,-10881.027347,-153.219100
371.449190,-1036.288319,-10288.862594,0.000000
371.449517,814.226536,-9474.636058,0.000000
371.449845,1036.288319,-8882.471304,-306.438199
371.450172,2590.720797,-8512.368333,-689.485948
371.450500,2146.597232,-7550.100608,229.828649
371.450827,1702.473667,-8216.285956,0.000000
371.451155,962.267725,-8956.491898,0.000000
371.451482,-518.144159,-9696.697840,153.219100
371.451809,-1628.453072,-9770.718434,0.000000
371.452137,-2442.679609,-10362.883188,-306.438199
371.452464,-2960.823768,-10288.862594,-919.314598
371.452792,-2368.659014,-9918.759623,-919.314598
371.453119,-962.267725,-9178.553681,-1072.533697
371.453447,444.123565,-8364.327145,-995.924147
371.453774,2368.659014,-7846.182985,0.000000
371.454101,3034.844362,-7031.956449,0.000000
371.454429,3034.844362,-7846.182985,536.266849
371.454756,2442.679609,-8290.306550,1149.143247
371.455084,1406.391290,-9474.636058,919.314598
371.455411,-222.061783,-10584.944971,536.266849
371.455739,-1702.473667,-10807.006753,1072.533697
371.456066,-1924.535449,-11103.089130,842.705048
371.456393,-1628.453072,-10807.006753,919.314598
371.456721,-148.041188,-9844.739029,689.485948
371.457048,296.082377,-9030.512492,919.314598
371.457376,1258.350101,-8438.347739,1532.190996
371.457703,1036.288319,-8290.306550,1302.362347
371.458030,1036.288319,-7994.224174,1225.752797
371.458358,222.061783,-7772.162391,1072.533697
371.458685,-296.082377,-8734.430116,1149.143247
371.459013,-2294.638420,-8882.471304,1685.410096
371.459340,-3552.988522,-9400.615463,842.705048
371.459668,-3997.112087,-9474.636058,536.266849
371.459995,-3478.967927,-9474.636058,459.657299
371.460322,-2664.741391,-8956.491898,536.266849
371.460650,-888.247130,-8438.347739,459.657299
371.460977,0.000000,-7920.203579,612.876398
371.461305,740.205942,-7476.080014,1225.752797
371.461632,814.226536,-7550.100608,1302.362347
371.461960,962.267725,-8142.265362,1838.629195
371.462287,518.144159,-8808.450710,1915.238745
371.462614,-740.205942,-9252.574275,1225.752797
371.462942,-1850.514855,-10140.821405,995.924147
371.463269,-2738.761985,-10214.842000,383.047749
371.463597,-2368.659014,-10658.965565,306.438199
371.463924,-1554.432478,-9770.718434,0.000000
371.464252,-222.061783,-9030.512492,0.000000
371.464579,666.185348,-8586.388927,-383.047749
371.464906,1776.494261,-8142.265362,-229.828649
371.465234,2294.638420,-8068.244768,383.047749
371.465561,2294.638420,-8290.306550,995.924147
371.465889,1184.329507,-8216.285956,995.924147
371.466216,222.061783,-9400.615463,612.876398
371.466544,-1628.453072,-10066.800811,459.657299
371.466871,-2442.679609,-10436.903782,0.000000
371.467198,-2516.700203,-10436.903782,-229.828649
371.467526,-1332.370696,-9770.718434,0.000000
371.467853,148.041188,-9104.533087,-459.657299
371.468181,1480.411884,-8142.265362,0.000000
371.468508,2886.803174,-7846.182985,536.266849
371.468836,3256.906145,-7476.080014,459.657299
371.469163,3034.844362,-7698.141797,1225.752797
371.469490,2294.638420,-8660.409521,1455.581446
371.469818,1036.288319,-9474.636058,919.314598
371.470145,-444.123565,-10584.944971,1149.143247
371.470473,-1628.453072,-11103.089130,1072.533697
371.470800,-2146.597232,-11177.109724,383.047749
371.471128,-1924.535449,-10584.944971,1378.971896
371.471455,-888.247130,-9844.739029,995.924147
371.471782,-592.164754,-9326.594869,766.095498
371.472110,370.102971,-8512.368333,689.485948
371.472437,74.020594,-8660.409521,383.047749
371.472765,74.020594,-7624.121203,766.095498
371.473092,0.000000,-8290.306550,689.485948
371.473420,-888.247130,-8438.347739,919.314598
371.473747,-2072.576638,-8660.409521,766.095498
371.474074,-2960.823768,-9326.594869,459.657299
371.474402,-3404.947333,-9696.697840,689.485948
371.474729,-3034.844362,-9548.656652,0.000000
371.475057,-2516.700203,-9104.533087,76.609550
371.475384,-962.267725,-8956.491898,76.609550
371.475711,518.144159,-8438.347739,766.095498
371.476039,1258.350101,-7772.162391,1149.143247
371.476366,2072.576638,-7772.162391,1149.143247
371.476694,1998.556043,-8290.306550,1532.190996
371.477021,1480.411884,-8956.491898,1762.019645
371.477349,74.020594,-9622.677246,1225.752797
371.477676,-592.164754,-10214.842000,919.314598
371.478003,-1406.391290,-10732.986159,766.095498
371.478331,-1776.494261,-10436.903782,459.657299
371.478658,-1628.453072,-10214.842000,229.828649
371.478986,-222.061783,-9770.718434,153.219100
371.479313,962.267725,-8808.450710,153.219100
371.479641,1406.391290,-8068.244768,76.609550
371.479968,1628.453072,-7994.224174,153.219100
371.480295,1406.391290,-8068.244768,612.876398
371.480623,666.185348,-8586.388927,612.876398
371.480950,-148.041188,-8882.471304,383.047749
371.481278,-1332.370696,-9474.636058,766.095498
371.481605,-2590.720797,-9918.759623,-306.438199
371.481933,-3182.885551,-10214.842000,-612.876398
371.482260,-3034.844362,-9622.677246,-919.314598
371.482587,-1628.453072,-9104.533087,-842.705048
371.482915,0.000000,-8068.244768,0.000000
371.483242,1554.432478,-7624.121203,-536.266849
371.483570,2368.659014,-7550.100608,306.438199
371.483897,2738.761985,-7920.203579,842.705048
371.484225,2368.659014,-8364.327145,1149.143247
371.484552,1480.411884,-9104.533087,919.314598
371.484879,0.000000,-10214.842000,1378.971896
371.485207,-1480.411884,-11325.150913,842.705048
371.485534,-1998.556043,-11325.150913,766.095498
371.485862,-2146.597232,-10807.006753,459.657299
371.486189,-888.247130,-10362.883188,1149.143247
371.486517,888.247130,-9770.718434,1072.533697
371.486844,1036.288319,-8808.450710,842.705048
371.487172,1702.473667,-7846.182985,842.705048
371.487499,1554.432478,-7772.162391,1072.533697
371.487826,888.247130,-7846.182985,1072.533697
371.488154,74.020594,-8512.368333,1378.971896
371.488481,-962.267725,-8956.491898,995.924147
371.488809,-2368.659014,-9474.636058,995.924147
371.489136,-3256.906145,-9548.656652,459.657299
371.489464,-3478.967927,-9622.677246,612.876398
371.489791,-2812.782580,-9474.636058,766.095498
371.490119,-1628.453072,-8438.347739,459.657299
371.490446,-148.041188,-8364.327145,229.828649
371.490774,666.185348,-8068.244768,842.705048
371.491101,1184.329507,-7772.162391,919.314598
371.491428,1406.391290,-8068.244768,1302.362347
371.491756,1036.288319,-8364.327145,1225.752797
371.492083,-148.041188,-9104.533087,1302.362347
371.492411,-1184.329507,-9918.759623,1149.143247
371.492738,-2220.617826,-10436.903782,459.657299
371.493066,-2812.782580,-10362.883188,306.438199
371.493393,-2072.576638,-9770.718434,153.219100
371.493721,-1258.350101,-9474.636058,0.000000
371.494048,-148.041188,-8956.491898,0.000000
371.494376,1406.391290,-8734.430116,0.000000
371.494703,1702.473667,-7846.182985,306.438199
371.495030,2368.659014,-7698.141797,1532.190996
371.495358,1628.453072,-8068.244768,306.438199
371.495685,296.082377,-8808.450710,766.095498
371.496013,-888.247130,-9474.636058,306.438199
371.496340,-2146.597232,-9992.780217,0.000000
371.496668,-2960.823768,-10140.821405,0.000000
371.496995,-2072.576638,-10436.903782,-383.047749
371.497323,-962.267725,-9696.697840,-536.266849
371.497650,518.144159,-8808.450710,-459.657299
371.497978,2146.597232,-7920.203579,0.000000
371.498305,3256.906145,-7328.038826,229.828649
371.498633,3256.906145,-7920.203579,306.438199
371.498960,2590.720797,-8142.265362,766.095498
371.499287,1554.432478,-9030.512492,842.705048
371.499615,296.082377,-9696.697840,766.095498
371.499942,-1258.350101,-10732.986159,842.705048
371.500270,-2220.617826,-11547.212695,766.095498
371.500597,-2442.679609,-10732.986159,459.657299
371.500925,-1850.514855,-10066.800811,76.609550
371.501252,-444.123565,-9622.677246,383.047749
371.501580,666.185348,-8956.491898,459.657299
371.501907,518.144159,-7920.203579,1149.143247
371.502235,1406.391290,-7698.141797,766.095498
371.502562,1036.288319,-7698.141797,536.266849
371.502889,74.020594,-8438.347739,842.705048
371.503217,-666.185348,-8956.491898,689.485948
371.503544,-2220.617826,-9326.594869,536.266849
371.503872,-3034.844362,-9696.697840,459.657299
371.504199,-3108.864956,-9918.759623,612.876398
371.504527,-2590.720797,-9918.759623,689.485948
371.504854,-1332.370696,-9400.615463,612.876398
371.505182,296.082377,-9030.512492,1302.362347
371.505509,1258.350101,-8142.265362,1225.752797
371.505837,1332.370696,-8068.244768,1072.533697
371.506164,1480.411884,-8068.244768,1532.190996
371.506491,1184.329507,-8586.388927,1762.019645
371.506819,222.061783,-8734.430116,1455.581446
371.507146,-592.164754,-9548.656652,1149.143247
371.507474,-1850.514855,-10066.800811,612.876398
371.507801,-2590.720797,-10066.800811,536.266849
371.508129,-2146.597232,-9992.780217,306.438199
371.508456,-1332.370696,-9622.677246,383.047749
371.508784,-222.061783,-8882.471304,459.657299
371.509111,666.185348,-8734.430116,153.219100
371.509439,1258.350101,-8364.327145,689.485948
371.509766,1184.329507,-8142.265362,536.266849
371.510093,1036.288319,-8216.285956,1149.143247
371.510421,518.144159,-8512.368333,995.924147
371.510748,-444.123565,-9178.553681,995.924147
371.511076,-2146.597232,-9844.739029,229.828649
371.511403,-3034.844362,-9992.780217,-153.219100
371.511731,-2738.761985,-9622.677246,-229.828649
371.512058,-1702.473667,-9400.615463,-383.047749
371.512386,-148.041188,-8512.368333,-153.219100
371.512713,1628.453072,-7994.224174,0.000000
371.513041,2738.761985,-7846.182985,383.047749
371.513368,3108.864956,-7698.141797,689.485948
371.513696,2516.700203,-8438.347739,919.314598
371.514023,1480.411884,-9104.533087,1685.410096
371.514350,592.164754,-9992.780217,1225.752797
371.514678,-740.205942,-10436.903782,919.314598
371.515005,-2072.576638,-10881.027347,995.924147
371.515333,-2442.679609,-10732.986159,612.876398
371.515660,-1480.411884,-10436.903782,689.485948
371.515988,-1406.391290,-9400.615463,76.609550
371.516315,0.000000,-8438.347739,76.609550
371.516643,666.185348,-7994.224174,0.000000
371.516970,888.247130,-7476.080014,76.609550
371.517298,962.267725,-7105.977043,0.000000
371.517625,592.164754,-7550.100608,1072.533697
371.517952,-296.082377,-8586.388927,689.485948
371.518280,-1480.411884,-9548.656652,766.095498
371.518607,-2442.679609,-9918.759623,306.438199
371.518935,-2960.823768,-9992.780217,383.047749
371.519262,-2368.659014,-9770.718434,536.266849
371.519590,-1406.391290,-9474.636058,689.485948
371.519917,0.000000,-9030.512492,612.876398
371.520245,1110.308913,-8512.368333,1072.533697
371.520572,1702.473667,-8068.244768,1225.752797
371.520900,1998.556043,-8068.244768,1225.752797
371.521227,1480.411884,-8142.265362,1455.581446
371.521554,888.247130,-9030.512492,1378.971896
371.521882,0.000000,-9474.636058,1149.143247
371.522209,-1406.391290,-9918.759623,1072.533697
371.522537,-1924.535449,-10214.842000,919.314598
371.522864,-2368.659014,-9992.780217,995.924147
371.523192,-1480.411884,-9770.718434,459.657299
371.523519,-592.164754,-9400.615463,612.876398
371.523847,444.123565,-8734.430116,459.657299
371.524174,888.247130,-8438.347739,995.924147
371.524502,1110.308913,-7920.203579,1378.971896
371.524829,740.205942,-8068.244768,766.095498
371.525156,370.102971,-8586.388927,1072.533697
371.525484,-1036.288319,-9178.553681,995.924147
371.525811,-2220.617826,-9548.656652,766.095498
371.526139,-2886.803174,-9918.759623,-153.219100
371.526466,-2960.823768,-9770.718434,0.000000
371.526794,-2146.597232,-9400.615463,-229.828649
371.527121,-592.164754,-8586.388927,0.000000
371.527449,888.247130,-8290.306550,229.828649
371.527776,2294.638420,-7698.141797,1072.533697
371.528104,1998.556043,-7772.162391,689.485948
371.528431,2294.638420,-8290.306550,1378.971896
371.528759,1554.432478,-8512.368333,1302.362347
371.529086,666.185348,-9474.636058,1225.752797
371.529413,-296.082377,-10140.821405,1608.800546
371.529741,-2072.576638,-10288.862594,995.924147
371.530068,-2664.741391,-10436.903782,766.095498
371.530396,-2146.597232,-10658.965565,153.219100
371.530723,-962.267725,-9474.636058,0.000000
371.531051,-888.247130,-8956.491898,0.000000
371.531378,740.205942,-8068.244768,0.000000
371.531706,1406.391290,-7846.182985,0.000000
371.532033,1332.370696,-7476.080014,76.609550
371.532361,1332.370696,-7846.182985,306.438199
371.532688,296.082377,-8438.347739,766.095498
371.533015,-814.226536,-8438.347739,536.266849
371.533343,-1850.514855,-9918.759623,306.438199
371.533670,-2738.761985,-9918.759623,153.219100
371.533998,-2516.700203,-10140.821405,0.000000
371.534325,-1332.370696,-10066.800811,0.000000
371.534653,0.000000,-8882.471304,766.095498
371.534980,1110.308913,-8808.450710,459.657299
371.535308,1406.391290,-8216.285956,536.266849
371.535635,1702.473667,-8438.347739,536.266849
371.535963,1776.494261,-8438.347739,842.705048
371.536290,1184.329507,-8956.491898,1225.752797
371.536617,518.144159,-9474.636058,1072.533697
371.536945,-1036.288319,-9622.677246,306.438199
371.537272,-1924.535449,-10658.965565,76.609550
371.537600,-2368.659014,-10288.862594,0.000000
371.537927,-1628.453072,-9992.780217,-153.219100
371.538255,-962.267725,-9400.615463,-153.219100
371.538582,0.000000,-8882.471304,0.000000
371.538910,666.185348,-8734.430116,153.219100
371.539237,1110.308913,-8142.265362,306.438199
371.539565,1480.411884,-8216.285956,842.705048
371.539892,1406.391290,-7846.182985,995.924147
371.540219,-222.061783,-9030.512492,919.314598
371.540547,-1776.494261,-9918.759623,536.266849
371.540874,-2738.761985,-9696.697840,0.000000
371.541202,-3330.926739,-10436.903782,-306.438199
371.541529,-2664.741391,-9770.718434,-383.047749
371.541857,-1258.350101,-9770.718434,-229.828649
371.542184,370.102971,-8808.450710,153.219100
371.542512,1406.391290,-8142.265362,0.000000
371.542839,2664.741391,-8364.327145,459.657299
371.543167,2738.761985,-7994.224174,689.485948
371.543494,2368.659014,-8808.450710,995.924147
371.543822,1628.453072,-10140.821405,1225.752797
371.544149,0.000000,-10214.842000,1072.533697
371.544476,-1924.535449,-10807.006753,919.314598
371.544804,-2072.576638,-11177.109724,842.705048
371.545131,-1924.535449,-10881.027347,76.609550
371.545459,-962.267725,-9992.780217,536.266849
371.545786,0.000000,-9548.656652,383.047749
371.546114,518.144159,-8734.430116,459.657299
371.546441,1332.370696,-8216.285956,766.095498
371.546769,1406.391290,-7105.977043,766.095498
371.547096,1406.391290,-7994.224174,842.705048
371.547424,666.185348,-8660.409521,1225.752797
371.547751,-740.205942,-9252.574275,766.095498
371.548078,-2220.617826,-9770.718434,766.095498
371.548406,-2590.720797,-10214.842000,919.314598
371.548733,-3478.967927,-10214.842000,306.438199
371.549061,-2664.741391,-9918.759623,229.828649
371.549388,-962.267725,-9548.656652,306.438199
371.549716,74.020594,-8882.471304,612.876398
371.550043,1036.288319,-8290.306550,76.609550
371.550371,1924.535449,-8290.306550,1762.019645
371.550698,1702.473667,-7994.224174,1455.581446
371.551026,1258.350101,-8512.368333,1302.362347
371.551353,370.102971,-9400.615463,1378.971896
371.551680,-1258.350101,-9622.677246,1302.362347
371.552008,-1998.556043,-9918.759623,612.876398
371.552335,-2220.617826,-10140.821405,306.438199
371.552663,-1554.432478,-10066.800811,689.485948
371.552990,0.000000,-9252.574275,459.657299
371.553318,814.226536,-9030.512492,689.485948
371.553645,1998.556043,-7920.203579,1455.581446
371.553973,1554.432478,-7994.224174,1225.752797
371.554300,1480.411884,-8068.244768,1302.362347
371.554628,962.267725,-8364.327145,1302.362347
371.554955,-296.082377,-8956.491898,995.924147
371.555282,-1406.391290,-9400.615463,766.095498
371.555610,-2590.720797,-9622.677246,689.485948
371.555937,-3256.906145,-9696.697840,0.000000
371.556265,-2960.823768,-9326.594869,-459.657299
371.556592,-1628.453072,-8808.450710,-459.657299
371.556920,-148.041188,-7994.224174,-536.266849
371.557247,1184.329507,-7328.038826,-306.438199
371.557575,1924.535449,-7402.059420,383.047749
371.557902,1998.556043,-7698.141797,689.485948
371.558230,1554.432478,-8216.285956,919.314598
371.558557,740.205942,-8882.471304,1225.752797
371.558884,-296.082377,-9400.615463,1149.143247
371.559212,-1776.494261,-10732.986159,766.095498
371.559539,-2368.659014,-10881.027347,536.266849
371.559867,-2220.617826,-10214.842000,153.219100
371.560194,-1406.391290,-9400.615463,-229.828649
371.560522,148.041188,-8882.471304,612.876398
371.560849,1480.411884,-8438.347739,76.609550
371.561177,1776.494261,-8068.244768,0.000000
371.561504,1628.453072,-7698.141797,306.438199
371.561832,1776.494261,-7994.224174,612.876398
371.562159,1406.391290,-8512.368333,536.266849
371.562487,0.000000,-9474.636058,459.657299
371.562814,-1406.391290,-9992.780217,536.266849
371.563141,-2516.700203,-10288.862594,229.828649
371.563469,-2886.803174,-10288.862594,153.219100
371.563796,-2886.803174,-9770.718434,-383.047749
371.564124,-1628.453072,-8882.471304,-306.438199
371.564451,0.000000,-8586.388927,76.609550
371.564779,1036.288319,-7920.203579,153.219100
371.565106,1776.494261,-7698.141797,536.266849
371.565434,2220.617826,-7476.080014,1149.143247
371.565761,1554.432478,-8142.265362,1455.581446
371.566089,666.185348,-9030.512492,1149.143247
371.566416,-814.226536,-9696.697840,842.705048
371.566743,-2072.576638,-10436.903782,842.705048
371.567071,-2442.679609,-10584.944971,459.657299
371.567398,-2072.576638,-10140.821405,536.266849
371.567726,-1258.350101,-9992.780217,0.000000
371.568053,74.020594,-9400.615463,612.876398
371.568381,888.247130,-8512.368333,536.266849
371.568708,1480.411884,-8364.327145,766.095498
371.569036,1184.329507,-7846.182985,1072.533697
371.569363,1036.288319,-8216.285956,995.924147
371.569691,-222.061783,-8808.450710,536.266849
371.570018,-1332.370696,-9326.594869,919.314598
371.570345,-2664.741391,-9844.739029,536.266849
371.570673,-3256.906145,-10066.800811,459.657299
371.571000,-3627.009116,-9770.718434,-536.266849
371.571328,-2442.679609,-9548.656652,-306.438199
371.571655,-740.205942,-8660.409521,-383.047749
371.571983,888.247130,-7994.224174,0.000000
371.572310,1998.556043,-7624.121203,459.657299
371.572638,2590.720797,-7402.059420,842.705048
371.572965,2146.597232,-7920.203579,1378.971896
371.573293,1554.432478,-9104.533087,1225.752797
371.573620,74.020594,-9696.697840,1149.143247
371.573947,-1332.370696,-10510.924376,919.314598
371.574275,-1924.535449,-10584.944971,459.657299
371.574602,-2516.700203,-11029.068536,612.876398
371.574930,-1554.432478,-10140.821405,0.000000
371.575257,-222.061783,-9622.677246,459.657299
371.575585,1184.329507,-8882.471304,459.657299
371.575912,1628.453072,-8142.265362,536.266849
371.576240,1776.494261,-7846.182985,612.876398
371.576567,1850.514855,-7994.224174,612.876398
371.576895,814.226536,-8808.450710,689.485948
371.577222,74.020594,-9030.512492,689.485948
371.577550,-1406.391290,-10066.800811,1378.971896
371.577877,-2368.659014,-9992.780217,919.314598
371.578204,-3478.967927,-10066.800811,0.000000
371.578532,-2664.741391,-9622.677246,153.219100
371.578859,-1998.556043,-9252.574275,-153.219100
371.579187,0.000000,-8512.368333,-153.219100
371.579514,296.082377,-7624.121203,-536.266849
371.579842,1628.453072,-7031.956449,459.657299
371.580169,2220.617826,-7772.162391,1302.362347
371.580497,740.205942,-7698.141797,766.095498
371.580824,962.267725,-8290.306550,1302.362347
371.581152,-296.082377,-9252.574275,536.266849
371.581479,-1628.453072,-10214.842000,1225.752797
371.581806,-2368.659014,-10436.903782,383.047749
371.582134,-1850.514855,-10732.986159,766.095498
371.582461,-1776.494261,-9770.718434,229.828649
371.582789,222.061783,-9030.512492,689.485948
371.583116,1184.329507,-8956.491898,612.876398
371.583444,1924.535449,-8068.244768,766.095498
371.583771,1850.514855,-8068.244768,919.314598
371.584094,1036.288319,-8068.244768,1149.143247
371.584421,296.082377,-8290.306550,842.705048
371.584749,-666.185348,-9030.512492,612.876398
371.585076,-2072.576638,-9326.594869,459.657299
371.585404,-2960.823768,-9622.677246,76.609550
371.585731,-3182.885551,-9474.636058,0.000000
371.586059,-2294.638420,-9252.574275,0.000000
371.586386,-222.061783,-8512.368333,0.000000
371.586714,1036.288319,-8290.306550,229.828649
371.587041,1776.494261,-7550.100608,689.485948
371.587369,1924.535449,-7920.203579,766.095498
371.587696,1628.453072,-8142.265362,1378.971896
371.588024,740.205942,-8586.388927,1225.752797
371.588351,148.041188,-9622.677246,1072.533697
371.588679,-1258.350101,-10214.842000,766.095498
371.589006,-1998.556043,-10658.965565,536.266849
371.589334,-2368.659014,-10436.903782,383.047749
371.589661,-1776.494261,-9918.759623,536.266849
371.589989,-592.164754,-9622.677246,612.876398
371.590316,444.123565,-8882.471304,383.047749
371.590644,814.226536,-8512.368333,383.047749
371.590971,1628.453072,-8142.265362,383.047749
371.591299,1406.391290,-7994.224174,536.266849
371.591626,1110.308913,-8660.409521,612.876398
371.591954,74.020594,-9030.512492,919.314598
371.592281,-962.267725,-9770.718434,689.485948
371.592609,-2294.638420,-10362.883188,383.047749
371.592936,-2886.803174,-10140.821405,153.219100
371.593264,-2590.720797,-10288.862594,0.000000
371.593591,-2146.597232,-9474.636058,0.000000
371.593919,-444.123565,-9104.533087,0.000000
371.594246,888.247130,-8438.347739,229.828649
371.594574,1776.494261,-7772.162391,306.438199
371.594901,1702.473667,-7254.018232,919.314598
371.595229,2220.617826,-7550.100608,1149.143247
371.595556,1036.288319,-8808.450710,1072.533697
371.595884,0.000000,-9474.636058,842.705048
371.596211,-1258.350101,-10214.842000,689.485948
371.596539,-1924.535449,-10584.944971,459.657299
371.596866,-2072.576638,-10510.924376,1072.533697
371.597194,-1036.288319,-10066.800811,536.266849
371.597521,0.000000,-9622.677246,842.705048
371.597849,1110.308913,-9104.533087,766.095498
371.598176,1036.288319,-8364.327145,1072.533697
371.598504,1184.329507,-7846.182985,842.705048
371.598831,962.267725,-7994.224174,995.924147
371.599159,222.061783,-8438.347739,919.314598
371.599486,-740.205942,-8956.491898,995.924147
371.599814,-1998.556043,-9548.656652,612.876398
371.600141,-2442.679609,-9400.615463,612.876398
371.600469,-2812.782580,-9622.677246,153.219100
371.600796,-2442.679609,-9030.512492,76.609550
371.601124,-1332.370696,-8808.450710,0.000000
371.601451,0.000000,-8660.409521,153.219100
371.601779,1110.308913,-7698.141797,306.438199
371.602106,1924.535449,-7698.141797,842.705048
371.602434,1924.535449,-8068.244768,1149.143247
371.602761,1480.411884,-8660.409521,1455.581446
371.603089,222.061783,-9474.636058,1608.800546
371.603416,-962.267725,-10066.800811,1608.800546
371.603744,-2220.617826,-10436.903782,995.924147
371.604072,-2442.679609,-10584.944971,842.705048
371.604399,-2368.659014,-10288.862594,306.438199
371.604727,-1036.288319,-9548.656652,306.438199
371.605054,0.000000,-9104.533087,76.609550
371.605382,1406.391290,-8216.285956,689.485948
371.605709,1332.370696,-7920.203579,229.828649
371.606037,1554.432478,-8142.265362,459.657299
371.606364,1184.329507,-8142.265362,612.876398
371.606692,296.082377,-8586.388927,612.876398
371.607019,-740.205942,-9252.574275,459.657299
371.607347,-1924.535449,-9844.739029,459.657299
371.607674,-2886.803174,-10066.800811,0.000000
371.608002,-3034.844362,-9844.739029,-383.047749
371.608329,-2294.638420,-9474.636058,-536.266849
371.608657,-1110.308913,-8734.430116,-612.876398
371.608984,296.082377,-8438.347739,0.000000
371.609312,1036.288319,-7920.203579,0.000000
371.609639,1924.535449,-7624.121203,-306.438199
371.609967,2220.617826,-8068.244768,229.828649
371.610294,1924.535449,-8142.265362,229.828649
371.610622,1184.329507,-9400.615463,612.876398
371.610949,-444.123565,-9844.739029,306.438199
371.611277,-1110.308913,-11029.068536,76.609550
371.611604,-1702.473667,-10214.842000,0.000000
371.611932,-1702.473667,-10140.821405,-306.438199
371.612259,222.061783,-9770.718434,536.266849
371.612587,814.226536,-9030.512492,153.219100
371.612914,2072.576638,-8882.471304,153.219100
371.613242,1998.556043,-8290.306550,612.876398
371.613569,1998.556043,-8290.306550,689.485948
371.613897,1332.370696,-8882.471304,1072.533697
371.614224,962.267725,-9400.615463,1072.533697
371.614552,-1554.432478,-9400.615463,536.266849
371.614879,-3256.906145,-9992.780217,536.266849
371.615207,-3775.050304,-10214.842000,0.000000
371.615534,-2738.761985,-9696.697840,0.000000
371.615862,-1480.411884,-8734.430116,153.219100
371.616189,148.041188,-8808.450710,0.000000
371.616517,1258.350101,-8216.285956,766.095498
371.616844,1332.370696,-7550.100608,919.314598
371.617172,1628.453072,-8216.285956,1225.752797
371.617499,1406.391290,-8512.368333,1455.581446
371.617827,222.061783,-9030.512492,1378.971896
371.618154,-370.102971,-10584.944971,1378.971896
371.618482,-2516.700203,-10510.924376,1378.971896
371.618809,-3108.864956,-10732.986159,995.924147
371.619137,-3034.844362,-10732.986159,1072.533697
371.619464,-2072.576638,-9696.697840,842.705048
371.619792,-740.205942,-9030.512492,689.485948
371.620119,296.082377,-8956.491898,842.705048
371.620447,1110.308913,-8438.347739,1072.533697
371.620774,1628.453072,-7698.141797,536.266849
371.621102,1258.350101,-8438.347739,1225.752797
371.621429,444.123565,-8512.368333,1225.752797
371.621757,-1036.288319,-9252.574275,1302.362347
371.622084,-1924.535449,-9992.780217,689.485948
371.622412,-3330.926739,-10436.903782,229.828649
371.622739,-2738.761985,-10362.883188,612.876398
371.623067,-2368.659014,-9474.636058,383.047749
371.623394,-518.144159,-8956.491898,153.219100
371.623722,592.164754,-8512.368333,229.828649
371.624049,1480.411884,-7994.224174,153.219100
371.624377,2072.576638,-7994.224174,1072.533697
371.624704,2294.638420,-7550.100608,842.705048
371.625032,1406.391290,-8438.347739,1225.752797
371.625360,962.267725,-9474.636058,1149.143247
371.625687,-518.144159,-9918.759623,1072.533697
371.626015,-1702.473667,-9918.759623,1149.143247
371.626342,-1850.514855,-10732.986159,536.266849
371.626670,-1702.473667,-10066.800811,153.219100
371.626997,-592.164754,-9844.739029,229.828649
371.627325,444.123565,-9030.512492,153.219100
371.627652,1776.494261,-8068.244768,459.657299
371.627980,1924.535449,-7550.100608,76.609550
371.628307,1702.473667,-7550.100608,689.485948
371.628635,1406.391290,-7772.162391,459.657299
371.628962,296.082377,-8660.409521,612.876398
371.629290,-1036.288319,-9474.636058,1225.752797
371.629617,-2368.659014,-9622.677246,0.000000
371.629945,-3034.844362,-9918.759623,0.000000
371.630272,-2738.761985,-9622.677246,0.000000
371.630600,-1554.432478,-9252.574275,-306.438199
371.630927,0.000000,-8512.368333,229.828649
371.631255,1554.432478,-7624.121203,536.266849
371.631582,1998.556043,-7846.182985,766.095498
371.631910,2294.638420,-7994.224174,1378.971896
371.632237,1628.453072,-8142.265362,1378.971896
371.632565,666.185348,-8956.491898,1225.752797
371.632892,-518.144159,-9622.677246,1838.629195
371.633220,-1628.453072,-10362.883188,766.095498
371.633547,-2738.761985,-10584.944971,689.485948
371.633875,-2664.741391,-10436.903782,153.219100
371.634202,-2368.659014,-9992.780217,229.828649
371.634530,-888.247130,-9104.533087,-153.219100
371.634857,222.061783,-8660.409521,-459.657299
371.635185,740.205942,-8364.327145,0.000000
371.635512,1628.453072,-7994.224174,306.438199
371.635840,1184.329507,-7846.182985,612.876398
371.636167,740.205942,-7772.162391,1149.143247
371.636495,0.000000,-8882.471304,612.876398
371.636822,-1480.411884,-9622.677246,612.876398
371.637150,-2516.700203,-9770.718434,229.828649
371.637477,-2812.782580,-9992.780217,153.219100
371.637805,-2220.617826,-9622.677246,0.000000
371.638132,-888.247130,-9030.512492,0.000000
371.638460,518.144159,-8586.388927,0.000000
371.638787,1628.453072,-7920.203579,229.828649
371.639115,2294.638420,-7994.224174,612.876398
371.639442,2368.659014,-8438.347739,612.876398
371.639770,2072.576638,-8660.409521,689.485948
371.640097,814.226536,-9326.594869,766.095498
371.640425,-370.102971,-10288.862594,995.924147
371.640752,-1480.411884,-10732.986159,766.095498
371.641080,-2368.659014,-10807.006753,459.657299
371.641407,-2368.659014,-10510.924376,536.266849
371.641735,-1184.329507,-9696.697840,536.266849
371.642062,-222.061783,-9252.574275,229.828649
371.642390,296.082377,-8734.430116,306.438199
371.642717,888.247130,-8068.244768,612.876398
371.643045,1110.308913,-7402.059420,1072.533697
371.643372,1036.288319,-7328.038826,1149.143247
371.643700,148.041188,-8068.244768,1072.533697
371.644027,-1110.308913,-8882.471304,536.266849
371.644355,-2368.659014,-9178.553681,459.657299
371.644682,-3034.844362,-9844.739029,0.000000
371.645010,-2664.741391,-9474.636058,229.828649
371.645337,-1924.535449,-9030.512492,153.219100
371.645665,0.000000,-8512.368333,536.266849
371.645993,1406.391290,-7920.203579,766.095498
371.646320,2220.617826,-7772.162391,995.924147
371.646648,2220.617826,-7772.162391,1838.629195
371.646975,1998.556043,-8290.306550,1685.410096
371.647303,814.226536,-9104.533087,1762.019645
371.647630,-296.082377,-9844.739029,1685.410096
371.647958,-1776.494261,-10510.924376,1302.362347
371.648285,-2368.659014,-10362.883188,1225.752797
371.648613,-2664.741391,-10288.862594,536.266849
371.648940,-2294.638420,-9992.780217,306.438199
371.649268,-1184.329507,-9400.615463,76.609550
371.649595,-296.082377,-8438.347739,153.219100
371.649923,370.102971,-7846.182985,0.000000
371.650250,1036.288319,-7772.162391,995.924147
371.650578,888.247130,-7772.162391,383.047749
371.650905,740.205942,-8364.327145,842.705048
371.651233,-222.061783,-8734.430116,612.876398
371.651560,-1332.370696,-9474.636058,689.485948
371.651888,-2368.659014,-10140.821405,153.219100
371.652215,-3182.885551,-10288.862594,-229.828649
371.652543,-2812.782580,-9992.780217,-459.657299
371.652870,-1480.411884,-9474.636058,-383.047749
371.653198,74.020594,-9030.512492,-383.047749
371.653525,1406.391290,-7920.203579,153.219100
371.653853,2812.782580,-7994.224174,153.219100
371.654180,2886.803174,-7846.182985,383.047749
371.654508,2886.803174,-8438.347739,766.095498
371.654835,1924.535449,-9252.574275,536.266849
371.655163,666.185348,-9992.780217,1378.971896
371.655490,-370.102971,-10584.944971,536.266849
371.655818,-1850.514855,-11251.130318,153.219100
371.656145,-2072.576638,-11103.089130,306.438199
371.656473,-1036.288319,-10510.924376,306.438199
371.656800,0.000000,-9770.718434,153.219100
371.657128,962.267725,-9104.533087,229.828649
371.657455,1110.308913,-8438.347739,306.438199
371.657783,1406.391290,-7994.224174,612.876398
371.658110,814.226536,-7772.162391,689.485948
371.658438,444.123565,-8364.327145,766.095498
371.658765,-592.164754,-9104.533087,919.314598
371.659093,-1776.494261,-9548.656652,612.876398
371.659420,-2960.823768,-9992.780217,383.047749
371.659748,-3108.864956,-9992.780217,306.438199
371.660075,-2368.659014,-9622.677246,153.219100
371.660403,-518.144159,-8808.450710,612.876398
371.660730,814.226536,-8290.306550,842.705048
371.661058,1776.494261,-8068.244768,1302.362347
371.661385,1924.535449,-8068.244768,1608.800546
371.661713,1628.453072,-8216.285956,1991.848295
371.662040,1332.370696,-8512.368333,2145.067394
371.662368,296.082377,-8956.491898,1991.848295
371.662695,-1036.288319,-9844.739029,1762.019645
371.663023,-2146.597232,-10288.862594,1532.190996
371.663350,-2738.761985,-10214.842000,1302.362347
371.663678,-2442.679609,-10066.800811,1072.533697
371.664005,-1480.411884,-9030.512492,306.438199
371.664333,-814.226536,-8956.491898,306.438199
371.664660,518.144159,-7698.141797,612.876398
371.664988,444.123565,-7550.100608,459.657299
371.665315,666.185348,-7402.059420,689.485948
371.665643,592.164754,-7772.162391,612.876398
371.665970,-518.144159,-8438.347739,995.924147
371.666298,-1702.473667,-9104.533087,536.266849
371.666625,-2812.782580,-9622.677246,306.438199
371.666953,-3478.967927,-10140.821405,-153.219100
371.667281,-3478.967927,-9844.739029,-306.438199
371.667608,-2368.659014,-9104.533087,-229.828649
371.667936,-296.082377,-8882.471304,-536.266849
371.668263,1184.329507,-8364.327145,-612.876398
371.668591,2146.597232,-7772.162391,-229.828649
371.668918,2812.782580,-7920.203579,229.828649
371.669246,2886.803174,-8068.244768,689.485948
371.669573,2368.659014,-8956.491898,383.047749
371.669901,1332.370696,-10288.862594,766.095498
371.670228,-296.082377,-10510.924376,459.657299
371.670556,-1480.411884,-10955.047942,306.438199
371.670883,-2368.659014,-10658.965565,153.219100
371.671211,-1702.473667,-10584.944971,-306.438199
371.671538,0.000000,-9770.718434,-306.438199
371.671866,740.205942,-9030.512492,-229.828649
371.672193,1924.535449,-8290.306550,0.000000
371.672521,2738.761985,-7105.977043,536.266849
371.672848,2442.679609,-7698.141797,919.314598
371.673176,1258.350101,-7846.182985,842.705048
371.673503,74.020594,-8808.450710,919.314598
371.673831,-1406.391290,-9548.656652,612.876398
371.674158,-2590.720797,-10362.883188,383.047749
371.674486,-3552.988522,-10066.800811,459.657299
371.674813,-2738.761985,-9844.739029,229.828649
371.675141,-1258.350101,-9178.553681,612.876398
371.675468,444.123565,-8882.471304,766.095498
371.675796,1184.329507,-7920.203579,995.924147
371.676123,1480.411884,-7476.080014,1302.362347
371.676451,1480.411884,-8216.285956,1608.800546
371.676778,888.247130,-8512.368333,1838.629195
371.677106,-296.082377,-9252.574275,1838.629195
371.677433,-1554.432478,-10140.821405,1608.800546
371.677761,-2664.741391,-9844.739029,1608.800546
371.678088,-2960.823768,-10436.903782,1149.143247
371.678416,-2738.761985,-9918.759623,1072.533697
371.678743,-1850.514855,-9400.615463,689.485948
371.679071,-592.164754,-8882.471304,919.314598
371.679398,74.020594,-8512.368333,612.876398
371.679726,444.123565,-8290.306550,1225.752797
371.680053,296.082377,-7994.224174,919.314598
371.680381,0.000000,-8068.244768,919.314598
371.680708,-444.123565,-8660.409521,995.924147
371.681036,-1332.370696,-8956.491898,1149.143247
371.681363,-1702.473667,-9474.636058,536.266849
371.681691,-2886.803174,-10140.821405,0.000000
371.682018,-3034.844362,-10066.800811,-459.657299
371.682346,-2442.679609,-9918.759623,-459.657299
371.682673,-740.205942,-8956.491898,-536.266849
371.683001,1184.329507,-8512.368333,-1149.143247
371.683328,1998.556043,-8216.285956,-306.438199
371.683656,2812.782580,-7846.182985,229.828649
371.683983,2960.823768,-8142.265362,536.266849
371.684311,2664.741391,-8660.409521,919.314598
371.684638,1998.556043,-9696.697840,919.314598
371.684966,0.000000,-10436.903782,689.485948
371.685293,-1258.350101,-11029.068536,153.219100
371.685621,-1776.494261,-11103.089130,153.219100
371.685948,-1406.391290,-10436.903782,-229.828649
371.686276,0.000000,-9918.759623,1072.533697
371.686603,1406.391290,-8956.491898,153.219100
371.686931,1850.514855,-8216.285956,153.219100
371.687258,2294.638420,-7698.141797,153.219100
371.687586,2294.638420,-7550.100608,612.876398
371.687913,1184.329507,-7550.100608,612.876398
371.688241,740.205942,-8660.409521,1072.533697
371.688568,-1184.329507,-9474.636058,306.438199
371.688896,-2664.741391,-9844.739029,306.438199
371.689223,-3330.926739,-9918.759623,0.000000
371.689551,-3108.864956,-9770.718434,0.000000
371.689878,-2294.638420,-8808.450710,153.219100
371.690206,-370.102971,-8660.409521,306.438199
371.690533,592.164754,-8142.265362,766.095498
371.690861,1628.453072,-7476.080014,995.924147
371.691188,1628.453072,-7476.080014,1685.410096
371.691516,2220.617826,-7920.203579,1915.238745
371.691843,148.041188,-8734.430116,1608.800546
371.692171,-962.267725,-9622.677246,1838.629195
371.692498,-2146.597232,-10214.842000,1532.190996
371.692826,-2590.720797,-10288.862594,1302.362347
371.693153,-2442.679609,-10214.842000,995.924147
371.693481,-1628.453072,-9474.636058,1149.143247
371.693808,0.000000,-8882.471304,919.314598
371.694136,148.041188,-8586.388927,842.705048
371.694463,962.267725,-8068.244768,1225.752797
371.694791,814.226536,-7994.224174,1302.362347
371.695118,370.102971,-8216.285956,919.314598
371.695446,0.000000,-8512.368333,1072.533697
371.695773,-1110.308913,-9178.553681,1072.533697
371.696101,-2368.659014,-9474.636058,995.924147
371.696428,-3034.844362,-9844.739029,306.438199
371.696755,-3256.906145,-9770.718434,229.828649
371.697083,-2886.803174,-9548.656652,-536.266849
371.697410,-1850.514855,-9030.512492,-229.828649
371.697738,-222.061783,-8512.368333,-536.266849
371.698065,962.267725,-7994.224174,-229.828649
371.698393,2220.617826,-7179.997637,229.828649
371.698720,2590.720797,-7550.100608,842.705048
371.699048,2368.659014,-8142.265362,919.314598
371.699375,1184.329507,-8956.491898,1072.533697
371.699703,0.000000,-9992.780217,842.705048
371.700030,-1480.411884,-11251.130318,536.266849
371.700358,-1998.556043,-10881.027347,229.828649
371.700685,-1850.514855,-10881.027347,-153.219100
371.701013,-1036.288319,-10362.883188,-306.438199
371.701340,814.226536,-9548.656652,-306.438199
371.701668,1702.473667,-8734.430116,0.000000
371.701995,1998.556043,-7550.100608,306.438199
371.702323,2294.638420,-7624.121203,306.438199
371.702650,1998.556043,-8068.244768,306.438199
371.702978,888.247130,-8586.388927,306.438199
371.703305,-444.123565,-9474.636058,306.438199
371.703633,-1850.514855,-9918.759623,-229.828649
371.703960,-2738.761985,-10288.862594,153.219100
371.704288,-2664.741391,-10214.842000,0.000000
371.704615,-1554.432478,-9622.677246,229.828649
371.704943,-296.082377,-8956.491898,612.876398
371.705270,888.247130,-8290.306550,766.095498
371.705598,1998.556043,-8068.244768,842.705048
371.705925,1776.494261,-8142.265362,1149.143247
371.706253,1332.370696,-8290.306550,1149.143247
371.706580,814.226536,-8956.491898,1225.752797
371.706908,-296.082377,-9104.533087,995.924147
371.707235,-1258.350101,-9992.780217,1302.362347
371.707563,-2368.659014,-10362.883188,1072.533697
371.707890,-2516.700203,-10214.842000,842.705048
371.708218,-1924.535449,-9992.780217,842.705048
371.708545,-1184.329507,-9474.636058,612.876398
371.708873,-296.082377,-8586.388927,306.438199
371.709200,296.082377,-8364.327145,689.485948
371.709528,444.123565,-8290.306550,1072.533697
371.709855,222.061783,-8216.285956,1225.752797
371.710182,0.000000,-8438.347739,1378.971896
371.710510,-962.267725,-8660.409521,1532.190996
371.710837,-1702.473667,-9474.636058,995.924147
371.711165,-3108.864956,-9770.718434,459.657299
371.711492,-3552.988522,-9696.697840,76.609550
371.711820,-2886.803174,-9622.677246,0.000000
371.712147,-1924.535449,-8586.388927,153.219100
371.712475,74.020594,-8586.388927,-153.219100
371.712802,1036.288319,-8216.285956,0.000000
371.713130,1776.494261,-7994.224174,383.047749
371.713457,1924.535449,-7994.224174,612.876398
371.713785,2072.576638,-8216.285956,995.924147
371.714112,1184.329507,-9178.553681,1072.533697
371.714440,0.000000,-9918.759623,459.657299
371.714767,-1184.329507,-10732.986159,536.266849
371.715095,-2220.617826,-10955.047942,0.000000
371.715422,-2146.597232,-10881.027347,229.828649
371.715750,-1258.350101,-10658.965565,-383.047749
371.716077,0.000000,-9474.636058,-459.657299
371.716405,962.267725,-8438.347739,-536.266849
371.716732,2146.597232,-8068.244768,-383.047749
371.717060,2368.659014,-7624.121203,0.000000
371.717387,1998.556043,-7105.977043,306.438199
371.717715,1702.473667,-8438.347739,383.047749
371.718042,0.000000,-9326.594869,536.266849
371.718370,-1406.391290,-9992.780217,153.219100
371.718697,-2294.638420,-10584.944971,0.000000
371.719025,-2146.597232,-9844.739029,0.000000
371.719352,-1184.329507,-9474.636058,0.000000
371.719680,222.061783,-9104.533087,612.876398
371.720007,1480.411884,-8364.327145,919.314598
371.720335,2368.659014,-8142.265362,995.924147
371.720662,2368.659014,-7994.224174,1838.629195
371.720990,1924.535449,-8364.327145,1838.629195
371.721317,740.205942,-8956.491898,1762.019645
371.721645,-296.082377,-9844.739029,1608.800546
371.721972,-1332.370696,-10362.883188,1378.971896
371.722300,-2220.617826,-10510.924376,1225.752797
371.722627,-2960.823768,-10362.883188,1225.752797
371.722954,-2812.782580,-10066.800811,842.705048
371.723282,-2146.597232,-9400.615463,306.438199
371.723609,-1258.350101,-8734.430116,612.876398
371.723937,-222.061783,-8068.244768,689.485948
371.724264,444.123565,-7772.162391,1455.581446
371.724592,296.082377,-7698.141797,1149.143247
371.724919,296.082377,-7772.162391,1225.752797
371.725247,-666.185348,-8438.347739,1455.581446
371.725574,-1998.556043,-9104.533087,1225.752797
371.725902,-3256.906145,-9548.656652,1532.190996
371.726229,-3256.906145,-9622.677246,306.438199
371.726557,-2960.823768,-9696.697840,0.000000
371.726884,-1628.453072,-9178.553681,76.609550
371.727212,296.082377,-8808.450710,153.219100
371.727539,1406.391290,-7550.100608,0.000000
371.727867,2220.617826,-8068.244768,612.876398
371.728194,2294.638420,-7846.182985,842.705048
371.728522,2072.576638,-8364.327145,842.705048
371.728849,1258.350101,-8956.491898,689.485948
371.729177,296.082377,-9548.656652,919.314598
371.729504,-814.226536,-10807.006753,689.485948
371.729832,-1702.473667,-10658.965565,842.705048
371.730159,-1850.514855,-10732.986159,153.219100
371.730487,-1554.432478,-10140.821405,0.000000
371.730814,-296.082377,-9252.574275,-306.438199
371.731142,370.102971,-8512.368333,-536.266849
371.731469,1480.411884,-7624.121203,-229.828649
371.731797,1554.432478,-7476.080014,0.000000
371.732124,1850.514855,-7328.038826,306.438199
371.732452,1406.391290,-7624.121203,536.266849
371.732779,-148.041188,-7994.224174,689.485948
371.733107,-1480.411884,-9178.553681,766.095498
371.733434,-2516.700203,-9844.739029,0.000000
371.733762,-2812.782580,-9622.677246,-383.047749
371.734089,-2146.597232,-9474.636058,-229.828649
371.734417,-666.185348,-9104.533087,306.438199
371.734744,814.226536,-8586.388927,766.095498
371.735072,1702.473667,-8216.285956,842.705048
371.735399,2146.597232,-7994.224174,995.924147
371.735727,1998.556043,-8068.244768,1302.362347
371.736054,1332.370696,-8882.471304,1455.581446
371.736381,518.144159,-9548.656652,1149.143247
371.736709,-1258.350101,-10214.842000,995.924147
371.737036,-2294.638420,-10807.006753,995.924147
371.737364,-2664.741391,-10436.903782,995.924147
371.737691,-2146.597232,-10214.842000,536.266849
371.738019,-1480.411884,-9474.636058,689.485948
371.738346,-222.061783,-8808.450710,919.314598
371.738674,518.144159,-8586.388927,842.705048
371.739001,1036.288319,-8068.244768,842.705048
371.739329,814.226536,-7772.162391,842.705048
371.739656,296.082377,-8364.327145,1072.533697
371.739984,-370.102971,-8512.368333,995.924147
371.740311,-1036.288319,-9696.697840,1072.533697
371.740639,-2590.720797,-9770.718434,689.485948
371.740966,-3034.844362,-10066.800811,536.266849
371.741294,-2960.823768,-10436.903782,153.219100
371.741621,-2590.720797,-9770.718434,153.219100
371.741949,-888.247130,-9400.615463,0.000000
371.742276,518.144159,-8956.491898,229.828649
371.742604,1258.350101,-8290.306550,306.438199
371.742931,1924.535449,-8142.265362,689.485948
371.743259,2072.576638,-8438.347739,0.000000
371.743586,1702.473667,-8734.430116,1378.971896
371.743914,518.144159,-9622.677246,919.314598
371.744241,-962.267725,-10362.883188,689.485948
371.744569,-2220.617826,-10807.006753,459.657299
371.744896,-2368.659014,-11029.068536,459.657299
371.745224,-1776.494261,-10436.903782,0.000000
371.745551,-962.267725,-9548.656652,0.000000
371.745879,740.205942,-8808.450710,-153.219100
371.746206,1332.370696,-8364.327145,0.000000
371.746534,1924.535449,-7402.059420,536.266849
371.746861,1998.556043,-7772.162391,459.657299
371.747189,1480.411884,-8142.265362,612.876398
371.747516,370.102971,-8586.388927,689.485948
371.747844,-814.226536,-9548.656652,459.657299
371.748171,-1998.556043,-9992.780217,153.219100
371.748499,-2516.700203,-10140.821405,383.047749
371.748826,-1850.514855,-9622.677246,306.438199
371.749153,-740.205942,-8956.491898,306.438199
371.749481,814.226536,-8660.409521,459.657299
371.749808,1998.556043,-7994.224174,1072.533697
371.750136,2516.700203,-7476.080014,1149.143247
371.750463,2220.617826,-7920.203579,1378.971896
371.750791,1850.514855,-8216.285956,1685.410096
371.751118,814.226536,-8660.409521,1608.800546
371.751446,-518.144159,-9474.636058,1378.971896
371.751773,-2146.597232,-9770.718434,1991.848295
371.752101,-2590.720797,-10288.862594,459.657299
371.752428,-2738.761985,-9992.780217,919.314598
371.752756,-2368.659014,-9474.636058,612.876398
371.753083,-1184.329507,-8956.491898,766.095498
371.753411,-296.082377,-8142.265362,689.485948
371.753738,370.102971,-7550.100608,995.924147
371.754066,296.082377,-7402.059420,689.485948
371.754393,148.041188,-7402.059420,689.485948
371.754721,-296.082377,-7846.182985,1149.143247
371.755048,-1184.329507,-8734.430116,842.705048
371.755376,-2368.659014,-9178.553681,536.266849
371.755703,-3182.885551,-9622.677246,306.438199
371.756031,-3404.947333,-9992.780217,-153.219100
371.756358,-2738.761985,-9548.656652,-229.828649
371.756686,-1258.350101,-9400.615463,0.000000
371.757013,962.267725,-8734.430116,76.609550
371.757341,1850.514855,-8290.306550,229.828649
371.757668,2442.679609,-8068.244768,383.047749
371.757996,2738.761985,-8216.285956,612.876398
371.758323,2516.700203,-8808.450710,919.314598
371.758651,1628.453072,-9696.697840,766.095498
371.758978,148.041188,-10214.842000,842.705048
371.759306,-1258.350101,-10881.027347,153.219100
371.759633,-1850.514855,-11029.068536,-153.219100
371.759961,-1850.514855,-10584.944971,-306.438199
371.760288,-1036.288319,-10066.800811,-383.047749
371.760616,370.102971,-9252.574275,-229.828649
371.760943,1184.329507,-8586.388927,-536.266849
371.761271,1776.494261,-8068.244768,-306.438199
371.761598,2072.576638,-7772.162391,76.609550
371.761926,1480.411884,-7920.203579,306.438199
371.762253,740.205942,-8734.430116,459.657299
371.762580,-740.205942,-9474.636058,229.828649
371.762908,-2220.617826,-10214.842000,76.609550
371.763235,-3034.844362,-10658.965565,-229.828649
371.763563,-2812.782580,-10436.903782,0.000000
371.763890,-1998.556043,-9696.697840,0.000000
371.764218,-222.061783,-9030.512492,459.657299
371.764545,1406.391290,-8660.409521,612.876398
371.764873,2442.679609,-7994.224174,1225.752797
371.765200,2368.659014,-7846.182985,1302.362347
371.765528,2368.659014,-8364.327145,1378.971896
371.765855,1480.411884,-8956.491898,1455.581446
371.766183,-296.082377,-9548.656652,1762.019645
371.766510,-1702.473667,-10436.903782,1608.800546
371.766838,-2664.741391,-10584.944971,1149.143247
371.767165,-2590.720797,-10362.883188,1838.629195
371.767493,-1776.494261,-9474.636058,1608.800546
371.767820,-1332.370696,-9326.594869,1225.752797
371.768148,0.000000,-8734.430116,995.924147
371.768475,296.082377,-8290.306550,1072.533697
371.768803,148.041188,-7920.203579,766.095498
371.769130,370.102971,-7846.182985,995.924147
371.769458,0.000000,-7994.224174,1378.971896
371.769785,-1184.329507,-8438.347739,1072.533697
371.770113,-2294.638420,-9326.594869,1072.533697
371.770440,-3256.906145,-9622.677246,536.266849
371.770768,-3923.091493,-9104.533087,76.609550
371.771095,-2664.741391,-9400.615463,0.000000
371.771423,-1702.473667,-9252.574275,0.000000
371.771750,-222.061783,-8660.409521,0.000000
371.772078,1184.329507,-8364.327145,306.438199
371.772405,1998.556043,-7772.162391,306.438199
371.772733,2442.679609,-8068.244768,842.705048
371.773060,1776.494261,-8660.409521,919.314598
371.773388,1332.370696,-9400.615463,842.705048
371.773715,148.041188,-9918.759623,459.657299
371.774043,-1036.288319,-10658.965565,229.828649
371.774370,-1628.453072,-10510.924376,0.000000
371.774698,-1628.453072,-10510.924376,-536.266849
371.775025,-1036.288319,-9844.739029,-612.876398
371.775352,592.164754,-9326.594869,-306.438199
371.775680,1776.494261,-8882.471304,-536.266849
371.776007,2072.576638,-8068.244768,-306.438199
371.776335,2368.659014,-7846.182985,0.000000
371.776662,2072.576638,-8216.285956,76.609550
371.776990,1110.308913,-8586.388927,229.828649
371.777317,0.000000,-9474.636058,306.438199
371.777645,-1480.411884,-10140.821405,153.219100
371.777972,-2220.617826,-10732.986159,0.000000
371.778300,-2368.659014,-10288.862594,0.000000
371.778627,-1554.432478,-9992.780217,0.000000
371.778955,0.000000,-9326.594869,0.000000
371.779282,1480.411884,-8364.327145,459.657299
371.779610,2294.638420,-8142.265362,689.485948
371.779937,2368.659014,-8290.306550,1072.533697
371.780265,1776.494261,-8364.327145,1225.752797
371.780592,962.267725,-9104.533087,1608.800546
371.780920,0.000000,-9770.718434,1302.362347
371.781247,-1702.473667,-10066.800811,1838.629195
371.781575,-2368.659014,-10584.944971,1149.143247
371.781902,-2590.720797,-10881.027347,995.924147
371.782230,-2146.597232,-10140.821405,1072.533697
371.782557,-1554.432478,-9548.656652,612.876398
371.782885,-370.102971,-8660.409521,1302.362347
371.783212,666.185348,-8364.327145,842.705048
371.783540,666.185348,-8142.265362,842.705048
371.783867,666.185348,-7994.224174,1225.752797
371.784195,148.041188,-8290.306550,1378.971896
371.784522,-814.226536,-8142.265362,1455.581446
371.784850,-1998.556043,-9178.553681,919.314598
371.785177,-2960.823768,-9770.718434,995.924147
371.785505,-3256.906145,-9844.739029,459.657299
371.785832,-2960.823768,-9770.718434,536.266849
371.786160,-1998.556043,-9104.533087,842.705048
371.786487,74.020594,-8586.388927,842.705048
371.786815,1258.350101,-8364.327145,536.266849
371.787142,1628.453072,-7994.224174,995.924147
371.787470,1776.494261,-8142.265362,1072.533697
371.787797,1406.391290,-8438.347739,1225.752797
371.788124,888.247130,-8734.430116,1149.143247
371.788452,0.000000,-9622.677246,1225.752797
371.788779,-1184.329507,-10066.800811,689.485948
371.789107,-2072.576638,-10362.883188,306.438199
371.789434,-1776.494261,-10288.862594,76.609550
371.789762,-1110.308913,-9474.636058,383.047749
371.790089,-296.082377,-8586.388927,-229.828649
371.790417,888.247130,-8586.388927,0.000000
371.790744,1332.370696,-7698.141797,-229.828649
371.791072,1702.473667,-7772.162391,76.609550
371.791399,1702.473667,-7550.100608,536.266849
371.791727,888.247130,-8216.285956,306.438199
371.792054,0.000000,-8808.450710,459.657299
371.792382,-1554.432478,-9548.656652,76.609550
371.792709,-2368.659014,-10066.800811,-306.438199
371.793037,-2368.659014,-9844.739029,-536.266849
371.793364,-1258.350101,-9178.553681,-459.657299
371.793692,0.000000,-8660.409521,-229.828649
371.794019,1406.391290,-8512.368333,0.000000
371.794347,2368.659014,-8068.244768,306.438199
371.794674,2664.741391,-7920.203579,689.485948
371.795002,2442.679609,-8068.244768,1149.143247
371.795329,1480.411884,-8956.491898,1378.971896
371.795657,518.144159,-9770.718434,1532.190996
371.795984,-814.226536,-10584.944971,1072.533697
371.796312,-1924.535449,-10807.006753,919.314598
371.796639,-1850.514855,-10510.924376,995.924147
371.796967,-1702.473667,-9844.739029,0.000000
371.797294,-1110.308913,-9474.636058,689.485948
371.797622,0.000000,-8956.491898,229.828649
371.797949,370.102971,-8586.388927,383.047749
371.798277,1036.288319,-7846.182985,612.876398
371.798604,592.164754,-7846.182985,766.095498
371.798932,148.041188,-8364.327145,842.705048
371.799259,-740.205942,-8586.388927,766.095498
371.799586,-1776.494261,-9252.574275,689.485948
371.799914,-2960.823768,-9696.697840,383.047749
371.800241,-3108.864956,-10288.862594,229.828649
371.800569,-3404.947333,-9474.636058,76.609550
371.800896,-2368.659014,-9400.615463,76.609550
371.801224,-962.267725,-8586.388927,306.438199
371.801551,444.123565,-8438.347739,536.266849
371.801879,1332.370696,-7920.203579,919.314598
371.802206,1998.556043,-7846.182985,1302.362347
371.802534,1924.535449,-8364.327145,1532.190996
371.802861,1628.453072,-8882.471304,1532.190996
371.803189,296.082377,-9770.718434,1532.190996
371.803516,-592.164754,-10436.903782,842.705048
371.803844,-2146.597232,-10584.944971,1149.143247
371.804171,-2146.597232,-10658.965565,842.705048
371.804499,-1628.453072,-10066.800811,153.219100
371.804826,-592.164754,-9622.677246,459.657299
371.805154,592.164754,-8956.491898,383.047749
371.805481,962.267725,-7920.203579,612.876398
371.805809,1110.308913,-7698.141797,306.438199
371.806136,1258.350101,-7772.162391,612.876398
371.806464,888.247130,-7920.203579,766.095498
371.806791,0.000000,-8734.430116,459.657299
371.807119,-1110.308913,-9326.594869,306.438199
371.807446,-2738.761985,-9548.656652,0.000000
371.807774,-2886.803174,-10066.800811,-153.219100
371.808101,-2960.823768,-9918.759623,-459.657299
371.808429,-1998.556043,-9400.615463,-459.657299
371.808756,-370.102971,-8586.388927,0.000000
371.809084,1332.370696,-8068.244768,153.219100
371.809411,2220.617826,-7624.121203,229.828649
371.809739,2812.782580,-7846.182985,1072.533697
371.810066,2516.700203,-8290.306550,842.705048
371.810394,1628.453072,-9030.512492,1378.971896
371.810721,370.102971,-9770.718434,842.705048
371.811048,-1184.329507,-10584.944971,612.876398
371.811376,-1776.494261,-10658.965565,689.485948
371.811703,-1480.411884,-10584.944971,842.705048
371.812031,-222.061783,-9696.697840,1149.143247
371.812358,296.082377,-8586.388927,1149.143247
371.812686,1480.411884,-8364.327145,459.657299
371.813013,1406.391290,-8364.327145,919.314598
371.813341,888.247130,-8068.244768,995.924147
371.813668,370.102971,-8216.285956,1072.533697
371.813996,-444.123565,-8068.244768,1302.362347
371.814323,-1110.308913,-8882.471304,842.705048
371.814651,-2368.659014,-9400.615463,919.314598
371.814978,-3330.926739,-9696.697840,766.095498
371.815306,-3404.947333,-9622.677246,229.828649
371.815633,-3256.906145,-8808.450710,153.219100
371.815961,-1702.473667,-9252.574275,-153.219100
371.816288,-814.226536,-8660.409521,229.828649
371.816616,296.082377,-8142.265362,229.828649
371.816943,962.267725,-7994.224174,919.314598
371.817271,1924.535449,-7772.162391,995.924147
371.817598,962.267725,-8438.347739,1532.190996
371.817926,0.000000,-9474.636058,919.314598
371.818253,-1184.329507,-9918.759623,919.314598
371.818581,-2146.597232,-10732.986159,612.876398
371.818908,-2442.679609,-10658.965565,306.438199
371.819236,-2146.597232,-10066.800811,229.828649
371.819563,-962.267725,-9844.739029,0.000000
371.819891,370.102971,-9178.553681,76.609550
371.820218,1850.514855,-8438.347739,459.657299
371.820546,1850.514855,-8068.244768,306.438199
371.820873,2294.638420,-7624.121203,689.485948
371.821201,1554.432478,-8290.306550,612.876398
371.821528,740.205942,-9104.533087,612.876398
371.821856,-592.164754,-9474.636058,153.219100
371.822183,-1776.494261,-9992.780217,76.609550
371.822510,-2368.659014,-10214.842000,76.609550
371.822838,-2220.617826,-10362.883188,-306.438199
371.823165,-1332.370696,-9548.656652,-229.828649
371.823493,0.000000,-8956.491898,-306.438199
371.823820,1184.329507,-8290.306550,0.000000
371.824148,1850.514855,-7772.162391,459.657299
371.824475,2368.659014,-7698.141797,1072.533697
371.824803,2294.638420,-8216.285956,1072.533697
371.825130,1702.473667,-8808.450710,1302.362347
371.825458,0.000000,-9474.636058,1225.752797
371.825785,-1332.370696,-10436.903782,766.095498
371.826113,-2072.576638,-10436.903782,1225.752797
371.826440,-2220.617826,-10362.883188,612.876398
371.826768,-1554.432478,-9844.739029,1072.533697
371.827095,-148.041188,-9252.574275,919.314598
371.827423,222.061783,-8586.388927,919.314598
371.827750,888.247130,-8142.265362,1072.533697
371.828078,518.144159,-7920.203579,1302.362347
371.828405,222.061783,-7920.203579,1225.752797
371.828733,-148.041188,-8586.388927,1225.752797
371.829060,-1036.288319,-8808.450710,1149.143247
371.829388,-2368.659014,-9400.615463,919.314598
371.829715,-2738.761985,-9326.594869,459.657299
371.830043,-3404.947333,-9770.718434,306.438199
371.830370,-2960.823768,-9326.594869,0.000000
371.830698,-1924.535449,-8734.430116,0.000000
371.831025,-592.164754,-7994.224174,383.047749
371.831353,1036.288319,-7698.141797,766.095498
371.831680,1480.411884,-7624.121203,689.485948
371.832008,1406.391290,-7920.203579,1149.143247
371.832335,1480.411884,-8586.388927,1455.581446
371.832663,518.144159,-9474.636058,1378.971896
371.832990,-666.185348,-9918.759623,995.924147
371.833318,-1554.432478,-10584.944971,689.485948
371.833645,-2368.659014,-10584.944971,306.438199
371.833972,-2294.638420,-10288.862594,-229.828649
371.834300,-888.247130,-9844.739029,0.000000
371.834627,370.102971,-9326.594869,-306.438199
371.834955,1480.411884,-8512.368333,-536.266849
371.835282,1998.556043,-8216.285956,-229.828649
371.835610,2146.597232,-7920.203579,153.219100
371.835937,1850.514855,-8438.347739,229.828649
371.836265,1332.370696,-8734.430116,0.000000
371.836592,0.000000,-9622.677246,842.705048
371.836920,-1702.473667,-10436.903782,0.000000
371.837247,-2738.761985,-10881.027347,-459.657299
371.837575,-3034.844362,-10510.924376,-766.095498
371.837902,-1776.494261,-9992.780217,-612.876398
371.838230,-296.082377,-9178.553681,-459.657299
371.838557,1036.288319,-8290.306550,-459.657299
371.838885,2368.659014,-7846.182985,153.219100
371.839212,2812.782580,-7328.038826,459.657299
371.839540,3108.864956,-7624.121203,995.924147
371.839867,2294.638420,-8364.327145,1378.971896
371.840195,592.164754,-9622.677246,1302.362347
371.840522,-814.226536,-10658.965565,995.924147
371.840850,-1924.535449,-10807.006753,1072.533697
371.841177,-1998.556043,-10955.047942,919.314598
371.841505,-1480.411884,-10732.986159,995.924147
371.841832,-222.061783,-9844.739029,1608.800546
371.842160,592.164754,-9104.533087,1378.971896
371.842487,814.226536,-8364.327145,1225.752797
371.842815,962.267725,-8068.244768,995.924147
371.843142,518.144159,-7698.141797,1149.143247
371.843470,74.020594,-7920.203579,1149.143247
371.843797,-1036.288319,-8586.388927,1149.143247
371.844125,-2294.638420,-9252.574275,919.314598
371.844452,-2886.803174,-9474.636058,842.705048
371.844780,-3478.967927,-9548.656652,1072.533697
371.845107,-3182.885551,-9104.533087,306.438199
371.845434,-2590.720797,-8586.388927,536.266849
371.845762,-888.247130,-8586.388927,689.485948
371.846089,0.000000,-8068.244768,689.485948
371.846417,740.205942,-7846.182985,1302.362347
371.846744,962.267725,-7550.100608,1685.410096
371.847072,1110.308913,-7846.182985,1762.019645
371.847399,518.144159,-8586.388927,1225.752797
371.847727,-518.144159,-9474.636058,1378.971896
371.848054,-1554.432478,-10066.800811,1072.533697
371.848382,-2294.638420,-10140.821405,536.266849
371.848709,-1850.514855,-10584.944971,153.219100
371.849037,-1702.473667,-10214.842000,76.609550
371.849364,-370.102971,-9548.656652,-306.438199
371.849692,518.144159,-8956.491898,-153.219100
371.850019,1998.556043,-8142.265362,383.047749
371.850347,2220.617826,-7994.224174,76.609550
371.850674,2146.597232,-8364.327145,689.485948
371.851002,1258.350101,-8882.471304,306.438199
371.851329,-222.061783,-9400.615463,229.828649
371.851657,-1554.432478,-9844.739029,0.000000
371.851984,-2442.679609,-9844.739029,-306.438199
371.852312,-2516.700203,-10140.821405,-536.266849
371.852639,-1480.411884,-9474.636058,-842.705048
371.852967,222.061783,-8882.471304,-383.047749
371.853294,1554.432478,-8216.285956,-153.219100
371.853622,2516.700203,-7846.182985,306.438199
371.853949,2590.720797,-7994.224174,536.266849
