#time,accel_x,accel_y,accel_z
423.706010,-370.102971,-8956.491898,229.828649
423.706337,-222.061783,-8808.450710,536.266849
423.706665,-222.061783,-9030.512492,536.266849
423.706993,0.000000,-9104.533087,766.095498
423.707321,-370.102971,-8882.471304,383.047749
423.707649,0.000000,-9178.553681,1149.143247
423.707977,-296.082377,-8956.491898,306.438199
423.708305,-518.144159,-8956.491898,459.657299
423.708633,-222.061783,-9178.553681,459.657299
423.708961,-370.102971,-9104.533087,459.657299
423.709288,0.000000,-9178.553681,383.047749
423.709616,-296.082377,-8956.491898,536.266849
423.709944,0.000000,-9326.594869,766.095498
423.710272,0.000000,-9104.533087,536.266849
423.710600,-296.082377,-9178.553681,536.266849
423.710928,-296.082377,-9326.594869,383.047749
423.711256,-592.164754,-9326.594869,1302.362347
423.711584,370.102971,-9104.533087,229.828649
423.711911,-370.102971,-9030.512492,459.657299
423.712239,-148.041188,-9178.553681,689.485948
423.712567,-370.102971,-9252.574275,689.485948
423.712895,-296.082377,-9178.553681,919.314598
423.713223,0.000000,-8956.491898,842.705048
423.713551,-370.102971,-9030.512492,689.485948
423.713879,-296.082377,-9252.574275,459.657299
423.714207,-222.061783,-9252.574275,766.095498
423.714535,-296.082377,-9104.533087,689.485948
423.714862,0.000000,-8808.450710,1072.533697
423.715190,-444.123565,-9178.553681,536.266849
423.715518,-1036.288319,-9400.615463,229.828649
423.715846,-1184.329507,-9252.574275,0.000000
423.716174,-1628.453072,-9326.594869,-229.828649
423.716502,-1332.370696,-8956.491898,-153.219100
423.716830,-740.205942,-9030.512492,-612.876398
423.717158,-370.102971,-9104.533087,-383.047749
423.717486,-592.164754,-9104.533087,-612.876398
423.717813,-962.267725,-9326.594869,-919.314598
423.718141,-962.267725,-8882.471304,-919.314598
423.718469,-1036.288319,-9252.574275,-1225.752797
423.718797,-814.226536,-9104.533087,-1378.971896
423.719125,-592.164754,-9178.553681,-1378.971896
423.719453,-370.102971,-9326.594869,-1149.143247
423.719781,-222.061783,-9104.533087,-1685.410096
423.720109,-296.082377,-8586.388927,-1072.533697
423.720437,-148.041188,-9252.574275,-1455.581446
423.720764,0.000000,-9252.574275,-1608.800546
423.721092,74.020594,-9252.574275,-1532.190996
423.721420,74.020594,-9252.574275,-1608.800546
423.721748,0.000000,-9252.574275,-1378.971896
423.722076,518.144159,-9400.615463,-1608.800546
423.722404,370.102971,-9252.574275,-1455.581446
423.722732,370.102971,-9252.574275,-1762.019645
423.723060,222.061783,-9252.574275,-1762.019645
423.723388,148.041188,-9326.594869,-1838.629195
423.723715,296.082377,-9548.656652,-1991.848295
423.724043,148.041188,-9326.594869,-1991.848295
423.724371,74.020594,-9326.594869,-1838.629195
423.724699,0.000000,-9252.574275,-1685.410096
423.725027,0.000000,-9326.594869,-1915.238745
423.725355,-296.082377,-9030.512492,-1762.019645
423.725683,-888.247130,-9104.533087,-1838.629195
423.726011,-1036.288319,-9178.553681,-2145.067394
423.726339,-1184.329507,-9178.553681,-2451.505594
423.726666,-1554.432478,-9030.512492,-2834.553343
423.726994,-1924.535449,-8734.430116,-2681.334243
423.727322,-1998.556043,-8956.491898,-3064.381992
423.727650,-1850.514855,-8956.491898,-3217.601092
423.727978,-1776.494261,-8956.491898,-3524.039291
423.728306,-1850.514855,-8956.491898,-3447.429741
423.728634,-1628.453072,-8808.450710,-3447.429741
423.728962,-1776.494261,-9030.512492,-3983.696590
423.729289,-1628.453072,-8660.409521,-3907.087040
423.729617,-1110.308913,-9104.533087,-3677.258390
423.729945,-370.102971,-9178.553681,-3447.429741
423.730273,0.000000,-8882.471304,-3064.381992
423.730601,1406.391290,-8882.471304,-3064.381992
423.730929,1702.473667,-8660.409521,-2757.943793
423.731257,2146.597232,-8956.491898,-2451.505594
423.731585,2294.638420,-9252.574275,-2068.457845
423.731913,2220.617826,-9474.636058,-1532.190996
423.732240,1036.288319,-9992.780217,-1991.848295
423.732568,444.123565,-9992.780217,-2451.505594
423.732896,-592.164754,-10436.903782,-3140.991542
423.733224,-1924.535449,-10584.944971,-3753.867940
423.733552,-1850.514855,-10658.965565,-4213.525239
423.733880,-2072.576638,-9474.636058,-4749.792088
423.734208,-1406.391290,-8808.450710,-4903.011187
423.734536,74.020594,-7772.162391,-4673.182538
423.734864,1702.473667,-7105.977043,-3753.867940
423.735191,2738.761985,-6957.935855,-3064.381992
423.735519,3627.009116,-7105.977043,-2145.067394
423.735847,1998.556043,-7994.224174,-1608.800546
423.736175,148.041188,-9104.533087,-1685.410096
423.736503,-1776.494261,-10288.862594,-1915.238745
423.736831,-3404.947333,-11103.089130,-2374.896044
423.737159,-4219.173869,-11029.068536,-2145.067394
423.737487,-2516.700203,-10881.027347,-2451.505594
423.737815,-1036.288319,-9252.574275,-1915.238745
423.738142,1776.494261,-7846.182985,-1378.971896
423.738470,3849.070898,-6883.915261,-612.876398
423.738798,4811.338623,-6661.853478,-612.876398
423.739126,3849.070898,-7179.997637,-689.485948
423.739454,1258.350101,-8808.450710,-995.924147
423.739782,-1924.535449,-10436.903782,-1762.019645
423.740110,-4515.256246,-11251.130318,-2298.286494
423.740438,-5477.523971,-11621.233289,-2911.162892
423.740766,-5033.400406,-10807.006753,-2451.505594
423.741093,-1702.473667,-9622.677246,-1302.362347
423.741421,814.226536,-8364.327145,0.000000
423.741749,3478.967927,-7179.997637,1225.752797
423.742077,3775.050304,-7402.059420,1532.190996
423.742405,1702.473667,-7698.141797,766.095498
423.742733,-2368.659014,-8808.450710,-995.924147
423.743061,-4811.338623,-10066.800811,-2145.067394
423.743389,-6735.874072,-9696.697840,-3064.381992
423.743717,-4663.297435,-8808.450710,-2451.505594
423.744044,-740.205942,-7772.162391,-995.924147
423.744372,3404.947333,-6365.771101,766.095498
423.744700,6439.791695,-5995.668130,1762.019645
423.745028,5699.585753,-7402.059420,1915.238745
423.745356,2294.638420,-9622.677246,612.876398
423.745684,-3404.947333,-11029.068536,-1532.190996
423.746012,-5773.606348,-12879.583391,-2068.457845
423.746340,-5329.482782,-11621.233289,-2451.505594
423.746667,-1924.535449,-9696.697840,-995.924147
423.746995,3997.112087,-7402.059420,1838.629195
423.747323,7698.141797,-6587.832884,4136.915689
423.747651,6587.832884,-6661.853478,3447.429741
423.747979,3034.844362,-8068.244768,2757.943793
423.748307,-1258.350101,-9918.759623,383.047749
423.748635,-4959.379811,-11547.212695,-1378.971896
423.748963,-5329.482782,-10510.924376,-1608.800546
423.749291,-2812.782580,-9030.512492,-536.266849
423.749618,2368.659014,-8216.285956,2451.505594
423.749946,4959.379811,-6883.915261,4443.353888
423.750274,4219.173869,-7179.997637,4903.011187
423.750602,888.247130,-8068.244768,2987.772442
423.750930,-4145.153275,-9400.615463,-383.047749
423.751258,-7105.977043,-10807.006753,-2451.505594
423.751586,-7624.121203,-10807.006753,-2528.115143
423.751914,-5107.421000,-9178.553681,-1915.238745
423.752242,222.061783,-7624.121203,766.095498
423.752569,4441.235652,-6513.812290,3217.601092
423.752897,5403.503377,-6365.771101,4060.306139
423.753225,1702.473667,-7920.203579,3064.381992
423.753553,-3775.050304,-9918.759623,306.438199
423.753881,-8364.327145,-11547.212695,-2604.724693
423.754209,-9474.636058,-12879.583391,-3600.648841
423.754537,-6439.791695,-10955.047942,-2757.943793
423.754865,-444.123565,-9400.615463,-1072.533697
423.755193,5551.544565,-7772.162391,1991.848295
423.755520,7772.162391,-6883.915261,3370.820191
423.755848,5329.482782,-7772.162391,2451.505594
423.756176,1110.308913,-8586.388927,536.266849
423.756504,-3775.050304,-10214.842000,-2757.943793
423.756832,-6439.791695,-11251.130318,-4060.306139
423.757160,-4071.132681,-10955.047942,-2528.115143
423.757488,1480.411884,-8734.430116,-306.438199
423.757816,7031.956449,-7328.038826,2987.772442
423.758144,11103.089130,-8068.244768,5515.887586
423.758471,7476.080014,-9104.533087,4443.353888
423.758799,1628.453072,-10436.903782,1762.019645
423.759127,-3478.967927,-11769.274478,-842.705048
423.759455,-6661.853478,-12139.377449,-3140.991542
423.759783,-5107.421000,-10881.027347,-2221.676944
423.760111,444.123565,-8734.430116,229.828649
423.760439,5181.441594,-7846.182985,2451.505594
423.760767,7402.059420,-7402.059420,4673.182538
423.761095,4959.379811,-8364.327145,3983.696590
423.761422,-740.205942,-9104.533087,842.705048
423.761750,-7105.977043,-10140.821405,-2298.286494
423.762078,-9548.656652,-10807.006753,-3600.648841
423.762405,-8660.409521,-9696.697840,-3140.991542
423.762733,-3330.926739,-7624.121203,-919.314598
423.763061,3404.947333,-6143.709319,3217.601092
423.763388,5995.668130,-6735.874072,5132.839837
423.763716,2368.659014,-7846.182985,4290.134789
423.764044,-1554.432478,-8956.491898,1532.190996
423.764371,-7254.018232,-10140.821405,-2221.676944
423.764699,-9992.780217,-11029.068536,-3447.429741
423.765027,-8364.327145,-9844.739029,-3600.648841
423.765354,-3034.844362,-7550.100608,-2221.676944
423.765682,4737.318029,-5699.585753,1532.190996
423.766010,9104.533087,-6365.771101,4443.353888
423.766337,6513.812290,-7179.997637,4213.525239
423.766665,1702.473667,-9474.636058,1072.533697
423.766993,-3404.947333,-11547.212695,-1915.238745
423.767320,-7031.956449,-11843.295072,-3983.696590
423.767648,-4885.359217,-10584.944971,-3217.601092
423.767976,1702.473667,-8364.327145,-306.438199
423.768303,7328.038826,-6957.935855,2987.772442
423.768631,11251.130318,-7402.059420,5745.716235
423.768959,7920.203579,-8364.327145,5669.106685
423.769286,2146.597232,-9400.615463,2681.334243
423.769614,-2960.823768,-10955.047942,459.657299
423.769942,-6883.915261,-12213.398043,-3370.820191
423.770269,-6365.771101,-9918.759623,-2451.505594
423.770597,0.000000,-7920.203579,-306.438199
423.770925,6217.729913,-6291.750507,2528.115143
423.771252,8142.265362,-6735.874072,5286.058936
423.771580,4959.379811,-7772.162391,5056.230287
423.771908,-740.205942,-9178.553681,1455.581446
423.772235,-7031.956449,-10881.027347,-1991.848295
423.772563,-9696.697840,-10881.027347,-3983.696590
423.772891,-8586.388927,-10288.862594,-2911.162892
423.773218,-2886.803174,-8438.347739,-459.657299
423.773546,2664.741391,-6513.812290,2604.724693
423.773874,5477.523971,-6883.915261,4443.353888
423.774201,3478.967927,-7328.038826,4060.306139
423.774529,-1628.453072,-9696.697840,1455.581446
423.774857,-7698.141797,-11325.150913,-1378.971896
423.775184,-11769.274478,-11103.089130,-3907.087040
423.775512,-9030.512492,-11473.192101,-3064.381992
423.775840,-3478.967927,-8734.430116,-1532.190996
423.776167,3849.070898,-6587.832884,1838.629195
423.776495,8142.265362,-6883.915261,3907.087040
423.776823,6661.853478,-7179.997637,4519.963438
423.777150,1702.473667,-8512.368333,1532.190996
423.777478,-3775.050304,-10881.027347,-1838.629195
423.777806,-6661.853478,-11843.295072,-3753.867940
423.778133,-5181.441594,-11843.295072,-2987.772442
423.778461,148.041188,-9992.780217,-459.657299
423.778789,6587.832884,-7105.977043,3064.381992
423.779116,10658.965565,-7254.018232,5439.278036
423.779444,8068.244768,-8586.388927,5669.106685
423.779772,3478.967927,-10140.821405,3140.991542
423.780099,-2368.659014,-11399.171507,153.219100
423.780427,-6513.812290,-12139.377449,-2604.724693
423.780755,-6217.729913,-11325.150913,-2911.162892
423.781082,-1628.453072,-9326.594869,-689.485948
423.781410,4663.297435,-7550.100608,2145.067394
423.781738,8290.306550,-7328.038826,4979.620737
423.782065,5403.503377,-7624.121203,5132.839837
423.782393,444.123565,-8882.471304,1685.410096
423.782721,-6069.688724,-10066.800811,-1838.629195
423.783048,-8956.491898,-11029.068536,-3983.696590
423.783376,-9104.533087,-10066.800811,-3524.039291
423.783704,-4737.318029,-7920.203579,-1225.752797
423.784031,2442.679609,-6735.874072,1608.800546
423.784359,6661.853478,-6217.729913,4366.744339
423.784687,4737.318029,-6957.935855,4673.182538
423.785014,-518.144159,-8734.430116,2374.896044
423.785342,-5477.523971,-10214.842000,-383.047749
423.785670,-10658.965565,-11325.150913,-4136.915689
423.785997,-9400.615463,-11547.212695,-3677.258390
423.786325,-3997.112087,-8438.347739,-2221.676944
423.786653,3701.029710,-7254.018232,766.095498
423.786980,8956.491898,-6587.832884,3753.867940
423.787308,7920.203579,-6439.791695,4290.134789
423.787636,3330.926739,-8512.368333,1991.848295
423.787963,-1998.556043,-9992.780217,-919.314598
423.788291,-6365.771101,-11251.130318,-3983.696590
423.788619,-5921.647536,-11843.295072,-3140.991542
423.788946,-1776.494261,-9844.739029,-1378.971896
423.789274,4811.338623,-7476.080014,2451.505594
423.789602,10288.862594,-7179.997637,4979.620737
423.789929,8068.244768,-8142.265362,5669.106685
423.790257,4367.215058,-8808.450710,2911.162892
423.790585,-1628.453072,-10732.986159,-306.438199
423.790912,-6217.729913,-11399.171507,-3217.601092
423.791240,-7402.059420,-10732.986159,-3447.429741
423.791568,-2738.761985,-9622.677246,-1532.190996
423.791895,2812.782580,-7179.997637,995.924147
423.792223,7328.038826,-5995.668130,3677.258390
423.792551,7179.997637,-7105.977043,5056.230287
423.792878,1406.391290,-8512.368333,2068.457845
423.793206,-4663.297435,-10362.883188,-995.924147
423.793534,-7994.224174,-11695.253884,-3140.991542
423.793861,-9400.615463,-10955.047942,-4519.963438
423.794189,-5107.421000,-8882.471304,-1762.019645
423.794517,2368.659014,-7920.203579,1302.362347
423.794844,6069.688724,-6809.894666,3830.477490
423.795172,5625.565159,-7994.224174,5669.106685
423.795500,1776.494261,-9548.656652,3677.258390
423.795827,-4959.379811,-10214.842000,-459.657299
423.796155,-8364.327145,-11843.295072,-2987.772442
423.796483,-9104.533087,-11843.295072,-3677.258390
423.796810,-5403.503377,-9400.615463,-2451.505594
423.797138,1998.556043,-7772.162391,612.876398
423.797466,8290.306550,-6809.894666,3907.087040
423.797793,8142.265362,-6735.874072,5209.449386
423.798121,4515.256246,-8808.450710,3524.039291
423.798449,-1628.453072,-10362.883188,76.609550
423.798776,-7254.018232,-11103.089130,-3140.991542
423.799104,-7476.080014,-12065.356855,-3140.991542
423.799432,-3478.967927,-9622.677246,-1762.019645
423.799759,3701.029710,-7550.100608,1072.533697
423.800087,9178.553681,-7698.141797,4903.011187
423.800415,9030.512492,-7920.203579,6358.592633
423.800742,4071.132681,-9548.656652,4443.353888
423.801070,-1554.432478,-10584.944971,1225.752797
423.801398,-6809.894666,-11325.150913,-2298.286494
423.801725,-7624.121203,-11991.336260,-2911.162892
423.802053,-4737.318029,-10140.821405,-1838.629195
423.802381,1628.453072,-7254.018232,766.095498
423.802708,6809.894666,-7328.038826,3983.696590
423.803036,7402.059420,-6957.935855,5209.449386
423.803364,3182.885551,-7402.059420,2604.724693
423.803691,-2146.597232,-9992.780217,-153.219100
423.804019,-7031.956449,-10362.883188,-2681.334243
423.804347,-9326.594869,-10140.821405,-3907.087040
423.804674,-5329.482782,-9770.718434,-1838.629195
423.805002,740.205942,-6809.894666,1225.752797
423.805330,5255.462188,-6809.894666,3294.210641
423.805657,7105.977043,-7402.059420,5822.325785
423.805985,2146.597232,-8068.244768,3217.601092
423.806313,-3478.967927,-10214.842000,229.828649
423.806640,-7550.100608,-11177.109724,-2911.162892
423.806968,-9400.615463,-11177.109724,-3983.696590
423.807296,-5847.626942,-9918.759623,-2757.943793
423.807623,1406.391290,-7402.059420,229.828649
423.807951,6883.915261,-5921.647536,3140.991542
423.808279,8512.368333,-6809.894666,4366.744339
423.808606,5033.400406,-8068.244768,2987.772442
423.808934,-296.082377,-9844.739029,76.609550
423.809262,-5329.482782,-11251.130318,-2604.724693
423.809589,-7624.121203,-10807.006753,-3753.867940
423.809917,-3923.091493,-10881.027347,-2451.505594
423.810245,2590.720797,-7994.224174,536.266849
423.810572,7846.182985,-7105.977043,4060.306139
423.810900,9326.594869,-7994.224174,6128.763984
423.811228,5551.544565,-8586.388927,4366.744339
423.811555,-2072.576638,-9992.780217,459.657299
423.811883,-5403.503377,-11473.192101,-2451.505594
423.812211,-8068.244768,-11325.150913,-4213.525239
423.812538,-5477.523971,-10288.862594,-3140.991542
423.812866,1406.391290,-8142.265362,76.609550
423.813194,6587.832884,-5921.647536,3064.381992
423.813521,7698.141797,-6883.915261,4749.792088
423.813849,4219.173869,-7179.997637,3064.381992
423.814177,-1184.329507,-9622.677246,536.266849
423.814504,-6809.894666,-11029.068536,-2681.334243
423.814832,-9104.533087,-10584.944971,-3447.429741
423.815160,-5847.626942,-10362.883188,-3064.381992
423.815487,0.000000,-8290.306550,459.657299
423.815815,5181.441594,-7105.977043,3600.648841
423.816143,6439.791695,-7698.141797,5056.230287
423.816470,3404.947333,-8512.368333,4903.011187
423.816798,-2220.617826,-10066.800811,1685.410096
423.817126,-7846.182985,-10881.027347,-2681.334243
423.817453,-8660.409521,-11029.068536,-3830.477490
423.817781,-6069.688724,-10436.903782,-2987.772442
423.818109,444.123565,-7994.224174,-766.095498
423.818436,6513.812290,-6069.688724,2298.286494
423.818764,8216.285956,-6587.832884,4443.353888
423.819092,4811.338623,-8808.450710,3677.258390
423.819419,-740.205942,-10140.821405,689.485948
423.819747,-6291.750507,-10732.986159,-2757.943793
423.820075,-7476.080014,-11251.130318,-3600.648841
423.820402,-4959.379811,-9770.718434,-2451.505594
423.820730,1406.391290,-7772.162391,0.000000
423.821058,7402.059420,-7402.059420,3600.648841
423.821385,9474.636058,-7698.141797,5745.716235
423.821713,5773.606348,-9104.533087,4596.572988
423.822041,-296.082377,-10584.944971,1838.629195
423.822368,-6217.729913,-11547.212695,-2451.505594
423.822696,-7624.121203,-11991.336260,-3370.820191
423.823024,-5699.585753,-9696.697840,-3064.381992
423.823351,888.247130,-7846.182985,0.000000
423.823679,6513.812290,-6957.935855,2834.553343
423.824007,8290.306550,-6587.832884,4826.401637
423.824334,4959.379811,-8068.244768,3830.477490
423.824662,-740.205942,-9844.739029,919.314598
423.824990,-5625.565159,-10732.986159,-2068.457845
423.825317,-8290.306550,-11621.233289,-3294.210641
423.825645,-6957.935855,-10066.800811,-2604.724693
423.825973,-740.205942,-7624.121203,306.438199
423.826301,5551.544565,-6809.894666,3830.477490
423.826628,7328.038826,-7105.977043,5592.497135
423.826956,4071.132681,-7550.100608,4903.011187
423.827284,-1702.473667,-10066.800811,1532.190996
423.827611,-7031.956449,-11399.171507,-1762.019645
423.827939,-9030.512492,-10955.047942,-3217.601092
423.828267,-7328.038826,-10066.800811,-2604.724693
423.828594,-592.164754,-8216.285956,536.266849
423.828922,4515.256246,-6809.894666,2298.286494
423.829250,7476.080014,-6291.750507,4903.011187
423.829577,4737.318029,-7698.141797,4060.306139
423.829905,-518.144159,-9844.739029,1532.190996
423.830233,-6513.812290,-10658.965565,-1915.238745
423.830560,-8142.265362,-11917.315666,-3064.381992
423.830888,-6217.729913,-9992.780217,-3064.381992
423.831216,-222.061783,-7476.080014,-459.657299
423.831543,6513.812290,-6661.853478,2987.772442
423.831871,8586.388927,-6439.791695,5592.497135
423.832199,6217.729913,-8068.244768,4903.011187
423.832526,0.000000,-9622.677246,1762.019645
423.832854,-5107.421000,-11325.150913,-1455.581446
423.833182,-7698.141797,-11991.336260,-3140.991542
423.833509,-6661.853478,-10881.027347,-2987.772442
423.833837,-740.205942,-8660.409521,-459.657299
423.834165,5329.482782,-6883.915261,2145.067394
423.834492,8216.285956,-7328.038826,4596.572988
423.834820,5329.482782,-7624.121203,3524.039291
423.835148,1110.308913,-9622.677246,1149.143247
423.835475,-4737.318029,-11621.233289,-1608.800546
423.835803,-9104.533087,-11473.192101,-4136.915689
423.836131,-7550.100608,-10881.027347,-3677.258390
423.836458,-1776.494261,-8438.347739,-1455.581446
423.836786,4959.379811,-6883.915261,1762.019645
423.837114,8882.471304,-6661.853478,4979.620737
423.837441,6217.729913,-7476.080014,4366.744339
423.837769,444.123565,-9474.636058,2068.457845
423.838097,-5255.462188,-11399.171507,-1455.581446
423.838424,-8438.347739,-11325.150913,-3600.648841
423.838752,-7179.997637,-10807.006753,-2834.553343
423.839080,-1776.494261,-8364.327145,-766.095498
423.839407,4367.215058,-6809.894666,1532.190996
423.839735,8512.368333,-6883.915261,4749.792088
423.840063,6587.832884,-6957.935855,4213.525239
423.840390,1776.494261,-8882.471304,1915.238745
423.840718,-4293.194464,-11029.068536,-842.705048
423.841046,-8068.244768,-11843.295072,-3370.820191
423.841373,-7772.162391,-10732.986159,-3140.991542
423.841701,-1406.391290,-9030.512492,-766.095498
423.842029,5033.400406,-7179.997637,2451.505594
423.842356,8734.430116,-7254.018232,5975.544884
423.842684,6365.771101,-8290.306550,5439.278036
423.843012,518.144159,-9770.718434,2528.115143
423.843339,-5847.626942,-11029.068536,-1455.581446
423.843667,-8660.409521,-11621.233289,-3294.210641
423.843995,-7920.203579,-10881.027347,-3447.429741
423.844322,-2960.823768,-8290.306550,-1072.533697
423.844650,3478.967927,-6365.771101,1072.533697
423.844978,8364.327145,-5995.668130,4443.353888
423.845305,5847.626942,-7105.977043,4060.306139
423.845633,1184.329507,-8956.491898,1915.238745
423.845961,-4663.297435,-10214.842000,-1378.971896
423.846288,-8438.347739,-11695.253884,-4060.306139
423.846616,-7994.224174,-11769.274478,-3830.477490
423.846944,-2664.741391,-8660.409521,-1608.800546
423.847271,4663.297435,-7402.059420,1608.800546
423.847599,8734.430116,-7698.141797,3983.696590
423.847927,7550.100608,-8142.265362,4903.011187
423.848254,2590.720797,-9696.697840,2528.115143
423.848582,-4145.153275,-11547.212695,-1378.971896
423.848910,-7328.038826,-12361.439231,-3447.429741
423.849237,-7105.977043,-11769.274478,-3753.867940
423.849565,-2294.638420,-9474.636058,-1532.190996
423.849893,4737.318029,-7105.977043,1838.629195
423.850220,9326.594869,-6809.894666,4519.963438
423.850548,7550.100608,-7920.203579,4826.401637
423.850876,2368.659014,-9104.533087,2221.676944
423.851203,-2738.761985,-10732.986159,0.000000
423.851531,-7698.141797,-11769.274478,-3600.648841
423.851859,-7031.956449,-11473.192101,-3217.601092
423.852186,-1998.556043,-9696.697840,-689.485948
423.852514,3701.029710,-7328.038826,2298.286494
423.852842,7698.141797,-6587.832884,5822.325785
423.853169,5921.647536,-7476.080014,4903.011187
423.853497,1036.288319,-9104.533087,2834.553343
423.853825,-4737.318029,-10658.965565,-536.266849
423.854152,-9104.533087,-10881.027347,-3677.258390
423.854480,-8734.430116,-10732.986159,-3600.648841
423.854808,-3849.070898,-9178.553681,-1762.019645
423.855135,2368.659014,-7254.018232,1072.533697
423.855463,6809.894666,-6291.750507,4136.915689
423.855791,6069.688724,-7328.038826,4290.134789
423.856118,1628.453072,-8956.491898,2911.162892
423.856446,-4367.215058,-9770.718434,-766.095498
423.856774,-7994.224174,-11251.130318,-3217.601092
423.857101,-7254.018232,-11177.109724,-2834.553343
423.857429,-3034.844362,-8586.388927,-1149.143247
423.857757,3404.947333,-7105.977043,2221.676944
423.858084,8142.265362,-7105.977043,5439.278036
423.858412,7179.997637,-6957.935855,5286.058936
423.858740,2886.803174,-9030.512492,3677.258390
423.859067,-3182.885551,-10510.924376,459.657299
423.859395,-8068.244768,-10362.883188,-3140.991542
423.859723,-7846.182985,-10807.006753,-2451.505594
423.860050,-3108.864956,-8882.471304,-1608.800546
423.860378,2812.782580,-6291.750507,766.095498
423.860706,9178.553681,-5921.647536,4136.915689
423.861033,8068.244768,-7031.956449,4596.572988
423.861361,2516.700203,-8882.471304,2681.334243
423.861689,-2368.659014,-10140.821405,-76.609550
423.862016,-7254.018232,-11473.192101,-3370.820191
423.862344,-7772.162391,-11103.089130,-3447.429741
423.862672,-3256.906145,-9104.533087,-1608.800546
423.862999,2812.782580,-7476.080014,1378.971896
423.863327,7476.080014,-6143.709319,4596.572988
423.863654,7031.956449,-7846.182985,5056.230287
423.863982,2220.617826,-9548.656652,3140.991542
423.864309,-4219.173869,-10658.965565,-612.876398
423.864637,-7476.080014,-11473.192101,-2451.505594
423.864964,-7698.141797,-11399.171507,-3447.429741
423.865292,-4811.338623,-9474.636058,-2298.286494
423.865619,1776.494261,-7105.977043,383.047749
423.865947,7105.977043,-6809.894666,2987.772442
423.866275,6883.915261,-7179.997637,3753.867940
423.866602,2812.782580,-9326.594869,2451.505594
423.866930,-3330.926739,-10658.965565,-153.219100
423.867257,-7550.100608,-11917.315666,-3447.429741
423.867585,-8068.244768,-11991.336260,-3677.258390
423.867912,-3997.112087,-9548.656652,-2145.067394
423.868240,2442.679609,-7772.162391,1149.143247
423.868567,8142.265362,-6587.832884,3983.696590
423.868895,7920.203579,-7772.162391,5515.887586
423.869222,3330.926739,-9696.697840,3753.867940
423.869550,-2960.823768,-10584.944971,229.828649
423.869877,-6217.729913,-11843.295072,-1991.848295
423.870205,-7031.956449,-12361.439231,-3447.429741
423.870532,-4219.173869,-9918.759623,-1762.019645
423.870860,3034.844362,-7624.121203,1072.533697
423.871187,8216.285956,-6513.812290,4060.306139
423.871515,7920.203579,-7031.956449,5439.278036
423.871843,3701.029710,-8808.450710,3907.087040
423.872170,-2812.782580,-10584.944971,459.657299
423.872498,-7179.997637,-11325.150913,-2374.896044
423.872825,-7698.141797,-11621.233289,-2681.334243
423.873153,-4441.235652,-9030.512492,-1532.190996
423.873480,1998.556043,-6439.791695,1302.362347
423.873808,7920.203579,-6439.791695,4290.134789
423.874135,7105.977043,-7031.956449,5898.935335
423.874463,2146.597232,-8734.430116,4213.525239
423.874790,-3701.029710,-10066.800811,842.705048
423.875118,-8216.285956,-10510.924376,-2068.457845
423.875445,-9400.615463,-11399.171507,-3217.601092
423.875773,-6735.874072,-9400.615463,-2298.286494
423.876100,0.000000,-6735.874072,153.219100
423.876428,6143.709319,-5699.585753,3064.381992
423.876755,6587.832884,-5625.565159,3983.696590
423.877083,2368.659014,-7402.059420,3217.601092
423.877411,-3256.906145,-9252.574275,-383.047749
423.877738,-7994.224174,-10214.842000,-3447.429741
423.878066,-9030.512492,-11103.089130,-3907.087040
423.878393,-5847.626942,-9400.615463,-2757.943793
423.878721,814.226536,-6661.853478,-229.828649
423.879048,7624.121203,-6217.729913,2987.772442
423.879376,8734.430116,-6291.750507,4826.401637
423.879703,5033.400406,-8364.327145,3600.648841
423.880031,-444.123565,-9992.780217,1149.143247
423.880358,-5551.544565,-11473.192101,-2298.286494
423.880686,-7031.956449,-12435.459826,-3447.429741
423.881013,-4663.297435,-10584.944971,-2451.505594
423.881341,1184.329507,-8142.265362,-689.485948
423.881668,7920.203579,-6587.832884,2604.724693
423.881996,9548.656652,-7179.997637,4213.525239
423.882323,4811.338623,-7994.224174,3600.648841
423.882651,0.000000,-10140.821405,153.219100
423.882979,-4885.359217,-11473.192101,-2757.943793
423.883306,-7624.121203,-12287.418637,-3907.087040
423.883634,-4885.359217,-9844.739029,-2604.724693
423.883961,962.267725,-7772.162391,689.485948
423.884289,6957.935855,-7105.977043,3140.991542
423.884616,8142.265362,-7179.997637,4826.401637
423.884944,4367.215058,-9104.533087,4443.353888
423.885271,-1850.514855,-10584.944971,995.924147
423.885599,-7846.182985,-10881.027347,-2145.067394
423.885926,-9622.677246,-12435.459826,-3140.991542
423.886254,-7402.059420,-10362.883188,-2681.334243
423.886581,-1480.411884,-7994.224174,-612.876398
423.886909,5551.544565,-6587.832884,2604.724693
423.887236,7105.977043,-6957.935855,4366.744339
423.887564,3182.885551,-8068.244768,3370.820191
423.887891,-1332.370696,-9844.739029,1225.752797
423.888219,-6735.874072,-11473.192101,-2604.724693
423.888547,-9252.574275,-11917.315666,-3753.867940
423.888874,-6661.853478,-10658.965565,-2834.553343
423.889202,0.000000,-8216.285956,76.609550
423.889529,5995.668130,-6957.935855,3294.210641
423.889857,8734.430116,-7031.956449,5592.497135
423.890184,5625.565159,-9252.574275,4979.620737
423.890512,-148.041188,-10732.986159,2145.067394
423.890839,-5847.626942,-11251.130318,-612.876398
423.891167,-7772.162391,-12361.439231,-2451.505594
423.891494,-5921.647536,-10807.006753,-1991.848295
423.891822,148.041188,-8068.244768,153.219100
423.892149,7476.080014,-7105.977043,3370.820191
423.892477,9770.718434,-6883.915261,5286.058936
423.892804,4885.359217,-8068.244768,4903.011187
423.893132,222.061783,-10066.800811,1991.848295
423.893459,-5477.523971,-10955.047942,-1838.629195
423.893787,-7402.059420,-11547.212695,-2604.724693
423.894115,-5255.462188,-9844.739029,-1762.019645
423.894442,666.185348,-7328.038826,919.314598
423.894770,5625.565159,-6661.853478,3294.210641
423.895097,7624.121203,-6809.894666,5975.544884
423.895425,3552.988522,-8512.368333,4826.401637
423.895752,-2146.597232,-9622.677246,1838.629195
423.896080,-7402.059420,-10362.883188,-1838.629195
423.896407,-9622.677246,-11621.233289,-2911.162892
423.896735,-7624.121203,-9696.697840,-2757.943793
423.897062,-2146.597232,-7031.956449,-766.095498
423.897390,5403.503377,-5699.585753,2451.505594
423.897717,6513.812290,-5847.626942,3907.087040
423.898045,3034.844362,-6883.915261,2987.772442
423.898372,-1702.473667,-9474.636058,0.000000
423.898700,-7105.977043,-10288.862594,-3524.039291
423.899027,-9178.553681,-11325.150913,-4673.182538
423.899355,-7031.956449,-9474.636058,-4060.306139
423.899683,-888.247130,-7698.141797,-1302.362347
423.900010,5551.544565,-6439.791695,1378.971896
423.900338,9104.533087,-5995.668130,4136.915689
423.900665,6513.812290,-7624.121203,3447.429741
423.900993,1258.350101,-9770.718434,1532.190996
423.901320,-3627.009116,-10658.965565,-2145.067394
423.901648,-6661.853478,-12139.377449,-3600.648841
423.901975,-5255.462188,-10732.986159,-3294.210641
423.902303,666.185348,-7550.100608,-1838.629195
423.902630,7698.141797,-6661.853478,1838.629195
423.902958,11177.109724,-6365.771101,3983.696590
423.903285,7846.182985,-7920.203579,4290.134789
423.903613,2960.823768,-9474.636058,1915.238745
423.903940,-3404.947333,-10807.006753,-1915.238745
423.904268,-5995.668130,-12065.356855,-2834.553343
423.904596,-4663.297435,-10955.047942,-2145.067394
423.904923,370.102971,-8586.388927,229.828649
423.905251,5477.523971,-7328.038826,2911.162892
423.905578,8216.285956,-6883.915261,5592.497135
423.905906,4663.297435,-8438.347739,5209.449386
423.906233,-592.164754,-10066.800811,3294.210641
423.906561,-6513.812290,-10658.965565,-536.266849
423.906888,-9844.739029,-11843.295072,-2451.505594
423.907216,-9252.574275,-10510.924376,-2221.676944
423.907543,-4663.297435,-7624.121203,-766.095498
423.907871,2368.659014,-6957.935855,1838.629195
423.908198,5255.462188,-6439.791695,3983.696590
423.908526,2664.741391,-7105.977043,4213.525239
423.908853,-2294.638420,-9178.553681,1685.410096
423.909181,-7624.121203,-10658.965565,-2298.286494
423.909508,-10436.903782,-11399.171507,-3140.991542
423.909836,-8808.450710,-11399.171507,-3064.381992
423.910164,-4071.132681,-8734.430116,-1378.971896
423.910491,3404.947333,-6883.915261,1762.019645
423.910819,8512.368333,-6735.874072,4749.792088
423.911146,6513.812290,-7328.038826,4596.572988
423.911474,2368.659014,-9474.636058,2834.553343
423.911801,-3256.906145,-11473.192101,0.000000
423.912129,-7402.059420,-12435.459826,-2681.334243
423.912456,-6883.915261,-11695.253884,-3140.991542
423.912784,-888.247130,-9474.636058,-1225.752797
423.913111,6069.688724,-7105.977043,1838.629195
423.913439,10510.924376,-6069.688724,4826.401637
423.913766,9326.594869,-7698.141797,4979.620737
423.914094,3182.885551,-9178.553681,2374.896044
423.914421,-2072.576638,-11103.089130,-1302.362347
423.914749,-4663.297435,-11991.336260,-2068.457845
423.915076,-6883.915261,-10881.027347,-3677.258390
423.915404,-296.082377,-9696.697840,-229.828649
423.915732,4589.276840,-7031.956449,1915.238745
423.916059,7550.100608,-5921.647536,4673.182538
423.916387,7105.977043,-8364.327145,5209.449386
423.916714,2294.638420,-10510.924376,2221.676944
423.917042,-5921.647536,-9992.780217,-1225.752797
423.917369,-9474.636058,-12213.398043,-3753.867940
423.917697,-9326.594869,-10881.027347,-4366.744339
423.918024,-5699.585753,-8068.244768,-2834.553343
423.918352,2220.617826,-7624.121203,76.609550
423.918679,7402.059420,-5699.585753,2834.553343
423.919007,3997.112087,-7179.997637,2681.334243
423.919334,222.061783,-9326.594869,1608.800546
423.919662,-6809.894666,-10955.047942,-2757.943793
423.919989,-9696.697840,-12361.439231,-4749.792088
423.920317,-8512.368333,-11103.089130,-4213.525239
423.920644,-2886.803174,-8956.491898,-1685.410096
423.920972,2220.617826,-8364.327145,229.828649
423.921300,8512.368333,-6069.688724,4366.744339
423.921627,6069.688724,-7624.121203,4596.572988
423.921955,3404.947333,-8882.471304,2911.162892
423.922282,-2368.659014,-11177.109724,-306.438199
423.922610,-7031.956449,-13323.706956,-2987.772442
423.922937,-7105.977043,-12213.398043,-3447.429741
423.923265,-1184.329507,-8586.388927,-1378.971896
423.923592,5625.565159,-7105.977043,842.705048
423.923920,9622.677246,-7254.018232,4826.401637
423.924247,9252.574275,-8216.285956,5056.230287
423.924575,3627.009116,-9326.594869,2987.772442
423.924902,-1998.556043,-10362.883188,76.609550
423.925230,-6069.688724,-11991.336260,-2451.505594
423.925557,-6365.771101,-11843.295072,-2374.896044
423.925885,-1924.535449,-9474.636058,0.000000
423.926212,4441.235652,-7698.141797,2681.334243
423.926540,7179.997637,-6809.894666,5362.668486
423.926868,6069.688724,-8068.244768,6435.202183
423.927195,1036.288319,-9770.718434,3677.258390
423.927523,-5625.565159,-9918.759623,0.000000
423.927850,-7846.182985,-10658.965565,-1915.238745
423.928178,-8364.327145,-10436.903782,-2451.505594
423.928505,-4959.379811,-8068.244768,-919.314598
423.928833,1850.514855,-5995.668130,1685.410096
423.929160,5329.482782,-6291.750507,4136.915689
423.929488,3923.091493,-6587.832884,4060.306139
423.929815,0.000000,-9030.512492,2145.067394
423.930143,-6143.709319,-10510.924376,-766.095498
423.930470,-10288.862594,-11029.068536,-3524.039291
423.930798,-9178.553681,-11251.130318,-3447.429741
423.931125,-4441.235652,-8956.491898,-1685.410096
423.931453,2294.638420,-7105.977043,842.705048
423.931780,6809.894666,-5773.606348,3677.258390
423.932108,6513.812290,-7105.977043,4903.011187
423.932436,1776.494261,-9104.533087,2221.676944
423.932763,-2812.782580,-9992.780217,-919.314598
423.933091,-5847.626942,-11325.150913,-2987.772442
423.933418,-6143.709319,-11621.233289,-3524.039291
423.933746,-1776.494261,-9030.512492,-1838.629195
423.934073,4441.235652,-7550.100608,306.438199
423.934401,9918.759623,-6143.709319,3677.258390
423.934728,9918.759623,-7402.059420,4213.525239
423.935056,5773.606348,-9844.739029,3064.381992
423.935383,0.000000,-10584.944971,383.047749
423.935711,-4663.297435,-11473.192101,-2757.943793
423.936038,-5181.441594,-12139.377449,-2757.943793
423.936366,-1332.370696,-9622.677246,-1072.533697
423.936693,4441.235652,-7772.162391,1455.581446
423.937021,8586.388927,-6513.812290,4519.963438
423.937348,7846.182985,-7402.059420,5056.230287
423.937676,2516.700203,-9252.574275,3064.381992
423.938004,-3552.988522,-9770.718434,-229.828649
423.938331,-7476.080014,-10881.027347,-2451.505594
423.938659,-8660.409521,-11103.089130,-2987.772442
423.938986,-5329.482782,-8512.368333,-1072.533697
423.939314,148.041188,-6439.791695,383.047749
423.939641,5255.462188,-5847.626942,3064.381992
423.939969,4515.256246,-6291.750507,3677.258390
423.940296,-296.082377,-8216.285956,2298.286494
423.940624,-5329.482782,-9770.718434,-153.219100
423.940951,-9992.780217,-10955.047942,-3830.477490
423.941279,-10436.903782,-11621.233289,-3677.258390
423.941606,-6365.771101,-9030.512492,-2221.676944
423.941934,370.102971,-6809.894666,-229.828649
423.942261,7031.956449,-6439.791695,2987.772442
423.942589,7179.997637,-6439.791695,4596.572988
423.942916,2960.823768,-8660.409521,2911.162892
423.943244,-2368.659014,-10362.883188,306.438199
423.943572,-6661.853478,-11621.233289,-2834.553343
423.943899,-7624.121203,-12213.398043,-3294.210641
423.944227,-4441.235652,-9770.718434,-1685.410096
423.944554,2886.803174,-7846.182985,229.828649
423.944882,8882.471304,-7254.018232,3524.039291
423.945209,9992.780217,-7105.977043,4903.011187
423.945537,6069.688724,-8660.409521,3677.258390
423.945864,-148.041188,-10214.842000,1072.533697
423.946192,-5107.421000,-11621.233289,-2451.505594
423.946519,-6587.832884,-12361.439231,-2681.334243
423.946847,-2812.782580,-9844.739029,-1149.143247
423.947174,2960.823768,-7772.162391,995.924147
423.947502,8438.347739,-6587.832884,4673.182538
423.947829,8364.327145,-7105.977043,5975.544884
423.948157,3034.844362,-9474.636058,4443.353888
423.948485,-2738.761985,-10288.862594,766.095498
423.948812,-7031.956449,-11547.212695,-1915.238745
423.949140,-8438.347739,-11769.274478,-2681.334243
423.949467,-5995.668130,-9252.574275,-1685.410096
423.949795,518.144159,-7402.059420,1072.533697
423.950122,5181.441594,-6809.894666,3600.648841
423.950450,5847.626942,-6735.874072,4749.792088
423.950777,1258.350101,-8438.347739,2987.772442
423.951105,-4293.194464,-9918.759623,153.219100
423.951432,-9548.656652,-10881.027347,-3140.991542
423.951760,-9918.759623,-11769.274478,-3830.477490
423.952087,-6883.915261,-9696.697840,-2451.505594
423.952415,-296.082377,-7254.018232,0.000000
423.952742,6143.709319,-6143.709319,3064.381992
423.953070,7031.956449,-7031.956449,4443.353888
423.953397,2590.720797,-8956.491898,2987.772442
423.953725,-2294.638420,-10362.883188,0.000000
423.954053,-6735.874072,-11695.253884,-2987.772442
423.954380,-7846.182985,-12065.356855,-3983.696590
423.954708,-4959.379811,-10214.842000,-2757.943793
423.955035,2146.597232,-7994.224174,-153.219100
423.955363,8882.471304,-6957.935855,2911.162892
423.955690,9844.739029,-6735.874072,4136.915689
423.956018,7179.997637,-8586.388927,3600.648841
423.956345,1554.432478,-10288.862594,995.924147
423.956673,-4515.256246,-11547.212695,-2221.676944
423.957000,-5625.565159,-12509.480420,-2757.943793
423.957328,-2738.761985,-10732.986159,-1532.190996
423.957655,2442.679609,-8438.347739,612.876398
423.957983,7698.141797,-7105.977043,4366.744339
423.958310,9104.533087,-7550.100608,5975.544884
423.958638,3849.070898,-9326.594869,4136.915689
423.958965,-962.267725,-10510.924376,1378.971896
423.959293,-5847.626942,-11251.130318,-1838.629195
423.959621,-8142.265362,-11325.150913,-2451.505594
423.959948,-5699.585753,-9696.697840,-1685.410096
423.960276,-296.082377,-7328.038826,306.438199
423.960603,4441.235652,-6439.791695,2987.772442
423.960931,5625.565159,-6069.688724,4290.134789
423.961258,1702.473667,-7624.121203,3983.696590
423.961586,-3182.885551,-8956.491898,536.266849
423.961913,-9030.512492,-10066.800811,-2757.943793
423.962241,-10362.883188,-11251.130318,-3064.381992
423.962568,-8216.285956,-9474.636058,-2451.505594
423.962896,-1924.535449,-7328.038826,76.609550
423.963223,4589.276840,-5995.668130,2834.553343
423.963551,6513.812290,-6069.688724,4136.915689
423.963878,3330.926739,-7698.141797,3524.039291
423.964206,-1480.411884,-9770.718434,1072.533697
423.964533,-6735.874072,-10881.027347,-2681.334243
423.964861,-8142.265362,-11695.253884,-2911.162892
423.965189,-5773.606348,-10436.903782,-2987.772442
423.965516,814.226536,-7698.141797,-536.266849
423.965844,7772.162391,-6735.874072,2145.067394
423.966171,10140.821405,-6365.771101,4136.915689
423.966499,7476.080014,-8216.285956,4366.744339
423.966826,2072.576638,-10140.821405,1225.752797
423.967154,-4145.153275,-11177.109724,-1991.848295
423.967481,-5995.668130,-12435.459826,-2604.724693
423.967809,-3923.091493,-10732.986159,-2374.896044
423.968136,1480.411884,-7846.182985,306.438199
423.968464,8364.327145,-7031.956449,3753.867940
423.968791,9696.697840,-7254.018232,5515.887586
423.969119,5403.503377,-8216.285956,4673.182538
423.969446,1036.288319,-9548.656652,2068.457845
423.969774,-4885.359217,-10584.944971,-1762.019645
423.970101,-7031.956449,-11325.150913,-2834.553343
423.970429,-6143.709319,-9622.677246,-2298.286494
423.970756,-962.267725,-7254.018232,-153.219100
423.971084,4293.194464,-6513.812290,2451.505594
423.971412,5921.647536,-6587.832884,3907.087040
423.971739,2368.659014,-8216.285956,4136.915689
423.972067,-2886.803174,-9622.677246,689.485948
423.972394,-8586.388927,-10436.903782,-2604.724693
423.972722,-10658.965565,-11843.295072,-4213.525239
423.973049,-8956.491898,-10288.862594,-3524.039291
423.973377,-2368.659014,-7846.182985,-612.876398
423.973704,4737.318029,-6587.832884,1685.410096
423.974032,6883.915261,-6069.688724,3830.477490
423.974359,4515.256246,-7772.162391,3830.477490
423.974687,-370.102971,-10214.842000,1378.971896
423.975014,-6217.729913,-11029.068536,-2068.457845
423.975342,-8734.430116,-12139.377449,-3600.648841
423.975669,-6439.791695,-11547.212695,-3140.991542
423.975997,0.000000,-8808.450710,-1072.533697
423.976324,6513.812290,-7402.059420,1762.019645
423.976652,10066.800811,-6661.853478,4290.134789
423.976980,7772.162391,-8660.409521,4213.525239
423.977307,2590.720797,-10807.006753,1302.362347
423.977635,-2960.823768,-11843.295072,-1838.629195
423.977962,-5773.606348,-12583.501014,-3140.991542
423.978290,-5181.441594,-11621.233289,-3217.601092
423.978617,1406.391290,-8734.430116,-459.657299
423.978945,8068.244768,-7846.182985,2834.553343
423.979272,10436.903782,-7105.977043,5209.449386
423.979600,7179.997637,-8438.347739,5209.449386
423.979927,2294.638420,-10288.862594,2987.772442
423.980255,-4441.235652,-10807.006753,-536.266849
423.980582,-6883.915261,-11843.295072,-2145.067394
423.980910,-6587.832884,-10732.986159,-2145.067394
423.981237,-2220.617826,-8216.285956,-689.485948
423.981565,3997.112087,-6957.935855,2834.553343
423.981892,6439.791695,-6439.791695,4443.353888
423.982220,3701.029710,-7179.997637,4290.134789
423.982547,-1258.350101,-9030.512492,1838.629195
423.982875,-7328.038826,-10362.883188,-1762.019645
423.983203,-10214.842000,-11251.130318,-3217.601092
423.983530,-9030.512492,-10807.006753,-2757.943793
423.983858,-4145.153275,-7920.203579,-995.924147
423.984185,2368.659014,-7031.956449,1915.238745
423.984513,6143.709319,-6439.791695,4519.963438
423.984840,3849.070898,-7328.038826,3983.696590
423.985168,-592.164754,-9326.594869,1915.238745
423.985495,-5921.647536,-10066.800811,-1685.410096
423.985823,-8808.450710,-11695.253884,-3600.648841
423.986150,-8438.347739,-11029.068536,-3524.039291
423.986478,-2072.576638,-8290.306550,-995.924147
423.986805,4959.379811,-6661.853478,1149.143247
423.987133,9178.553681,-5107.421000,3370.820191
423.987460,8142.265362,-6735.874072,4290.134789
423.987788,3701.029710,-9326.594869,1838.629195
423.988115,-2368.659014,-10066.800811,-1302.362347
423.988443,-5255.462188,-11843.295072,-3294.210641
423.988770,-4959.379811,-11103.089130,-2451.505594
423.989098,814.226536,-8956.491898,-612.876398
423.989426,6661.853478,-7920.203579,2145.067394
423.989753,10140.821405,-7031.956449,4903.011187
423.990081,8216.285956,-8586.388927,5362.668486
423.990408,3404.947333,-10066.800811,3370.820191
423.990736,-2886.803174,-10436.903782,0.000000
423.991063,-6439.791695,-11695.253884,-2451.505594
423.991391,-6809.894666,-11473.192101,-2528.115143
423.991718,-2590.720797,-8660.409521,-919.314598
423.992046,2960.823768,-6809.894666,1302.362347
423.992373,6513.812290,-5773.606348,3907.087040
423.992701,5107.421000,-6957.935855,4060.306139
423.993028,-148.041188,-8734.430116,1685.410096
423.993356,-6217.729913,-9696.697840,-1532.190996
423.993683,-9918.759623,-10807.006753,-3524.039291
423.994011,-9696.697840,-10584.944971,-3294.210641
423.994338,-5625.565159,-8068.244768,-1532.190996
423.994666,888.247130,-6957.935855,766.095498
423.994993,5477.523971,-6439.791695,3983.696590
423.995321,4367.215058,-7179.997637,4060.306139
423.995649,-296.082377,-9326.594869,2221.676944
423.995976,-4885.359217,-10066.800811,-842.705048
423.996304,-8660.409521,-11695.253884,-3600.648841
423.996631,-8290.306550,-11695.253884,-3983.696590
423.996959,-2590.720797,-9030.512492,-2068.457845
423.997286,3997.112087,-7254.018232,306.438199
423.997614,9474.636058,-6587.832884,4136.915689
423.997941,9030.512492,-7920.203579,4136.915689
423.998269,4589.276840,-9844.739029,2374.896044
423.998596,-962.267725,-11029.068536,-689.485948
423.998924,-4589.276840,-12361.439231,-2911.162892
423.999251,-4737.318029,-12139.377449,-2374.896044
423.999579,0.000000,-9474.636058,-306.438199
423.999906,5255.462188,-8142.265362,2298.286494
424.000234,10362.883188,-7254.018232,5209.449386
424.000561,8216.285956,-8438.347739,5898.935335
424.000889,2442.679609,-9992.780217,3830.477490
424.001217,-2812.782580,-10881.027347,153.219100
424.001544,-6883.915261,-11251.130318,-2145.067394
424.001872,-7254.018232,-11473.192101,-2374.896044
424.002199,-3478.967927,-8882.471304,-842.705048
424.002527,1702.473667,-6883.915261,1455.581446
424.002854,5921.647536,-6217.729913,3677.258390
424.003182,4145.153275,-7105.977043,4366.744339
424.003509,-740.205942,-8882.471304,2068.457845
424.003837,-6143.709319,-9992.780217,-689.485948
424.004164,-9696.697840,-11029.068536,-2987.772442
424.004492,-9548.656652,-11251.130318,-2757.943793
424.004819,-5477.523971,-8808.450710,-995.924147
424.005147,666.185348,-7254.018232,1149.143247
424.005474,4959.379811,-6883.915261,3907.087040
424.005802,4441.235652,-7698.141797,4826.401637
424.006129,222.061783,-9474.636058,2834.553343
424.006457,-5107.421000,-10584.944971,-995.924147
424.006784,-7698.141797,-11695.253884,-3140.991542
424.007112,-7698.141797,-11473.192101,-3600.648841
424.007440,-3701.029710,-9104.533087,-2145.067394
424.007767,4145.153275,-7105.977043,689.485948
424.008095,9252.574275,-7031.956449,3294.210641
424.008422,8290.306550,-7031.956449,3140.991542
424.008750,5551.544565,-9252.574275,2374.896044
424.009077,0.000000,-11103.089130,-306.438199
424.009405,-5033.400406,-11399.171507,-3217.601092
424.009732,-4959.379811,-11991.336260,-2987.772442
424.010060,0.000000,-9474.636058,-1149.143247
424.010387,5477.523971,-7846.182985,1532.190996
424.010715,10066.800811,-6587.832884,4443.353888
424.011042,9400.615463,-8068.244768,4903.011187
424.011370,4219.173869,-8882.471304,3447.429741
424.011697,-1628.453072,-10362.883188,459.657299
424.012025,-4663.297435,-10881.027347,-1685.410096
424.012352,-6735.874072,-10807.006753,-2451.505594
424.012680,-3775.050304,-8882.471304,-1149.143247
424.013007,1554.432478,-7624.121203,1072.533697
424.013335,5699.585753,-6291.750507,2987.772442
424.013663,4811.338623,-6439.791695,3907.087040
424.013990,592.164754,-8142.265362,2911.162892
424.014318,-4663.297435,-9622.677246,-306.438199
424.014645,-9548.656652,-10362.883188,-2834.553343
424.014973,-9770.718434,-10584.944971,-2604.724693
424.015300,-6069.688724,-8734.430116,-1455.581446
424.015628,-888.247130,-6513.812290,919.314598
424.015955,4663.297435,-5847.626942,4060.306139
424.016283,4441.235652,-6809.894666,4903.011187
424.016610,666.185348,-8660.409521,3600.648841
424.016938,-4885.359217,-9622.677246,76.609550
424.017265,-8364.327145,-11029.068536,-2528.115143
424.017593,-8808.450710,-11399.171507,-3370.820191
424.017920,-5255.462188,-9104.533087,-2145.067394
424.018248,2442.679609,-6883.915261,229.828649
424.018575,7105.977043,-5921.647536,2834.553343
424.018903,8068.244768,-6217.729913,3907.087040
424.019231,5403.503377,-8660.409521,2987.772442
424.019558,-592.164754,-10732.986159,76.609550
424.019886,-5403.503377,-11325.150913,-2604.724693
424.020213,-5921.647536,-12509.480420,-2987.772442
424.020541,-3108.864956,-10510.924376,-2068.457845
424.020868,2812.782580,-8142.265362,689.485948
424.021196,9622.677246,-7179.997637,4136.915689
424.021523,9622.677246,-7698.141797,5592.497135
424.021851,5625.565159,-8734.430116,3677.258390
424.022178,-296.082377,-10807.006753,842.705048
424.022506,-4959.379811,-11843.295072,-1838.629195
424.022833,-6587.832884,-11843.295072,-3140.991542
424.023161,-4515.256246,-10066.800811,-1838.629195
424.023488,1036.288319,-7846.182985,383.047749
424.023816,6143.709319,-7031.956449,2911.162892
424.024143,7105.977043,-7105.977043,3983.696590
424.024471,2516.700203,-8512.368333,3064.381992
424.024798,-2812.782580,-10140.821405,0.000000
424.025126,-7772.162391,-11103.089130,-3140.991542
424.025454,-8956.491898,-11843.295072,-3217.601092
424.025781,-6587.832884,-10066.800811,-2604.724693
424.026109,-740.205942,-7624.121203,-306.438199
424.026436,4959.379811,-7105.977043,2911.162892
424.026764,5625.565159,-7254.018232,4749.792088
424.027091,1776.494261,-8438.347739,2987.772442
424.027419,-3478.967927,-10066.800811,306.438199
424.027746,-7624.121203,-11325.150913,-2681.334243
424.028074,-8808.450710,-11917.315666,-3830.477490
424.028401,-6883.915261,-9696.697840,-2987.772442
424.028729,666.185348,-7328.038826,-995.924147
424.029056,6513.812290,-6513.812290,2068.457845
424.029384,8290.306550,-6069.688724,3907.087040
424.029711,5477.523971,-8290.306550,3140.991542
424.030039,74.020594,-10362.883188,383.047749
424.030366,-5699.585753,-10658.965565,-2298.286494
424.030694,-6735.874072,-12139.377449,-3600.648841
424.031021,-4145.153275,-10214.842000,-2145.067394
424.031349,2886.803174,-7105.977043,229.828649
424.031677,9400.615463,-7031.956449,4290.134789
424.032004,10066.800811,-6735.874072,5669.106685
424.032332,5921.647536,-8586.388927,4979.620737
424.032659,296.082377,-10436.903782,2374.896044
424.032987,-4885.359217,-11103.089130,-1225.752797
424.033314,-7105.977043,-11473.192101,-1915.238745
424.033642,-5329.482782,-10214.842000,-995.924147
424.033969,0.000000,-7179.997637,995.924147
424.034297,5551.544565,-6513.812290,3524.039291
424.034624,6735.874072,-6143.709319,4749.792088
424.034952,2886.803174,-7920.203579,3830.477490
424.035279,-2516.700203,-9400.615463,1225.752797
424.035607,-7624.121203,-9992.780217,-1762.019645
424.035934,-9252.574275,-11029.068536,-3294.210641
424.036262,-7328.038826,-9474.636058,-1915.238745
424.036589,-1702.473667,-7031.956449,-153.219100
424.036917,4145.153275,-6069.688724,2911.162892
424.037245,6291.750507,-7105.977043,5056.230287
424.037572,1628.453072,-8142.265362,3217.601092
424.037900,-3404.947333,-9918.759623,995.924147
424.038227,-7624.121203,-11177.109724,-2298.286494
424.038555,-9548.656652,-11769.274478,-3600.648841
424.038882,-7105.977043,-10362.883188,-2528.115143
424.039210,148.041188,-7920.203579,-153.219100
424.039537,5625.565159,-6809.894666,1838.629195
424.039865,8734.430116,-6587.832884,3983.696590
424.040192,6217.729913,-8290.306550,3064.381992
424.040520,666.185348,-10584.944971,76.609550
424.040847,-3923.091493,-11695.253884,-2068.457845
424.041175,-5921.647536,-12953.603985,-3217.601092
424.041502,-4441.235652,-11473.192101,-2681.334243
424.041830,1184.329507,-8808.450710,-153.219100
424.042157,8734.430116,-8142.265362,3370.820191
424.042485,9622.677246,-7550.100608,5132.839837
424.042812,6143.709319,-9252.574275,4443.353888
424.043140,1258.350101,-11177.109724,1838.629195
424.043468,-4663.297435,-11843.295072,-1915.238745
424.043795,-7254.018232,-12879.583391,-3140.991542
424.044123,-5329.482782,-10658.965565,-2681.334243
424.044450,74.020594,-8438.347739,-536.266849
424.044778,5107.421000,-6661.853478,2298.286494
424.045105,7846.182985,-6143.709319,3983.696590
424.045433,4737.318029,-7846.182985,3524.039291
424.045760,-222.061783,-9104.533087,1455.581446
424.046088,-5921.647536,-10214.842000,-2068.457845
424.046415,-8882.471304,-11769.274478,-3064.381992
424.046743,-7624.121203,-10436.903782,-2298.286494
424.047070,-2294.638420,-7846.182985,0.000000
424.047398,4219.173869,-6735.874072,2757.943793
424.047725,6365.771101,-6809.894666,5286.058936
424.048053,2516.700203,-7698.141797,4136.915689
424.048380,-1998.556043,-9400.615463,1762.019645
424.048708,-7402.059420,-10362.883188,-2068.457845
424.049035,-9474.636058,-10955.047942,-3524.039291
424.049363,-7328.038826,-9770.718434,-2604.724693
424.049691,-1406.391290,-7105.977043,-1149.143247
424.050018,4589.276840,-5773.606348,1225.752797
424.050346,8734.430116,-5847.626942,3983.696590
424.050673,5403.503377,-6957.935855,3294.210641
424.051001,592.164754,-9474.636058,612.876398
424.051328,-4367.215058,-11251.130318,-1762.019645
424.051656,-7402.059420,-11917.315666,-3524.039291
424.051983,-5921.647536,-10732.986159,-2757.943793
424.052311,666.185348,-8068.244768,-153.219100
424.052638,7698.141797,-6587.832884,2681.334243
424.052966,9326.594869,-6069.688724,5132.839837
424.053293,7476.080014,-7994.224174,4673.182538
424.053621,1998.556043,-9548.656652,2451.505594
424.053948,-4219.173869,-10066.800811,-1378.971896
424.054276,-6513.812290,-11177.109724,-3140.991542
424.054603,-5107.421000,-10732.986159,-1762.019645
424.054931,-444.123565,-8216.285956,-383.047749
424.055258,5033.400406,-6957.935855,1991.848295
424.055586,7994.224174,-6587.832884,4290.134789
424.055914,4737.318029,-7994.224174,3907.087040
424.056241,-222.061783,-10066.800811,1838.629195
424.056569,-5403.503377,-10955.047942,-1532.190996
424.056896,-8512.368333,-11991.336260,-3064.381992
424.057224,-7846.182985,-10881.027347,-2911.162892
424.057551,-3108.864956,-8068.244768,-842.705048
424.057879,3478.967927,-6883.915261,2451.505594
424.058206,5921.647536,-6809.894666,4060.306139
424.058534,3330.926739,-7402.059420,4060.306139
424.058861,-1332.370696,-9104.533087,1532.190996
424.059189,-7105.977043,-10807.006753,-2068.457845
424.059516,-8512.368333,-11399.171507,-3753.867940
424.059844,-7105.977043,-11029.068536,-2911.162892
424.060171,-2664.741391,-8660.409521,-1608.800546
424.060499,3997.112087,-7254.018232,1455.581446
424.060826,8290.306550,-7624.121203,4060.306139
424.061154,5847.626942,-7846.182985,3294.210641
424.061482,1998.556043,-9918.759623,2451.505594
424.061809,-3256.906145,-11843.295072,-1072.533697
424.062137,-6513.812290,-12509.480420,-3370.820191
424.062464,-5551.544565,-11843.295072,-2528.115143
424.062792,814.226536,-9252.574275,0.000000
424.063119,6661.853478,-7698.141797,2681.334243
424.063447,9030.512492,-7179.997637,5209.449386
424.063774,7698.141797,-8438.347739,5362.668486
424.064102,1998.556043,-10436.903782,2681.334243
424.064429,-4441.235652,-11029.068536,-919.314598
424.064757,-6957.935855,-11843.295072,-2298.286494
424.065084,-7105.977043,-11325.150913,-2681.334243
424.065412,-1998.556043,-8438.347739,-766.095498
424.065739,3256.906145,-6957.935855,1532.190996
424.066067,7402.059420,-5773.606348,4213.525239
424.066394,4737.318029,-6661.853478,4060.306139
424.066722,592.164754,-8734.430116,2528.115143
424.067050,-4885.359217,-9696.697840,-689.485948
424.067377,-7624.121203,-10955.047942,-2681.334243
424.067705,-8290.306550,-10140.821405,-2528.115143
424.068032,-3034.844362,-7920.203579,-612.876398
424.068360,2664.741391,-6883.915261,2451.505594
424.068687,5995.668130,-6143.709319,4060.306139
424.069015,4737.318029,-7328.038826,4979.620737
424.069342,518.144159,-9104.533087,2451.505594
424.069670,-5551.544565,-9992.780217,-995.924147
424.069998,-7772.162391,-10658.965565,-1915.238745
424.070325,-7254.018232,-10881.027347,-2528.115143
424.070653,-3182.885551,-8364.327145,-1225.752797
424.070980,3627.009116,-6735.874072,1378.971896
424.071308,8290.306550,-6661.853478,3907.087040
424.071635,6439.791695,-6587.832884,4519.963438
424.071963,2590.720797,-9400.615463,2068.457845
424.072290,-3108.864956,-10732.986159,0.000000
424.072618,-7328.038826,-11251.130318,-3064.381992
424.072945,-6809.894666,-11325.150913,-2681.334243
424.073273,-1850.514855,-8734.430116,-689.485948
424.073601,4071.132681,-6883.915261,1532.190996
424.073928,8216.285956,-6143.709319,4443.353888
424.074256,7476.080014,-7105.977043,5132.839837
424.074583,2294.638420,-8882.471304,2528.115143
424.074911,-3775.050304,-10436.903782,-536.266849
424.075238,-5847.626942,-11473.192101,-2068.457845
424.075566,-7402.059420,-11547.212695,-3294.210641
424.075893,-3404.947333,-9178.553681,-1838.629195
424.076221,2590.720797,-7476.080014,306.438199
424.076549,7476.080014,-6661.853478,3064.381992
424.076876,5995.668130,-6735.874072,3524.039291
424.077204,2516.700203,-8882.471304,2145.067394
424.077531,-3404.947333,-10584.944971,-612.876398
424.077859,-7624.121203,-11843.295072,-3140.991542
424.078186,-7550.100608,-11917.315666,-3064.381992
424.078514,-4145.153275,-9030.512492,-1455.581446
424.078841,2072.576638,-7920.203579,612.876398
424.079169,6587.832884,-7105.977043,3524.039291
424.079497,6587.832884,-7772.162391,4596.572988
424.079824,1998.556043,-9178.553681,2145.067394
424.080152,-3627.009116,-10362.883188,-995.924147
424.080479,-6735.874072,-11695.253884,-3140.991542
424.080807,-7624.121203,-11547.212695,-3524.039291
424.081134,-4219.173869,-9474.636058,-2221.676944
424.081462,2812.782580,-7402.059420,306.438199
424.081789,7846.182985,-7254.018232,3064.381992
424.082117,7624.121203,-7105.977043,3907.087040
424.082444,2960.823768,-9474.636058,2451.505594
424.082772,-2442.679609,-11399.171507,-459.657299
424.083100,-7550.100608,-12065.356855,-3677.258390
424.083427,-7328.038826,-12583.501014,-2834.553343
424.083755,-2664.741391,-9918.759623,-1608.800546
424.084082,2886.803174,-7624.121203,536.266849
424.084410,8216.285956,-7105.977043,4136.915689
424.084737,8068.244768,-7476.080014,4903.011187
424.085065,2812.782580,-9178.553681,2911.162892
424.085392,-2886.803174,-10732.986159,0.000000
424.085720,-6217.729913,-11621.233289,-2681.334243
424.086048,-8142.265362,-11843.295072,-3217.601092
424.086375,-4441.235652,-9770.718434,-1685.410096
424.086703,2146.597232,-7772.162391,842.705048
424.087030,7550.100608,-6513.812290,3677.258390
424.087358,7624.121203,-6809.894666,4749.792088
424.087685,3404.947333,-8956.491898,3217.601092
424.088013,-2294.638420,-10436.903782,766.095498
424.088340,-7328.038826,-11103.089130,-2374.896044
424.088668,-7328.038826,-12139.377449,-2068.457845
424.088996,-4219.173869,-9548.656652,-612.876398
424.089323,1332.370696,-7550.100608,1455.581446
424.089651,6513.812290,-6883.915261,4290.134789
424.089978,6587.832884,-7254.018232,5592.497135
424.090306,1554.432478,-8956.491898,3370.820191
424.090633,-3182.885551,-10288.862594,842.705048
424.090961,-7105.977043,-11473.192101,-2298.286494
424.091288,-7772.162391,-11473.192101,-2298.286494
424.091616,-4663.297435,-9030.512492,-919.314598
424.091943,1850.514855,-7105.977043,1532.190996
424.092271,6957.935855,-6809.894666,4443.353888
424.092599,6291.750507,-6587.832884,4749.792088
424.092926,2516.700203,-8512.368333,3140.991542
424.093254,-3034.844362,-9992.780217,383.047749
424.093581,-7624.121203,-10510.924376,-2757.943793
424.093909,-7105.977043,-11769.274478,-2374.896044
424.094236,-3478.967927,-9178.553681,-1532.190996
424.094564,1924.535449,-6809.894666,766.095498
424.094891,7550.100608,-6365.771101,4060.306139
424.095219,6957.935855,-7031.956449,4903.011187
424.095547,2368.659014,-8586.388927,3064.381992
424.095874,-2516.700203,-10140.821405,459.657299
424.096202,-6661.853478,-11177.109724,-2451.505594
424.096529,-7994.224174,-11621.233289,-3064.381992
424.096857,-4589.276840,-9696.697840,-1762.019645
424.097184,1258.350101,-7402.059420,0.000000
424.097512,6957.935855,-6291.750507,2528.115143
424.097839,7476.080014,-6735.874072,3524.039291
424.098167,3256.906145,-7920.203579,2298.286494
424.098495,-1628.453072,-9844.739029,-536.266849
424.098822,-6513.812290,-10955.047942,-3370.820191
424.099150,-7105.977043,-11769.274478,-2528.115143
424.099477,-4367.215058,-9178.553681,-2221.676944
424.099805,1110.308913,-7624.121203,-306.438199
424.100132,6809.894666,-6809.894666,2987.772442
424.100460,7254.018232,-7179.997637,4213.525239
424.100787,3108.864956,-8808.450710,2911.162892
424.101115,-1776.494261,-10140.821405,153.219100
424.101442,-5551.544565,-11399.171507,-2834.553343
424.101770,-6957.935855,-11621.233289,-3600.648841
424.102098,-4811.338623,-9548.656652,-2681.334243
424.102425,1702.473667,-7402.059420,-153.219100
424.102753,7179.997637,-6661.853478,2604.724693
424.103080,8142.265362,-6809.894666,3524.039291
424.103408,3997.112087,-8438.347739,2451.505594
424.103735,-1258.350101,-10436.903782,76.609550
424.104063,-6809.894666,-11177.109724,-2911.162892
424.104390,-7772.162391,-12139.377449,-2604.724693
424.104718,-4737.318029,-9918.759623,-2145.067394
424.105046,1110.308913,-7402.059420,76.609550
424.105373,7476.080014,-7031.956449,3830.477490
424.105701,7772.162391,-7402.059420,5056.230287
424.106028,2886.803174,-8364.327145,3907.087040
424.106356,-1924.535449,-10288.862594,1225.752797
424.106683,-6365.771101,-11399.171507,-2145.067394
424.107011,-8142.265362,-11843.295072,-2757.943793
424.107338,-5921.647536,-10436.903782,-1838.629195
424.107666,222.061783,-7846.182985,459.657299
424.107993,5921.647536,-6957.935855,3447.429741
424.108321,6735.874072,-6661.853478,4443.353888
424.108649,3478.967927,-8586.388927,3217.601092
424.108976,-1998.556043,-10214.842000,459.657299
424.109304,-7105.977043,-10732.986159,-2374.896044
424.109631,-8882.471304,-11843.295072,-2374.896044
424.109959,-6291.750507,-10214.842000,-2298.286494
424.110286,-148.041188,-7402.059420,0.000000
424.110614,6513.812290,-7105.977043,3753.867940
424.110941,7328.038826,-6513.812290,5056.230287
424.111269,3404.947333,-7698.141797,4213.525239
424.111597,-740.205942,-9992.780217,1532.190996
424.111924,-5773.606348,-10732.986159,-1838.629195
424.112252,-7254.018232,-11399.171507,-2298.286494
424.112579,-5551.544565,-9992.780217,-1838.629195
424.112907,296.082377,-7476.080014,306.438199
424.113234,6735.874072,-6809.894666,3600.648841
424.113562,7550.100608,-6439.791695,4673.182538
424.113889,3997.112087,-7994.224174,3677.258390
424.114217,-740.205942,-9770.718434,995.924147
424.114545,-5847.626942,-10807.006753,-2298.286494
424.114872,-7920.203579,-11177.109724,-2374.896044
424.115200,-5181.441594,-9918.759623,-2451.505594
424.115527,370.102971,-7328.038826,0.000000
424.115855,6587.832884,-7031.956449,3447.429741
424.116182,7698.141797,-6735.874072,4519.963438
424.116510,3923.091493,-7846.182985,3753.867940
424.116837,-666.185348,-10288.862594,995.924147
424.117165,-6217.729913,-11103.089130,-2298.286494
424.117492,-8216.285956,-11843.295072,-3217.601092
424.117820,-6661.853478,-10732.986159,-2681.334243
424.118148,-444.123565,-7624.121203,-306.438199
424.118475,5625.565159,-6365.771101,1608.800546
424.118803,7328.038826,-5847.626942,3370.820191
424.119130,4811.338623,-7624.121203,2987.772442
424.119458,148.041188,-9622.677246,612.876398
424.119785,-4885.359217,-10066.800811,-2145.067394
424.120113,-7031.956449,-11399.171507,-2911.162892
424.120440,-5995.668130,-10510.924376,-2757.943793
424.120768,0.000000,-8068.244768,-536.266849
424.121096,6217.729913,-7402.059420,2528.115143
424.121423,7994.224174,-6883.915261,3907.087040
424.121751,5107.421000,-8068.244768,3753.867940
424.122078,592.164754,-10288.862594,1302.362347
424.122406,-5107.421000,-11325.150913,-1915.238745
424.122733,-7105.977043,-12287.418637,-2834.553343
424.123061,-5995.668130,-11103.089130,-2604.724693
424.123388,-222.061783,-8438.347739,-383.047749
424.123716,5477.523971,-7105.977043,1685.410096
424.124044,7698.141797,-6439.791695,4136.915689
424.124371,5403.503377,-8290.306550,3753.867940
424.124699,888.247130,-9770.718434,1378.971896
424.125026,-4293.194464,-10807.006753,-1838.629195
424.125354,-6661.853478,-11547.212695,-1378.971896
424.125681,-5847.626942,-11029.068536,-1838.629195
424.126009,148.041188,-8290.306550,995.924147
424.126336,5773.606348,-7476.080014,3907.087040
424.126664,7328.038826,-7105.977043,5362.668486
424.126991,3552.988522,-8290.306550,5439.278036
424.127319,-666.185348,-10584.944971,2298.286494
424.127647,-6661.853478,-11251.130318,-766.095498
424.127974,-9030.512492,-12065.356855,-2451.505594
424.128302,-7698.141797,-11251.130318,-2451.505594
424.128629,-2220.617826,-8364.327145,-306.438199
424.128957,3182.885551,-6661.853478,1838.629195
424.129284,6513.812290,-6365.771101,3753.867940
424.129612,3849.070898,-7105.977043,2911.162892
424.129939,-814.226536,-9178.553681,919.314598
424.130267,-5255.462188,-10436.903782,-1149.143247
424.130595,-7846.182985,-11695.253884,-3217.601092
424.130922,-7476.080014,-10955.047942,-2834.553343
424.131250,-1110.308913,-8586.388927,-229.828649
424.131577,4145.153275,-7328.038826,1762.019645
424.131905,6809.894666,-6513.812290,4136.915689
424.132232,5403.503377,-7402.059420,3600.648841
424.132560,1480.411884,-9474.636058,1149.143247
424.132887,-3701.029710,-10066.800811,-1685.410096
424.133215,-5847.626942,-11399.171507,-2911.162892
424.133542,-5403.503377,-10362.883188,-3600.648841
424.133870,296.082377,-8290.306550,-766.095498
424.134198,5995.668130,-7328.038826,1302.362347
424.134525,8142.265362,-6291.750507,3064.381992
424.134853,6513.812290,-8216.285956,3294.210641
424.135180,1850.514855,-10214.842000,1225.752797
424.135508,-3182.885551,-11251.130318,-1225.752797
424.135835,-5847.626942,-12509.480420,-2757.943793
424.136163,-5255.462188,-11103.089130,-2604.724693
424.136490,296.082377,-8734.430116,0.000000
424.136818,5403.503377,-7105.977043,2604.724693
424.137146,7328.038826,-7031.956449,4826.401637
424.137473,5699.585753,-7846.182985,4443.353888
424.137801,370.102971,-9326.594869,2145.067394
424.138128,-5329.482782,-10214.842000,-612.876398
424.138456,-7846.182985,-11103.089130,-2374.896044
424.138783,-7254.018232,-10584.944971,-2221.676944
424.139111,-2368.659014,-8290.306550,0.000000
424.139438,2960.823768,-6809.894666,1608.800546
424.139766,6291.750507,-6883.915261,4060.306139
424.140094,3997.112087,-7179.997637,3370.820191
424.140421,-444.123565,-9474.636058,1838.629195
424.140749,-5477.523971,-10881.027347,-919.314598
424.141076,-8586.388927,-11695.253884,-2911.162892
424.141404,-7772.162391,-11103.089130,-2528.115143
424.141731,-2146.597232,-9104.533087,0.000000
424.142059,2516.700203,-7254.018232,1762.019645
424.142386,6661.853478,-7031.956449,4060.306139
424.142714,5329.482782,-7624.121203,4060.306139
424.143041,1184.329507,-9548.656652,2145.067394
424.143369,-3701.029710,-10732.986159,-229.828649
424.143697,-6143.709319,-11843.295072,-2145.067394
424.144024,-5995.668130,-11177.109724,-2604.724693
424.144352,-666.185348,-9030.512492,-459.657299
424.144679,4589.276840,-7476.080014,1991.848295
424.145007,7994.224174,-6217.729913,3983.696590
424.145334,6735.874072,-7994.224174,4366.744339
424.145662,2812.782580,-9474.636058,2681.334243
424.145989,-2812.782580,-10436.903782,0.000000
424.146317,-5699.585753,-11843.295072,-1991.848295
424.146645,-5625.565159,-11399.171507,-1915.238745
424.146972,-592.164754,-8882.471304,76.609550
424.147300,3997.112087,-7328.038826,2298.286494
424.147627,6957.935855,-7105.977043,4749.792088
424.147955,5181.441594,-7846.182985,4366.744339
424.148282,666.185348,-9696.697840,1991.848295
424.148610,-5625.565159,-10140.821405,-919.314598
424.148937,-8438.347739,-11251.130318,-2987.772442
424.149265,-7698.141797,-11251.130318,-2757.943793
424.149593,-4071.132681,-8068.244768,-1225.752797
424.149920,1850.514855,-6291.750507,536.266849
424.150248,6365.771101,-6365.771101,2834.553343
424.150575,4589.276840,-6143.709319,2757.943793
424.150903,814.226536,-8216.285956,1302.362347
424.151230,-4145.153275,-10066.800811,-612.876398
424.151558,-8734.430116,-10658.965565,-3600.648841
424.151885,-7772.162391,-11399.171507,-2987.772442
424.152213,-2812.782580,-8956.491898,-1532.190996
424.152540,2442.679609,-7105.977043,1072.533697
424.152868,7920.203579,-6143.709319,3217.601092
424.153196,7476.080014,-7179.997637,3907.087040
424.153523,2812.782580,-8882.471304,2374.896044
424.153851,-1850.514855,-10436.903782,0.000000
424.154178,-5551.544565,-11547.212695,-3217.601092
424.154506,-6217.729913,-11843.295072,-3217.601092
424.154833,-2146.597232,-9474.636058,-1225.752797
424.155161,3478.967927,-7698.141797,612.876398
424.155488,8068.244768,-6513.812290,3140.991542
424.155816,8068.244768,-7105.977043,4060.306139
424.156144,3330.926739,-8660.409521,2528.115143
424.156471,-2220.617826,-10066.800811,153.219100
424.156799,-6143.709319,-11177.109724,-2757.943793
424.157126,-6365.771101,-11177.109724,-2528.115143
424.157454,-1850.514855,-8734.430116,-459.657299
424.157781,2738.761985,-6809.894666,1378.971896
424.158109,7105.977043,-6217.729913,4673.182538
424.158436,5921.647536,-7328.038826,5132.839837
424.158764,814.226536,-8956.491898,3447.429741
424.159092,-5329.482782,-10140.821405,0.000000
424.159419,-8512.368333,-11695.253884,-1762.019645
424.159747,-9252.574275,-11325.150913,-2451.505594
424.160074,-5329.482782,-9104.533087,-1225.752797
424.160402,1258.350101,-7105.977043,1225.752797
424.160729,5995.668130,-6957.935855,3370.820191
424.161057,5181.441594,-6661.853478,3600.648841
424.161384,1998.556043,-8734.430116,2221.676944
424.161712,-4071.132681,-10732.986159,-383.047749
424.162039,-8882.471304,-11325.150913,-3370.820191
424.162367,-8586.388927,-12435.459826,-2834.553343
424.162695,-4367.215058,-9696.697840,-1378.971896
424.163022,1554.432478,-7254.018232,1225.752797
424.163350,7846.182985,-7105.977043,3983.696590
424.163677,7402.059420,-7624.121203,4749.792088
424.164005,2294.638420,-9178.553681,2681.334243
424.164332,-2442.679609,-10881.027347,153.219100
424.164660,-6143.709319,-11843.295072,-2681.334243
424.164988,-6365.771101,-11621.233289,-3294.210641
424.165315,-2516.700203,-9992.780217,-1685.410096
424.165643,3627.009116,-7994.224174,153.219100
424.165971,8586.388927,-7031.956449,3294.210641
424.166298,8734.430116,-7179.997637,3983.696590
424.166626,4071.132681,-9104.533087,2298.286494
424.166953,-1332.370696,-11103.089130,153.219100
424.167281,-5329.482782,-12065.356855,-2604.724693
424.167609,-6069.688724,-12139.377449,-2374.896044
424.167936,-1998.556043,-10066.800811,-536.266849
424.168264,3256.906145,-7624.121203,1685.410096
424.168592,7179.997637,-7105.977043,4060.306139
424.168919,6883.915261,-7920.203579,5592.497135
424.169247,1924.535449,-9030.512492,3677.258390
424.169575,-4071.132681,-9770.718434,76.609550
424.169902,-7254.018232,-11103.089130,-1762.019645
424.170230,-8586.388927,-10732.986159,-3064.381992
424.170557,-6069.688724,-8512.368333,-1762.019645
424.170885,296.082377,-6365.771101,766.095498
424.171213,5107.421000,-6069.688724,2834.553343
424.171540,4663.297435,-5847.626942,3294.210641
424.171868,1110.308913,-7846.182985,2374.896044
424.172196,-4293.194464,-9770.718434,-383.047749
424.172523,-9400.615463,-10288.862594,-3370.820191
424.172851,-9474.636058,-11547.212695,-3140.991542
424.173178,-5847.626942,-8956.491898,-2451.505594
424.173506,370.102971,-6661.853478,76.609550
424.173834,7328.038826,-6439.791695,3370.820191
424.174161,7254.018232,-6587.832884,3830.477490
424.174489,3404.947333,-8142.265362,2451.505594
424.174817,-1110.308913,-9770.718434,229.828649
424.175144,-4663.297435,-10881.027347,-2834.553343
424.175472,-5921.647536,-11769.274478,-3524.039291
424.175799,-3108.864956,-9992.780217,-1991.848295
424.176127,3256.906145,-7772.162391,383.047749
424.176455,8882.471304,-7031.956449,3447.429741
424.176782,9548.656652,-6809.894666,4136.915689
424.177110,4959.379811,-7994.224174,3370.820191
424.177438,296.082377,-10288.862594,1149.143247
424.177765,-5033.400406,-11399.171507,-2221.676944
424.178093,-6217.729913,-12287.418637,-2451.505594
424.178421,-2886.803174,-9844.739029,-919.314598
424.178748,2146.597232,-7698.141797,1455.581446
424.179076,7402.059420,-6883.915261,4136.915689
424.179403,7402.059420,-7402.059420,5439.278036
424.179731,2072.576638,-8660.409521,3753.867940
424.180059,-2886.803174,-9992.780217,842.705048
424.180386,-7179.997637,-11325.150913,-2221.676944
424.180714,-9030.512492,-11769.274478,-3217.601092
424.181042,-6735.874072,-9992.780217,-1915.238745
424.181369,-962.267725,-7698.141797,383.047749
424.181697,4071.132681,-7031.956449,2604.724693
424.182024,4885.359217,-6735.874072,3524.039291
424.182352,1406.391290,-8660.409521,2451.505594
424.182680,-3997.112087,-10214.842000,-153.219100
424.183007,-8956.491898,-11177.109724,-3140.991542
424.183335,-9770.718434,-12583.501014,-3524.039291
424.183663,-6365.771101,-10288.862594,-2451.505594
424.183990,0.000000,-7031.956449,0.000000
424.184318,7105.977043,-7105.977043,2911.162892
424.184646,8142.265362,-7328.038826,4366.744339
424.184973,4589.276840,-8660.409521,3217.601092
424.185301,0.000000,-10510.924376,1072.533697
424.185628,-4737.318029,-11103.089130,-2604.724693
424.185956,-6217.729913,-12657.521608,-3140.991542
424.186284,-3627.009116,-11325.150913,-2221.676944
424.186611,2516.700203,-8586.388927,306.438199
424.186939,8586.388927,-7772.162391,3600.648841
424.187267,10362.883188,-6957.935855,5132.839837
424.187594,5773.606348,-8882.471304,3983.696590
424.187922,814.226536,-10066.800811,1149.143247
424.188249,-4959.379811,-11251.130318,-2068.457845
424.188577,-6365.771101,-12139.377449,-2528.115143
424.188905,-3552.988522,-9918.759623,-919.314598
424.189232,1184.329507,-7772.162391,1608.800546
424.189560,6661.853478,-6735.874072,3983.696590
424.189888,7105.977043,-7402.059420,5669.106685
424.190215,2072.576638,-8512.368333,4290.134789
424.190543,-3034.844362,-9474.636058,842.705048
424.190871,-7772.162391,-10140.821405,-1991.848295
424.191198,-9326.594869,-10807.006753,-2987.772442
424.191526,-6957.935855,-9030.512492,-1762.019645
424.191853,-814.226536,-6809.894666,689.485948
424.192181,3478.967927,-5477.523971,2604.724693
424.192509,4959.379811,-4885.359217,4596.572988
424.192836,2072.576638,-7179.997637,2987.772442
424.193164,-3330.926739,-9252.574275,0.000000
424.193492,-7772.162391,-9696.697840,-2604.724693
424.193819,-9030.512492,-11547.212695,-3217.601092
424.194147,-6439.791695,-9918.759623,-3370.820191
424.194474,-592.164754,-7031.956449,153.219100
424.194802,6513.812290,-6883.915261,2987.772442
424.195130,7846.182985,-6809.894666,4213.525239
424.195457,4737.318029,-7994.224174,3447.429741
424.195785,0.000000,-9844.739029,689.485948
424.196113,-4737.318029,-10214.842000,-2298.286494
424.196440,-6439.791695,-11547.212695,-3294.210641
424.196768,-3923.091493,-10584.944971,-2451.505594
424.197096,2146.597232,-8512.368333,-229.828649
424.197423,7031.956449,-6735.874072,2451.505594
424.197751,9918.759623,-6513.812290,3983.696590
424.198078,6735.874072,-8364.327145,3370.820191
424.198406,1258.350101,-10066.800811,536.266849
424.198734,-3849.070898,-10955.047942,-2451.505594
424.199061,-5921.647536,-12287.418637,-2987.772442
424.199389,-4293.194464,-10955.047942,-1532.190996
424.199717,814.226536,-8068.244768,459.657299
424.200044,6587.832884,-7476.080014,3294.210641
424.200372,7994.224174,-7624.121203,4979.620737
424.200699,3775.050304,-8734.430116,3907.087040
424.201027,-1332.370696,-9770.718434,2068.457845
424.201355,-6143.709319,-10436.903782,-1608.800546
424.201682,-8068.244768,-11843.295072,-2604.724693
424.202010,-7328.038826,-10658.965565,-2068.457845
424.202338,-1628.453072,-8364.327145,0.000000
424.202665,3404.947333,-7105.977043,2451.505594
424.202993,5403.503377,-6069.688724,4136.915689
424.203321,2664.741391,-8438.347739,3524.039291
424.203648,-2738.761985,-10140.821405,766.095498
424.203976,-7624.121203,-10955.047942,-2451.505594
424.204303,-9770.718434,-12139.377449,-3217.601092
424.204631,-7846.182985,-10807.006753,-3064.381992
424.204959,-2072.576638,-8438.347739,-689.485948
424.205286,5107.421000,-7550.100608,2451.505594
424.205614,7402.059420,-6809.894666,3983.696590
424.205942,4959.379811,-8068.244768,3753.867940
424.206269,888.247130,-10140.821405,1915.238745
424.206597,-5255.462188,-10955.047942,-1838.629195
424.206924,-6957.935855,-12065.356855,-3370.820191
424.207252,-5329.482782,-11547.212695,-2834.553343
424.207580,444.123565,-8956.491898,-766.095498
424.207907,6217.729913,-7476.080014,1915.238745
424.208235,10140.821405,-6587.832884,4290.134789
424.208563,7179.997637,-8142.265362,3830.477490
424.208890,2590.720797,-9770.718434,1455.581446
424.209218,-2516.700203,-10510.924376,-2068.457845
424.209545,-5329.482782,-11769.274478,-3140.991542
424.209873,-4367.215058,-10955.047942,-2451.505594
424.210201,1110.308913,-8438.347739,383.047749
424.210528,6587.832884,-7402.059420,3217.601092
424.210856,8660.409521,-7254.018232,5439.278036
424.211184,4737.318029,-8364.327145,4826.401637
424.211511,0.000000,-9474.636058,2681.334243
424.211839,-5551.544565,-10584.944971,-1072.533697
424.212167,-7994.224174,-10732.986159,-2681.334243
424.212494,-6809.894666,-10288.862594,-1762.019645
424.212822,-2146.597232,-7698.141797,0.000000
424.213149,3404.947333,-6809.894666,2374.896044
424.213477,5847.626942,-5625.565159,4673.182538
424.213805,2812.782580,-7105.977043,4213.525239
424.214132,-2590.720797,-9178.553681,1455.581446
424.214460,-7328.038826,-10362.883188,-1532.190996
424.214788,-10288.862594,-11029.068536,-3294.210641
424.215115,-8808.450710,-10066.800811,-2757.943793
424.215443,-2738.761985,-7698.141797,-459.657299
424.215770,3923.091493,-6439.791695,1991.848295
424.216098,6883.915261,-5551.544565,3907.087040
424.216426,5255.462188,-7105.977043,4136.915689
424.216753,1628.453072,-8882.471304,1838.629195
424.217081,-4959.379811,-9918.759623,-1762.019645
424.217409,-7105.977043,-11769.274478,-3140.991542
424.217736,-6217.729913,-11325.150913,-3217.601092
424.218064,-962.267725,-8956.491898,-1302.362347
424.218392,4959.379811,-7179.997637,1072.533697
424.218719,9548.656652,-6513.812290,3677.258390
424.219047,7550.100608,-7920.203579,3600.648841
424.219374,3404.947333,-9474.636058,1991.848295
424.219702,-1998.556043,-10214.842000,-1608.800546
424.220030,-4959.379811,-11991.336260,-3370.820191
424.220357,-5033.400406,-10955.047942,-2911.162892
424.220685,0.000000,-8512.368333,-536.266849
424.221013,5847.626942,-7624.121203,2374.896044
424.221340,8882.471304,-7105.977043,4826.401637
424.221668,6587.832884,-8438.347739,5209.449386
424.221995,1110.308913,-9770.718434,3140.991542
424.222323,-4885.359217,-10955.047942,-766.095498
424.222651,-7698.141797,-11547.212695,-2374.896044
424.222978,-7105.977043,-11103.089130,-2451.505594
424.223306,-3256.906145,-8882.471304,-612.876398
424.223634,2146.597232,-6735.874072,1685.410096
424.223961,6957.935855,-6513.812290,4136.915689
424.224289,4219.173869,-7105.977043,3983.696590
424.224617,-666.185348,-8882.471304,1991.848295
424.224944,-5699.585753,-10807.006753,-842.705048
424.225272,-9400.615463,-11695.253884,-3600.648841
424.225599,-9030.512492,-11399.171507,-3217.601092
424.225927,-3404.947333,-9252.574275,-1072.533697
424.226255,2368.659014,-7550.100608,1378.971896
424.226582,6513.812290,-6883.915261,4136.915689
424.226910,5921.647536,-8438.347739,5286.058936
424.227238,740.205942,-9770.718434,1762.019645
424.227565,-4737.318029,-10732.986159,-1378.971896
424.227893,-7846.182985,-12287.418637,-3294.210641
424.228220,-7772.162391,-11917.315666,-3830.477490
424.228548,-2146.597232,-9474.636058,-1455.581446
424.228876,4811.338623,-7402.059420,459.657299
424.229203,9622.677246,-6143.709319,3830.477490
424.229531,8660.409521,-7846.182985,4443.353888
424.229859,3997.112087,-9622.677246,2451.505594
424.230186,-1998.556043,-10510.924376,-536.266849
424.230514,-4737.318029,-11917.315666,-1915.238745
424.230842,-5551.544565,-11769.274478,-2451.505594
424.231169,-518.144159,-9326.594869,0.000000
424.231497,5403.503377,-7624.121203,2528.115143
424.231824,9104.533087,-6883.915261,5362.668486
424.232152,7624.121203,-7846.182985,6665.030833
424.232480,2516.700203,-9326.594869,3600.648841
424.232807,-3849.070898,-10066.800811,0.000000
424.233135,-7476.080014,-10881.027347,-2068.457845
424.233463,-7772.162391,-10658.965565,-1915.238745
424.233790,-3775.050304,-7994.224174,-1072.533697
424.234118,1628.453072,-6069.688724,1685.410096
424.234445,5773.606348,-5329.482782,4290.134789
424.234773,3775.050304,-6069.688724,4213.525239
424.235101,-1702.473667,-7846.182985,1838.629195
424.235428,-6587.832884,-9400.615463,-459.657299
424.235756,-10436.903782,-10584.944971,-3447.429741
424.236084,-10214.842000,-10732.986159,-3524.039291
424.236411,-5329.482782,-8068.244768,-1378.971896
424.236739,1110.308913,-6365.771101,766.095498
424.237066,6587.832884,-6069.688724,4136.915689
424.237394,6069.688724,-6809.894666,4290.134789
424.237722,1628.453072,-8290.306550,1991.848295
424.238049,-3849.070898,-10214.842000,-1302.362347
424.238377,-6661.853478,-11399.171507,-3524.039291
424.238705,-7105.977043,-11769.274478,-4136.915689
424.239032,-2738.761985,-8660.409521,-1838.629195
424.239360,4589.276840,-7179.997637,0.000000
424.239688,10214.842000,-7031.956449,3370.820191
424.240015,9474.636058,-7105.977043,3983.696590
424.240343,4811.338623,-9252.574275,2221.676944
424.240670,-296.082377,-11103.089130,-229.828649
424.240998,-4737.318029,-12361.439231,-3524.039291
424.241326,-5477.523971,-12731.542202,-3524.039291
424.241653,-888.247130,-10214.842000,-1378.971896
424.241981,4663.297435,-8216.285956,995.924147
424.242309,9178.553681,-7179.997637,4673.182538
424.242636,8142.265362,-8142.265362,5209.449386
424.242964,3330.926739,-9548.656652,3064.381992
424.243291,-3478.967927,-10732.986159,-459.657299
424.243619,-6957.935855,-11843.295072,-2374.896044
424.243947,-8438.347739,-11843.295072,-2834.553343
424.244274,-4737.318029,-9252.574275,-1225.752797
424.244602,888.247130,-7402.059420,766.095498
424.244930,5921.647536,-6291.750507,3600.648841
424.245257,5033.400406,-6957.935855,4213.525239
424.245585,148.041188,-8956.491898,2528.115143
424.245913,-4885.359217,-10362.883188,0.000000
424.246240,-9326.594869,-11399.171507,-3294.210641
424.246568,-9770.718434,-11917.315666,-3370.820191
424.246895,-5921.647536,-9548.656652,-1532.190996
424.247223,148.041188,-7476.080014,612.876398
424.247551,6143.709319,-6661.853478,3370.820191
424.247878,6587.832884,-7254.018232,4749.792088
424.248206,2072.576638,-9178.553681,2834.553343
424.248534,-3330.926739,-10584.944971,-76.609550
424.248861,-6809.894666,-11843.295072,-2834.553343
424.249189,-7846.182985,-11991.336260,-3140.991542
424.249516,-4441.235652,-9622.677246,-1455.581446
424.249844,2886.803174,-7550.100608,689.485948
424.250172,8512.368333,-6883.915261,3370.820191
424.250499,8586.388927,-7105.977043,4290.134789
424.250827,5403.503377,-9104.533087,3447.429741
424.251155,-592.164754,-10436.903782,689.485948
424.251482,-5847.626942,-11325.150913,-2757.943793
424.251810,-5773.606348,-12509.480420,-2681.334243
424.252138,-2146.597232,-10436.903782,-995.924147
424.252465,3108.864956,-7624.121203,1378.971896
424.252793,8290.306550,-6661.853478,4443.353888
424.253120,8068.244768,-7550.100608,5592.497135
424.253448,2812.782580,-9104.533087,3830.477490
424.253776,-2146.597232,-10362.883188,842.705048
424.254103,-6217.729913,-10881.027347,-2145.067394
424.254431,-7476.080014,-11399.171507,-2451.505594
424.254759,-4293.194464,-9104.533087,-995.924147
424.255086,222.061783,-7402.059420,766.095498
424.255414,5255.462188,-5921.647536,3677.258390
424.255741,5033.400406,-6883.915261,4443.353888
424.256069,222.061783,-8216.285956,2757.943793
424.256397,-4737.318029,-9770.718434,459.657299
424.256724,-8216.285956,-10955.047942,-2757.943793
424.257052,-9622.677246,-11029.068536,-3370.820191
424.257380,-6439.791695,-9104.533087,-2298.286494
424.257707,148.041188,-7179.997637,459.657299
424.258035,5329.482782,-6587.832884,3677.258390
424.258363,5625.565159,-6513.812290,4060.306139
424.258690,2664.741391,-8586.388927,2681.334243
424.259018,-3034.844362,-10362.883188,0.000000
424.259345,-7254.018232,-10807.006753,-3370.820191
424.259673,-7550.100608,-11769.274478,-3983.696590
424.260001,-4515.256246,-9992.780217,-2911.162892
424.260328,2294.638420,-7105.977043,-612.876398
424.260656,9030.512492,-6439.791695,2451.505594
424.260984,9400.615463,-6883.915261,3907.087040
424.261311,5181.441594,-8068.244768,2298.286494
424.261639,962.267725,-10288.862594,229.828649
424.261966,-4367.215058,-10807.006753,-3370.820191
424.262294,-5107.421000,-12065.356855,-3447.429741
424.262622,-2220.617826,-10214.842000,-1685.410096
424.262949,3330.926739,-8142.265362,306.438199
424.263277,8808.450710,-6661.853478,4060.306139
424.263605,9030.512492,-7476.080014,5286.058936
424.263932,4219.173869,-9104.533087,3677.258390
424.264260,-1554.432478,-10140.821405,459.657299
424.264588,-5699.585753,-11325.150913,-1532.190996
424.264915,-7254.018232,-11843.295072,-3140.991542
424.265243,-5403.503377,-9474.636058,-2068.457845
424.265570,0.000000,-7031.956449,153.219100
424.265898,5625.565159,-5921.647536,2987.772442
424.266225,5847.626942,-6143.709319,4290.134789
424.266553,1850.514855,-7772.162391,2451.505594
424.266880,-3997.112087,-9178.553681,76.609550
424.267208,-8438.347739,-10510.924376,-2757.943793
424.267535,-9400.615463,-11473.192101,-2911.162892
424.267863,-6809.894666,-9548.656652,-1762.019645
424.268190,-962.267725,-7105.977043,612.876398
424.268518,5403.503377,-7105.977043,3524.039291
424.268845,5847.626942,-6883.915261,4673.182538
424.269173,2072.576638,-8512.368333,3600.648841
424.269500,-2886.803174,-10214.842000,1072.533697
424.269828,-7105.977043,-10436.903782,-2374.896044
424.270155,-8290.306550,-11843.295072,-2911.162892
424.270483,-5329.482782,-10214.842000,-2451.505594
424.270810,962.267725,-7550.100608,-306.438199
424.271138,7328.038826,-6661.853478,2604.724693
424.271465,8734.430116,-6439.791695,3983.696590
424.271793,5699.585753,-7994.224174,3294.210641
424.272120,518.144159,-10584.944971,1149.143247
424.272448,-4885.359217,-11177.109724,-2451.505594
424.272775,-6439.791695,-12583.501014,-2451.505594
424.273103,-3775.050304,-10732.986159,-1608.800546
424.273430,1998.556043,-8142.265362,1378.971896
424.273758,7772.162391,-7476.080014,4136.915689
424.274085,9104.533087,-7550.100608,5362.668486
424.274413,4737.318029,-8808.450710,4519.963438
424.274740,0.000000,-9918.759623,1762.019645
424.275068,-4663.297435,-10510.924376,-1532.190996
424.275395,-6661.853478,-11251.130318,-2604.724693
424.275723,-4885.359217,-10140.821405,-1455.581446
424.276050,-148.041188,-7772.162391,153.219100
424.276378,5033.400406,-6809.894666,2987.772442
424.276705,6365.771101,-6439.791695,4673.182538
424.277032,2072.576638,-8216.285956,2987.772442
424.277360,-2442.679609,-9918.759623,842.705048
424.277687,-7994.224174,-10807.006753,-2451.505594
424.278015,-9474.636058,-11843.295072,-3370.820191
424.278342,-7105.977043,-10288.862594,-2451.505594
424.278670,-1036.288319,-7920.203579,-383.047749
424.278997,3701.029710,-6661.853478,2221.676944
424.279325,6069.688724,-6143.709319,4443.353888
424.279652,3552.988522,-8290.306550,3677.258390
424.279980,-2072.576638,-9918.759623,919.314598
424.280307,-6291.750507,-9992.780217,-1838.629195
424.280635,-8512.368333,-11473.192101,-2987.772442
424.280962,-6661.853478,-10807.006753,-3217.601092
424.281290,-296.082377,-7994.224174,-995.924147
424.281617,6513.812290,-6883.915261,1915.238745
424.281945,8734.430116,-5995.668130,4290.134789
424.282272,6661.853478,-7402.059420,3064.381992
424.282600,1480.411884,-9918.759623,995.924147
424.282927,-4219.173869,-10807.006753,-2528.115143
424.283255,-5995.668130,-12139.377449,-3370.820191
424.283582,-4515.256246,-10584.944971,-2604.724693
424.283910,888.247130,-8216.285956,-383.047749
424.284237,7105.977043,-7476.080014,2911.162892
424.284565,9622.677246,-7105.977043,4903.011187
424.284892,6661.853478,-8438.347739,4519.963438
424.285220,1184.329507,-9992.780217,2451.505594
424.285547,-4293.194464,-10807.006753,-766.095498
424.285875,-7105.977043,-11769.274478,-2374.896044
424.286202,-5699.585753,-10732.986159,-1991.848295
424.286530,-1036.288319,-8216.285956,0.000000
424.286857,4885.359217,-6661.853478,2528.115143
424.287185,7179.997637,-6217.729913,5132.839837
424.287512,3330.926739,-7105.977043,4596.572988
424.287840,-1406.391290,-8956.491898,1838.629195
424.288167,-7179.997637,-10140.821405,-2068.457845
424.288495,-9252.574275,-10658.965565,-3064.381992
424.288822,-7624.121203,-9992.780217,-1915.238745
424.289150,-2442.679609,-7772.162391,0.000000
424.289477,2812.782580,-6513.812290,2221.676944
424.289805,6365.771101,-6365.771101,4979.620737
424.290132,3108.864956,-7402.059420,4060.306139
424.290459,-2072.576638,-9622.677246,1838.629195
424.290787,-5921.647536,-10658.965565,-1378.971896
424.291114,-9104.533087,-11991.336260,-3294.210641
424.291442,-7772.162391,-10807.006753,-3217.601092
424.291769,-1924.535449,-8438.347739,-766.095498
424.292097,5181.441594,-7254.018232,1608.800546
424.292424,8290.306550,-5847.626942,3677.258390
424.292752,6735.874072,-8068.244768,3677.258390
424.293079,2072.576638,-10140.821405,995.924147
424.293407,-4071.132681,-10807.006753,-2298.286494
424.293734,-5847.626942,-12509.480420,-3370.820191
424.294062,-5255.462188,-11695.253884,-3140.991542
424.294389,888.247130,-9326.594869,0.000000
424.294717,7031.956449,-7846.182985,2911.162892
424.295044,9474.636058,-7179.997637,4903.011187
424.295372,7105.977043,-9030.512492,4979.620737
424.295699,2072.576638,-9844.739029,2528.115143
424.296027,-3552.988522,-10584.944971,-766.095498
424.296354,-6661.853478,-11917.315666,-2528.115143
424.296682,-6069.688724,-11177.109724,-2298.286494
424.297009,-1406.391290,-8660.409521,-536.266849
424.297337,4811.338623,-7105.977043,2987.772442
424.297664,7920.203579,-6365.771101,4136.915689
424.297992,4441.235652,-7550.100608,4136.915689
424.298319,74.020594,-9474.636058,1915.238745
424.298647,-6291.750507,-10436.903782,-1685.410096
424.298974,-8586.388927,-11399.171507,-2987.772442
424.299302,-7994.224174,-10362.883188,-1991.848295
424.299629,-3034.844362,-8438.347739,0.000000
424.299957,2294.638420,-7105.977043,2145.067394
424.300284,5847.626942,-6291.750507,4903.011187
424.300612,3182.885551,-7476.080014,4443.353888
424.300939,-1628.453072,-9178.553681,2451.505594
424.301267,-5699.585753,-10436.903782,-1149.143247
424.301594,-8882.471304,-11621.233289,-3447.429741
424.301922,-8068.244768,-10807.006753,-3370.820191
424.302249,-2072.576638,-8142.265362,-995.924147
424.302577,4441.235652,-6735.874072,1455.581446
424.302904,8142.265362,-5921.647536,3217.601092
424.303232,6957.935855,-7328.038826,3524.039291
424.303559,2072.576638,-9326.594869,1455.581446
424.303886,-3849.070898,-10214.842000,-2221.676944
424.304214,-5847.626942,-11843.295072,-3217.601092
424.304541,-5477.523971,-11103.089130,-3064.381992
424.304869,0.000000,-8956.491898,-383.047749
424.305196,6217.729913,-7254.018232,1762.019645
424.305524,9844.739029,-7105.977043,4903.011187
424.305851,7624.121203,-8068.244768,4519.963438
424.306179,2738.761985,-10140.821405,2987.772442
424.306506,-2590.720797,-10732.986159,-689.485948
424.306834,-5921.647536,-11843.295072,-2834.553343
424.307161,-5847.626942,-11325.150913,-2681.334243
424.307489,-1110.308913,-8808.450710,-766.095498
424.307816,4737.318029,-7105.977043,1991.848295
424.308144,7846.182985,-6069.688724,3600.648841
424.308471,5995.668130,-7624.121203,4213.525239
424.308799,740.205942,-9326.594869,1991.848295
424.309126,-5551.544565,-10214.842000,-1532.190996
424.309454,-8290.306550,-11325.150913,-3294.210641
424.309781,-7846.182985,-11103.089130,-2911.162892
424.310109,-4071.132681,-8660.409521,-842.705048
424.310436,2072.576638,-6661.853478,1685.410096
424.310764,6143.709319,-5995.668130,4596.572988
424.311091,3923.091493,-7402.059420,4519.963438
424.311419,-444.123565,-9548.656652,2681.334243
424.311746,-5477.523971,-10436.903782,-612.876398
424.312074,-9326.594869,-11621.233289,-2911.162892
424.312401,-8660.409521,-11621.233289,-3217.601092
424.312729,-3849.070898,-8882.471304,-1532.190996
424.313056,2368.659014,-6809.894666,842.705048
424.313384,7254.018232,-6513.812290,3677.258390
424.313711,6513.812290,-7402.059420,3983.696590
424.314039,2146.597232,-9400.615463,1991.848295
424.314366,-3923.091493,-10584.944971,-1762.019645
424.314694,-6069.688724,-11769.274478,-3140.991542
424.315021,-5921.647536,-11769.274478,-3447.429741
424.315349,-1406.391290,-9252.574275,-842.705048
424.315676,4737.318029,-7476.080014,1532.190996
424.316004,9622.677246,-7105.977043,4673.182538
424.316331,7994.224174,-7476.080014,4903.011187
424.316659,3256.906145,-9622.677246,2987.772442
424.316986,-2220.617826,-11251.130318,0.000000
424.317314,-6217.729913,-11843.295072,-2834.553343
424.317641,-6217.729913,-11843.295072,-2911.162892
424.317968,-1258.350101,-9400.615463,-842.705048
424.318296,4071.132681,-7105.977043,1532.190996
424.318623,7920.203579,-6513.812290,3907.087040
424.318951,6735.874072,-7254.018232,4366.744339
424.319278,1406.391290,-8882.471304,1915.238745
424.319606,-4589.276840,-9770.718434,-1149.143247
424.319933,-7624.121203,-10881.027347,-3064.381992
424.320261,-8290.306550,-11325.150913,-3140.991542
424.320588,-4145.153275,-8882.471304,-612.876398
424.320916,1776.494261,-7031.956449,1378.971896
424.321243,6069.688724,-6809.894666,4290.134789
424.321571,4589.276840,-7179.997637,4596.572988
424.321898,0.000000,-9104.533087,2374.896044
424.322226,-5329.482782,-10436.903782,-306.438199
424.322553,-9030.512492,-11177.109724,-3140.991542
424.322881,-8438.347739,-11251.130318,-3370.820191
424.323208,-3627.009116,-8438.347739,-1762.019645
424.323536,2442.679609,-6217.729913,383.047749
424.323863,7328.038826,-5329.482782,3370.820191
424.324191,7179.997637,-6883.915261,4673.182538
424.324518,2442.679609,-8956.491898,2221.676944
424.324846,-2664.741391,-10140.821405,-766.095498
424.325173,-5551.544565,-10584.944971,-2681.334243
424.325501,-6291.750507,-11769.274478,-2528.115143
424.325828,-1998.556043,-9400.615463,-612.876398
424.326156,3849.070898,-7994.224174,2145.067394
424.326483,8808.450710,-7105.977043,4749.792088
424.326811,7105.977043,-7698.141797,4826.401637
424.327138,2516.700203,-9400.615463,3217.601092
424.327466,-2368.659014,-10658.965565,76.609550
424.327793,-6587.832884,-11399.171507,-2834.553343
424.328121,-7031.956449,-11473.192101,-2987.772442
424.328448,-2368.659014,-9104.533087,-1532.190996
424.328776,2812.782580,-7105.977043,536.266849
424.329103,7179.997637,-6291.750507,3600.648841
424.329431,6587.832884,-7328.038826,4290.134789
424.329758,1776.494261,-9178.553681,2068.457845
424.330086,-3849.070898,-10066.800811,229.828649
424.330413,-6735.874072,-11103.089130,-3140.991542
424.330741,-8068.244768,-11695.253884,-2681.334243
424.331068,-4589.276840,-9474.636058,-1072.533697
424.331395,1332.370696,-7179.997637,1225.752797
424.331723,6439.791695,-7031.956449,4443.353888
424.332050,5181.441594,-6439.791695,4673.182538
424.332378,1702.473667,-9030.512492,2987.772442
424.332705,-3775.050304,-10436.903782,76.609550
424.333033,-7920.203579,-10658.965565,-3217.601092
424.333360,-7772.162391,-11991.336260,-2911.162892
424.333688,-3849.070898,-9252.574275,-1685.410096
424.334015,2368.659014,-7105.977043,383.047749
424.334343,7550.100608,-6439.791695,3370.820191
424.334670,7402.059420,-6957.935855,4213.525239
424.334998,2442.679609,-8956.491898,2374.896044
424.335325,-2220.617826,-10584.944971,0.000000
424.335653,-5847.626942,-11473.192101,-2604.724693
424.335980,-7179.997637,-12213.398043,-2834.553343
424.336308,-3330.926739,-9770.718434,-1072.533697
424.336635,2664.741391,-7846.182985,995.924147
424.336963,7624.121203,-6883.915261,4136.915689
424.337290,7698.141797,-6957.935855,4596.572988
424.337618,2886.803174,-8956.491898,3294.210641
424.337945,-2442.679609,-10066.800811,459.657299
424.338273,-6587.832884,-10807.006753,-2681.334243
424.338600,-7550.100608,-11399.171507,-3140.991542
424.338928,-3775.050304,-9326.594869,-1532.190996
424.339255,1258.350101,-7031.956449,0.000000
424.339583,6809.894666,-5995.668130,2987.772442
424.339910,7105.977043,-7031.956449,4213.525239
424.340238,2442.679609,-8586.388927,2757.943793
424.340565,-2590.720797,-10214.842000,612.876398
424.340893,-6291.750507,-11177.109724,-2911.162892
424.341220,-7920.203579,-12065.356855,-2834.553343
424.341548,-4737.318029,-9918.759623,-1455.581446
424.341875,1332.370696,-7476.080014,689.485948
424.342203,6735.874072,-6957.935855,3753.867940
424.342530,7179.997637,-7105.977043,4519.963438
424.342858,2664.741391,-8364.327145,3294.210641
424.343185,-2812.782580,-9770.718434,383.047749
424.343513,-7254.018232,-10436.903782,-2834.553343
424.343840,-8438.347739,-11769.274478,-2911.162892
424.344168,-4589.276840,-9548.656652,-2221.676944
424.344495,814.226536,-7031.956449,76.609550
424.344822,6661.853478,-6291.750507,3294.210641
424.345150,7105.977043,-6883.915261,4519.963438
424.345477,2368.659014,-8586.388927,2757.943793
424.345805,-2516.700203,-9474.636058,459.657299
424.346132,-6291.750507,-11325.150913,-2757.943793
424.346460,-7698.141797,-11695.253884,-3447.429741
424.346787,-4737.318029,-9844.739029,-2068.457845
424.347115,1628.453072,-7402.059420,766.095498
424.347442,7105.977043,-6587.832884,4290.134789
424.347770,8216.285956,-6587.832884,4366.744339
424.348097,4145.153275,-8438.347739,3830.477490
424.348425,-1258.350101,-10436.903782,919.314598
424.348752,-6439.791695,-10955.047942,-2451.505594
424.349080,-7698.141797,-12583.501014,-2374.896044
424.349407,-4737.318029,-10288.862594,-1915.238745
424.349735,666.185348,-7920.203579,76.609550
424.350062,6661.853478,-6957.935855,3294.210641
424.350390,7772.162391,-7105.977043,4596.572988
424.350717,3182.885551,-8438.347739,3217.601092
424.351045,-1406.391290,-9844.739029,995.924147
424.351372,-5995.668130,-10955.047942,-2757.943793
424.351700,-7772.162391,-11695.253884,-3447.429741
424.352027,-5403.503377,-10140.821405,-2068.457845
424.352355,740.205942,-7846.182985,229.828649
424.352682,5995.668130,-6957.935855,3064.381992
424.353010,7179.997637,-6513.812290,4443.353888
424.353337,3997.112087,-8512.368333,3753.867940
424.353665,-1406.391290,-9918.759623,995.924147
424.353992,-6735.874072,-10732.986159,-2068.457845
424.354320,-7624.121203,-11843.295072,-2221.676944
424.354647,-5181.441594,-10066.800811,-2374.896044
424.354975,74.020594,-7550.100608,-229.828649
424.355302,6735.874072,-6957.935855,2681.334243
424.355630,8068.244768,-6439.791695,4366.744339
424.355957,4219.173869,-8068.244768,3294.210641
424.356285,-444.123565,-10066.800811,1149.143247
424.356612,-5625.565159,-11029.068536,-2451.505594
424.356940,-7476.080014,-11991.336260,-3064.381992
424.357267,-5477.523971,-10510.924376,-2068.457845
424.357595,666.185348,-8290.306550,383.047749
424.357922,6143.709319,-6587.832884,3370.820191
424.358250,7550.100608,-6957.935855,4749.792088
424.358577,4441.235652,-8882.471304,4213.525239
424.358904,-888.247130,-10362.883188,1225.752797
424.359232,-6439.791695,-11177.109724,-1838.629195
424.359559,-7994.224174,-12583.501014,-2757.943793
424.359887,-6513.812290,-10881.027347,-2145.067394
424.360214,-518.144159,-7624.121203,-383.047749
424.360542,6143.709319,-6809.894666,2451.505594
424.360869,8068.244768,-6217.729913,4519.963438
424.361197,4515.256246,-7031.956449,4519.963438
424.361524,0.000000,-9326.594869,842.705048
424.361852,-5699.585753,-10436.903782,-2298.286494
424.362179,-7476.080014,-11769.274478,-2911.162892
424.362507,-6291.750507,-10510.924376,-2221.676944
424.362834,-814.226536,-7920.203579,0.000000
424.363162,5255.462188,-6809.894666,3907.087040
424.363489,7920.203579,-6735.874072,4826.401637
424.363817,4293.194464,-8142.265362,4213.525239
424.364144,-518.144159,-9770.718434,1838.629195
424.364472,-6069.688724,-10584.944971,-2221.676944
424.364799,-8364.327145,-11843.295072,-2834.553343
424.365127,-6439.791695,-10658.965565,-2757.943793
424.365454,-296.082377,-8068.244768,-536.266849
424.365782,5403.503377,-6735.874072,1838.629195
424.366109,7920.203579,-6217.729913,4136.915689
424.366437,4959.379811,-7920.203579,3600.648841
424.366764,0.000000,-9474.636058,1149.143247
424.367092,-5107.421000,-10732.986159,-1915.238745
424.367419,-7179.997637,-12361.439231,-3140.991542
424.367747,-6291.750507,-10955.047942,-2451.505594
424.368074,-370.102971,-7772.162391,76.609550
424.368402,6661.853478,-6735.874072,3217.601092
424.368729,8364.327145,-6661.853478,4903.011187
424.369057,4959.379811,-8068.244768,4213.525239
424.369384,296.082377,-9918.759623,1991.848295
424.369712,-5403.503377,-10881.027347,-1991.848295
424.370039,-7624.121203,-11769.274478,-2757.943793
424.370367,-6143.709319,-10732.986159,-2374.896044
424.370694,-740.205942,-8216.285956,-459.657299
424.371022,4071.132681,-6809.894666,1762.019645
424.371349,7328.038826,-6291.750507,3983.696590
424.371677,4515.256246,-7624.121203,3140.991542
424.372004,-370.102971,-9474.636058,612.876398
424.372332,-5107.421000,-10658.965565,-2068.457845
424.372659,-8290.306550,-12065.356855,-3447.429741
424.372987,-7402.059420,-11103.089130,-3064.381992
424.373314,-1480.411884,-8068.244768,-306.438199
424.373642,5551.544565,-7105.977043,2298.286494
424.373969,7550.100608,-6513.812290,4290.134789
424.374297,5181.441594,-8216.285956,4290.134789
424.374624,740.205942,-9992.780217,2145.067394
424.374952,-5181.441594,-10362.883188,-1608.800546
424.375279,-7179.997637,-11843.295072,-2681.334243
424.375607,-6291.750507,-11177.109724,-2221.676944
424.375934,-740.205942,-8808.450710,-383.047749
424.376261,4811.338623,-7105.977043,2298.286494
424.376589,8364.327145,-6587.832884,4596.572988
424.376916,4737.318029,-7550.100608,4443.353888
424.377244,814.226536,-9844.739029,1838.629195
424.377571,-4071.132681,-10807.006753,-1378.971896
424.377899,-7328.038826,-12139.377449,-3140.991542
424.378226,-6587.832884,-11177.109724,-2604.724693
424.378554,-1036.288319,-8142.265362,0.000000
424.378881,5625.565159,-7179.997637,2911.162892
424.379209,7698.141797,-6439.791695,4826.401637
424.379536,5107.421000,-8068.244768,4673.182538
424.379864,148.041188,-9474.636058,2451.505594
424.380191,-5699.585753,-10288.862594,-1302.362347
424.380519,-7920.203579,-11843.295072,-3294.210641
424.380846,-7179.997637,-10807.006753,-2374.896044
424.381174,-2220.617826,-8364.327145,-459.657299
424.381501,3552.988522,-6883.915261,1838.629195
424.381829,7254.018232,-6069.688724,4366.744339
424.382156,5033.400406,-7179.997637,3524.039291
424.382484,0.000000,-9178.553681,1532.190996
424.382811,-4441.235652,-10288.862594,-1455.581446
424.383139,-7698.141797,-11769.274478,-3370.820191
424.383466,-7105.977043,-11103.089130,-2757.943793
424.383794,-1110.308913,-8512.368333,0.000000
424.384121,4589.276840,-6883.915261,2068.457845
424.384449,7698.141797,-6439.791695,4213.525239
424.384776,5995.668130,-8216.285956,4443.353888
424.385104,1184.329507,-9770.718434,2068.457845
424.385431,-4737.318029,-10214.842000,-1532.190996
424.385759,-6809.894666,-11769.274478,-3140.991542
424.386086,-6735.874072,-11547.212695,-2604.724693
424.386414,-1554.432478,-9030.512492,-612.876398
424.386741,4293.194464,-7402.059420,1608.800546
424.387069,7846.182985,-5995.668130,3907.087040
424.387396,5995.668130,-7105.977043,4213.525239
424.387724,1184.329507,-9474.636058,1762.019645
424.388051,-3182.885551,-10362.883188,-995.924147
424.388379,-6587.832884,-11843.295072,-2987.772442
424.388706,-6143.709319,-10955.047942,-2298.286494
424.389034,-962.267725,-8660.409521,0.000000
424.389361,4811.338623,-7328.038826,1991.848295
424.389689,7550.100608,-6513.812290,4213.525239
424.390016,5403.503377,-8068.244768,4673.182538
424.390344,814.226536,-9696.697840,2298.286494
424.390671,-4885.359217,-10140.821405,-1072.533697
424.390999,-7550.100608,-11547.212695,-2834.553343
424.391326,-7402.059420,-11029.068536,-3064.381992
424.391654,-2960.823768,-8586.388927,-1149.143247
424.391981,3182.885551,-7031.956449,995.924147
424.392309,7179.997637,-6291.750507,3524.039291
424.392636,5181.441594,-6439.791695,3140.991542
424.392964,444.123565,-9252.574275,1532.190996
424.393291,-4145.153275,-10362.883188,-1149.143247
424.393619,-7772.162391,-11547.212695,-3600.648841
424.393946,-7179.997637,-11103.089130,-3064.381992
424.394274,-1850.514855,-8734.430116,-1455.581446
424.394601,3849.070898,-7328.038826,1455.581446
424.394929,7328.038826,-6217.729913,4136.915689
424.395256,6439.791695,-7772.162391,4519.963438
424.395584,1924.535449,-9770.718434,2451.505594
424.395911,-3923.091493,-10214.842000,-842.705048
424.396239,-6291.750507,-11843.295072,-2451.505594
424.396566,-6587.832884,-11843.295072,-2834.553343
424.396894,-2368.659014,-9400.615463,-995.924147
424.397221,3923.091493,-7476.080014,1378.971896
424.397549,8438.347739,-6661.853478,3524.039291
424.397876,6513.812290,-7328.038826,4136.915689
424.398204,2220.617826,-9474.636058,2451.505594
424.398531,-2812.782580,-10214.842000,-612.876398
424.398859,-6735.874072,-11621.233289,-2757.943793
424.399186,-6883.915261,-11621.233289,-2757.943793
424.399514,-2146.597232,-9252.574275,-229.828649
424.399841,3182.885551,-7476.080014,1838.629195
424.400168,6883.915261,-6439.791695,4519.963438
424.400496,5477.523971,-7772.162391,5056.230287
424.400823,740.205942,-9696.697840,3524.039291
424.401151,-5181.441594,-10288.862594,-766.095498
424.401478,-7624.121203,-11399.171507,-2528.115143
424.401806,-7994.224174,-11547.212695,-2757.943793
424.402133,-4589.276840,-8956.491898,-1378.971896
424.402461,1850.514855,-6883.915261,842.705048
424.402788,7179.997637,-6217.729913,3524.039291
424.403116,5921.647536,-6439.791695,3524.039291
424.403443,1776.494261,-8586.388927,2221.676944
424.403771,-3330.926739,-10066.800811,-383.047749
424.404098,-7402.059420,-11547.212695,-3294.210641
424.404426,-7476.080014,-12139.377449,-3447.429741
424.404753,-2590.720797,-9770.718434,-1149.143247
424.405081,2368.659014,-7920.203579,919.314598
424.405408,7476.080014,-6883.915261,3830.477490
424.405736,7254.018232,-7624.121203,4903.011187
424.406063,3034.844362,-8808.450710,2757.943793
424.406391,-2146.597232,-10214.842000,-306.438199
424.406718,-5403.503377,-11473.192101,-2451.505594
424.407046,-6883.915261,-11695.253884,-3064.381992
424.407373,-3478.967927,-9474.636058,-1762.019645
424.407701,3108.864956,-7179.997637,842.705048
424.408028,8216.285956,-6587.832884,3294.210641
424.408356,7550.100608,-6513.812290,3983.696590
424.408683,3552.988522,-8956.491898,2911.162892
424.409011,-2220.617826,-10140.821405,153.219100
424.409338,-6883.915261,-11103.089130,-2757.943793
424.409666,-6809.894666,-11695.253884,-2757.943793
424.409993,-3330.926739,-9104.533087,-689.485948
424.410321,2220.617826,-7105.977043,1378.971896
424.410648,7105.977043,-6217.729913,4290.134789
424.410976,6291.750507,-6883.915261,5132.839837
424.411303,1480.411884,-8364.327145,3677.258390
424.411631,-4293.194464,-9622.677246,383.047749
424.411958,-7624.121203,-11103.089130,-2145.067394
424.412286,-8882.471304,-11251.130318,-3064.381992
424.412613,-5625.565159,-9400.615463,-1685.410096
424.412941,1110.308913,-7550.100608,459.657299
424.413268,5995.668130,-6365.771101,3677.258390
424.413596,6365.771101,-6439.791695,3907.087040
424.413923,2368.659014,-8512.368333,2834.553343
424.414251,-2960.823768,-10362.883188,0.000000
424.414578,-7994.224174,-11251.130318,-2757.943793
424.414906,-8364.327145,-12065.356855,-3140.991542
424.415233,-4367.215058,-10066.800811,-1915.238745
424.415561,1776.494261,-7772.162391,229.828649
424.415888,7772.162391,-6439.791695,3294.210641
424.416216,8142.265362,-7105.977043,4903.011187
424.416543,3997.112087,-9104.533087,2987.772442
424.416871,-1998.556043,-10066.800811,76.609550
424.417198,-5699.585753,-11917.315666,-2911.162892
424.417526,-7105.977043,-12287.418637,-3753.867940
424.417853,-4071.132681,-10362.883188,-2221.676944
424.418181,2590.720797,-7994.224174,76.609550
424.418508,8142.265362,-6809.894666,3064.381992
424.418836,8586.388927,-6883.915261,4290.134789
424.419163,4515.256246,-8956.491898,3140.991542
424.419491,-1110.308913,-10140.821405,383.047749
424.419818,-5995.668130,-11029.068536,-2604.724693
424.420146,-6291.750507,-12435.459826,-2221.676944
424.420473,-3478.967927,-9918.759623,-995.924147
424.420801,1702.473667,-7772.162391,1302.362347
424.421128,6883.915261,-6809.894666,4443.353888
424.421456,6883.915261,-7402.059420,5515.887586
424.421783,2146.597232,-8956.491898,4136.915689
424.422111,-3478.967927,-9770.718434,766.095498
424.422438,-7031.956449,-11177.109724,-2374.896044
424.422766,-8734.430116,-11473.192101,-2987.772442
424.423093,-6143.709319,-9474.636058,-1762.019645
424.423421,74.020594,-6883.915261,459.657299
424.423748,5181.441594,-6291.750507,3064.381992
424.424075,5625.565159,-6217.729913,3677.258390
424.424403,1850.514855,-7994.224174,2451.505594
424.424730,-3404.947333,-9992.780217,0.000000
424.425058,-8586.388927,-10584.944971,-3600.648841
424.425385,-9030.512492,-11991.336260,-2834.553343
424.425713,-5773.606348,-9770.718434,-2145.067394
424.426040,592.164754,-7476.080014,-153.219100
424.426368,6957.935855,-6439.791695,2987.772442
424.426695,7920.203579,-6587.832884,5132.839837
424.427023,4219.173869,-8068.244768,3370.820191
424.427350,-592.164754,-9918.759623,689.485948
424.427678,-5329.482782,-10881.027347,-2757.943793
424.428005,-6883.915261,-11917.315666,-3294.210641
424.428333,-3997.112087,-10584.944971,-1991.848295
424.428660,1776.494261,-7698.141797,76.609550
424.428988,8216.285956,-6439.791695,2681.334243
424.429315,9622.677246,-7105.977043,4366.744339
424.429643,5181.441594,-8438.347739,3217.601092
424.429970,148.041188,-9696.697840,919.314598
424.430298,-4737.318029,-10510.924376,-2298.286494
424.430625,-6291.750507,-12435.459826,-2834.553343
424.430953,-3997.112087,-10214.842000,-1455.581446
424.431280,1702.473667,-7476.080014,919.314598
424.431608,6809.894666,-6883.915261,3753.867940
424.431935,7550.100608,-6809.894666,5515.887586
424.432263,3330.926739,-8882.471304,4136.915689
424.432590,-2294.638420,-9918.759623,1532.190996
424.432918,-7179.997637,-10510.924376,-1991.848295
424.433245,-8734.430116,-11917.315666,-2528.115143
424.433573,-6365.771101,-10436.903782,-1685.410096
424.433900,-1554.432478,-7476.080014,-153.219100
424.434228,4441.235652,-6291.750507,2834.553343
424.434555,5921.647536,-6143.709319,3907.087040
424.434883,1332.370696,-7550.100608,2987.772442
424.435210,-2960.823768,-9474.636058,153.219100
424.435538,-7550.100608,-10658.965565,-2604.724693
424.435865,-9178.553681,-11769.274478,-3753.867940
424.436193,-6883.915261,-10362.883188,-2451.505594
424.436520,-296.082377,-8068.244768,76.609550
424.436848,4885.359217,-7031.956449,2374.896044
424.437175,7846.182985,-6809.894666,4519.963438
424.437503,4885.359217,-8512.368333,3524.039291
424.437830,0.000000,-10362.883188,995.924147
424.438158,-4885.359217,-11251.130318,-2145.067394
424.438485,-6809.894666,-12731.542202,-2834.553343
424.438813,-5107.421000,-11251.130318,-2451.505594
424.439140,1406.391290,-8142.265362,-536.266849
424.439468,7698.141797,-6883.915261,2757.943793
424.439795,10362.883188,-6587.832884,4290.134789
424.440123,6439.791695,-8512.368333,3907.087040
424.440450,2146.597232,-10288.862594,1225.752797
424.440778,-3997.112087,-11325.150913,-1838.629195
424.441105,-6143.709319,-12731.542202,-2298.286494
424.441433,-4663.297435,-11399.171507,-1838.629195
424.441760,666.185348,-8512.368333,536.266849
424.442088,5847.626942,-7402.059420,3447.429741
424.442415,7772.162391,-6883.915261,5515.887586
424.442743,4219.173869,-8364.327145,4519.963438
424.443070,-1332.370696,-9844.739029,1838.629195
424.443398,-7179.997637,-10584.944971,-1915.238745
424.443725,-9326.594869,-11843.295072,-2987.772442
424.444053,-7402.059420,-10288.862594,-2145.067394
424.444380,-1702.473667,-7550.100608,-689.485948
424.444708,3627.009116,-6217.729913,2221.676944
424.445035,6291.750507,-5773.606348,3830.477490
424.445363,2812.782580,-7476.080014,3524.039291
424.445690,-1702.473667,-9548.656652,1225.752797
424.446018,-7031.956449,-10288.862594,-2298.286494
424.446345,-8882.471304,-12139.377449,-3294.210641
424.446673,-7254.018232,-10955.047942,-2451.505594
424.447000,-1480.411884,-8660.409521,0.000000
424.447328,5033.400406,-6883.915261,2604.724693
424.447655,7994.224174,-6143.709319,4213.525239
424.447982,5255.462188,-8216.285956,4213.525239
424.448310,296.082377,-9918.759623,1455.581446
424.448637,-4811.338623,-10658.965565,-2068.457845
424.448965,-6809.894666,-12213.398043,-3370.820191
424.449292,-5255.462188,-10955.047942,-2834.553343
424.449620,888.247130,-8438.347739,-1149.143247
424.449947,6957.935855,-6883.915261,1991.848295
424.450275,10288.862594,-6143.709319,3983.696590
424.450602,7328.038826,-7920.203579,3907.087040
424.450930,2368.659014,-9770.718434,1838.629195
424.451257,-3256.906145,-10658.965565,-1762.019645
424.451585,-5255.462188,-12287.418637,-2451.505594
424.451912,-4885.359217,-11399.171507,-1762.019645
424.452240,222.061783,-8808.450710,459.657299
424.452567,5921.647536,-7254.018232,3524.039291
424.452895,8734.430116,-6809.894666,5132.839837
424.453222,4367.215058,-8142.265362,4596.572988
424.453550,-740.205942,-9992.780217,2068.457845
424.453877,-6217.729913,-10510.924376,-1378.971896
424.454205,-8364.327145,-11251.130318,-3294.210641
424.454532,-6957.935855,-10510.924376,-2604.724693
424.454860,-2368.659014,-7994.224174,-612.876398
424.455187,2442.679609,-6513.812290,1455.581446
424.455515,5847.626942,-5921.647536,3830.477490
424.455842,2886.803174,-7476.080014,3294.210641
424.456170,-1998.556043,-9400.615463,766.095498
424.456497,-6957.935855,-10288.862594,-2451.505594
424.456825,-9326.594869,-11843.295072,-3753.867940
424.457152,-8660.409521,-10955.047942,-3140.991542
424.457480,-2442.679609,-8364.327145,-689.485948
424.457807,3923.091493,-7105.977043,1685.410096
424.458135,7105.977043,-5477.523971,3983.696590
424.458462,5773.606348,-7698.141797,3983.696590
424.458790,1480.411884,-9622.677246,1762.019645
424.459117,-4293.194464,-10140.821405,-1685.410096
424.459445,-6069.688724,-11399.171507,-2987.772442
424.459772,-4959.379811,-11177.109724,-2528.115143
424.460100,74.020594,-8734.430116,-766.095498
424.460427,6143.709319,-7179.997637,1608.800546
424.460755,9770.718434,-6587.832884,4290.134789
424.461082,7772.162391,-7772.162391,5056.230287
424.461410,3404.947333,-10362.883188,2451.505594
424.461737,-2294.638420,-11029.068536,-459.657299
424.462065,-5255.462188,-12435.459826,-2221.676944
424.462392,-5255.462188,-11399.171507,-1991.848295
424.462720,-592.164754,-9326.594869,383.047749
424.463047,4737.318029,-7254.018232,3524.039291
424.463375,7402.059420,-6587.832884,5056.230287
424.463702,4885.359217,-8068.244768,5286.058936
424.464030,296.082377,-9474.636058,3064.381992
424.464357,-6069.688724,-9918.759623,-842.705048
424.464685,-8512.368333,-10807.006753,-2374.896044
424.465012,-7624.121203,-10732.986159,-2221.676944
424.465340,-3923.091493,-7994.224174,-306.438199
424.465667,1628.453072,-6069.688724,1532.190996
424.465995,5551.544565,-5625.565159,3830.477490
424.466322,3404.947333,-6661.853478,3830.477490
424.466650,-1480.411884,-9104.533087,1838.629195
424.466977,-6291.750507,-10362.883188,-1072.533697
424.467305,-9770.718434,-11769.274478,-3600.648841
424.467632,-8660.409521,-11473.192101,-2911.162892
424.467960,-3256.906145,-8956.491898,-766.095498
424.468287,3182.885551,-6957.935855,1455.581446
424.468615,7402.059420,-6365.771101,3753.867940
424.468942,6957.935855,-7846.182985,4596.572988
424.469270,2220.617826,-9474.636058,2145.067394
424.469597,-3478.967927,-10584.944971,-919.314598
424.469925,-6365.771101,-12435.459826,-2374.896044
424.470253,-6365.771101,-11547.212695,-3600.648841
424.470580,-962.267725,-9474.636058,-1838.629195
424.470908,4885.359217,-7402.059420,919.314598
424.471235,9770.718434,-6143.709319,3370.820191
424.471563,8586.388927,-7254.018232,4673.182538
424.471891,4663.297435,-8956.491898,2298.286494
424.472218,-1924.535449,-10214.842000,-229.828649
424.472546,-5255.462188,-11991.336260,-2681.334243
424.472873,-6069.688724,-11843.295072,-2911.162892
424.473201,-1924.535449,-9474.636058,-612.876398
424.473529,3478.967927,-7105.977043,1915.238745
424.473856,7698.141797,-6513.812290,4596.572988
424.474184,6587.832884,-7476.080014,4903.011187
424.474511,1628.453072,-9400.615463,2911.162892
424.474839,-4515.256246,-10510.924376,-153.219100
424.475167,-8290.306550,-11251.130318,-1762.019645
424.475494,-8438.347739,-11843.295072,-3064.381992
424.475822,-5107.421000,-8882.471304,-1608.800546
424.476149,666.185348,-6587.832884,536.266849
424.476477,5921.647536,-5847.626942,3370.820191
424.476805,4589.276840,-6217.729913,4443.353888
424.477132,-222.061783,-8290.306550,2374.896044
424.477460,-5107.421000,-9992.780217,-383.047749
424.477787,-9252.574275,-11325.150913,-3217.601092
424.478115,-9474.636058,-11843.295072,-3370.820191
424.478443,-5255.462188,-8586.388927,-1762.019645
424.478770,592.164754,-6883.915261,689.485948
424.479098,6735.874072,-6365.771101,3677.258390
424.479425,6809.894666,-6809.894666,4443.353888
424.479753,2516.700203,-8734.430116,2604.724693
424.480081,-2960.823768,-10214.842000,-459.657299
424.480408,-6439.791695,-11695.253884,-2757.943793
424.480736,-7254.018232,-12139.377449,-3983.696590
424.481063,-3330.926739,-9918.759623,-2451.505594
424.481391,3775.050304,-7624.121203,0.000000
424.481719,9326.594869,-7105.977043,3064.381992
424.482046,9770.718434,-6809.894666,4826.401637
424.482374,6365.771101,-9030.512492,3064.381992
424.482701,296.082377,-10584.944971,766.095498
424.483029,-4663.297435,-11917.315666,-2451.505594
424.483357,-5107.421000,-12953.603985,-2145.067394
424.483684,-1554.432478,-10658.965565,-689.485948
424.484012,3849.070898,-7920.203579,2068.457845
424.484339,8068.244768,-7105.977043,4673.182538
424.484667,7920.203579,-7550.100608,6281.983084
424.484995,2812.782580,-9178.553681,3677.258390
424.485322,-2442.679609,-9918.759623,1149.143247
424.485650,-6143.709319,-10807.006753,-1762.019645
424.485977,-8586.388927,-11547.212695,-2528.115143
424.486305,-5847.626942,-9326.594869,-1149.143247
424.486633,-444.123565,-7105.977043,536.266849
424.486960,4293.194464,-6291.750507,3064.381992
424.487288,4145.153275,-6661.853478,3907.087040
424.487615,-370.102971,-7994.224174,2757.943793
424.487943,-5551.544565,-9622.677246,-306.438199
424.488271,-9992.780217,-10881.027347,-3140.991542
424.488598,-10214.842000,-11843.295072,-3294.210641
424.488926,-6587.832884,-9770.718434,-2374.896044
424.489253,-518.144159,-7031.956449,0.000000
424.489581,5921.647536,-6439.791695,3064.381992
424.489909,6957.935855,-6661.853478,4366.744339
424.490236,3034.844362,-8586.388927,3217.601092
424.490564,-1480.411884,-10436.903782,1149.143247
424.490891,-5921.647536,-11399.171507,-2681.334243
424.491219,-6957.935855,-12731.542202,-3370.820191
424.491547,-3775.050304,-11029.068536,-2221.676944
424.491874,2368.659014,-7772.162391,-153.219100
424.492202,8882.471304,-6143.709319,2757.943793
424.492529,10140.821405,-6217.729913,4673.182538
424.492857,5773.606348,-8216.285956,2987.772442
424.493185,1258.350101,-9844.739029,383.047749
424.493512,-3849.070898,-11547.212695,-2757.943793
424.493840,-5773.606348,-12213.398043,-3064.381992
424.494167,-3478.967927,-10807.006753,-2145.067394
424.494495,2516.700203,-7846.182985,766.095498
424.494823,7476.080014,-7328.038826,3753.867940
424.495150,8512.368333,-7179.997637,4979.620737
424.495478,3849.070898,-9178.553681,3983.696590
424.495805,-1702.473667,-9844.739029,1455.581446
424.496133,-6587.832884,-11399.171507,-2145.067394
424.496461,-8290.306550,-11843.295072,-2987.772442
424.496788,-5477.523971,-10066.800811,-1915.238745
424.497116,-370.102971,-6809.894666,-306.438199
424.497444,5329.482782,-5551.544565,2987.772442
424.497771,6439.791695,-5921.647536,4519.963438
424.498099,1110.308913,-7624.121203,2987.772442
424.498426,-3404.947333,-9400.615463,689.485948
424.498754,-7476.080014,-10955.047942,-2528.115143
424.499082,-9400.615463,-11843.295072,-3140.991542
424.499409,-6809.894666,-10140.821405,-1915.238745
424.499737,-296.082377,-7846.182985,306.438199
424.500064,4663.297435,-7031.956449,2834.553343
424.500392,6735.874072,-6513.812290,4519.963438
424.500720,3701.029710,-8364.327145,3600.648841
424.501047,-1258.350101,-9622.677246,612.876398
424.501375,-6291.750507,-10732.986159,-2451.505594
424.501702,-7402.059420,-12287.418637,-2911.162892
424.502030,-5181.441594,-10510.924376,-2451.505594
424.502358,1406.391290,-7105.977043,153.219100
424.502685,8290.306550,-6069.688724,3370.820191
424.503013,9844.739029,-6587.832884,5362.668486
424.503340,6143.709319,-7920.203579,4596.572988
424.503668,814.226536,-10066.800811,2374.896044
424.503996,-3997.112087,-11029.068536,-919.314598
424.504323,-6069.688724,-12509.480420,-1225.752797
424.504651,-3997.112087,-11177.109724,-995.924147
424.504978,1702.473667,-8586.388927,1991.848295
424.505306,7179.997637,-7179.997637,5209.449386
424.505634,9326.594869,-6291.750507,6665.030833
424.505961,5551.544565,-8364.327145,6128.763984
424.506289,1110.308913,-9918.759623,3983.696590
424.506616,-5403.503377,-10362.883188,153.219100
424.506944,-7846.182985,-11917.315666,-842.705048
424.507272,-6957.935855,-10510.924376,0.000000
424.507599,-2960.823768,-8142.265362,1302.362347
424.507927,3256.906145,-7031.956449,3753.867940
424.508254,5551.544565,-6365.771101,6128.763984
424.508582,2294.638420,-7105.977043,5822.325785
