#time,accel_x,accel_y,accel_z
599.193343,-370.102971,-9104.533087,919.314598
599.193671,-222.061783,-9104.533087,766.095498
599.193999,-592.164754,-9030.512492,459.657299
599.194326,-296.082377,-8956.491898,383.047749
599.194654,-444.123565,-9104.533087,689.485948
599.194982,-148.041188,-9030.512492,612.876398
599.195310,-222.061783,-8956.491898,919.314598
599.195638,-296.082377,-9104.533087,689.485948
599.195966,0.000000,-9252.574275,459.657299
599.196294,-296.082377,-9252.574275,536.266849
599.196621,0.000000,-9104.533087,459.657299
599.196949,0.000000,-9178.553681,306.438199
599.197277,-296.082377,-9178.553681,536.266849
599.197605,0.000000,-9252.574275,459.657299
599.197933,-296.082377,-9030.512492,153.219100
599.198261,-148.041188,-9178.553681,766.095498
599.198588,74.020594,-8956.491898,1072.533697
599.198916,-148.041188,-9030.512492,459.657299
599.199244,-222.061783,-9104.533087,383.047749
599.199572,-222.061783,-9104.533087,383.047749
599.199900,-370.102971,-8956.491898,536.266849
599.200228,0.000000,-8882.471304,612.876398
599.200555,-148.041188,-9104.533087,306.438199
599.200883,-148.041188,-9400.615463,536.266849
599.201211,-222.061783,-9178.553681,383.047749
599.201539,-296.082377,-9178.553681,612.876398
599.201867,-296.082377,-8882.471304,612.876398
599.202195,0.000000,-9252.574275,153.219100
599.202522,-222.061783,-9178.553681,459.657299
599.202850,-222.061783,-9252.574275,536.266849
599.203178,-370.102971,-8956.491898,459.657299
599.203506,-592.164754,-9474.636058,459.657299
599.203834,-888.247130,-9178.553681,383.047749
599.204162,-1258.350101,-9474.636058,-153.219100
599.204490,-1480.411884,-9400.615463,-153.219100
599.204817,-1184.329507,-9178.553681,-306.438199
599.205145,-592.164754,-8882.471304,-229.828649
599.205473,-592.164754,-8290.306550,0.000000
599.205801,-888.247130,-9326.594869,-536.266849
599.206129,-1184.329507,-9252.574275,-1072.533697
599.206457,-1258.350101,-9104.533087,-1149.143247
599.206784,-1110.308913,-9030.512492,-1225.752797
599.207112,-1036.288319,-9326.594869,-919.314598
599.207440,-296.082377,-9252.574275,-1302.362347
599.207768,0.000000,-9400.615463,-1378.971896
599.208096,0.000000,-9030.512492,-1225.752797
599.208424,0.000000,-9178.553681,-1532.190996
599.208751,-444.123565,-9030.512492,-1072.533697
599.209079,0.000000,-9326.594869,-1915.238745
599.209407,0.000000,-9326.594869,-1838.629195
599.209735,370.102971,-9400.615463,-1685.410096
599.210063,518.144159,-9104.533087,-1685.410096
599.210391,592.164754,-8956.491898,-1225.752797
599.210718,740.205942,-9178.553681,-1608.800546
599.211046,370.102971,-9030.512492,-1685.410096
599.211374,370.102971,-9400.615463,-2145.067394
599.211702,74.020594,-9252.574275,-1838.629195
599.212030,74.020594,-9252.574275,-1762.019645
599.212358,148.041188,-8882.471304,-1378.971896
599.212686,148.041188,-9252.574275,-1685.410096
599.213013,222.061783,-9326.594869,-1762.019645
599.213341,-148.041188,-9178.553681,-1915.238745
599.213669,-518.144159,-9178.553681,-1991.848295
599.213997,-1110.308913,-9030.512492,-1378.971896
599.214325,-1110.308913,-9400.615463,-2221.676944
599.214653,-1406.391290,-9178.553681,-2298.286494
599.214980,-1480.411884,-9178.553681,-2451.505594
599.215308,-1850.514855,-9030.512492,-2757.943793
599.215636,-2294.638420,-8734.430116,-3294.210641
599.215964,-2220.617826,-8808.450710,-3064.381992
599.216292,-2368.659014,-8734.430116,-3600.648841
599.216620,-2146.597232,-9104.533087,-3753.867940
599.216947,-2072.576638,-9030.512492,-3983.696590
599.217275,-1776.494261,-9178.553681,-4673.182538
599.217603,-1332.370696,-8956.491898,-4060.306139
599.217931,-962.267725,-8364.327145,-3907.087040
599.218259,-222.061783,-8882.471304,-3753.867940
599.218587,370.102971,-8956.491898,-3294.210641
599.218914,1110.308913,-9104.533087,-2911.162892
599.219242,1924.535449,-8438.347739,-2221.676944
599.219570,1998.556043,-9030.512492,-2298.286494
599.219898,2146.597232,-9326.594869,-2145.067394
599.220226,1850.514855,-9770.718434,-1991.848295
599.220554,1184.329507,-10066.800811,-1991.848295
599.220882,518.144159,-9548.656652,-2221.676944
599.221209,-740.205942,-10214.842000,-3524.039291
599.221537,-1406.391290,-10362.883188,-4136.915689
599.221865,-1924.535449,-10140.821405,-4443.353888
599.222193,-1406.391290,-9474.636058,-4826.401637
599.222521,-1110.308913,-8512.368333,-4673.182538
599.222849,666.185348,-7846.182985,-4290.134789
599.223176,2220.617826,-7328.038826,-3600.648841
599.223504,2590.720797,-7328.038826,-2834.553343
599.223832,2590.720797,-7550.100608,-2221.676944
599.224160,1628.453072,-8512.368333,-1532.190996
599.224488,-592.164754,-9770.718434,-2068.457845
599.224816,-2294.638420,-10214.842000,-2145.067394
599.225143,-3034.844362,-10658.965565,-2145.067394
599.225471,-2812.782580,-10658.965565,-2221.676944
599.225799,-1998.556043,-9992.780217,-2298.286494
599.226127,-888.247130,-8734.430116,-1762.019645
599.226455,1924.535449,-7920.203579,-995.924147
599.226783,5699.585753,-6143.709319,766.095498
599.227110,9400.615463,-5255.462188,2451.505594
599.227438,11103.089130,-5847.626942,4519.963438
599.227766,8438.347739,-7698.141797,4903.011187
599.228094,2590.720797,-11695.253884,4596.572988
599.228422,-4737.318029,-14137.933492,2145.067394
599.228750,-9548.656652,-15174.221811,766.095498
599.229078,-11843.295072,-14656.077652,-1378.971896
599.229405,-11473.192101,-13323.706956,-2374.896044
599.229733,-9474.636058,-10584.944971,-2987.772442
599.230061,-2812.782580,-7846.182985,-1762.019645
599.230389,-3108.864956,-5107.421000,-1608.800546
599.230717,-1628.453072,-3849.070898,-3447.429741
599.231045,-4589.276840,-5477.523971,-5362.668486
599.231372,-9474.636058,-7031.956449,-8350.440928
599.231700,-13027.624579,-8660.409521,-9959.241474
599.232028,-15174.221811,-8438.347739,-10955.165621
599.232356,-11769.274478,-7994.224174,-10112.460574
599.232684,-7105.977043,-8068.244768,-8503.660028
599.233012,-370.102971,-6217.729913,-7201.297681
599.233339,3330.926739,-7105.977043,-5362.668486
599.233667,5403.503377,-8290.306550,-5286.058936
599.233995,3997.112087,-9178.553681,-6205.373534
599.234323,3923.091493,-11325.150913,-6588.421283
599.234651,5255.462188,-10584.944971,-7277.907231
599.234979,8808.450710,-10140.821405,-6128.763984
599.235306,13323.706956,-10214.842000,-3294.210641
599.235634,13767.830521,-9918.759623,-2451.505594
599.235962,13841.851115,-10584.944971,-1455.581446
599.236290,13767.830521,-9992.780217,-689.485948
599.236618,14656.077652,-9770.718434,-1302.362347
599.236946,15396.283594,-10288.862594,-689.485948
599.237274,11251.130318,-11029.068536,-1915.238745
599.237601,5329.482782,-14063.912898,-2681.334243
599.237929,-3627.009116,-13841.851115,-5056.230287
599.238257,-11177.109724,-14359.995275,-8350.440928
599.238585,-9178.553681,-10214.842000,-7660.954980
599.238913,-3478.967927,-4589.276840,-6894.859482
599.239241,1332.370696,-2664.741391,-4060.306139
599.239568,5181.441594,-1850.514855,-1378.971896
599.239896,2072.576638,-1850.514855,-842.705048
599.240224,-1628.453072,-3627.009116,0.000000
599.240552,-4589.276840,-4811.338623,-1225.752797
599.240880,-8512.368333,-7105.977043,-1455.581446
599.241208,-7179.997637,-8068.244768,-995.924147
599.241535,-7698.141797,-9918.759623,1149.143247
599.241863,-6217.729913,-9622.677246,3370.820191
599.242191,-4293.194464,-8660.409521,5209.449386
599.242519,-2220.617826,-7772.162391,5362.668486
599.242847,-1554.432478,-8364.327145,3830.477490
599.243175,-3478.967927,-10510.924376,1915.238745
599.243502,-5847.626942,-11177.109724,-612.876398
599.243830,-7550.100608,-10584.944971,-1685.410096
599.244158,-4515.256246,-9622.677246,-153.219100
599.244486,-1998.556043,-8364.327145,383.047749
599.244814,-814.226536,-9178.553681,689.485948
599.245142,0.000000,-9548.656652,612.876398
599.245470,-3627.009116,-9474.636058,459.657299
599.245797,-4737.318029,-9030.512492,0.000000
599.246125,-4145.153275,-9252.574275,-383.047749
599.246453,-3108.864956,-11177.109724,-689.485948
599.246781,-3034.844362,-11621.233289,-2221.676944
599.247109,-3701.029710,-10584.944971,-1762.019645
599.247437,-740.205942,-7920.203579,-2145.067394
599.247764,0.000000,-7179.997637,-2068.457845
599.248092,814.226536,-6809.894666,-2681.334243
599.248420,1776.494261,-7698.141797,-3753.867940
599.248748,3552.988522,-8216.285956,-4979.620737
599.249075,4811.338623,-8216.285956,-4903.011187
599.249403,6217.729913,-8808.450710,-3217.601092
599.249731,5255.462188,-10732.986159,-3600.648841
599.250058,4737.318029,-13471.748144,-2911.162892
599.250386,4145.153275,-14285.974681,-3447.429741
599.250713,3182.885551,-13619.789333,-3830.477490
599.251041,2294.638420,-12509.480420,-3983.696590
599.251369,814.226536,-11917.315666,-4136.915689
599.251696,1702.473667,-11399.171507,-3677.258390
599.252024,2590.720797,-9770.718434,-3447.429741
599.252352,2368.659014,-8882.471304,-3677.258390
599.252679,1776.494261,-8660.409521,-4290.134789
599.253007,-444.123565,-8438.347739,-5132.839837
599.253334,-1850.514855,-7920.203579,-5898.935335
599.253662,-2442.679609,-7402.059420,-6052.154434
599.253990,-2220.617826,-6883.915261,-5669.106685
599.254317,-1406.391290,-5773.606348,-5056.230287
599.254645,296.082377,-4737.318029,-2987.772442
599.254973,1258.350101,-5477.523971,-2145.067394
599.255300,444.123565,-6735.874072,-1608.800546
599.255628,-222.061783,-8216.285956,-1915.238745
599.255955,-1702.473667,-9474.636058,-2145.067394
599.256283,-3256.906145,-10658.965565,-2451.505594
599.256611,-4515.256246,-10436.903782,-2528.115143
599.256938,-3404.947333,-9252.574275,-2221.676944
599.257266,-962.267725,-7920.203579,-1838.629195
599.257593,444.123565,-7994.224174,-1302.362347
599.257921,-1184.329507,-8438.347739,-2068.457845
599.258249,-2072.576638,-8808.450710,-2987.772442
599.258576,-2442.679609,-8882.471304,-3600.648841
599.258904,-2590.720797,-8068.244768,-3983.696590
599.259232,-1628.453072,-9178.553681,-3753.867940
599.259559,222.061783,-8364.327145,-3140.991542
599.259887,2442.679609,-6735.874072,-2451.505594
599.260214,2738.761985,-6809.894666,-689.485948
599.260542,1702.473667,-6883.915261,-1072.533697
599.260870,296.082377,-7624.121203,-612.876398
599.261197,74.020594,-8586.388927,-766.095498
599.261525,-888.247130,-9252.574275,-1225.752797
599.261853,-370.102971,-9252.574275,-536.266849
599.262180,1554.432478,-8438.347739,0.000000
599.262508,1628.453072,-8734.430116,-383.047749
599.262835,1850.514855,-9400.615463,-306.438199
599.263163,1628.453072,-9178.553681,-1149.143247
599.263491,0.000000,-8290.306550,-2757.943793
599.263818,370.102971,-9030.512492,-1302.362347
599.264146,1110.308913,-9252.574275,-995.924147
599.264474,-370.102971,-10362.883188,-766.095498
599.264801,1776.494261,-11325.150913,306.438199
599.265129,518.144159,-11843.295072,76.609550
599.265456,-1258.350101,-11843.295072,0.000000
599.265784,-2812.782580,-10658.965565,-612.876398
599.266112,-2886.803174,-10955.047942,-842.705048
599.266439,-2812.782580,-10288.862594,-383.047749
599.266767,-2664.741391,-8882.471304,0.000000
599.267094,-3034.844362,-8808.450710,-306.438199
599.267422,-3108.864956,-7624.121203,-842.705048
599.267750,-3552.988522,-8364.327145,-1378.971896
599.268077,-4515.256246,-8290.306550,-2221.676944
599.268405,-2664.741391,-7846.182985,-2298.286494
599.268733,-1554.432478,-7772.162391,-1608.800546
599.269060,-592.164754,-8512.368333,-1762.019645
599.269388,-814.226536,-8882.471304,-766.095498
599.269715,-370.102971,-9696.697840,-1072.533697
599.270043,-740.205942,-9696.697840,-1302.362347
599.270371,-296.082377,-10066.800811,-1378.971896
599.270698,1628.453072,-10066.800811,-536.266849
599.271026,3256.906145,-10510.924376,689.485948
599.271354,2886.803174,-11399.171507,766.095498
599.271681,1998.556043,-11103.089130,153.219100
599.272009,1998.556043,-10955.047942,0.000000
599.272336,1258.350101,-10510.924376,-306.438199
599.272664,1332.370696,-9622.677246,0.000000
599.272992,3108.864956,-9326.594869,689.485948
599.273319,3701.029710,-8586.388927,383.047749
599.273647,2368.659014,-9104.533087,536.266849
599.273975,1998.556043,-9474.636058,306.438199
599.274302,-296.082377,-8734.430116,0.000000
599.274630,-518.144159,-8438.347739,0.000000
599.274957,0.000000,-7476.080014,0.000000
599.275285,0.000000,-8142.265362,536.266849
599.275613,-148.041188,-8216.285956,1072.533697
599.275940,-1110.308913,-8290.306550,1991.848295
599.276268,-2220.617826,-8142.265362,995.924147
599.276595,-3775.050304,-7994.224174,536.266849
599.276923,-3478.967927,-7994.224174,306.438199
599.277251,-3627.009116,-7624.121203,-229.828649
599.277578,-2294.638420,-7402.059420,306.438199
599.277906,-1924.535449,-7402.059420,842.705048
599.278234,-2516.700203,-8512.368333,306.438199
599.278561,-3034.844362,-8142.265362,0.000000
599.278889,-2590.720797,-8216.285956,306.438199
599.279216,-2146.597232,-8364.327145,612.876398
599.279544,-1554.432478,-8142.265362,229.828649
599.279872,-1480.411884,-8586.388927,383.047749
599.280199,-740.205942,-8882.471304,766.095498
599.280527,-1110.308913,-8882.471304,689.485948
599.280855,0.000000,-9178.553681,842.705048
599.281182,1258.350101,-9178.553681,1915.238745
599.281510,1480.411884,-8290.306550,1991.848295
599.281837,2368.659014,-7846.182985,2068.457845
599.282165,2590.720797,-7994.224174,1915.238745
599.282493,2812.782580,-8438.347739,2068.457845
599.282820,1998.556043,-8512.368333,842.705048
599.283148,2812.782580,-8660.409521,1838.629195
599.283476,3478.967927,-8956.491898,1378.971896
599.283803,2738.761985,-9474.636058,1455.581446
599.284131,2368.659014,-10362.883188,1838.629195
599.284458,814.226536,-11473.192101,919.314598
599.284786,0.000000,-11399.171507,306.438199
599.285114,-814.226536,-11399.171507,153.219100
599.285441,74.020594,-10807.006753,229.828649
599.285769,0.000000,-10288.862594,383.047749
599.286096,-296.082377,-10584.944971,306.438199
599.286424,-888.247130,-11251.130318,536.266849
599.286752,-3034.844362,-10732.986159,-766.095498
599.287079,-4071.132681,-9992.780217,-1302.362347
599.287407,-3997.112087,-9918.759623,-1149.143247
599.287735,-3701.029710,-9474.636058,-1225.752797
599.288062,-2812.782580,-9178.553681,-536.266849
599.288390,-2220.617826,-8956.491898,-536.266849
599.288717,-2072.576638,-8734.430116,-153.219100
599.289045,-1850.514855,-8586.388927,-383.047749
599.289373,-740.205942,-9178.553681,0.000000
599.289700,666.185348,-9474.636058,229.828649
599.290028,1184.329507,-9548.656652,689.485948
599.290356,592.164754,-10288.862594,995.924147
599.290683,296.082377,-11029.068536,1378.971896
599.291011,-888.247130,-11399.171507,1225.752797
599.291338,-666.185348,-10807.006753,842.705048
599.291666,0.000000,-9992.780217,766.095498
599.291994,1998.556043,-9252.574275,612.876398
599.292321,3034.844362,-8290.306550,1225.752797
599.292649,2664.741391,-8882.471304,1378.971896
599.292977,1628.453072,-9178.553681,1225.752797
599.293304,2368.659014,-8438.347739,995.924147
599.293632,2442.679609,-7328.038826,2221.676944
599.293959,2590.720797,-7772.162391,2221.676944
599.294287,1776.494261,-8438.347739,2528.115143
599.294615,-444.123565,-9474.636058,2374.896044
599.294942,-2368.659014,-9178.553681,2221.676944
599.295270,-3404.947333,-8142.265362,689.485948
599.295597,-3478.967927,-8290.306550,612.876398
599.295925,-3108.864956,-7994.224174,0.000000
599.296253,-2812.782580,-7105.977043,-459.657299
599.296580,-1998.556043,-6365.771101,0.000000
599.296908,-1702.473667,-5477.523971,-536.266849
599.297236,-1776.494261,-5847.626942,-689.485948
599.297563,-1406.391290,-6365.771101,-153.219100
599.297891,-1036.288319,-7105.977043,0.000000
599.298218,-1332.370696,-7254.018232,306.438199
599.298546,-1258.350101,-7402.059420,1378.971896
599.298874,-1776.494261,-9252.574275,995.924147
599.299201,-2368.659014,-10807.006753,689.485948
599.299529,-2960.823768,-10362.883188,0.000000
599.299857,-1332.370696,-9474.636058,-153.219100
599.300184,-296.082377,-9030.512492,0.000000
599.300512,1850.514855,-8586.388927,536.266849
599.300839,2590.720797,-7994.224174,689.485948
599.301167,3182.885551,-8290.306550,842.705048
599.301495,3701.029710,-7846.182985,766.095498
599.301822,3997.112087,-7179.997637,919.314598
599.302150,4589.276840,-8586.388927,1762.019645
599.302478,3034.844362,-9622.677246,1685.410096
599.302805,1924.535449,-11399.171507,2834.553343
599.303133,0.000000,-12213.398043,1991.848295
599.303460,-2812.782580,-12953.603985,1225.752797
599.303788,-2590.720797,-12139.377449,0.000000
599.304116,-2812.782580,-11621.233289,76.609550
599.304443,-2146.597232,-11029.068536,-689.485948
599.304771,-1110.308913,-9474.636058,-919.314598
599.305099,-222.061783,-8068.244768,-919.314598
599.305426,814.226536,-7550.100608,-306.438199
599.305754,888.247130,-6957.935855,-689.485948
599.306081,1184.329507,-7476.080014,-536.266849
599.306409,518.144159,-8068.244768,76.609550
599.306737,370.102971,-8512.368333,1072.533697
599.307064,-1406.391290,-9474.636058,1149.143247
599.307392,-3108.864956,-11547.212695,1915.238745
599.307719,-5255.462188,-12509.480420,612.876398
599.308047,-5107.421000,-12805.562797,842.705048
599.308375,-4737.318029,-10881.027347,0.000000
599.308702,-2590.720797,-9474.636058,689.485948
599.309030,-1332.370696,-8660.409521,-383.047749
599.309358,-148.041188,-7846.182985,0.000000
599.309685,296.082377,-7105.977043,-383.047749
599.310013,1850.514855,-5699.585753,0.000000
599.310340,2590.720797,-5921.647536,383.047749
599.310668,3108.864956,-7105.977043,995.924147
599.310996,2072.576638,-7698.141797,1302.362347
599.311323,814.226536,-9844.739029,1685.410096
599.311651,-740.205942,-11547.212695,1608.800546
599.311979,-2368.659014,-11843.295072,1149.143247
599.312306,-1850.514855,-11695.253884,1685.410096
599.312634,-2294.638420,-11103.089130,842.705048
599.312961,-1924.535449,-10584.944971,1072.533697
599.313289,-148.041188,-8586.388927,689.485948
599.313617,0.000000,-7698.141797,229.828649
599.313944,888.247130,-6217.729913,-153.219100
599.314272,2812.782580,-5995.668130,0.000000
599.314600,3256.906145,-6513.812290,459.657299
599.314927,3775.050304,-6217.729913,842.705048
599.315255,3552.988522,-7105.977043,1838.629195
599.315582,1480.411884,-9030.512492,2145.067394
599.315910,-1998.556043,-11029.068536,1455.581446
599.316238,-3108.864956,-12361.439231,842.705048
599.316565,-3256.906145,-12361.439231,766.095498
599.316893,-3108.864956,-11843.295072,459.657299
599.317220,-2368.659014,-11473.192101,459.657299
599.317548,-1184.329507,-10510.924376,842.705048
599.317876,-740.205942,-9548.656652,0.000000
599.318203,592.164754,-8068.244768,-229.828649
599.318531,2220.617826,-6513.812290,0.000000
599.318859,3404.947333,-6439.791695,689.485948
599.319186,3775.050304,-6735.874072,1608.800546
599.319514,2738.761985,-7698.141797,1225.752797
599.319841,74.020594,-9400.615463,1685.410096
599.320169,-2220.617826,-10584.944971,1302.362347
599.320497,-3627.009116,-10881.027347,766.095498
599.320824,-3404.947333,-10955.047942,153.219100
599.321152,-4071.132681,-11547.212695,689.485948
599.321480,-2886.803174,-10214.842000,0.000000
599.321807,-2590.720797,-10066.800811,153.219100
599.322135,-2146.597232,-8068.244768,-766.095498
599.322462,0.000000,-6735.874072,-536.266849
599.322790,2072.576638,-5995.668130,0.000000
599.323118,2442.679609,-6143.709319,-306.438199
599.323445,2886.803174,-6957.935855,536.266849
599.323773,1998.556043,-8438.347739,995.924147
599.324101,0.000000,-10066.800811,1455.581446
599.324428,-1702.473667,-10807.006753,1302.362347
599.324756,-2294.638420,-11843.295072,229.828649
599.325083,-2368.659014,-12065.356855,459.657299
599.325411,-2886.803174,-10955.047942,-153.219100
599.325739,-1776.494261,-10214.842000,0.000000
599.326066,-814.226536,-9548.656652,-383.047749
599.326394,148.041188,-8364.327145,-459.657299
599.326721,2516.700203,-7105.977043,-306.438199
599.327049,3923.091493,-6217.729913,76.609550
599.327377,4589.276840,-5921.647536,842.705048
599.327704,4145.153275,-7105.977043,1915.238745
599.328032,3034.844362,-8216.285956,2221.676944
599.328360,740.205942,-9622.677246,1991.848295
599.328687,-1332.370696,-11547.212695,1378.971896
599.329015,-2516.700203,-12139.377449,1608.800546
599.329342,-2886.803174,-11843.295072,1608.800546
599.329670,-3330.926739,-10066.800811,1149.143247
599.329998,-1702.473667,-9400.615463,766.095498
599.330325,-2072.576638,-9252.574275,0.000000
599.330653,-1480.411884,-8068.244768,-383.047749
599.330981,0.000000,-6513.812290,-536.266849
599.331308,2368.659014,-5995.668130,766.095498
599.331636,1554.432478,-5995.668130,153.219100
599.331963,2072.576638,-7476.080014,1608.800546
599.332291,370.102971,-9474.636058,1685.410096
599.332619,-1850.514855,-9474.636058,766.095498
599.332946,-2516.700203,-9992.780217,1302.362347
599.333274,-3627.009116,-11399.171507,306.438199
599.333602,-3997.112087,-11769.274478,229.828649
599.333929,-3330.926739,-10584.944971,383.047749
599.334257,-2664.741391,-9474.636058,0.000000
599.334584,-1702.473667,-9474.636058,-766.095498
599.334912,-1036.288319,-7994.224174,-766.095498
599.335240,1850.514855,-6513.812290,-306.438199
599.335567,2664.741391,-6291.750507,0.000000
599.335895,4663.297435,-6587.832884,919.314598
599.336222,4145.153275,-7328.038826,1455.581446
599.336550,2738.761985,-9548.656652,2374.896044
599.336878,222.061783,-10807.006753,1302.362347
599.337205,-1184.329507,-11917.315666,919.314598
599.337533,-2146.597232,-12435.459826,1225.752797
599.337861,-1998.556043,-12435.459826,1225.752797
599.338188,-1554.432478,-11103.089130,536.266849
599.338516,-1036.288319,-10140.821405,536.266849
599.338843,-518.144159,-9474.636058,0.000000
599.339171,74.020594,-7402.059420,-383.047749
599.339499,1998.556043,-6513.812290,-229.828649
599.339826,2738.761985,-4811.338623,689.485948
599.340154,2738.761985,-6661.853478,766.095498
599.340482,1776.494261,-7550.100608,1072.533697
599.340809,-370.102971,-8290.306550,1072.533697
599.341137,-2738.761985,-9400.615463,306.438199
599.341464,-3330.926739,-10584.944971,536.266849
599.341792,-4293.194464,-10955.047942,306.438199
599.342120,-3997.112087,-11029.068536,229.828649
599.342447,-3997.112087,-11177.109724,-153.219100
599.342775,-3627.009116,-10510.924376,-612.876398
599.343103,-3627.009116,-9400.615463,-1378.971896
599.343430,-814.226536,-7476.080014,-1762.019645
599.343758,1332.370696,-6513.812290,-1225.752797
599.344085,3182.885551,-6513.812290,-153.219100
599.344413,3404.947333,-6291.750507,76.609550
599.344741,2960.823768,-8068.244768,842.705048
599.345068,1554.432478,-9030.512492,919.314598
599.345396,370.102971,-9844.739029,842.705048
599.345723,0.000000,-11621.233289,1225.752797
599.346051,-814.226536,-11991.336260,1072.533697
599.346379,-888.247130,-11769.274478,1225.752797
599.346706,-888.247130,-11251.130318,1072.533697
599.347034,-148.041188,-10881.027347,919.314598
599.347362,0.000000,-9104.533087,-229.828649
599.347689,1702.473667,-7402.059420,459.657299
599.348017,3330.926739,-6143.709319,0.000000
599.348344,4145.153275,-5847.626942,1072.533697
599.348672,4293.194464,-6217.729913,1455.581446
599.349000,2516.700203,-7994.224174,1608.800546
599.349327,0.000000,-9474.636058,1608.800546
599.349655,-888.247130,-10732.986159,1685.410096
599.349983,-2516.700203,-12065.356855,1991.848295
599.350310,-3478.967927,-12139.377449,2374.896044
599.350638,-3627.009116,-11621.233289,1762.019645
599.350965,-4145.153275,-11843.295072,1608.800546
599.351293,-4737.318029,-10436.903782,459.657299
599.351620,-3849.070898,-7994.224174,-153.219100
599.351948,-1924.535449,-6513.812290,-612.876398
599.352275,0.000000,-5403.503377,-459.657299
599.352603,1036.288319,-4885.359217,0.000000
599.352930,1406.391290,-5625.565159,536.266849
599.353258,-222.061783,-6587.832884,536.266849
599.353585,-962.267725,-7846.182985,766.095498
599.353913,-2146.597232,-9474.636058,153.219100
599.354240,-2220.617826,-10584.944971,842.705048
599.354568,-2738.761985,-11251.130318,689.485948
599.354895,-2146.597232,-10807.006753,1225.752797
599.355223,-2368.659014,-11177.109724,1149.143247
599.355550,-2590.720797,-10436.903782,306.438199
599.355878,-222.061783,-9178.553681,0.000000
599.356205,2146.597232,-7254.018232,-383.047749
599.356533,4515.256246,-6735.874072,383.047749
599.356861,5477.523971,-6291.750507,842.705048
599.357188,5181.441594,-7846.182985,1455.581446
599.357516,2960.823768,-9326.594869,1225.752797
599.357843,1628.453072,-9918.759623,842.705048
599.358171,1332.370696,-11177.109724,1072.533697
599.358498,-148.041188,-11843.295072,1149.143247
599.358826,-1110.308913,-11917.315666,1378.971896
599.359153,-1110.308913,-11917.315666,766.095498
599.359481,-2590.720797,-11695.253884,612.876398
599.359808,-2886.803174,-10362.883188,0.000000
599.360136,-1258.350101,-8586.388927,-919.314598
599.360463,0.000000,-7476.080014,-383.047749
599.360791,592.164754,-6735.874072,-306.438199
599.361118,1480.411884,-6513.812290,0.000000
599.361446,296.082377,-6735.874072,229.828649
599.361773,-1184.329507,-7254.018232,0.000000
599.362101,-1776.494261,-8808.450710,153.219100
599.362428,-2294.638420,-9548.656652,229.828649
599.362756,-2812.782580,-10288.862594,229.828649
599.363083,-3108.864956,-10881.027347,383.047749
599.363411,-3404.947333,-10881.027347,459.657299
599.363738,-3034.844362,-11695.253884,0.000000
599.364066,-2368.659014,-9770.718434,-919.314598
599.364394,74.020594,-8882.471304,-459.657299
599.364721,1924.535449,-8142.265362,0.000000
599.365049,2812.782580,-7254.018232,459.657299
599.365376,3108.864956,-8142.265362,842.705048
599.365704,2442.679609,-8142.265362,1608.800546
599.366031,370.102971,-8660.409521,306.438199
599.366359,888.247130,-9030.512492,689.485948
599.366686,296.082377,-9474.636058,536.266849
599.367014,0.000000,-10140.821405,1302.362347
599.367341,296.082377,-10584.944971,1225.752797
599.367669,-592.164754,-10288.862594,1532.190996
599.367996,-666.185348,-9918.759623,1072.533697
599.368324,-222.061783,-9252.574275,842.705048
599.368651,888.247130,-9326.594869,1072.533697
599.368979,1332.370696,-8882.471304,1302.362347
599.369306,1332.370696,-7624.121203,1608.800546
599.369634,1628.453072,-7402.059420,1762.019645
599.369961,1110.308913,-7698.141797,1762.019645
599.370289,-888.247130,-8512.368333,689.485948
599.370616,-1406.391290,-8586.388927,306.438199
599.370944,-1702.473667,-8438.347739,1455.581446
599.371271,-1924.535449,-8734.430116,536.266849
599.371599,-2146.597232,-8956.491898,919.314598
599.371926,-3034.844362,-10066.800811,1225.752797
599.372254,-3849.070898,-9696.697840,766.095498
599.372582,-3404.947333,-8882.471304,76.609550
599.372909,-1850.514855,-7698.141797,766.095498
599.373237,-1480.411884,-7254.018232,766.095498
599.373564,-666.185348,-6883.915261,689.485948
599.373892,0.000000,-7402.059420,689.485948
599.374219,-1332.370696,-7476.080014,536.266849
599.374547,-666.185348,-7624.121203,612.876398
599.374874,-518.144159,-7920.203579,0.000000
599.375202,592.164754,-8216.285956,306.438199
599.375529,592.164754,-8882.471304,229.828649
599.375857,296.082377,-9844.739029,689.485948
599.376184,148.041188,-10955.047942,919.314598
599.376512,-814.226536,-10807.006753,0.000000
599.376839,888.247130,-10510.924376,306.438199
599.377167,1184.329507,-10881.027347,229.828649
599.377494,1628.453072,-10732.986159,229.828649
599.377822,1332.370696,-10732.986159,459.657299
599.378149,592.164754,-10362.883188,0.000000
599.378477,444.123565,-10807.006753,-306.438199
599.378804,148.041188,-10214.842000,-842.705048
599.379132,370.102971,-10584.944971,-689.485948
599.379459,518.144159,-10362.883188,153.219100
599.379787,1184.329507,-9622.677246,76.609550
599.380115,962.267725,-9252.574275,0.000000
599.380442,222.061783,-9474.636058,0.000000
599.380770,0.000000,-9548.656652,-306.438199
599.381097,370.102971,-8808.450710,0.000000
599.381425,1110.308913,-8438.347739,306.438199
599.381752,444.123565,-8586.388927,919.314598
599.382080,222.061783,-10066.800811,1455.581446
599.382407,-962.267725,-10658.965565,1225.752797
599.382735,-2146.597232,-9844.739029,689.485948
599.383062,-1702.473667,-9474.636058,842.705048
599.383390,-1332.370696,-9918.759623,689.485948
599.383717,-1110.308913,-10658.965565,919.314598
599.384045,-1110.308913,-10140.821405,995.924147
599.384372,-1110.308913,-9770.718434,842.705048
599.384700,-1258.350101,-9844.739029,766.095498
599.385027,-888.247130,-8956.491898,76.609550
599.385355,-444.123565,-8882.471304,766.095498
599.385682,0.000000,-8364.327145,919.314598
599.386010,-518.144159,-7994.224174,1149.143247
599.386337,-814.226536,-8512.368333,1915.238745
599.386665,-1702.473667,-8290.306550,1149.143247
599.386992,-2590.720797,-8586.388927,536.266849
599.387320,-1776.494261,-8216.285956,995.924147
599.387648,-814.226536,-7254.018232,1072.533697
599.387975,0.000000,-6957.935855,1455.581446
599.388303,962.267725,-7105.977043,1915.238745
599.388630,74.020594,-7698.141797,1455.581446
599.388958,-444.123565,-7031.956449,612.876398
599.389285,0.000000,-7031.956449,536.266849
599.389613,1554.432478,-7031.956449,1225.752797
599.389940,1406.391290,-7179.997637,1915.238745
599.390268,1924.535449,-7920.203579,1762.019645
599.390595,222.061783,-9326.594869,1762.019645
599.390923,-518.144159,-9030.512492,1072.533697
599.391250,-1332.370696,-8808.450710,383.047749
599.391578,-518.144159,-9178.553681,536.266849
599.391905,-666.185348,-9030.512492,-383.047749
599.392233,-592.164754,-8364.327145,76.609550
599.392560,-148.041188,-8216.285956,153.219100
599.392888,-592.164754,-8216.285956,-153.219100
599.393215,-296.082377,-7772.162391,0.000000
599.393543,296.082377,-7550.100608,0.000000
599.393870,666.185348,-8068.244768,612.876398
599.394198,592.164754,-8438.347739,689.485948
599.394525,0.000000,-8882.471304,612.876398
599.394853,-1184.329507,-9918.759623,842.705048
599.395181,-2368.659014,-9844.739029,-76.609550
599.395508,-2516.700203,-10066.800811,-612.876398
599.395836,-2812.782580,-10214.842000,-995.924147
599.396163,-1628.453072,-9326.594869,-1225.752797
599.396491,-814.226536,-8808.450710,-1149.143247
599.396818,-148.041188,-9104.533087,-612.876398
599.397146,0.000000,-9252.574275,-1225.752797
599.397473,296.082377,-9252.574275,-1532.190996
599.397801,1554.432478,-9474.636058,-766.095498
599.398128,2294.638420,-9622.677246,0.000000
599.398456,2738.761985,-10658.965565,919.314598
599.398783,1850.514855,-12213.398043,1378.971896
599.399111,74.020594,-13101.645173,1225.752797
599.399438,-1110.308913,-13101.645173,766.095498
599.399766,-1554.432478,-12139.377449,766.095498
599.400093,0.000000,-11621.233289,1532.190996
599.400421,1036.288319,-10288.862594,383.047749
599.400748,1998.556043,-9474.636058,1072.533697
599.401076,2812.782580,-9252.574275,1378.971896
599.401403,2146.597232,-8882.471304,1072.533697
599.401731,2442.679609,-8364.327145,1302.362347
599.402058,2516.700203,-8586.388927,1762.019645
599.402386,1850.514855,-9104.533087,2298.286494
599.402713,962.267725,-9252.574275,2604.724693
599.403041,-1184.329507,-10955.047942,2298.286494
599.403369,-3627.009116,-11917.315666,1991.848295
599.403696,-5847.626942,-11177.109724,1302.362347
599.404024,-4885.359217,-10807.006753,1149.143247
599.404351,-4589.276840,-10140.821405,153.219100
599.404679,-3775.050304,-9252.574275,229.828649
599.405006,-3108.864956,-8882.471304,76.609550
599.405334,-2664.741391,-7031.956449,0.000000
599.405661,-1776.494261,-5921.647536,-306.438199
599.405989,-296.082377,-5403.503377,76.609550
599.406316,74.020594,-5551.544565,383.047749
599.406644,-370.102971,-6957.935855,1149.143247
599.406971,-222.061783,-7698.141797,2068.457845
599.407299,-1554.432478,-9030.512492,2068.457845
599.407626,-2886.803174,-9326.594869,1455.581446
599.407954,-2738.761985,-9474.636058,536.266849
599.408281,-1332.370696,-9030.512492,229.828649
599.408609,0.000000,-7846.182985,0.000000
599.408936,1702.473667,-6957.935855,383.047749
599.409264,2220.617826,-7105.977043,229.828649
599.409591,2812.782580,-6957.935855,306.438199
599.409919,3034.844362,-6735.874072,-153.219100
599.410246,4589.276840,-7105.977043,612.876398
599.410574,4515.256246,-7550.100608,1608.800546
599.410902,3775.050304,-7772.162391,1991.848295
599.411229,1702.473667,-9548.656652,2068.457845
599.411557,370.102971,-11177.109724,1991.848295
599.411884,-2294.638420,-11399.171507,536.266849
599.412212,-2294.638420,-11399.171507,536.266849
599.412539,-2072.576638,-10658.965565,-536.266849
599.412867,-2294.638420,-9770.718434,-459.657299
599.413194,-962.267725,-8660.409521,-153.219100
599.413522,-370.102971,-7846.182985,-995.924147
599.413849,74.020594,-7031.956449,-1149.143247
599.414177,148.041188,-6291.750507,-1302.362347
599.414504,740.205942,-6661.853478,-459.657299
599.414832,592.164754,-7031.956449,-153.219100
599.415159,370.102971,-7550.100608,229.828649
599.415487,-962.267725,-9548.656652,766.095498
599.415814,-2072.576638,-11547.212695,689.485948
599.416142,-4219.173869,-11621.233289,-229.828649
599.416469,-3997.112087,-11843.295072,-229.828649
599.416797,-2516.700203,-11621.233289,0.000000
599.417124,-1554.432478,-11177.109724,-153.219100
599.417452,444.123565,-10362.883188,0.000000
599.417779,1258.350101,-9474.636058,0.000000
599.418107,1258.350101,-7846.182985,-459.657299
599.418435,3701.029710,-7624.121203,76.609550
599.418762,3997.112087,-8586.388927,919.314598
599.419090,2738.761985,-8660.409521,1302.362347
599.419417,3552.988522,-10288.862594,2451.505594
599.419745,666.185348,-11325.150913,1991.848295
599.420072,-1480.411884,-12657.521608,2221.676944
599.420400,-2072.576638,-12287.418637,1608.800546
599.420727,-2590.720797,-12509.480420,1532.190996
599.421055,-2664.741391,-10807.006753,995.924147
599.421382,-2146.597232,-9992.780217,689.485948
599.421710,-1850.514855,-8956.491898,306.438199
599.422037,-1258.350101,-7179.997637,76.609550
599.422365,0.000000,-6513.812290,-153.219100
599.422692,888.247130,-5329.482782,612.876398
599.423020,2072.576638,-6365.771101,919.314598
599.423347,1776.494261,-7105.977043,1915.238745
599.423675,370.102971,-8068.244768,2374.896044
599.424002,-1406.391290,-10362.883188,2374.896044
599.424330,-3775.050304,-10881.027347,1991.848295
599.424657,-4515.256246,-12139.377449,1225.752797
599.424985,-4663.297435,-11843.295072,919.314598
599.425312,-3923.091493,-11029.068536,612.876398
599.425640,-3182.885551,-9548.656652,0.000000
599.425968,-1628.453072,-8808.450710,0.000000
599.426295,-296.082377,-6957.935855,-766.095498
599.426623,1850.514855,-5477.523971,-766.095498
599.426950,3330.926739,-5255.462188,-536.266849
599.427278,4589.276840,-5995.668130,459.657299
599.427605,3701.029710,-6735.874072,842.705048
599.427933,3404.947333,-8142.265362,1378.971896
599.428260,888.247130,-10436.903782,1532.190996
599.428588,-888.247130,-11399.171507,1608.800546
599.428915,-2368.659014,-11991.336260,1072.533697
599.429243,-2442.679609,-12139.377449,1378.971896
599.429570,-1924.535449,-11251.130318,0.000000
599.429898,-1554.432478,-9696.697840,612.876398
599.430225,-370.102971,-8660.409521,-306.438199
599.430553,0.000000,-7254.018232,-842.705048
599.430880,1776.494261,-5403.503377,-995.924147
599.431208,3997.112087,-4811.338623,-153.219100
599.431535,3627.009116,-5255.462188,229.828649
599.431863,3997.112087,-6587.832884,842.705048
599.432190,1850.514855,-8808.450710,1302.362347
599.432518,-1184.329507,-10436.903782,1225.752797
599.432845,-2738.761985,-11251.130318,1378.971896
599.433173,-4885.359217,-12213.398043,306.438199
599.433501,-4737.318029,-12731.542202,76.609550
599.433828,-4293.194464,-10807.006753,-459.657299
599.434156,-2886.803174,-9548.656652,-383.047749
599.434483,-1628.453072,-8586.388927,-459.657299
599.434811,222.061783,-6809.894666,-689.485948
599.435138,1702.473667,-5921.647536,-612.876398
599.435466,3478.967927,-5995.668130,306.438199
599.435793,3108.864956,-5403.503377,459.657299
599.436121,3182.885551,-7105.977043,1762.019645
599.436448,1776.494261,-9252.574275,1149.143247
599.436776,-888.247130,-9992.780217,1915.238745
599.437103,-1850.514855,-12361.439231,1762.019645
599.437431,-3330.926739,-12657.521608,1302.362347
599.437758,-3849.070898,-12583.501014,919.314598
599.438086,-3108.864956,-11399.171507,383.047749
599.438413,-1184.329507,-9770.718434,0.000000
599.438741,-1554.432478,-9918.759623,-306.438199
599.439068,-148.041188,-7772.162391,-1149.143247
599.439396,1332.370696,-6291.750507,-612.876398
599.439723,2886.803174,-5847.626942,229.828649
599.440051,3034.844362,-5625.565159,1455.581446
599.440378,1998.556043,-8216.285956,1378.971896
599.440706,0.000000,-10066.800811,1149.143247
599.441033,-2368.659014,-10362.883188,612.876398
599.441361,-2590.720797,-11177.109724,919.314598
599.441689,-3256.906145,-11177.109724,995.924147
599.442016,-2590.720797,-11991.336260,919.314598
599.442344,-2590.720797,-11177.109724,612.876398
599.442671,-1036.288319,-10288.862594,536.266849
599.442999,-740.205942,-8882.471304,-153.219100
599.443326,1258.350101,-6957.935855,-459.657299
599.443654,3404.947333,-6513.812290,76.609550
599.443981,4367.215058,-6883.915261,919.314598
599.444309,4515.256246,-7179.997637,1302.362347
599.444636,3552.988522,-8142.265362,1915.238745
599.444964,1406.391290,-9770.718434,1915.238745
599.445291,-1184.329507,-11547.212695,1685.410096
599.445619,-1924.535449,-13101.645173,1608.800546
599.445946,-2220.617826,-13323.706956,1838.629195
599.446274,-2886.803174,-12731.542202,1225.752797
599.446601,-2368.659014,-12065.356855,1302.362347
599.446929,-2442.679609,-11103.089130,1072.533697
599.447256,-2590.720797,-9548.656652,-383.047749
599.447584,-296.082377,-7105.977043,-1072.533697
599.447911,1332.370696,-6513.812290,-536.266849
599.448239,2368.659014,-5551.544565,0.000000
599.448566,2146.597232,-5551.544565,229.828649
599.448894,1258.350101,-7772.162391,1149.143247
599.449222,-370.102971,-8364.327145,842.705048
599.449549,-1702.473667,-9918.759623,689.485948
599.449877,-2664.741391,-11103.089130,766.095498
599.450204,-2738.761985,-11843.295072,1225.752797
599.450532,-3404.947333,-11177.109724,229.828649
599.450859,-2368.659014,-10214.842000,459.657299
599.451187,-1702.473667,-9696.697840,0.000000
599.451514,-962.267725,-8586.388927,-612.876398
599.451842,592.164754,-7105.977043,-536.266849
599.452169,2738.761985,-6217.729913,-612.876398
599.452497,3478.967927,-4367.215058,0.000000
599.452824,4367.215058,-5921.647536,842.705048
599.453152,3108.864956,-8364.327145,1455.581446
599.453480,222.061783,-9178.553681,842.705048
599.453807,-592.164754,-10288.862594,689.485948
599.454135,-1554.432478,-10584.944971,1378.971896
599.454462,-1924.535449,-10955.047942,1455.581446
599.454790,-2146.597232,-10807.006753,1302.362347
599.455117,-2960.823768,-9918.759623,766.095498
599.455445,-1554.432478,-8142.265362,842.705048
599.455772,-2220.617826,-6661.853478,-536.266849
599.456100,-370.102971,-6069.688724,-536.266849
599.456428,962.267725,-5847.626942,0.000000
599.456755,1776.494261,-5477.523971,153.219100
599.457083,1924.535449,-5921.647536,612.876398
599.457410,888.247130,-7698.141797,1225.752797
599.457738,-814.226536,-8290.306550,766.095498
599.458065,-1628.453072,-9474.636058,612.876398
599.458393,-2294.638420,-10658.965565,689.485948
599.458720,-2664.741391,-10658.965565,383.047749
599.459048,-2072.576638,-11103.089130,306.438199
599.459376,-2590.720797,-10955.047942,306.438199
599.459703,-2664.741391,-9770.718434,-383.047749
599.460031,-1258.350101,-9104.533087,-766.095498
599.460358,814.226536,-8068.244768,0.000000
599.460686,2442.679609,-6217.729913,0.000000
599.461013,3775.050304,-6513.812290,536.266849
599.461341,2886.803174,-8142.265362,1302.362347
599.461668,1406.391290,-8734.430116,1149.143247
599.461996,518.144159,-10140.821405,1378.971896
599.462324,-444.123565,-11547.212695,1991.848295
599.462651,-1184.329507,-11843.295072,1991.848295
599.462979,-1036.288319,-12287.418637,1991.848295
599.463306,-1850.514855,-11843.295072,1455.581446
599.463634,-2072.576638,-11843.295072,1072.533697
599.463961,-1924.535449,-10362.883188,0.000000
599.464289,222.061783,-8734.430116,-383.047749
599.464616,1554.432478,-8142.265362,-536.266849
599.464944,2738.761985,-7031.956449,0.000000
599.465272,3330.926739,-7105.977043,536.266849
599.465599,2442.679609,-8290.306550,919.314598
599.465927,666.185348,-8956.491898,766.095498
599.466254,-740.205942,-10510.924376,919.314598
599.466582,-2146.597232,-12287.418637,919.314598
599.466909,-2886.803174,-12139.377449,1072.533697
599.467237,-3330.926739,-11769.274478,842.705048
599.467564,-3034.844362,-11843.295072,842.705048
599.467892,-3552.988522,-11843.295072,383.047749
599.468220,-3404.947333,-10140.821405,-536.266849
599.468547,-1184.329507,-8586.388927,-766.095498
599.468875,666.185348,-7328.038826,-612.876398
599.469202,2368.659014,-6513.812290,-536.266849
599.469530,2220.617826,-6809.894666,0.000000
599.469857,1702.473667,-7698.141797,229.828649
599.470185,-148.041188,-7846.182985,-383.047749
599.470512,0.000000,-9178.553681,383.047749
599.470840,-518.144159,-10214.842000,612.876398
599.471168,-1332.370696,-11473.192101,1302.362347
599.471495,-1406.391290,-11843.295072,919.314598
599.471823,-1332.370696,-11103.089130,612.876398
599.472150,-1332.370696,-10436.903782,536.266849
599.472478,222.061783,-9178.553681,459.657299
599.472805,518.144159,-8438.347739,536.266849
599.473133,2886.803174,-7402.059420,612.876398
599.473460,2960.823768,-5921.647536,612.876398
599.473788,3478.967927,-6661.853478,1072.533697
599.474116,2072.576638,-7254.018232,766.095498
599.474443,666.185348,-7624.121203,766.095498
599.474771,222.061783,-9104.533087,995.924147
599.475098,0.000000,-9474.636058,1455.581446
599.475426,-666.185348,-9622.677246,1455.581446
599.475753,-888.247130,-10436.903782,1762.019645
599.476081,-2220.617826,-10658.965565,1072.533697
599.476408,-2590.720797,-9474.636058,229.828649
599.476736,-2368.659014,-7772.162391,0.000000
599.477064,-814.226536,-6587.832884,0.000000
599.477391,-518.144159,-6291.750507,0.000000
599.477719,0.000000,-6217.729913,76.609550
599.478046,-370.102971,-6439.791695,0.000000
599.478374,-1406.391290,-7105.977043,0.000000
599.478701,-1924.535449,-7846.182985,-306.438199
599.479029,-1480.411884,-8660.409521,76.609550
599.479357,-1480.411884,-8956.491898,842.705048
599.479684,-1184.329507,-9030.512492,1149.143247
599.480012,-1406.391290,-10436.903782,1302.362347
599.480339,-1998.556043,-10436.903782,919.314598
599.480667,-1850.514855,-9622.677246,842.705048
599.480994,-148.041188,-9252.574275,536.266849
599.481322,1036.288319,-8290.306550,1072.533697
599.481649,1554.432478,-8068.244768,612.876398
599.481977,1850.514855,-7846.182985,612.876398
599.482305,1036.288319,-8512.368333,842.705048
599.482632,592.164754,-8734.430116,536.266849
599.482960,740.205942,-9178.553681,689.485948
599.483287,1036.288319,-9474.636058,459.657299
599.483615,814.226536,-9770.718434,612.876398
599.483942,444.123565,-10362.883188,1072.533697
599.484270,-148.041188,-10362.883188,842.705048
599.484597,-444.123565,-10362.883188,1378.971896
599.484925,-1036.288319,-9696.697840,842.705048
599.485253,-222.061783,-10066.800811,459.657299
599.485580,-296.082377,-9474.636058,459.657299
599.485908,0.000000,-8808.450710,383.047749
599.486235,518.144159,-9622.677246,612.876398
599.486563,-592.164754,-9326.594869,153.219100
599.486890,-1776.494261,-9030.512492,-153.219100
599.487218,-1332.370696,-9252.574275,-153.219100
599.487545,-1184.329507,-9030.512492,-459.657299
599.487873,-1184.329507,-9474.636058,153.219100
599.488201,-740.205942,-9770.718434,76.609550
599.488528,-962.267725,-10214.842000,689.485948
599.488856,-1110.308913,-10658.965565,383.047749
599.489183,-1110.308913,-10436.903782,383.047749
599.489511,-444.123565,-11103.089130,766.095498
599.489838,222.061783,-10066.800811,1149.143247
599.490166,74.020594,-9548.656652,459.657299
599.490493,222.061783,-10066.800811,995.924147
599.490821,0.000000,-10288.862594,842.705048
599.491149,-592.164754,-9400.615463,306.438199
599.491476,0.000000,-9474.636058,536.266849
599.491804,148.041188,-8808.450710,1455.581446
599.492131,74.020594,-8808.450710,842.705048
599.492459,444.123565,-9400.615463,995.924147
599.492786,148.041188,-9400.615463,1072.533697
599.493114,-222.061783,-8956.491898,306.438199
599.493441,740.205942,-8956.491898,842.705048
599.493769,518.144159,-8808.450710,995.924147
599.494097,1110.308913,-8438.347739,1378.971896
599.494424,1110.308913,-8438.347739,1608.800546
599.494752,444.123565,-9104.533087,1302.362347
599.495079,-444.123565,-8882.471304,1149.143247
599.495407,-1110.308913,-8438.347739,612.876398
599.495734,-1628.453072,-8290.306550,0.000000
599.496062,-962.267725,-8216.285956,306.438199
599.496389,-296.082377,-7698.141797,536.266849
599.496717,-444.123565,-7550.100608,306.438199
599.497045,-666.185348,-8734.430116,1149.143247
599.497372,-1480.411884,-8290.306550,76.609550
599.497700,-592.164754,-8290.306550,536.266849
599.498027,-518.144159,-8142.265362,536.266849
599.498355,148.041188,-8438.347739,842.705048
599.498682,-148.041188,-8364.327145,995.924147
599.499010,-592.164754,-9548.656652,1378.971896
599.499337,-2294.638420,-9474.636058,459.657299
599.499665,-1924.535449,-9326.594869,153.219100
599.499993,-1554.432478,-9548.656652,0.000000
599.500320,-1184.329507,-8660.409521,76.609550
599.500648,0.000000,-8512.368333,-306.438199
599.500975,222.061783,-8882.471304,0.000000
599.501303,74.020594,-8438.347739,76.609550
599.501630,296.082377,-8290.306550,0.000000
599.501958,1332.370696,-8364.327145,689.485948
599.502285,2146.597232,-8734.430116,766.095498
599.502613,1406.391290,-8660.409521,612.876398
599.502941,1110.308913,-9548.656652,1149.143247
599.503268,-148.041188,-10658.965565,536.266849
599.503596,-1406.391290,-10436.903782,-153.219100
599.503923,-1406.391290,-10214.842000,-612.876398
599.504251,-296.082377,-10214.842000,0.000000
599.504578,-148.041188,-9104.533087,-306.438199
599.504906,740.205942,-9400.615463,229.828649
599.505234,370.102971,-9400.615463,689.485948
599.505561,0.000000,-8660.409521,0.000000
599.505889,814.226536,-7698.141797,0.000000
599.506216,1628.453072,-7624.121203,383.047749
599.506544,1776.494261,-8364.327145,1149.143247
599.506871,1110.308913,-8808.450710,1608.800546
599.507199,-444.123565,-9770.718434,1991.848295
599.507526,-1776.494261,-10955.047942,995.924147
599.507854,-3034.844362,-11251.130318,229.828649
599.508182,-3034.844362,-11177.109724,306.438199
599.508509,-1924.535449,-10807.006753,306.438199
599.508837,-1628.453072,-9622.677246,229.828649
599.509164,-518.144159,-9474.636058,229.828649
599.509492,0.000000,-9104.533087,842.705048
599.509819,444.123565,-7476.080014,383.047749
599.510147,814.226536,-7624.121203,536.266849
599.510474,1554.432478,-7772.162391,1608.800546
599.510802,814.226536,-7846.182985,1302.362347
599.511130,0.000000,-9178.553681,1838.629195
599.511457,-962.267725,-9696.697840,1685.410096
599.511785,-2368.659014,-10658.965565,1455.581446
599.512112,-3034.844362,-10807.006753,689.485948
599.512440,-2368.659014,-10066.800811,612.876398
599.512767,-1406.391290,-9326.594869,459.657299
599.513095,518.144159,-8290.306550,1225.752797
599.513422,1776.494261,-7698.141797,1302.362347
599.513750,2442.679609,-7698.141797,1838.629195
599.514078,2368.659014,-7105.977043,1915.238745
599.514405,2368.659014,-7179.997637,1915.238745
599.514733,2812.782580,-7994.224174,3140.991542
599.515060,1628.453072,-8586.388927,3447.429741
599.515388,1628.453072,-9770.718434,4519.963438
599.515715,0.000000,-10807.006753,3907.087040
599.516043,-1184.329507,-10362.883188,4213.525239
599.516370,-2368.659014,-11103.089130,3370.820191
599.516698,-2516.700203,-10658.965565,2987.772442
599.517026,-2590.720797,-9326.594869,2451.505594
599.517353,-2368.659014,-9030.512492,1991.848295
599.517681,-2220.617826,-7920.203579,1225.752797
599.518008,-1702.473667,-7550.100608,1302.362347
599.518336,-814.226536,-6069.688724,1072.533697
599.518663,370.102971,-5921.647536,1991.848295
599.518991,1776.494261,-6217.729913,2681.334243
599.519318,888.247130,-6957.935855,3370.820191
599.519646,-518.144159,-8808.450710,3140.991542
599.519974,-2738.761985,-10140.821405,2681.334243
599.520301,-4367.215058,-11251.130318,1915.238745
599.520629,-5921.647536,-12065.356855,1149.143247
599.520956,-4885.359217,-11547.212695,1455.581446
599.521284,-1776.494261,-10807.006753,1991.848295
599.521611,666.185348,-8734.430116,2298.286494
599.521939,1998.556043,-8290.306550,2604.724693
599.522266,3330.926739,-8216.285956,2298.286494
599.522594,2590.720797,-7772.162391,1532.190996
599.522922,2664.741391,-8216.285956,1685.410096
599.523249,3182.885551,-7920.203579,1991.848295
599.523577,4811.338623,-9030.512492,3753.867940
599.523904,4441.235652,-10362.883188,4979.620737
599.524232,3775.050304,-11917.315666,6281.983084
599.524559,2368.659014,-12139.377449,7048.078582
599.524887,-444.123565,-12213.398043,5515.887586
599.525214,-2812.782580,-13101.645173,4519.963438
599.525542,-3478.967927,-12583.501014,3524.039291
599.525870,-2664.741391,-10436.903782,3370.820191
599.526197,-1406.391290,-8660.409521,3217.601092
599.526525,-1406.391290,-7920.203579,2987.772442
599.526852,-1406.391290,-6809.894666,2451.505594
599.527180,-1554.432478,-5847.626942,2068.457845
599.527507,-2072.576638,-5847.626942,1149.143247
599.527835,-1850.514855,-6069.688724,1762.019645
599.528162,-1258.350101,-7031.956449,2451.505594
599.528490,-740.205942,-7846.182985,3524.039291
599.528818,-296.082377,-9178.553681,4826.401637
599.529145,-814.226536,-10658.965565,5439.278036
599.529473,-1850.514855,-10807.006753,5669.106685
599.529800,-2516.700203,-10658.965565,5362.668486
599.530128,-2738.761985,-10881.027347,4749.792088
599.530455,-2516.700203,-10288.862594,4366.744339
599.530783,-666.185348,-8734.430116,4060.306139
599.531110,1628.453072,-7105.977043,4979.620737
599.531438,2812.782580,-7254.018232,4366.744339
599.531766,2516.700203,-6883.915261,3753.867940
599.532093,2368.659014,-6809.894666,3370.820191
599.532421,2368.659014,-7179.997637,3140.991542
599.532748,2072.576638,-8586.388927,3753.867940
599.533076,1480.411884,-9030.512492,3370.820191
599.533403,1110.308913,-9104.533087,4673.182538
599.533731,2590.720797,-9474.636058,5669.106685
599.534059,1110.308913,-10510.924376,6511.811733
599.534386,-814.226536,-10807.006753,6052.154434
599.534714,-2590.720797,-11029.068536,4596.572988
599.535041,-3478.967927,-10658.965565,4136.915689
599.535369,-4071.132681,-9696.697840,2834.553343
599.535696,-3997.112087,-8808.450710,2298.286494
599.536024,-3330.926739,-7846.182985,1532.190996
599.536351,-1776.494261,-6809.894666,1608.800546
599.536679,-666.185348,-5847.626942,1915.238745
599.537007,-296.082377,-5699.585753,995.924147
599.537334,-1184.329507,-7179.997637,536.266849
599.537662,-3034.844362,-9178.553681,0.000000
599.537989,-3997.112087,-9770.718434,229.828649
599.538317,-3108.864956,-10066.800811,0.000000
599.538644,-1110.308913,-10214.842000,1149.143247
599.538972,740.205942,-10881.027347,2451.505594
599.539299,2368.659014,-11103.089130,3677.258390
599.539627,3923.091493,-9992.780217,4673.182538
599.539955,4737.318029,-9474.636058,5056.230287
599.540282,4515.256246,-10288.862594,5056.230287
599.540610,3034.844362,-11029.068536,4290.134789
599.540937,2738.761985,-11547.212695,4213.525239
599.541265,3108.864956,-10510.924376,3907.087040
599.541592,3849.070898,-9548.656652,4443.353888
599.541920,4811.338623,-9770.718434,5515.887586
599.542247,3923.091493,-10066.800811,4519.963438
599.542575,1554.432478,-10510.924376,4826.401637
599.542903,1628.453072,-9548.656652,3907.087040
599.543230,-370.102971,-9992.780217,3907.087040
599.543558,-2220.617826,-10436.903782,3753.867940
599.543885,-3478.967927,-11547.212695,2834.553343
599.544213,-6143.709319,-11547.212695,2911.162892
599.544540,-6365.771101,-10066.800811,2451.505594
599.544868,-5255.462188,-8364.327145,2145.067394
599.545195,-4145.153275,-6883.915261,2528.115143
599.545523,-3923.091493,-6587.832884,2374.896044
599.545851,-3923.091493,-6587.832884,1685.410096
599.546178,-4811.338623,-6365.771101,1378.971896
599.546506,-3034.844362,-6069.688724,1455.581446
599.546833,-1110.308913,-5921.647536,2757.943793
599.547161,1628.453072,-7179.997637,3753.867940
599.547488,2368.659014,-8438.347739,4596.572988
599.547816,1998.556043,-10066.800811,5132.839837
599.548143,814.226536,-10881.027347,5362.668486
599.548471,1036.288319,-11029.068536,5592.497135
599.548799,2220.617826,-11103.089130,5286.058936
599.549126,2960.823768,-11029.068536,4903.011187
599.549454,3182.885551,-11325.150913,4979.620737
599.549781,2220.617826,-11029.068536,4749.792088
599.550109,2294.638420,-9992.780217,4826.401637
599.550436,2294.638420,-9030.512492,3983.696590
599.550764,2812.782580,-8586.388927,4673.182538
599.551091,2886.803174,-7698.141797,3447.429741
599.551419,-370.102971,-8438.347739,4136.915689
599.551747,-1258.350101,-8068.244768,2987.772442
599.552074,-3701.029710,-8364.327145,2528.115143
599.552402,-4811.338623,-8586.388927,2451.505594
599.552729,-3701.029710,-8734.430116,2221.676944
599.553057,-2738.761985,-8512.368333,2911.162892
599.553384,-2072.576638,-7772.162391,2911.162892
599.553712,-1776.494261,-7254.018232,3753.867940
599.554039,-3182.885551,-7105.977043,2451.505594
599.554367,-2960.823768,-7328.038826,1302.362347
599.554695,-2664.741391,-7402.059420,919.314598
599.555022,-1776.494261,-7402.059420,689.485948
599.555350,888.247130,-7328.038826,1838.629195
599.555677,2294.638420,-7179.997637,3447.429741
599.556005,3404.947333,-8734.430116,4596.572988
599.556332,2960.823768,-10066.800811,4979.620737
599.556660,2072.576638,-11325.150913,4136.915689
599.556987,222.061783,-12361.439231,3370.820191
599.557315,-148.041188,-12583.501014,3447.429741
599.557643,0.000000,-12065.356855,3370.820191
599.557970,1850.514855,-11325.150913,4673.182538
599.558298,3478.967927,-10362.883188,5592.497135
599.558625,4071.132681,-10214.842000,5745.716235
599.558953,2516.700203,-9918.759623,4826.401637
599.559280,0.000000,-10214.842000,3907.087040
599.559608,-2590.720797,-9548.656652,1991.848295
599.559935,-5033.400406,-9400.615463,1532.190996
599.560263,-3182.885551,-8956.491898,1072.533697
599.560591,-1332.370696,-7698.141797,1762.019645
599.560918,222.061783,-6661.853478,3447.429741
599.561246,888.247130,-7031.956449,4290.134789
599.561573,74.020594,-7994.224174,4443.353888
599.561901,-1702.473667,-8734.430116,3370.820191
599.562228,-3404.947333,-9474.636058,1991.848295
599.562556,-4219.173869,-10436.903782,1608.800546
599.562883,-3923.091493,-10362.883188,1302.362347
599.563211,-2516.700203,-9844.739029,2374.896044
599.563539,-370.102971,-9178.553681,2987.772442
599.563866,1406.391290,-8734.430116,3830.477490
599.564194,2220.617826,-8216.285956,3907.087040
599.564521,2072.576638,-8660.409521,3140.991542
599.564849,1036.288319,-9474.636058,2681.334243
599.565176,296.082377,-10066.800811,2451.505594
599.565504,222.061783,-10288.862594,2604.724693
599.565831,666.185348,-9622.677246,3600.648841
599.566159,1258.350101,-9992.780217,3907.087040
599.566486,740.205942,-9844.739029,4519.963438
599.566814,296.082377,-9548.656652,3983.696590
599.567142,0.000000,-9400.615463,3677.258390
599.567469,0.000000,-8364.327145,2987.772442
599.567797,222.061783,-8142.265362,3140.991542
599.568124,666.185348,-7920.203579,2834.553343
599.568452,518.144159,-7624.121203,3524.039291
599.568779,1998.556043,-7105.977043,3830.477490
599.569107,1850.514855,-7476.080014,4519.963438
599.569434,1184.329507,-7920.203579,4519.963438
599.569762,444.123565,-8512.368333,3907.087040
599.570090,-740.205942,-9252.574275,3983.696590
599.570417,-1480.411884,-9474.636058,3753.867940
599.570745,-1406.391290,-9474.636058,3677.258390
599.571072,-1480.411884,-9474.636058,4213.525239
599.571400,-1332.370696,-9548.656652,3370.820191
599.571727,-740.205942,-9400.615463,3447.429741
599.572055,-1036.288319,-8660.409521,2987.772442
599.572382,-1332.370696,-8290.306550,2528.115143
599.572710,-1406.391290,-8216.285956,2834.553343
599.573038,-1554.432478,-8216.285956,2451.505594
599.573365,-1332.370696,-8142.265362,2528.115143
599.573693,-1036.288319,-8068.244768,2911.162892
599.574020,-444.123565,-8142.265362,3294.210641
599.574348,0.000000,-8882.471304,3064.381992
599.574675,148.041188,-9104.533087,3907.087040
599.575003,0.000000,-9770.718434,3600.648841
599.575330,-296.082377,-10140.821405,3524.039291
599.575658,-814.226536,-10214.842000,3524.039291
599.575986,-962.267725,-9844.739029,3447.429741
599.576313,-222.061783,-9548.656652,3753.867940
599.576641,518.144159,-9474.636058,2987.772442
599.576968,1184.329507,-9104.533087,2604.724693
599.577296,814.226536,-9178.553681,2834.553343
599.577623,1110.308913,-9548.656652,2604.724693
599.577951,296.082377,-9622.677246,1608.800546
599.578278,-592.164754,-9770.718434,2145.067394
599.578606,-148.041188,-10288.862594,2068.457845
599.578934,-222.061783,-9992.780217,1838.629195
599.579261,-592.164754,-9992.780217,1838.629195
599.579589,0.000000,-9770.718434,1608.800546
599.579916,-1036.288319,-10288.862594,1915.238745
599.580244,-1554.432478,-9770.718434,1378.971896
599.580571,-1332.370696,-9474.636058,1455.581446
599.580899,-1332.370696,-9104.533087,1149.143247
599.581226,-444.123565,-8512.368333,1302.362347
599.581554,370.102971,-7994.224174,1072.533697
599.581882,814.226536,-7550.100608,1225.752797
599.582209,888.247130,-7846.182985,1455.581446
599.582537,370.102971,-8586.388927,995.924147
599.582864,-222.061783,-8956.491898,1302.362347
599.583192,-592.164754,-8956.491898,995.924147
599.583519,74.020594,-9918.759623,1455.581446
599.583847,444.123565,-10362.883188,1378.971896
599.584174,888.247130,-10362.883188,1838.629195
599.584502,1258.350101,-9992.780217,1915.238745
599.584829,1332.370696,-9622.677246,1915.238745
599.585157,814.226536,-9622.677246,2221.676944
599.585485,74.020594,-9474.636058,1762.019645
599.585812,-814.226536,-9252.574275,1149.143247
599.586140,-814.226536,-9104.533087,842.705048
599.586467,-888.247130,-8290.306550,1532.190996
599.586795,-370.102971,-8512.368333,1302.362347
599.587122,-222.061783,-7994.224174,919.314598
599.587450,-296.082377,-7772.162391,919.314598
599.587777,-592.164754,-7920.203579,689.485948
599.588105,-814.226536,-7402.059420,459.657299
599.588433,-1480.411884,-7550.100608,383.047749
599.588760,-962.267725,-8068.244768,229.828649
599.589088,-740.205942,-8068.244768,689.485948
599.589415,-962.267725,-8512.368333,1072.533697
599.589743,-518.144159,-8660.409521,919.314598
599.590070,-592.164754,-8290.306550,995.924147
599.590398,-370.102971,-8956.491898,1072.533697
599.590725,-222.061783,-9104.533087,842.705048
599.591053,0.000000,-8956.491898,536.266849
599.591381,0.000000,-8956.491898,459.657299
599.591708,0.000000,-8956.491898,1532.190996
599.592036,296.082377,-9474.636058,995.924147
599.592363,0.000000,-9474.636058,1302.362347
599.592691,0.000000,-9844.739029,1302.362347
599.593018,-296.082377,-9844.739029,1225.752797
599.593346,0.000000,-9918.759623,995.924147
599.593673,-222.061783,-9474.636058,1225.752797
599.594001,-370.102971,-9252.574275,919.314598
599.594329,-222.061783,-9178.553681,689.485948
599.594656,-222.061783,-8882.471304,842.705048
599.594984,-370.102971,-8734.430116,995.924147
599.595311,-370.102971,-7994.224174,1072.533697
599.595639,-814.226536,-8586.388927,766.095498
599.595966,-1184.329507,-8734.430116,459.657299
599.596294,-888.247130,-8956.491898,536.266849
599.596621,-1036.288319,-9178.553681,536.266849
599.596949,-814.226536,-9030.512492,689.485948
599.597277,-592.164754,-9474.636058,689.485948
599.597604,-296.082377,-9474.636058,459.657299
599.597932,0.000000,-9770.718434,383.047749
599.598259,74.020594,-9696.697840,536.266849
599.598587,-148.041188,-9474.636058,612.876398
599.598914,0.000000,-9992.780217,76.609550
599.599242,-296.082377,-10140.821405,383.047749
599.599569,0.000000,-10214.842000,536.266849
599.599897,0.000000,-9992.780217,459.657299
599.600225,370.102971,-9770.718434,1072.533697
599.600552,518.144159,-9696.697840,612.876398
599.600880,222.061783,-9474.636058,306.438199
599.601207,222.061783,-9400.615463,536.266849
599.601535,74.020594,-8956.491898,612.876398
599.601862,0.000000,-9104.533087,459.657299
599.602190,0.000000,-9104.533087,459.657299
599.602517,-296.082377,-9252.574275,766.095498
599.602845,0.000000,-9178.553681,612.876398
599.603172,0.000000,-8956.491898,459.657299
599.603500,148.041188,-8660.409521,459.657299
599.603828,0.000000,-8438.347739,306.438199
599.604155,0.000000,-8438.347739,766.095498
599.604483,0.000000,-8586.388927,153.219100
599.604810,-296.082377,-8364.327145,306.438199
599.605138,-518.144159,-8586.388927,306.438199
599.605465,-1036.288319,-8808.450710,689.485948
599.605793,-592.164754,-9326.594869,459.657299
599.606120,-962.267725,-9030.512492,383.047749
599.606448,-962.267725,-8734.430116,459.657299
599.606776,-666.185348,-8882.471304,536.266849
599.607103,0.000000,-8734.430116,306.438199
599.607431,-296.082377,-8586.388927,612.876398
599.607758,-592.164754,-8290.306550,383.047749
599.608086,-666.185348,-8364.327145,383.047749
599.608413,-740.205942,-8660.409521,459.657299
599.608741,-1036.288319,-8882.471304,689.485948
599.609068,-666.185348,-9030.512492,536.266849
599.609396,-888.247130,-8956.491898,766.095498
599.609724,-444.123565,-9178.553681,612.876398
599.610051,-592.164754,-8808.450710,536.266849
599.610379,-592.164754,-8586.388927,536.266849
599.610706,222.061783,-8734.430116,612.876398
599.611034,-370.102971,-8882.471304,383.047749
599.611361,-296.082377,-9474.636058,766.095498
599.611689,-370.102971,-9474.636058,766.095498
599.612016,-370.102971,-9474.636058,689.485948
599.612344,-74.020594,-9326.594869,766.095498
599.612672,0.000000,-9474.636058,383.047749
599.612999,-148.041188,-9400.615463,383.047749
599.613327,74.020594,-9400.615463,536.266849
599.613654,0.000000,-9252.574275,229.828649
599.613982,-222.061783,-9326.594869,383.047749
599.614309,-518.144159,-9474.636058,766.095498
599.614637,-444.123565,-9474.636058,383.047749
599.614964,-666.185348,-9474.636058,689.485948
599.615292,-592.164754,-9400.615463,459.657299
599.615620,-296.082377,-9400.615463,459.657299
599.615947,296.082377,-8956.491898,689.485948
599.616275,-148.041188,-8660.409521,153.219100
599.616602,0.000000,-8882.471304,383.047749
599.616930,-296.082377,-9252.574275,459.657299
599.617257,-296.082377,-9326.594869,459.657299
599.617585,-888.247130,-9178.553681,766.095498
599.617912,-518.144159,-9696.697840,306.438199
599.618240,-296.082377,-9918.759623,766.095498
599.618568,-148.041188,-9770.718434,919.314598
599.618895,-148.041188,-9104.533087,689.485948
599.619223,-296.082377,-8586.388927,459.657299
599.619550,-740.205942,-8364.327145,536.266849
599.619878,-814.226536,-8882.471304,612.876398
599.620205,-1258.350101,-8882.471304,306.438199
599.620533,-1110.308913,-8734.430116,919.314598
599.620860,-888.247130,-8734.430116,1149.143247
599.621188,-592.164754,-9104.533087,842.705048
599.621515,0.000000,-8734.430116,842.705048
599.621843,518.144159,-8290.306550,612.876398
599.622171,518.144159,-8142.265362,459.657299
599.622498,296.082377,-8364.327145,459.657299
599.622826,296.082377,-8882.471304,459.657299
599.623153,-296.082377,-9326.594869,766.095498
599.623481,-444.123565,-9844.739029,1072.533697
599.623808,-370.102971,-10288.862594,995.924147
599.624136,-296.082377,-9918.759623,689.485948
599.624463,740.205942,-9770.718434,536.266849
599.624791,814.226536,-8290.306550,306.438199
599.625119,962.267725,-8068.244768,153.219100
599.625446,666.185348,-7920.203579,0.000000
599.625774,296.082377,-8068.244768,-153.219100
599.626101,0.000000,-8512.368333,0.000000
599.626429,-666.185348,-8586.388927,229.828649
599.626756,-814.226536,-9400.615463,536.266849
599.627084,-740.205942,-9622.677246,612.876398
599.627411,-444.123565,-9548.656652,536.266849
599.627739,-148.041188,-8956.491898,306.438199
599.628067,74.020594,-8586.388927,536.266849
599.628394,370.102971,-8142.265362,0.000000
599.628722,74.020594,-8290.306550,229.828649
599.629049,-148.041188,-8438.347739,383.047749
599.629377,-296.082377,-9178.553681,306.438199
599.629704,-444.123565,-9326.594869,383.047749
599.630032,-592.164754,-9918.759623,612.876398
599.630359,-888.247130,-9770.718434,842.705048
599.630687,-444.123565,-9474.636058,536.266849
599.631015,74.020594,-9178.553681,383.047749
599.631342,888.247130,-8734.430116,612.876398
599.631670,370.102971,-8882.471304,536.266849
599.631997,370.102971,-9252.574275,536.266849
599.632325,0.000000,-9622.677246,459.657299
599.632652,-148.041188,-10140.821405,995.924147
599.632980,0.000000,-10362.883188,995.924147
599.633307,-666.185348,-9622.677246,1149.143247
599.633635,-518.144159,-9770.718434,612.876398
599.633963,-296.082377,-9474.636058,689.485948
599.634290,-296.082377,-8808.450710,459.657299
599.634618,-296.082377,-8734.430116,306.438199
599.634945,-666.185348,-8660.409521,612.876398
599.635273,-888.247130,-9178.553681,306.438199
599.635600,-888.247130,-9474.636058,919.314598
599.635928,-666.185348,-9474.636058,919.314598
599.636255,-444.123565,-9474.636058,689.485948
599.636583,-296.082377,-9474.636058,689.485948
599.636910,-518.144159,-9326.594869,536.266849
599.637238,-222.061783,-9252.574275,459.657299
599.637566,0.000000,-9104.533087,383.047749
599.637893,-148.041188,-9400.615463,689.485948
599.638221,-296.082377,-9770.718434,459.657299
599.638548,-740.205942,-9252.574275,1149.143247
599.638876,-666.185348,-9770.718434,1072.533697
599.639203,-814.226536,-9474.636058,612.876398
599.639531,-592.164754,-9178.553681,536.266849
599.639858,-814.226536,-8808.450710,536.266849
599.640186,-814.226536,-8216.285956,919.314598
599.640514,-518.144159,-8438.347739,306.438199
599.640841,-592.164754,-8216.285956,536.266849
599.641169,-814.226536,-8438.347739,612.876398
599.641496,-666.185348,-8586.388927,766.095498
599.641824,-518.144159,-8586.388927,1072.533697
599.642151,-888.247130,-8808.450710,1225.752797
599.642479,-666.185348,-8808.450710,689.485948
599.642806,-518.144159,-8734.430116,842.705048
599.643134,-444.123565,-8734.430116,689.485948
599.643462,0.000000,-8660.409521,842.705048
599.643789,0.000000,-8586.388927,612.876398
599.644117,-444.123565,-8956.491898,536.266849
599.644444,-518.144159,-8734.430116,459.657299
599.644772,-444.123565,-8734.430116,459.657299
599.645099,-370.102971,-8660.409521,842.705048
599.645427,0.000000,-8882.471304,306.438199
599.645754,0.000000,-8734.430116,76.609550
599.646082,74.020594,-8586.388927,153.219100
599.646410,74.020594,-8660.409521,76.609550
599.646737,296.082377,-8734.430116,76.609550
599.647065,222.061783,-8956.491898,689.485948
599.647392,0.000000,-9104.533087,689.485948
599.647720,0.000000,-9326.594869,689.485948
599.648047,0.000000,-9400.615463,459.657299
599.648375,0.000000,-9252.574275,612.876398
599.648702,0.000000,-9104.533087,842.705048
599.649030,-148.041188,-8586.388927,153.219100
599.649358,0.000000,-8734.430116,0.000000
599.649685,0.000000,-8586.388927,229.828649
599.650013,-444.123565,-8882.471304,383.047749
599.650340,-296.082377,-8956.491898,612.876398
599.650668,-296.082377,-9326.594869,229.828649
599.650995,-148.041188,-9622.677246,536.266849
599.651323,-370.102971,-9474.636058,459.657299
599.651650,0.000000,-9548.656652,536.266849
599.651978,-296.082377,-9400.615463,459.657299
599.652306,0.000000,-9252.574275,1072.533697
599.652633,0.000000,-9252.574275,766.095498
599.652961,-370.102971,-9474.636058,459.657299
599.653288,-444.123565,-9326.594869,689.485948
599.653616,-222.061783,-9474.636058,995.924147
599.653943,-592.164754,-9178.553681,1378.971896
599.654271,0.000000,-9400.615463,766.095498
599.654598,0.000000,-9474.636058,689.485948
599.654925,74.020594,-9400.615463,459.657299
599.655252,222.061783,-9400.615463,536.266849
599.655580,444.123565,-9548.656652,689.485948
599.655907,74.020594,-9474.636058,612.876398
599.656235,-148.041188,-9770.718434,612.876398
599.656562,0.000000,-9918.759623,689.485948
599.656890,-148.041188,-9548.656652,612.876398
599.657217,0.000000,-8808.450710,766.095498
599.657545,74.020594,-9030.512492,536.266849
599.657872,0.000000,-9178.553681,229.828649
599.658200,148.041188,-9030.512492,229.828649
599.658527,74.020594,-8808.450710,0.000000
599.658855,0.000000,-8512.368333,459.657299
599.659182,0.000000,-8882.471304,383.047749
599.659510,-222.061783,-9474.636058,689.485948
599.659837,-370.102971,-9548.656652,766.095498
599.660165,0.000000,-9474.636058,842.705048
599.660492,0.000000,-9400.615463,612.876398
599.660820,444.123565,-9326.594869,766.095498
599.661147,0.000000,-9030.512492,536.266849
599.661475,0.000000,-8882.471304,383.047749
599.661802,0.000000,-8808.450710,306.438199
599.662130,-222.061783,-9030.512492,459.657299
599.662457,-518.144159,-8734.430116,919.314598
599.662785,-592.164754,-8734.430116,383.047749
599.663112,-444.123565,-9030.512492,383.047749
599.663440,-444.123565,-9104.533087,459.657299
599.663767,-370.102971,-9030.512492,459.657299
599.664095,-370.102971,-9030.512492,919.314598
599.664422,0.000000,-8956.491898,153.219100
599.664750,-222.061783,-9104.533087,612.876398
599.665077,-148.041188,-9326.594869,459.657299
599.665405,-444.123565,-9326.594869,536.266849
599.665732,-296.082377,-9252.574275,919.314598
599.666060,0.000000,-9104.533087,766.095498
599.666387,-444.123565,-9178.553681,612.876398
599.666715,-222.061783,-9104.533087,383.047749
599.667042,-222.061783,-8882.471304,383.047749
599.667370,-444.123565,-8956.491898,383.047749
599.667697,-296.082377,-9178.553681,689.485948
599.668025,-666.185348,-9178.553681,536.266849
599.668352,-666.185348,-9178.553681,689.485948
599.668680,-518.144159,-9252.574275,459.657299
599.669007,-296.082377,-9326.594869,612.876398
599.669335,-444.123565,-9178.553681,689.485948
599.669662,-296.082377,-8882.471304,1072.533697
599.669990,-518.144159,-8882.471304,612.876398
599.670317,-592.164754,-9030.512492,536.266849
599.670645,-592.164754,-8956.491898,612.876398
599.670972,-666.185348,-8660.409521,689.485948
599.671300,-666.185348,-9030.512492,306.438199
599.671627,-666.185348,-9178.553681,689.485948
599.671955,-814.226536,-9030.512492,766.095498
599.672282,-740.205942,-8882.471304,536.266849
599.672610,-962.267725,-9178.553681,995.924147
599.672937,-962.267725,-9104.533087,766.095498
599.673265,-666.185348,-9104.533087,536.266849
599.673592,-592.164754,-9030.512492,995.924147
599.673920,-296.082377,-9030.512492,612.876398
599.674247,-296.082377,-8808.450710,612.876398
599.674575,-222.061783,-8586.388927,536.266849
599.674902,-222.061783,-8660.409521,689.485948
599.675230,-444.123565,-8734.430116,612.876398
599.675557,-370.102971,-8734.430116,459.657299
599.675885,-370.102971,-9030.512492,459.657299
599.676212,-592.164754,-8808.450710,229.828649
599.676540,-888.247130,-8882.471304,612.876398
599.676867,-296.082377,-9326.594869,612.876398
599.677195,-148.041188,-9252.574275,459.657299
599.677522,0.000000,-8956.491898,383.047749
599.677850,0.000000,-8808.450710,536.266849
599.678177,148.041188,-8734.430116,0.000000
599.678505,0.000000,-8882.471304,229.828649
599.678832,0.000000,-8882.471304,383.047749
599.679160,74.020594,-8956.491898,229.828649
599.679487,74.020594,-8882.471304,766.095498
599.679815,148.041188,-8808.450710,306.438199
599.680142,-222.061783,-9252.574275,383.047749
599.680470,0.000000,-9252.574275,306.438199
599.680797,0.000000,-9030.512492,229.828649
599.681125,0.000000,-9030.512492,383.047749
599.681452,222.061783,-9400.615463,842.705048
599.681780,0.000000,-9030.512492,383.047749
599.682107,0.000000,-9178.553681,612.876398
599.682435,-296.082377,-9252.574275,536.266849
599.682762,-296.082377,-9400.615463,612.876398
599.683090,74.020594,-9252.574275,306.438199
599.683417,-296.082377,-8882.471304,306.438199
599.683745,0.000000,-9030.512492,459.657299
599.684072,0.000000,-9030.512492,459.657299
599.684400,-222.061783,-9104.533087,612.876398
599.684728,0.000000,-9178.553681,306.438199
599.685055,-370.102971,-9326.594869,842.705048
599.685383,-370.102971,-9400.615463,612.876398
599.685710,-148.041188,-9474.636058,459.657299
599.686038,-222.061783,-9326.594869,689.485948
599.686365,-74.020594,-9178.553681,842.705048
599.686693,-148.041188,-8956.491898,842.705048
599.687020,-370.102971,-9104.533087,536.266849
599.687348,-222.061783,-9178.553681,383.047749
599.687675,0.000000,-9252.574275,536.266849
599.688003,0.000000,-9474.636058,689.485948
599.688330,-296.082377,-9400.615463,459.657299
599.688658,-296.082377,-9548.656652,459.657299
599.688985,-148.041188,-9844.739029,689.485948
599.689313,-296.082377,-9770.718434,689.485948
599.689640,0.000000,-9918.759623,689.485948
599.689968,222.061783,-9622.677246,536.266849
599.690295,148.041188,-9474.636058,689.485948
599.690623,74.020594,-9474.636058,459.657299
599.690950,0.000000,-9400.615463,536.266849
599.691278,-148.041188,-9178.553681,536.266849
599.691605,-296.082377,-8660.409521,919.314598
599.691933,-296.082377,-8956.491898,383.047749
599.692260,0.000000,-9178.553681,383.047749
599.692588,-444.123565,-9178.553681,689.485948
599.692915,-518.144159,-9252.574275,612.876398
599.693243,-592.164754,-9326.594869,612.876398
599.693570,-444.123565,-9104.533087,536.266849
599.693898,-444.123565,-9104.533087,766.095498
599.694225,-592.164754,-9178.553681,689.485948
599.694553,-444.123565,-9178.553681,689.485948
599.694880,-592.164754,-8882.471304,612.876398
599.695208,0.000000,-8956.491898,842.705048
599.695535,-666.185348,-8808.450710,612.876398
599.695863,-518.144159,-8734.430116,383.047749
599.696190,-370.102971,-8734.430116,689.485948
599.696518,-296.082377,-8882.471304,612.876398
599.696845,-370.102971,-8808.450710,1225.752797
599.697173,-296.082377,-8808.450710,689.485948
599.697500,-592.164754,-9030.512492,689.485948
599.697828,-592.164754,-8956.491898,612.876398
599.698155,-592.164754,-8956.491898,766.095498
599.698483,-444.123565,-8512.368333,995.924147
599.698810,-518.144159,-8734.430116,995.924147
599.699138,-518.144159,-8660.409521,766.095498
599.699465,-296.082377,-8734.430116,766.095498
599.699793,-444.123565,-8586.388927,536.266849
599.700120,-444.123565,-8660.409521,459.657299
599.700448,-148.041188,-8438.347739,0.000000
599.700775,-518.144159,-8808.450710,383.047749
599.701103,-370.102971,-8956.491898,229.828649
599.701430,-370.102971,-9030.512492,383.047749
599.701758,-296.082377,-9326.594869,229.828649
599.702085,-444.123565,-9252.574275,383.047749
599.702413,-518.144159,-9104.533087,229.828649
599.702740,-370.102971,-9178.553681,306.438199
599.703068,-148.041188,-9030.512492,459.657299
599.703395,-222.061783,-8956.491898,229.828649
599.703723,0.000000,-8586.388927,229.828649
599.704050,-222.061783,-8660.409521,612.876398
599.704378,-222.061783,-8808.450710,229.828649
599.704705,-222.061783,-9030.512492,459.657299
599.705033,-222.061783,-8956.491898,306.438199
599.705360,-296.082377,-8956.491898,459.657299
599.705688,-444.123565,-8660.409521,612.876398
599.706015,-444.123565,-9178.553681,612.876398
599.706343,-296.082377,-9252.574275,459.657299
599.706670,-370.102971,-9104.533087,536.266849
599.706998,-148.041188,-9104.533087,459.657299
599.707325,-666.185348,-8808.450710,0.000000
599.707653,-296.082377,-9178.553681,842.705048
599.707980,-148.041188,-9252.574275,612.876398
599.708308,-222.061783,-8882.471304,536.266849
599.708635,-148.041188,-8956.491898,689.485948
599.708963,0.000000,-8956.491898,1149.143247
599.709290,-592.164754,-8956.491898,842.705048
599.709618,-518.144159,-9104.533087,689.485948
599.709945,-740.205942,-9326.594869,612.876398
599.710273,-370.102971,-9474.636058,995.924147
599.710600,-222.061783,-9548.656652,1225.752797
599.710928,0.000000,-9104.533087,612.876398
599.711255,-296.082377,-9326.594869,1072.533697
599.711583,0.000000,-9326.594869,842.705048
599.711910,0.000000,-9178.553681,919.314598
599.712238,0.000000,-8734.430116,842.705048
599.712565,296.082377,-8808.450710,1149.143247
599.712893,0.000000,-9030.512492,919.314598
599.713220,-222.061783,-9252.574275,689.485948
599.713548,-296.082377,-9326.594869,842.705048
599.713875,0.000000,-9474.636058,919.314598
599.714203,0.000000,-9252.574275,919.314598
599.714530,0.000000,-9622.677246,766.095498
599.714858,0.000000,-9548.656652,842.705048
599.715185,0.000000,-9622.677246,919.314598
599.715513,0.000000,-9400.615463,689.485948
599.715840,74.020594,-9474.636058,-153.219100
599.716168,0.000000,-9030.512492,153.219100
599.716495,74.020594,-9252.574275,459.657299
599.716823,0.000000,-9252.574275,383.047749
599.717150,0.000000,-9326.594869,383.047749
599.717478,0.000000,-9326.594869,689.485948
599.717805,0.000000,-9252.574275,459.657299
599.718133,-296.082377,-9326.594869,306.438199
599.718461,-222.061783,-9474.636058,536.266849
599.718788,-370.102971,-9400.615463,459.657299
599.719116,0.000000,-9030.512492,536.266849
599.719443,0.000000,-9178.553681,536.266849
599.719771,0.000000,-8956.491898,459.657299
599.720098,0.000000,-9030.512492,536.266849
599.720426,-296.082377,-9178.553681,612.876398
599.720753,0.000000,-9252.574275,383.047749
599.721081,0.000000,-8660.409521,689.485948
599.721408,-296.082377,-9030.512492,383.047749
599.721736,-296.082377,-9326.594869,536.266849
599.722063,-296.082377,-9400.615463,842.705048
599.722391,-370.102971,-9252.574275,383.047749
599.722718,-370.102971,-8956.491898,1072.533697
599.723046,-296.082377,-8956.491898,689.485948
599.723373,-518.144159,-8882.471304,689.485948
599.723701,-518.144159,-8882.471304,383.047749
599.724028,-444.123565,-8808.450710,536.266849
599.724356,-666.185348,-8660.409521,536.266849
599.724683,-148.041188,-8512.368333,919.314598
599.725011,-370.102971,-8808.450710,229.828649
599.725338,-518.144159,-8586.388927,459.657299
599.725666,-592.164754,-8586.388927,459.657299
599.725993,-296.082377,-8734.430116,306.438199
599.726321,-222.061783,-8956.491898,459.657299
599.726648,-518.144159,-8882.471304,383.047749
599.726976,-444.123565,-8956.491898,536.266849
599.727303,-592.164754,-8660.409521,459.657299
599.727631,-444.123565,-8956.491898,459.657299
599.727958,-296.082377,-8364.327145,536.266849
599.728286,-592.164754,-8660.409521,459.657299
599.728613,-148.041188,-8512.368333,459.657299
599.728941,0.000000,-8586.388927,76.609550
599.729268,-296.082377,-8438.347739,383.047749
599.729596,-148.041188,-8364.327145,612.876398
599.729923,-296.082377,-8586.388927,459.657299
599.730251,-518.144159,-9104.533087,536.266849
599.730578,-666.185348,-9400.615463,536.266849
599.730906,-740.205942,-9400.615463,842.705048
599.731233,-592.164754,-8882.471304,842.705048
599.731561,-296.082377,-9178.553681,766.095498
599.731888,-444.123565,-9474.636058,612.876398
599.732216,-444.123565,-9178.553681,766.095498
599.732543,-370.102971,-9178.553681,536.266849
599.732871,-222.061783,-8882.471304,383.047749
599.733198,0.000000,-8586.388927,536.266849
599.733526,0.000000,-8882.471304,459.657299
599.733853,-148.041188,-8808.450710,536.266849
599.734181,-296.082377,-8882.471304,536.266849
599.734508,-370.102971,-9104.533087,689.485948
599.734836,-592.164754,-9474.636058,1225.752797
599.735163,-592.164754,-9400.615463,766.095498
599.735491,-444.123565,-9548.656652,919.314598
599.735818,-296.082377,-9474.636058,842.705048
599.736146,-370.102971,-9326.594869,689.485948
599.736473,0.000000,-9474.636058,766.095498
599.736801,-370.102971,-9104.533087,842.705048
599.737128,-222.061783,-9178.553681,612.876398
599.737456,-296.082377,-8808.450710,459.657299
599.737783,-222.061783,-9104.533087,536.266849
599.738111,0.000000,-9474.636058,383.047749
599.738438,-444.123565,-9252.574275,612.876398
599.738766,0.000000,-9474.636058,536.266849
599.739093,-222.061783,-9178.553681,383.047749
599.739421,-296.082377,-9474.636058,612.876398
599.739748,0.000000,-9622.677246,536.266849
599.740076,148.041188,-9400.615463,766.095498
599.740403,-296.082377,-9474.636058,612.876398
599.740731,-148.041188,-9252.574275,383.047749
599.741058,-296.082377,-9178.553681,76.609550
599.741386,-296.082377,-8882.471304,612.876398
599.741713,-222.061783,-8364.327145,306.438199
599.742041,0.000000,-8882.471304,0.000000
599.742368,-148.041188,-8956.491898,383.047749
599.742696,-148.041188,-8956.491898,229.828649
599.743023,-296.082377,-9030.512492,306.438199
599.743351,148.041188,-8882.471304,306.438199
599.743678,-296.082377,-9326.594869,689.485948
599.744006,-148.041188,-9474.636058,612.876398
599.744333,-222.061783,-9474.636058,612.876398
599.744661,0.000000,-9548.656652,536.266849
599.744988,0.000000,-9252.574275,306.438199
599.745316,296.082377,-9104.533087,153.219100
599.745643,0.000000,-8808.450710,306.438199
599.745971,0.000000,-8956.491898,459.657299
599.746298,0.000000,-9104.533087,459.657299
599.746626,-148.041188,-9178.553681,459.657299
599.746953,0.000000,-9030.512492,153.219100
599.747281,-222.061783,-9326.594869,536.266849
599.747608,-222.061783,-9474.636058,459.657299
599.747936,-222.061783,-9474.636058,689.485948
599.748263,-296.082377,-9326.594869,689.485948
599.748591,0.000000,-8734.430116,689.485948
599.748918,-148.041188,-8660.409521,459.657299
599.749246,0.000000,-8882.471304,306.438199
599.749573,0.000000,-8586.388927,229.828649
599.749901,0.000000,-8956.491898,229.828649
599.750228,0.000000,-8808.450710,306.438199
599.750556,0.000000,-8956.491898,689.485948
599.750883,-518.144159,-8956.491898,459.657299
599.751211,-444.123565,-9030.512492,536.266849
599.751538,-592.164754,-9400.615463,689.485948
599.751866,-592.164754,-9030.512492,766.095498
599.752194,-148.041188,-9474.636058,1225.752797
599.752521,-296.082377,-9474.636058,995.924147
599.752849,-592.164754,-9252.574275,689.485948
599.753176,-592.164754,-9252.574275,689.485948
599.753504,-814.226536,-9252.574275,612.876398
599.753831,-444.123565,-9030.512492,689.485948
599.754159,-740.205942,-8808.450710,536.266849
599.754486,-518.144159,-8734.430116,459.657299
599.754814,-444.123565,-8882.471304,689.485948
599.755141,-296.082377,-9178.553681,383.047749
599.755469,-296.082377,-8882.471304,229.828649
599.755796,-444.123565,-9178.553681,536.266849
599.756124,-740.205942,-9400.615463,766.095498
599.756451,-592.164754,-9252.574275,689.485948
599.756779,-370.102971,-9178.553681,842.705048
599.757106,-148.041188,-8808.450710,689.485948
599.757434,0.000000,-8882.471304,229.828649
599.757761,-296.082377,-8586.388927,459.657299
599.758089,-148.041188,-8734.430116,459.657299
599.758416,-148.041188,-8660.409521,383.047749
599.758744,-296.082377,-8882.471304,459.657299
599.759072,0.000000,-8808.450710,383.047749
599.759399,-444.123565,-9104.533087,612.876398
599.759727,-370.102971,-9326.594869,842.705048
599.760054,-444.123565,-9326.594869,766.095498
599.760382,0.000000,-9326.594869,612.876398
599.760709,0.000000,-8956.491898,1072.533697
599.761037,0.000000,-8956.491898,383.047749
599.761364,-370.102971,-8956.491898,612.876398
599.761692,-296.082377,-8734.430116,536.266849
599.762019,-222.061783,-8734.430116,459.657299
599.762347,-148.041188,-8290.306550,995.924147
599.762674,-592.164754,-8438.347739,306.438199
599.763002,-518.144159,-8882.471304,459.657299
599.763329,-814.226536,-9104.533087,766.095498
599.763657,-814.226536,-9326.594869,536.266849
599.763984,-444.123565,-9030.512492,612.876398
599.764312,0.000000,-9474.636058,536.266849
599.764639,-222.061783,-9326.594869,766.095498
599.764967,-370.102971,-9474.636058,842.705048
599.765294,-222.061783,-9326.594869,612.876398
599.765622,-518.144159,-9252.574275,612.876398
599.765950,0.000000,-9326.594869,459.657299
599.766277,-370.102971,-9030.512492,383.047749
599.766605,0.000000,-8956.491898,76.609550
599.766932,148.041188,-9252.574275,383.047749
599.767260,296.082377,-9030.512492,459.657299
599.767587,-222.061783,-8734.430116,842.705048
599.767915,-370.102971,-9104.533087,689.485948
599.768242,0.000000,-9474.636058,383.047749
599.768570,0.000000,-9474.636058,306.438199
599.768897,0.000000,-9474.636058,459.657299
599.769225,-148.041188,-9030.512492,1378.971896
599.769552,296.082377,-9326.594869,153.219100
599.769880,-148.041188,-9474.636058,229.828649
599.770207,0.000000,-9400.615463,229.828649
599.770535,0.000000,-9104.533087,153.219100
599.770862,0.000000,-9178.553681,766.095498
599.771190,0.000000,-8882.471304,153.219100
599.771517,-222.061783,-9252.574275,459.657299
599.771845,0.000000,-9474.636058,229.828649
599.772173,-148.041188,-9696.697840,383.047749
599.772500,-296.082377,-9474.636058,459.657299
599.772828,0.000000,-9770.718434,612.876398
599.773155,-222.061783,-9400.615463,612.876398
599.773483,-148.041188,-9400.615463,536.266849
599.773810,-444.123565,-9326.594869,919.314598
599.774138,-592.164754,-9326.594869,842.705048
599.774465,-666.185348,-8956.491898,612.876398
599.774793,-222.061783,-8660.409521,612.876398
599.775120,0.000000,-8882.471304,919.314598
599.775448,-370.102971,-8808.450710,689.485948
599.775775,-444.123565,-8956.491898,766.095498
599.776103,0.000000,-8808.450710,1225.752797
599.776430,0.000000,-8586.388927,766.095498
599.776758,-518.144159,-9178.553681,766.095498
599.777085,-518.144159,-9252.574275,919.314598
599.777413,-518.144159,-9400.615463,842.705048
599.777740,-444.123565,-8882.471304,536.266849
599.778068,0.000000,-9178.553681,459.657299
599.778396,0.000000,-9030.512492,536.266849
599.778723,-296.082377,-9030.512492,612.876398
599.779051,-148.041188,-8734.430116,383.047749
599.779378,0.000000,-8660.409521,306.438199
599.779706,74.020594,-9474.636058,612.876398
599.780033,-296.082377,-9030.512492,612.876398
599.780361,0.000000,-9400.615463,459.657299
599.780688,-222.061783,-9326.594869,536.266849
599.781016,0.000000,-9252.574275,459.657299
599.781343,0.000000,-9178.553681,612.876398
599.781671,0.000000,-9474.636058,612.876398
599.781998,-148.041188,-9326.594869,612.876398
599.782326,0.000000,-8956.491898,383.047749
599.782653,0.000000,-8660.409521,306.438199
599.782981,0.000000,-8512.368333,612.876398
599.783308,0.000000,-8216.285956,306.438199
599.783636,-296.082377,-8660.409521,306.438199
599.783963,-666.185348,-8734.430116,459.657299
599.784291,-518.144159,-8956.491898,689.485948
599.784618,-592.164754,-9252.574275,612.876398
599.784946,-370.102971,-8734.430116,842.705048
599.785274,-518.144159,-9104.533087,689.485948
599.785601,-518.144159,-9252.574275,919.314598
599.785929,-666.185348,-9252.574275,842.705048
599.786256,-740.205942,-9252.574275,766.095498
599.786584,-666.185348,-8882.471304,153.219100
599.786911,-444.123565,-9104.533087,536.266849
599.787239,-518.144159,-8734.430116,536.266849
599.787566,-222.061783,-8734.430116,766.095498
599.787894,-444.123565,-8660.409521,612.876398
599.788221,0.000000,-8808.450710,919.314598
599.788549,-814.226536,-8956.491898,306.438199
599.788876,-518.144159,-9252.574275,766.095498
599.789204,-518.144159,-9400.615463,612.876398
599.789531,-518.144159,-9326.594869,612.876398
599.789859,-444.123565,-9178.553681,689.485948
599.790186,-296.082377,-9178.553681,766.095498
599.790514,-296.082377,-9104.533087,459.657299
599.790841,-370.102971,-8808.450710,229.828649
599.791169,-370.102971,-9030.512492,153.219100
599.791497,-148.041188,-8882.471304,229.828649
599.791824,-518.144159,-8586.388927,766.095498
599.792152,0.000000,-8882.471304,229.828649
599.792479,-222.061783,-9030.512492,229.828649
599.792807,-222.061783,-9252.574275,306.438199
599.793134,-222.061783,-9548.656652,459.657299
599.793462,-370.102971,-9030.512492,689.485948
599.793789,0.000000,-9622.677246,306.438199
599.794117,0.000000,-9474.636058,459.657299
599.794444,0.000000,-9474.636058,612.876398
599.794772,0.000000,-9400.615463,459.657299
599.795099,74.020594,-8808.450710,689.485948
599.795427,74.020594,-9178.553681,536.266849
599.795754,0.000000,-8882.471304,536.266849
599.796082,0.000000,-8956.491898,306.438199
599.796409,-222.061783,-9178.553681,612.876398
599.796737,-222.061783,-8956.491898,766.095498
599.797064,-444.123565,-9326.594869,919.314598
599.797392,-518.144159,-9474.636058,689.485948
599.797720,-370.102971,-9474.636058,766.095498
599.798047,-444.123565,-9474.636058,766.095498
599.798375,-296.082377,-9474.636058,612.876398
599.798702,-370.102971,-9252.574275,919.314598
599.799030,-296.082377,-9252.574275,536.266849
599.799357,-222.061783,-9178.553681,459.657299
599.799685,0.000000,-8882.471304,383.047749
599.800012,-148.041188,-8586.388927,536.266849
599.800340,0.000000,-8808.450710,229.828649
599.800667,0.000000,-8882.471304,229.828649
599.800995,-296.082377,-9252.574275,689.485948
599.801322,-296.082377,-9326.594869,459.657299
599.801650,-296.082377,-9400.615463,919.314598
599.801977,-222.061783,-9104.533087,919.314598
599.802305,0.000000,-9400.615463,842.705048
599.802632,-148.041188,-9474.636058,612.876398
599.802960,-222.061783,-9326.594869,842.705048
599.803287,0.000000,-9178.553681,766.095498
599.803615,0.000000,-9104.533087,229.828649
599.803943,148.041188,-8956.491898,229.828649
599.804270,0.000000,-8956.491898,612.876398
599.804598,0.000000,-8956.491898,306.438199
599.804925,-296.082377,-9252.574275,612.876398
599.805253,-296.082377,-9474.636058,766.095498
599.805580,-888.247130,-9104.533087,842.705048
599.805908,-444.123565,-9474.636058,459.657299
599.806235,-518.144159,-9474.636058,459.657299
599.806563,-444.123565,-9474.636058,842.705048
599.806890,-592.164754,-9326.594869,689.485948
599.807218,-444.123565,-8956.491898,766.095498
599.807545,0.000000,-8660.409521,612.876398
599.807873,-148.041188,-8586.388927,383.047749
599.808200,-518.144159,-8364.327145,459.657299
599.808528,0.000000,-8438.347739,306.438199
599.808855,-148.041188,-8364.327145,842.705048
599.809183,-518.144159,-8512.368333,383.047749
599.809510,-370.102971,-9030.512492,459.657299
599.809838,-296.082377,-9326.594869,383.047749
599.810165,-370.102971,-9178.553681,459.657299
599.810493,-370.102971,-9400.615463,1225.752797
599.810821,222.061783,-9252.574275,919.314598
599.811148,0.000000,-9326.594869,842.705048
599.811476,-148.041188,-8956.491898,536.266849
599.811803,-148.041188,-8808.450710,306.438199
599.812131,0.000000,-8956.491898,383.047749
599.812458,222.061783,-8660.409521,306.438199
599.812786,0.000000,-8660.409521,766.095498
599.813113,0.000000,-8882.471304,536.266849
599.813441,-518.144159,-8882.471304,229.828649
599.813768,-592.164754,-9178.553681,459.657299
599.814096,-518.144159,-8882.471304,842.705048
599.814423,-296.082377,-8956.491898,689.485948
599.814751,-814.226536,-9030.512492,766.095498
599.815078,-592.164754,-9178.553681,612.876398
599.815406,-518.144159,-8956.491898,612.876398
599.815733,-370.102971,-8734.430116,919.314598
599.816061,-148.041188,-8438.347739,689.485948
599.816388,-444.123565,-8734.430116,459.657299
599.816716,-518.144159,-8882.471304,459.657299
599.817044,-370.102971,-8660.409521,229.828649
599.817371,-518.144159,-8882.471304,153.219100
599.817699,-666.185348,-8956.491898,919.314598
599.818026,-518.144159,-9252.574275,612.876398
599.818354,-444.123565,-9474.636058,919.314598
599.818681,-370.102971,-9474.636058,612.876398
599.819009,-296.082377,-9548.656652,612.876398
599.819336,0.000000,-9178.553681,612.876398
599.819664,0.000000,-9400.615463,612.876398
599.819991,0.000000,-9178.553681,459.657299
599.820319,74.020594,-9178.553681,383.047749
599.820646,148.041188,-9104.533087,459.657299
599.820974,0.000000,-8808.450710,229.828649
599.821301,0.000000,-8956.491898,306.438199
599.821629,-148.041188,-8956.491898,153.219100
599.821956,-148.041188,-9252.574275,306.438199
599.822284,-296.082377,-9326.594869,306.438199
599.822611,-148.041188,-9474.636058,459.657299
599.822939,-148.041188,-9030.512492,612.876398
599.823267,-148.041188,-9326.594869,689.485948
599.823594,-222.061783,-9178.553681,459.657299
599.823922,0.000000,-9252.574275,383.047749
599.824249,0.000000,-9030.512492,383.047749
599.824577,296.082377,-9030.512492,153.219100
599.824904,0.000000,-8882.471304,229.828649
599.825232,0.000000,-8956.491898,459.657299
599.825559,-148.041188,-9178.553681,383.047749
599.825887,-444.123565,-9400.615463,766.095498
599.826214,-444.123565,-9474.636058,459.657299
599.826542,-148.041188,-9400.615463,842.705048
599.826869,-518.144159,-9474.636058,919.314598
599.827197,-444.123565,-9474.636058,1149.143247
599.827524,-444.123565,-9400.615463,1149.143247
599.827852,-296.082377,-9252.574275,995.924147
599.828179,-296.082377,-9030.512492,919.314598
599.828507,-444.123565,-9104.533087,689.485948
599.828834,-370.102971,-8882.471304,766.095498
599.829162,-592.164754,-8956.491898,842.705048
599.829489,-74.020594,-9252.574275,383.047749
599.829817,-592.164754,-8808.450710,842.705048
599.830145,-666.185348,-9178.553681,919.314598
599.830472,-592.164754,-9326.594869,689.485948
599.830800,-592.164754,-9400.615463,536.266849
599.831127,-592.164754,-9474.636058,459.657299
599.831455,-814.226536,-9252.574275,995.924147
599.831782,-296.082377,-9178.553681,459.657299
599.832110,-148.041188,-9030.512492,306.438199
599.832437,-296.082377,-8882.471304,383.047749
599.832765,0.000000,-8956.491898,76.609550
599.833092,-296.082377,-8512.368333,612.876398
599.833420,148.041188,-8808.450710,153.219100
599.833747,296.082377,-8882.471304,0.000000
599.834075,148.041188,-8734.430116,229.828649
599.834402,222.061783,-9178.553681,383.047749
599.834730,74.020594,-9104.533087,459.657299
599.835057,0.000000,-9178.553681,536.266849
599.835385,-222.061783,-9474.636058,229.828649
599.835712,0.000000,-9474.636058,459.657299
599.836040,-222.061783,-9474.636058,536.266849
599.836368,-222.061783,-9104.533087,536.266849
599.836695,0.000000,-9030.512492,383.047749
599.837023,-370.102971,-8956.491898,306.438199
599.837350,-370.102971,-8438.347739,306.438199
599.837678,-518.144159,-8660.409521,229.828649
599.838005,-666.185348,-8586.388927,459.657299
599.838333,-666.185348,-8660.409521,766.095498
599.838660,-888.247130,-8808.450710,612.876398
599.838988,-962.267725,-9104.533087,995.924147
599.839315,-1036.288319,-9104.533087,995.924147
599.839643,-888.247130,-9030.512492,766.095498
599.839970,-962.267725,-8660.409521,1072.533697
599.840298,-370.102971,-9178.553681,689.485948
599.840625,-518.144159,-8438.347739,612.876398
599.840953,-370.102971,-8586.388927,842.705048
599.841280,-296.082377,-8734.430116,612.876398
599.841608,0.000000,-8438.347739,995.924147
599.841935,0.000000,-8660.409521,536.266849
599.842263,-222.061783,-8808.450710,612.876398
599.842591,-370.102971,-9400.615463,612.876398
599.842918,-222.061783,-9474.636058,919.314598
599.843246,-296.082377,-9474.636058,612.876398
599.843573,74.020594,-9548.656652,306.438199
599.843901,0.000000,-9548.656652,383.047749
599.844228,-148.041188,-9622.677246,383.047749
599.844556,-222.061783,-9400.615463,536.266849
599.844883,-222.061783,-9252.574275,459.657299
599.845211,-222.061783,-8808.450710,229.828649
599.845538,-148.041188,-8808.450710,0.000000
599.845866,0.000000,-8956.491898,0.000000
599.846193,-296.082377,-8808.450710,153.219100
599.846521,0.000000,-8956.491898,0.000000
599.846848,0.000000,-9326.594869,153.219100
599.847176,-444.123565,-8734.430116,306.438199
599.847503,-222.061783,-9622.677246,383.047749
599.847831,-296.082377,-9400.615463,536.266849
599.848158,-148.041188,-9400.615463,612.876398
599.848486,0.000000,-9178.553681,383.047749
599.848814,0.000000,-9104.533087,1072.533697
599.849141,-148.041188,-9252.574275,459.657299
599.849469,0.000000,-9400.615463,919.314598
599.849796,0.000000,-9474.636058,612.876398
599.850124,-148.041188,-9178.553681,1532.190996
599.850451,0.000000,-9400.615463,842.705048
599.850779,-222.061783,-9400.615463,689.485948
599.851106,-222.061783,-9400.615463,919.314598
599.851434,-518.144159,-9326.594869,766.095498
599.851761,-666.185348,-9400.615463,1072.533697
599.852089,-1110.308913,-9400.615463,1532.190996
599.852416,-962.267725,-9178.553681,919.314598
599.852744,-962.267725,-9178.553681,536.266849
599.853071,-666.185348,-9178.553681,766.095498
599.853399,-592.164754,-8882.471304,689.485948
599.853726,-370.102971,-8586.388927,536.266849
599.854054,-296.082377,-8734.430116,689.485948
599.854381,-148.041188,-8586.388927,306.438199
599.854709,0.000000,-8882.471304,229.828649
599.855037,-296.082377,-8956.491898,229.828649
599.855364,148.041188,-9252.574275,1072.533697
599.855692,0.000000,-9400.615463,536.266849
599.856019,0.000000,-9326.594869,383.047749
599.856347,0.000000,-9770.718434,612.876398
599.856674,0.000000,-9474.636058,612.876398
599.857002,222.061783,-9474.636058,536.266849
599.857330,370.102971,-8808.450710,153.219100
599.857657,370.102971,-9104.533087,76.609550
599.857985,74.020594,-8956.491898,459.657299
599.858312,74.020594,-9030.512492,76.609550
599.858640,0.000000,-9030.512492,229.828649
599.858967,-148.041188,-9104.533087,383.047749
599.859295,-148.041188,-9030.512492,766.095498
599.859623,0.000000,-9326.594869,306.438199
599.859950,-370.102971,-9178.553681,536.266849
599.860278,-222.061783,-9400.615463,612.876398
599.860605,-592.164754,-8808.450710,689.485948
599.860933,0.000000,-9030.512492,689.485948
599.861260,-444.123565,-8956.491898,689.485948
599.861588,-444.123565,-9030.512492,612.876398
599.861916,-222.061783,-8956.491898,842.705048
599.862243,-222.061783,-8660.409521,612.876398
599.862571,0.000000,-8512.368333,919.314598
599.862898,-296.082377,-8808.450710,689.485948
599.863226,-370.102971,-8882.471304,766.095498
599.863553,-296.082377,-9104.533087,766.095498
599.863881,-444.123565,-9030.512492,842.705048
599.864209,-444.123565,-8956.491898,995.924147
599.864536,-518.144159,-9400.615463,1149.143247
599.864864,-592.164754,-9548.656652,995.924147
599.865191,-740.205942,-9400.615463,995.924147
599.865519,-592.164754,-9104.533087,689.485948
599.865846,-592.164754,-8882.471304,919.314598
599.866174,-296.082377,-8586.388927,919.314598
599.866502,-444.123565,-8586.388927,306.438199
599.866829,-296.082377,-8586.388927,612.876398
599.867157,-222.061783,-8438.347739,383.047749
599.867484,-518.144159,-8734.430116,229.828649
599.867812,-444.123565,-9104.533087,153.219100
599.868139,-666.185348,-9400.615463,459.657299
599.868467,-444.123565,-9548.656652,459.657299
599.868795,-592.164754,-9400.615463,383.047749
599.869122,-518.144159,-9474.636058,383.047749
599.869450,0.000000,-9178.553681,153.219100
599.869777,0.000000,-8882.471304,536.266849
599.870105,0.000000,-8956.491898,306.438199
599.870432,0.000000,-8956.491898,459.657299
599.870760,0.000000,-8956.491898,153.219100
599.871088,0.000000,-8660.409521,689.485948
599.871415,-222.061783,-8734.430116,383.047749
599.871743,-222.061783,-9104.533087,536.266849
599.872070,-222.061783,-9178.553681,612.876398
599.872398,-444.123565,-9178.553681,459.657299
599.872725,-444.123565,-9030.512492,689.485948
599.873053,-740.205942,-9252.574275,766.095498
599.873381,-518.144159,-9252.574275,612.876398
599.873708,-518.144159,-9252.574275,536.266849
599.874036,-592.164754,-8808.450710,536.266849
599.874363,-370.102971,-8808.450710,612.876398
599.874691,-222.061783,-8438.347739,229.828649
599.875018,-370.102971,-8660.409521,383.047749
599.875346,-518.144159,-8512.368333,459.657299
599.875674,-444.123565,-8734.430116,383.047749
599.876001,-666.185348,-8660.409521,766.095498
599.876329,-148.041188,-8882.471304,306.438199
599.876656,-444.123565,-9252.574275,919.314598
599.876984,-370.102971,-9400.615463,612.876398
599.877311,-222.061783,-9400.615463,766.095498
599.877639,-370.102971,-9474.636058,612.876398
599.877967,0.000000,-9474.636058,229.828649
599.878294,-296.082377,-8882.471304,536.266849
599.878622,0.000000,-9252.574275,306.438199
599.878949,74.020594,-8956.491898,153.219100
599.879277,148.041188,-9178.553681,536.266849
599.879604,222.061783,-9030.512492,1072.533697
599.879932,370.102971,-9252.574275,459.657299
599.880260,0.000000,-9474.636058,229.828649
599.880587,0.000000,-9474.636058,612.876398
599.880915,-148.041188,-9474.636058,536.266849
599.881242,148.041188,-9400.615463,995.924147
599.881570,592.164754,-9178.553681,689.485948
599.881897,0.000000,-9474.636058,766.095498
599.882225,-222.061783,-9252.574275,919.314598
599.882553,-296.082377,-9326.594869,919.314598
599.882880,-296.082377,-9178.553681,689.485948
599.883208,-148.041188,-8956.491898,766.095498
599.883535,-148.041188,-8956.491898,459.657299
599.883863,0.000000,-8956.491898,536.266849
599.884191,-222.061783,-8956.491898,536.266849
599.884518,-518.144159,-9178.553681,612.876398
599.884846,-962.267725,-9030.512492,842.705048
599.885173,-740.205942,-9696.697840,842.705048
599.885501,-814.226536,-9770.718434,536.266849
599.885828,-666.185348,-9844.739029,842.705048
599.886156,-666.185348,-9622.677246,919.314598
599.886484,-592.164754,-9104.533087,1302.362347
599.886811,74.020594,-9178.553681,612.876398
599.887139,-296.082377,-8956.491898,536.266849
599.887466,-296.082377,-8734.430116,306.438199
599.887794,-444.123565,-8808.450710,306.438199
599.888121,-296.082377,-8808.450710,689.485948
599.888449,-148.041188,-8956.491898,459.657299
599.888777,-444.123565,-8956.491898,459.657299
599.889104,-666.185348,-8956.491898,612.876398
599.889432,-370.102971,-9178.553681,689.485948
599.889759,-370.102971,-9326.594869,459.657299
599.890087,0.000000,-8956.491898,612.876398
599.890414,0.000000,-8734.430116,536.266849
599.890742,0.000000,-8956.491898,383.047749
599.891070,-296.082377,-9030.512492,306.438199
599.891397,-444.123565,-9030.512492,612.876398
599.891725,-518.144159,-8364.327145,766.095498
599.892052,-370.102971,-8660.409521,306.438199
599.892380,-222.061783,-9030.512492,459.657299
599.892707,0.000000,-8956.491898,459.657299
599.893035,-222.061783,-8882.471304,612.876398
599.893363,74.020594,-8808.450710,766.095498
599.893690,-296.082377,-8660.409521,0.000000
599.894018,-444.123565,-9178.553681,383.047749
599.894345,-444.123565,-9030.512492,536.266849
599.894673,-296.082377,-9030.512492,689.485948
599.895000,0.000000,-8956.491898,153.219100
599.895328,-296.082377,-8808.450710,153.219100
599.895656,-444.123565,-8438.347739,229.828649
599.895983,-444.123565,-8660.409521,153.219100
599.896311,-296.082377,-8216.285956,306.438199
599.896638,-814.226536,-8586.388927,306.438199
599.896966,-518.144159,-8734.430116,76.609550
599.897293,-962.267725,-8660.409521,459.657299
599.897621,-592.164754,-8882.471304,766.095498
599.897949,-444.123565,-9030.512492,536.266849
599.898276,-296.082377,-9326.594869,459.657299
599.898604,0.000000,-8734.430116,919.314598
599.898931,-148.041188,-8808.450710,842.705048
599.899259,0.000000,-8956.491898,459.657299
599.899586,0.000000,-9104.533087,612.876398
599.899914,0.000000,-9252.574275,612.876398
599.900242,-296.082377,-8956.491898,766.095498
599.900569,444.123565,-9104.533087,612.876398
599.900897,0.000000,-9474.636058,383.047749
599.901224,0.000000,-9474.636058,689.485948
599.901552,0.000000,-9474.636058,689.485948
599.901879,296.082377,-9326.594869,689.485948
599.902207,-222.061783,-9252.574275,842.705048
599.902535,0.000000,-9400.615463,459.657299
599.902862,-148.041188,-9400.615463,459.657299
599.903190,-148.041188,-9622.677246,459.657299
599.903517,0.000000,-9400.615463,842.705048
599.903845,-74.020594,-9326.594869,689.485948
599.904172,0.000000,-9252.574275,536.266849
599.904500,-296.082377,-9178.553681,383.047749
599.904828,-370.102971,-8808.450710,306.438199
599.905155,-666.185348,-8956.491898,229.828649
599.905483,-518.144159,-8956.491898,842.705048
599.905810,-592.164754,-9400.615463,306.438199
599.906138,-740.205942,-9474.636058,536.266849
599.906465,-592.164754,-9474.636058,689.485948
599.906793,0.000000,-9474.636058,689.485948
599.907121,-148.041188,-9400.615463,689.485948
599.907448,444.123565,-9326.594869,536.266849
599.907776,222.061783,-9252.574275,459.657299
599.908103,296.082377,-9474.636058,689.485948
599.908431,148.041188,-9474.636058,536.266849
599.908758,0.000000,-8956.491898,536.266849
599.909086,0.000000,-9326.594869,842.705048
599.909414,-222.061783,-9474.636058,689.485948
599.909741,-370.102971,-9548.656652,689.485948
599.910069,-444.123565,-9474.636058,459.657299
599.910396,-444.123565,-9178.553681,459.657299
599.910724,-592.164754,-9252.574275,459.657299
599.911051,-592.164754,-8956.491898,459.657299
599.911379,-370.102971,-9030.512492,306.438199
599.911707,-222.061783,-9104.533087,536.266849
599.912034,-148.041188,-8882.471304,536.266849
599.912362,0.000000,-9104.533087,612.876398
599.912689,0.000000,-8882.471304,383.047749
599.913017,0.000000,-9030.512492,612.876398
599.913344,0.000000,-8956.491898,459.657299
599.913672,-148.041188,-8882.471304,306.438199
599.914000,0.000000,-8808.450710,1149.143247
599.914327,-222.061783,-8956.491898,766.095498
599.914655,-370.102971,-9104.533087,383.047749
599.914982,-592.164754,-9252.574275,536.266849
599.915310,-296.082377,-9178.553681,842.705048
599.915637,-444.123565,-8956.491898,612.876398
599.915965,-222.061783,-8734.430116,689.485948
599.916293,-222.061783,-8882.471304,459.657299
599.916620,-296.082377,-9030.512492,229.828649
599.916948,0.000000,-9104.533087,612.876398
599.917275,-148.041188,-9030.512492,536.266849
599.917603,-222.061783,-9252.574275,689.485948
599.917930,-222.061783,-9326.594869,766.095498
599.918258,-222.061783,-9326.594869,689.485948
599.918586,-148.041188,-9104.533087,612.876398
599.918913,-296.082377,-9030.512492,536.266849
599.919241,0.000000,-8734.430116,383.047749
599.919568,-518.144159,-9030.512492,383.047749
599.919896,-444.123565,-8734.430116,229.828649
599.920223,-370.102971,-8808.450710,229.828649
599.920551,-296.082377,-8882.471304,383.047749
599.920879,0.000000,-9030.512492,0.000000
599.921206,0.000000,-8882.471304,612.876398
599.921534,-148.041188,-9104.533087,153.219100
599.921861,-296.082377,-8808.450710,306.438199
599.922189,-148.041188,-9030.512492,229.828649
599.922516,-444.123565,-9326.594869,459.657299
599.922844,-518.144159,-9252.574275,689.485948
599.923172,0.000000,-9178.553681,383.047749
599.923499,-148.041188,-9326.594869,689.485948
599.923827,0.000000,-9326.594869,766.095498
599.924154,-370.102971,-9252.574275,689.485948
599.924482,-296.082377,-8512.368333,689.485948
599.924809,-222.061783,-9178.553681,459.657299
599.925137,0.000000,-9104.533087,766.095498
599.925465,-370.102971,-9104.533087,689.485948
599.925792,-148.041188,-9326.594869,689.485948
599.926120,-296.082377,-8808.450710,1532.190996
599.926447,-296.082377,-9326.594869,689.485948
599.926775,-370.102971,-9326.594869,842.705048
599.927102,-592.164754,-9400.615463,995.924147
599.927430,-592.164754,-9326.594869,995.924147
599.927758,-222.061783,-9252.574275,995.924147
599.928085,-518.144159,-8956.491898,612.876398
599.928413,-666.185348,-9030.512492,689.485948
599.928740,-444.123565,-8956.491898,842.705048
599.929068,-666.185348,-8734.430116,612.876398
599.929395,-296.082377,-8882.471304,459.657299
599.929723,0.000000,-8438.347739,842.705048
599.930051,-518.144159,-8956.491898,536.266849
599.930378,-518.144159,-9252.574275,612.876398
599.930706,-296.082377,-9474.636058,689.485948
599.931033,-518.144159,-9474.636058,536.266849
599.931361,-370.102971,-9400.615463,536.266849
599.931688,0.000000,-9474.636058,612.876398
599.932016,-296.082377,-9400.615463,766.095498
599.932344,-148.041188,-9400.615463,689.485948
599.932671,-148.041188,-9178.553681,306.438199
599.932999,296.082377,-9178.553681,995.924147
599.933326,74.020594,-8956.491898,153.219100
599.933654,0.000000,-9178.553681,459.657299
599.933981,0.000000,-9326.594869,383.047749
599.934309,0.000000,-9178.553681,536.266849
599.934637,0.000000,-9326.594869,76.609550
599.934964,0.000000,-9252.574275,0.000000
599.935292,0.000000,-9178.553681,689.485948
599.935619,0.000000,-9326.594869,383.047749
599.935947,0.000000,-9030.512492,229.828649
599.936274,-296.082377,-8956.491898,306.438199
599.936602,-962.267725,-8808.450710,153.219100
599.936930,-444.123565,-8882.471304,536.266849
599.937257,-592.164754,-9030.512492,383.047749
599.937585,-370.102971,-9030.512492,536.266849
599.937912,-296.082377,-9178.553681,689.485948
599.938240,0.000000,-8734.430116,766.095498
599.938567,0.000000,-8956.491898,919.314598
599.938895,-148.041188,-8808.450710,536.266849
599.939223,-222.061783,-9104.533087,536.266849
599.939550,-370.102971,-8956.491898,612.876398
599.939878,-370.102971,-9030.512492,1149.143247
599.940205,-370.102971,-9104.533087,612.876398
599.940533,-444.123565,-9178.553681,842.705048
599.940860,0.000000,-9252.574275,919.314598
599.941188,0.000000,-9104.533087,612.876398
599.941516,148.041188,-9030.512492,1072.533697
599.941843,370.102971,-8660.409521,612.876398
599.942171,0.000000,-8882.471304,536.266849
599.942498,-370.102971,-9030.512492,459.657299
599.942826,-444.123565,-9104.533087,689.485948
599.943153,-518.144159,-9178.553681,689.485948
599.943481,-592.164754,-8882.471304,1072.533697
599.943809,-296.082377,-9252.574275,306.438199
599.944136,-148.041188,-9252.574275,536.266849
599.944464,-148.041188,-9104.533087,383.047749
599.944791,0.000000,-9030.512492,536.266849
599.945119,0.000000,-8808.450710,612.876398
599.945446,222.061783,-9252.574275,689.485948
599.945774,-370.102971,-9474.636058,536.266849
599.946102,-222.061783,-9474.636058,536.266849
599.946429,-444.123565,-9548.656652,766.095498
599.946757,0.000000,-9474.636058,536.266849
599.947084,-148.041188,-9178.553681,459.657299
599.947412,-148.041188,-9104.533087,459.657299
599.947740,-148.041188,-9030.512492,153.219100
599.948067,0.000000,-9178.553681,536.266849
599.948395,-518.144159,-8956.491898,536.266849
599.948722,-296.082377,-8808.450710,689.485948
599.949050,-592.164754,-9178.553681,842.705048
599.949377,-592.164754,-9400.615463,536.266849
599.949705,-592.164754,-9252.574275,536.266849
599.950033,-296.082377,-9326.594869,689.485948
599.950360,518.144159,-8808.450710,1149.143247
599.950688,666.185348,-8512.368333,1225.752797
599.951015,1184.329507,-8512.368333,1378.971896
599.951343,1036.288319,-8956.491898,1608.800546
599.951670,370.102971,-9030.512492,2068.457845
599.951998,296.082377,-8882.471304,2145.067394
599.952326,0.000000,-9030.512492,1991.848295
599.952653,0.000000,-9030.512492,1991.848295
599.952981,0.000000,-9178.553681,2374.896044
599.953308,0.000000,-9104.533087,1915.238745
599.953636,0.000000,-8586.388927,2681.334243
599.953963,74.020594,-8956.491898,2068.457845
599.954291,0.000000,-8660.409521,1838.629195
599.954619,-222.061783,-8586.388927,2221.676944
599.954946,-296.082377,-8734.430116,2374.896044
599.955274,-518.144159,-8882.471304,2221.676944
599.955601,-222.061783,-8882.471304,2374.896044
599.955929,-740.205942,-8956.491898,2604.724693
599.956256,-814.226536,-9030.512492,2757.943793
599.956584,-740.205942,-9030.512492,2757.943793
599.956912,-814.226536,-9030.512492,2757.943793
599.957239,-888.247130,-8808.450710,3600.648841
599.957567,-888.247130,-8586.388927,3217.601092
599.957894,-666.185348,-8660.409521,3217.601092
599.958222,-888.247130,-8882.471304,2987.772442
599.958549,-444.123565,-9252.574275,2987.772442
599.958877,-592.164754,-8882.471304,2987.772442
599.959205,0.000000,-9030.512492,2987.772442
599.959532,-370.102971,-8956.491898,3064.381992
599.959860,0.000000,-9178.553681,2987.772442
599.960187,-148.041188,-9178.553681,3140.991542
599.960515,74.020594,-8956.491898,3524.039291
599.960843,370.102971,-9474.636058,3370.820191
599.961170,296.082377,-9474.636058,3217.601092
599.961498,0.000000,-9474.636058,3370.820191
599.961825,444.123565,-9474.636058,3677.258390
599.962153,888.247130,-9326.594869,3907.087040
599.962480,1406.391290,-8882.471304,4596.572988
599.962808,1406.391290,-9326.594869,4596.572988
599.963136,1184.329507,-9474.636058,4979.620737
599.963463,1110.308913,-9548.656652,4903.011187
599.963791,962.267725,-9622.677246,4903.011187
599.964118,592.164754,-9770.718434,4673.182538
599.964446,0.000000,-9770.718434,4979.620737
599.964773,-222.061783,-9696.697840,4673.182538
599.965101,-444.123565,-9696.697840,4519.963438
599.965429,-740.205942,-9474.636058,4443.353888
599.965756,-740.205942,-9326.594869,4213.525239
599.966084,-1480.411884,-9178.553681,3447.429741
599.966411,-2146.597232,-9252.574275,3294.210641
599.966739,-2516.700203,-9252.574275,2911.162892
599.967067,-2072.576638,-8882.471304,3140.991542
599.967394,-814.226536,-8142.265362,3370.820191
599.967722,74.020594,-7994.224174,3830.477490
599.968049,814.226536,-7920.203579,4903.011187
599.968377,1850.514855,-7994.224174,5669.106685
599.968704,2294.638420,-8290.306550,6435.202183
599.969032,1924.535449,-8956.491898,6588.421283
599.969360,1036.288319,-10140.821405,6894.859482
599.969687,-740.205942,-10881.027347,6205.373534
599.970015,-2146.597232,-11547.212695,5669.106685
599.970342,-2664.741391,-10955.047942,4903.011187
599.970670,-2590.720797,-10362.883188,4136.915689
599.970998,-1110.308913,-9474.636058,3447.429741
599.971325,74.020594,-7994.224174,4290.134789
599.971653,1850.514855,-7179.997637,4136.915689
599.971980,2516.700203,-7031.956449,4596.572988
599.972308,2220.617826,-7476.080014,4443.353888
599.972635,-444.123565,-8808.450710,3983.696590
599.972963,-5181.441594,-11251.130318,1608.800546
599.973291,-11029.068536,-13101.645173,-1072.533697
599.973618,-13767.830521,-12805.562797,-3064.381992
599.973946,-11843.295072,-10510.924376,-3753.867940
599.974273,-7772.162391,-7402.059420,-3447.429741
599.974601,2516.700203,-4737.318029,-1608.800546
599.974928,5625.565159,-3182.885551,689.485948
599.975256,11769.274478,-2590.720797,2681.334243
599.975584,11473.192101,-3849.070898,4136.915689
599.975911,9770.718434,-5329.482782,4826.401637
599.976239,6217.729913,-9400.615463,4673.182538
599.976566,1406.391290,-13397.727550,4290.134789
599.976894,-1258.350101,-14656.077652,4060.306139
599.977222,-666.185348,-14434.015869,5056.230287
599.977549,2664.741391,-11991.336260,5822.325785
599.977877,8364.327145,-10436.903782,8350.440928
599.978204,11621.233289,-9474.636058,9116.536426
599.978532,10584.944971,-7846.182985,7660.954980
599.978859,6143.709319,-9104.533087,6818.249932
599.979187,592.164754,-9992.780217,4060.306139
599.979515,-5773.606348,-10436.903782,2451.505594
599.979842,-7772.162391,-9992.780217,1608.800546
599.980170,-6143.709319,-9252.574275,2911.162892
599.980497,-3404.947333,-7254.018232,5515.887586
599.980825,-2294.638420,-5995.668130,7660.954980
599.981153,-2146.597232,-5995.668130,8810.098227
599.981480,-4885.359217,-7031.956449,7431.126331
599.981808,-7624.121203,-8734.430116,5975.544884
599.982135,-9030.512492,-8808.450710,4519.963438
599.982463,-9770.718434,-8808.450710,3907.087040
599.982790,-8438.347739,-8660.409521,4826.401637
599.983118,-5625.565159,-7105.977043,5898.935335
599.983446,-1554.432478,-5033.400406,7507.735880
599.983773,3701.029710,-4293.194464,9882.631924
599.984101,6291.750507,-4367.215058,10725.336972
599.984428,4071.132681,-7105.977043,9269.755526
599.984756,-296.082377,-11843.295072,7354.516781
599.985083,-8364.327145,-16580.613101,3294.210641
599.985411,-12731.542202,-17690.922014,612.876398
599.985739,-11991.336260,-15618.345376,-1302.362347
599.986066,-6957.935855,-13397.727550,-1225.752797
599.986394,1406.391290,-11029.068536,1225.752797
599.986721,3256.906145,-9252.574275,1915.238745
599.987049,1998.556043,-7402.059420,-689.485948
599.987377,74.020594,-7846.182985,-2068.457845
599.987704,148.041188,-8068.244768,-4290.134789
599.988032,-1110.308913,-7846.182985,-4596.572988
599.988359,4145.153275,-7846.182985,-3447.429741
599.988687,5847.626942,-9030.512492,0.000000
599.989014,7402.059420,-8882.471304,2374.896044
599.989342,9104.533087,-8364.327145,4213.525239
599.989670,10436.903782,-9030.512492,6205.373534
599.989997,9104.533087,-9474.636058,4903.011187
599.990325,5477.523971,-11917.315666,3983.696590
599.990652,3256.906145,-14582.057057,2221.676944
599.990980,1332.370696,-14508.036463,1608.800546
599.991308,2442.679609,-11399.171507,2068.457845
599.991635,6291.750507,-8586.388927,3140.991542
599.991963,8882.471304,-8290.306550,4290.134789
599.992290,7846.182985,-7624.121203,3294.210641
599.992618,1702.473667,-8438.347739,2298.286494
599.992945,-4885.359217,-8290.306550,842.705048
599.993273,-8586.388927,-8142.265362,-153.219100
599.993601,-8882.471304,-9992.780217,153.219100
599.993928,-7476.080014,-10288.862594,1072.533697
599.994256,-6661.853478,-9770.718434,1608.800546
599.994583,-4515.256246,-8216.285956,4519.963438
599.994911,-2590.720797,-5921.647536,5669.106685
599.995238,-1776.494261,-4737.318029,6511.811733
599.995566,-2368.659014,-5995.668130,6358.592633
599.995894,-2590.720797,-5995.668130,5745.716235
599.996221,-4293.194464,-6069.688724,5132.839837
599.996549,-4071.132681,-6365.771101,6281.983084
599.996876,-3256.906145,-7254.018232,6588.421283
599.997204,-1480.411884,-7846.182985,7354.516781
599.997532,1998.556043,-7698.141797,7507.735880
599.997859,4071.132681,-7994.224174,7354.516781
599.998187,3775.050304,-9326.594869,6818.249932
599.998514,1554.432478,-10066.800811,5822.325785
599.998842,-1628.453072,-11177.109724,4826.401637
599.999169,-3182.885551,-12139.377449,3907.087040
599.999497,-3256.906145,-13175.665768,3830.477490
599.999825,-3627.009116,-12583.501014,2374.896044
600.000152,-2960.823768,-10807.006753,3140.991542
600.000480,666.185348,-8586.388927,3907.087040
600.000807,1332.370696,-8216.285956,4136.915689
600.001135,888.247130,-7772.162391,3447.429741
600.001463,1776.494261,-7402.059420,3140.991542
600.001790,296.082377,-7328.038826,3140.991542
600.002118,-814.226536,-7698.141797,3217.601092
600.002445,-2442.679609,-9104.533087,2987.772442
600.002773,-1776.494261,-9474.636058,3753.867940
600.003100,1332.370696,-8956.491898,5056.230287
600.003428,2368.659014,-9252.574275,5822.325785
600.003756,2368.659014,-9770.718434,5822.325785
600.004083,1036.288319,-9770.718434,4826.401637
600.004411,-814.226536,-10881.027347,3217.601092
600.004738,-3182.885551,-11843.295072,1455.581446
600.005066,-3552.988522,-12065.356855,842.705048
600.005393,-1850.514855,-10066.800811,1608.800546
600.005721,1554.432478,-8956.491898,2757.943793
600.006049,3256.906145,-9622.677246,3677.258390
600.006376,3108.864956,-10214.842000,4826.401637
600.006704,2368.659014,-9844.739029,4443.353888
600.007031,666.185348,-10732.986159,3370.820191
600.007359,-2664.741391,-12139.377449,2374.896044
600.007687,-3478.967927,-12879.583391,2451.505594
600.008014,-2590.720797,-11103.089130,2834.553343
600.008342,-1258.350101,-10362.883188,4060.306139
600.008669,148.041188,-10288.862594,5132.839837
600.008997,-296.082377,-8364.327145,4979.620737
600.009324,-1406.391290,-8290.306550,3447.429741
600.009652,-2294.638420,-7550.100608,1302.362347
600.009980,-1998.556043,-6735.874072,153.219100
600.010307,148.041188,-5255.462188,76.609550
600.010635,3256.906145,-5329.482782,1608.800546
600.010962,5329.482782,-6957.935855,3370.820191
600.011290,5255.462188,-6217.729913,4749.792088
600.011618,3627.009116,-7624.121203,4673.182538
600.011945,74.020594,-9696.697840,3753.867940
600.012273,-2442.679609,-11621.233289,2834.553343
600.012600,-4071.132681,-12361.439231,1915.238745
600.012928,-5033.400406,-11769.274478,612.876398
600.013255,-3034.844362,-11695.253884,919.314598
600.013583,-2294.638420,-9918.759623,842.705048
600.013911,-2220.617826,-8586.388927,229.828649
600.014238,-814.226536,-7698.141797,-229.828649
600.014566,-148.041188,-6291.750507,-995.924147
600.014893,0.000000,-5477.523971,-1378.971896
600.015221,296.082377,-4885.359217,-1302.362347
600.015548,2664.741391,-6069.688724,229.828649
600.015876,3701.029710,-6217.729913,1225.752797
600.016204,1776.494261,-6735.874072,1915.238745
600.016531,1554.432478,-8142.265362,2834.553343
600.016859,1184.329507,-9474.636058,2834.553343
600.017186,74.020594,-9548.656652,3217.601092
600.017514,-592.164754,-9696.697840,2911.162892
600.017842,0.000000,-10881.027347,2757.943793
600.018169,-962.267725,-9844.739029,1455.581446
600.018497,-1110.308913,-9474.636058,689.485948
600.018824,962.267725,-7179.997637,536.266849
600.019152,4145.153275,-6513.812290,229.828649
600.019479,4737.318029,-6587.832884,1225.752797
600.019807,5033.400406,-7920.203579,1455.581446
600.020135,2294.638420,-10214.842000,1532.190996
600.020462,-370.102971,-10955.047942,1532.190996
600.020790,-2590.720797,-11695.253884,1302.362347
600.021117,-3108.864956,-12065.356855,1532.190996
600.021445,-4367.215058,-12583.501014,1378.971896
600.021773,-4367.215058,-12879.583391,1838.629195
600.022100,-5625.565159,-11473.192101,1149.143247
600.022428,-6365.771101,-9844.739029,0.000000
600.022755,-5847.626942,-8956.491898,-919.314598
600.023083,-4811.338623,-7476.080014,-1685.410096
600.023410,-2072.576638,-5847.626942,-1838.629195
600.023738,740.205942,-4959.379811,-689.485948
600.024066,3552.988522,-4959.379811,536.266849
600.024393,3478.967927,-5699.585753,1378.971896
600.024721,2960.823768,-7772.162391,1225.752797
600.025048,2294.638420,-10510.924376,1532.190996
