#time,accel_x,accel_y,accel_z
591.877418,-296.082377,-9104.533087,76.609550
591.877745,0.000000,-9252.574275,536.266849
591.878073,-222.061783,-9178.553681,459.657299
591.878401,-148.041188,-9400.615463,536.266849
591.878729,-148.041188,-9326.594869,383.047749
591.879056,0.000000,-8586.388927,536.266849
591.879384,-444.123565,-9252.574275,306.438199
591.879712,-222.061783,-9178.553681,536.266849
591.880040,-296.082377,-9030.512492,536.266849
591.880368,-222.061783,-9252.574275,536.266849
591.880695,-370.102971,-9030.512492,612.876398
591.881023,-518.144159,-9104.533087,383.047749
591.881351,0.000000,-9252.574275,459.657299
591.881679,-296.082377,-9030.512492,459.657299
591.882006,-370.102971,-9104.533087,459.657299
591.882334,0.000000,-8956.491898,766.095498
591.882662,-222.061783,-8882.471304,689.485948
591.882990,-296.082377,-9104.533087,689.485948
591.883317,-370.102971,-8956.491898,766.095498
591.883645,-444.123565,-9252.574275,536.266849
591.883973,-222.061783,-9178.553681,383.047749
591.884301,-296.082377,-8586.388927,919.314598
591.884628,-370.102971,-9104.533087,612.876398
591.884956,0.000000,-9178.553681,1072.533697
591.885284,-296.082377,-9030.512492,995.924147
591.885612,-222.061783,-9178.553681,612.876398
591.885939,-296.082377,-9252.574275,1302.362347
591.886267,0.000000,-9030.512492,383.047749
591.886595,-518.144159,-9104.533087,536.266849
591.886923,-740.205942,-9326.594869,229.828649
591.887251,-1480.411884,-9474.636058,-229.828649
591.887578,-1332.370696,-8882.471304,0.000000
591.887906,-814.226536,-9178.553681,-153.219100
591.888234,-666.185348,-9030.512492,-459.657299
591.888562,-518.144159,-9178.553681,-306.438199
591.888889,-814.226536,-9326.594869,-612.876398
591.889217,-962.267725,-9474.636058,-612.876398
591.889545,-1258.350101,-8882.471304,-995.924147
591.889873,-962.267725,-9178.553681,-1225.752797
591.890200,-740.205942,-9252.574275,-1378.971896
591.890528,-592.164754,-9326.594869,-1225.752797
591.890856,222.061783,-9474.636058,-1378.971896
591.891184,-740.205942,-8290.306550,-1072.533697
591.891511,-222.061783,-8956.491898,-1378.971896
591.891839,0.000000,-9178.553681,-1608.800546
591.892167,0.000000,-9326.594869,-1685.410096
591.892495,148.041188,-9400.615463,-1762.019645
591.892822,296.082377,-8956.491898,-1149.143247
591.893150,370.102971,-9104.533087,-1608.800546
591.893478,296.082377,-9326.594869,-1532.190996
591.893806,592.164754,-9474.636058,-1608.800546
591.894134,592.164754,-9252.574275,-1838.629195
591.894461,370.102971,-9326.594869,-1532.190996
591.894789,296.082377,-9252.574275,-1991.848295
591.895117,0.000000,-9326.594869,-1915.238745
591.895445,0.000000,-9104.533087,-1608.800546
591.895772,222.061783,-9030.512492,-1762.019645
591.896100,0.000000,-8956.491898,-1915.238745
591.896428,-518.144159,-8882.471304,-1225.752797
591.896756,-740.205942,-9326.594869,-1915.238745
591.897083,-962.267725,-9104.533087,-2145.067394
591.897411,-1110.308913,-8882.471304,-2374.896044
591.897739,-1036.288319,-9400.615463,-2451.505594
591.898067,-1776.494261,-8808.450710,-2604.724693
591.898394,-1554.432478,-9178.553681,-2681.334243
591.898722,-1924.535449,-9030.512492,-3064.381992
591.899050,-2146.597232,-9178.553681,-3217.601092
591.899378,-2146.597232,-9030.512492,-3753.867940
591.899706,-2146.597232,-8956.491898,-4136.915689
591.900033,-2368.659014,-9030.512492,-4213.525239
591.900361,-2220.617826,-8956.491898,-4213.525239
591.900689,-1776.494261,-9030.512492,-4213.525239
591.901017,-1258.350101,-8956.491898,-4060.306139
591.901344,-222.061783,-9030.512492,-3370.820191
591.901672,592.164754,-8808.450710,-3370.820191
591.902000,1258.350101,-9030.512492,-3370.820191
591.902328,1850.514855,-9104.533087,-2681.334243
591.902655,2220.617826,-9030.512492,-2451.505594
591.902983,2220.617826,-9030.512492,-2145.067394
591.903311,2368.659014,-9474.636058,-2068.457845
591.903639,1480.411884,-10066.800811,-2145.067394
591.903966,518.144159,-10140.821405,-2528.115143
591.904294,-666.185348,-10584.944971,-3140.991542
591.904622,-1406.391290,-9992.780217,-3064.381992
591.904950,-1480.411884,-9992.780217,-4060.306139
591.905277,-1480.411884,-9474.636058,-4749.792088
591.905605,-962.267725,-8734.430116,-4903.011187
591.905933,592.164754,-7920.203579,-4443.353888
591.906261,2072.576638,-7179.997637,-3447.429741
591.906589,2738.761985,-6809.894666,-2987.772442
591.906916,2886.803174,-7328.038826,-2298.286494
591.907244,1480.411884,-8438.347739,-1762.019645
591.907572,-222.061783,-9770.718434,-1991.848295
591.907900,-2368.659014,-10288.862594,-2374.896044
591.908227,-3997.112087,-10881.027347,-2298.286494
591.908555,-4145.153275,-10881.027347,-2451.505594
591.908883,-3182.885551,-10362.883188,-2451.505594
591.909211,-1258.350101,-9178.553681,-2221.676944
591.909538,1850.514855,-7698.141797,-1149.143247
591.909866,6143.709319,-5699.585753,536.266849
591.910194,9548.656652,-4441.235652,2681.334243
591.910522,11251.130318,-5329.482782,4443.353888
591.910849,8734.430116,-7772.162391,5132.839837
591.911177,2368.659014,-11177.109724,4290.134789
591.911505,-4737.318029,-13915.871710,2068.457845
591.911833,-9474.636058,-15100.201217,0.000000
591.912160,-12213.398043,-14878.139434,-842.705048
591.912488,-9918.759623,-12805.562797,-2068.457845
591.912816,-8586.388927,-11473.192101,-2221.676944
591.913144,-1850.514855,-7328.038826,-1378.971896
591.913472,-1702.473667,-5255.462188,-689.485948
591.913799,-518.144159,-3997.112087,-3140.991542
591.914127,-4293.194464,-5551.544565,-5669.106685
591.914455,-9252.574275,-7179.997637,-7584.345430
591.914783,-13323.706956,-8660.409521,-9806.022374
591.915110,-14730.098246,-8142.265362,-10418.898773
591.915438,-11325.150913,-7550.100608,-10342.289223
591.915766,-6513.812290,-8290.306550,-8197.221829
591.916094,962.267725,-6513.812290,-6281.983084
591.916421,3108.864956,-7179.997637,-5592.497135
591.916749,6143.709319,-8290.306550,-4213.525239
591.917077,3330.926739,-9844.739029,-6435.202183
591.917405,3034.844362,-10881.027347,-6511.811733
591.917732,4737.318029,-10658.965565,-6971.469032
591.918060,7994.224174,-10436.903782,-5745.716235
591.918388,12287.418637,-9622.677246,-2987.772442
591.918716,13989.892304,-10140.821405,-1838.629195
591.919044,12953.603985,-10140.821405,-1302.362347
591.919371,12953.603985,-9918.759623,-1302.362347
591.919699,13545.768739,-9770.718434,-1685.410096
591.920027,13841.851115,-10140.821405,-2068.457845
591.920355,9918.759623,-10436.903782,-1991.848295
591.920682,5847.626942,-13989.892304,-3064.381992
591.921010,-3404.947333,-14211.954086,-5209.449386
591.921338,-11547.212695,-14063.912898,-7737.564530
591.921666,-9030.512492,-10214.842000,-7967.393179
591.921993,-3701.029710,-4737.318029,-6435.202183
591.922321,1258.350101,-2516.700203,-3983.696590
591.922649,5625.565159,-1702.473667,-1915.238745
591.922977,2886.803174,-2664.741391,-995.924147
591.923304,-1184.329507,-3997.112087,-536.266849
591.923632,-3923.091493,-5921.647536,-766.095498
591.923960,-7402.059420,-6661.853478,-919.314598
591.924288,-6661.853478,-8290.306550,-995.924147
591.924615,-6143.709319,-10362.883188,1838.629195
591.924943,-5477.523971,-9548.656652,3370.820191
591.925271,-4219.173869,-8808.450710,5209.449386
591.925599,-1332.370696,-7624.121203,5822.325785
591.925927,-1776.494261,-8586.388927,3140.991542
591.926254,-4071.132681,-10881.027347,1149.143247
591.926582,-5995.668130,-11917.315666,-1149.143247
591.926910,-7624.121203,-10732.986159,-2298.286494
591.927238,-4737.318029,-9252.574275,-766.095498
591.927565,-1628.453072,-8142.265362,229.828649
591.927893,-296.082377,-8512.368333,766.095498
591.928221,-296.082377,-9104.533087,612.876398
591.928549,-3330.926739,-9252.574275,153.219100
591.928876,-4737.318029,-8956.491898,306.438199
591.929204,-4589.276840,-9474.636058,-306.438199
591.929532,-3849.070898,-10955.047942,-1149.143247
591.929860,-3478.967927,-12139.377449,-2451.505594
591.930187,-2664.741391,-11695.253884,-1302.362347
591.930515,-592.164754,-8068.244768,-2145.067394
591.930843,-1036.288319,-6587.832884,-1608.800546
591.931171,1776.494261,-6217.729913,-2451.505594
591.931498,1184.329507,-7476.080014,-3983.696590
591.931826,3182.885551,-8438.347739,-4673.182538
591.932154,5255.462188,-7624.121203,-4519.963438
591.932482,6069.688724,-8734.430116,-3753.867940
591.932809,4737.318029,-10955.047942,-3907.087040
591.933137,4219.173869,-13915.871710,-3217.601092
591.933465,3182.885551,-14211.954086,-3677.258390
591.933793,3034.844362,-13545.768739,-3830.477490
591.934120,2368.659014,-11991.336260,-3524.039291
591.934448,1184.329507,-11991.336260,-4060.306139
591.934776,1702.473667,-11769.274478,-3677.258390
591.935103,2590.720797,-10140.821405,-3217.601092
591.935431,2442.679609,-9252.574275,-3677.258390
591.935759,592.164754,-8956.491898,-4443.353888
591.936086,-888.247130,-8660.409521,-5056.230287
591.936414,-2072.576638,-8142.265362,-5132.839837
591.936742,-2220.617826,-6957.935855,-5822.325785
591.937070,-1628.453072,-6291.750507,-5898.935335
591.937397,-518.144159,-4811.338623,-4366.744339
591.937725,1554.432478,-5403.503377,-2987.772442
591.938053,1184.329507,-5255.462188,-2221.676944
591.938380,222.061783,-7328.038826,-1455.581446
591.938708,-1480.411884,-8808.450710,-1991.848295
591.939036,-2146.597232,-9770.718434,-2221.676944
591.939363,-3478.967927,-9770.718434,-2145.067394
591.939691,-3849.070898,-10510.924376,-2221.676944
591.940019,-2664.741391,-8660.409521,-1532.190996
591.940347,0.000000,-7920.203579,-919.314598
591.940674,370.102971,-7698.141797,-1072.533697
591.941002,-1036.288319,-8660.409521,-1608.800546
591.941330,-2516.700203,-9400.615463,-2987.772442
591.941657,-3108.864956,-9030.512492,-3983.696590
591.941985,-2960.823768,-9030.512492,-4290.134789
591.942313,-1924.535449,-9104.533087,-3830.477490
591.942640,370.102971,-8068.244768,-2911.162892
591.942968,2516.700203,-6143.709319,-2145.067394
591.943296,2738.761985,-6291.750507,-919.314598
591.943624,2072.576638,-7254.018232,-383.047749
591.943951,1258.350101,-7328.038826,-1072.533697
591.944279,814.226536,-8734.430116,-766.095498
591.944607,666.185348,-9770.718434,-536.266849
591.944934,-740.205942,-9326.594869,-153.219100
591.945262,1258.350101,-8734.430116,536.266849
591.945590,2072.576638,-9474.636058,995.924147
591.945917,1776.494261,-9252.574275,689.485948
591.946245,1480.411884,-8956.491898,0.000000
591.946573,666.185348,-8068.244768,-1915.238745
591.946900,-518.144159,-9474.636058,-1762.019645
591.947228,296.082377,-9696.697840,-919.314598
591.947556,444.123565,-9992.780217,-766.095498
591.947884,1332.370696,-10807.006753,612.876398
591.948211,518.144159,-11843.295072,536.266849
591.948539,-962.267725,-11843.295072,383.047749
591.948867,-3849.070898,-10955.047942,-536.266849
591.949194,-3923.091493,-10732.986159,-689.485948
591.949522,-4737.318029,-10436.903782,153.219100
591.949850,-4145.153275,-8882.471304,-459.657299
591.950177,-4219.173869,-8660.409521,-842.705048
591.950505,-3330.926739,-8068.244768,-766.095498
591.950833,-3627.009116,-8290.306550,-919.314598
591.951161,-4145.153275,-7846.182985,-1915.238745
591.951488,-2442.679609,-7846.182985,-2068.457845
591.951816,-1258.350101,-7624.121203,-1532.190996
591.952144,-222.061783,-7920.203579,-1072.533697
591.952471,-148.041188,-8068.244768,-689.485948
591.952799,1258.350101,-9474.636058,76.609550
591.953127,1406.391290,-9918.759623,536.266849
591.953454,1258.350101,-10214.842000,0.000000
591.953782,2812.782580,-11325.150913,919.314598
591.954110,3256.906145,-11177.109724,919.314598
591.954438,3330.926739,-11991.336260,1225.752797
591.954765,2368.659014,-11473.192101,919.314598
591.955093,2368.659014,-11547.212695,1225.752797
591.955421,740.205942,-10881.027347,0.000000
591.955748,1406.391290,-9844.739029,766.095498
591.956076,2664.741391,-9326.594869,306.438199
591.956404,2664.741391,-8956.491898,842.705048
591.956731,2664.741391,-8660.409521,229.828649
591.957059,888.247130,-8734.430116,76.609550
591.957387,-1110.308913,-9030.512492,-383.047749
591.957715,-2146.597232,-8068.244768,-689.485948
591.958042,-2368.659014,-7772.162391,0.000000
591.958370,-1850.514855,-6957.935855,-153.219100
591.958698,-1998.556043,-8290.306550,229.828649
591.959025,-3849.070898,-8512.368333,153.219100
591.959353,-4811.338623,-8734.430116,0.000000
591.959681,-4885.359217,-7846.182985,-229.828649
591.960008,-4663.297435,-7105.977043,-612.876398
591.960336,-1850.514855,-6809.894666,-306.438199
591.960664,0.000000,-6439.791695,-153.219100
591.960992,1036.288319,-6735.874072,612.876398
591.961319,222.061783,-7698.141797,1149.143247
591.961647,-814.226536,-8882.471304,1302.362347
591.961975,-2072.576638,-9474.636058,612.876398
591.962302,-2294.638420,-9992.780217,306.438199
591.962630,-888.247130,-10214.842000,766.095498
591.962958,370.102971,-9178.553681,919.314598
591.963285,1850.514855,-8882.471304,2451.505594
591.963613,2812.782580,-8882.471304,2528.115143
591.963941,2294.638420,-8660.409521,2298.286494
591.964269,1998.556043,-9104.533087,2068.457845
591.964596,1554.432478,-8808.450710,1915.238745
591.964924,1702.473667,-7920.203579,1532.190996
591.965252,2146.597232,-7328.038826,1838.629195
591.965579,2220.617826,-7920.203579,2145.067394
591.965907,1702.473667,-8660.409521,1838.629195
591.966235,222.061783,-8586.388927,1378.971896
591.966562,-222.061783,-9178.553681,1072.533697
591.966890,0.000000,-8956.491898,842.705048
591.967218,-1258.350101,-9474.636058,383.047749
591.967546,-888.247130,-9992.780217,0.000000
591.967873,-2072.576638,-10584.944971,0.000000
591.968201,-2516.700203,-10807.006753,-612.876398
591.968529,-2886.803174,-10140.821405,-459.657299
591.968856,-2294.638420,-10288.862594,-383.047749
591.969184,-518.144159,-9696.697840,-229.828649
591.969512,0.000000,-9326.594869,0.000000
591.969839,-370.102971,-10214.842000,-153.219100
591.970167,-1184.329507,-11029.068536,0.000000
591.970495,-3182.885551,-10955.047942,-766.095498
591.970823,-3330.926739,-10510.924376,-689.485948
591.971150,-1924.535449,-10732.986159,-459.657299
591.971478,-1110.308913,-10436.903782,-153.219100
591.971806,666.185348,-10140.821405,689.485948
591.972133,1332.370696,-9770.718434,766.095498
591.972461,1628.453072,-8956.491898,459.657299
591.972789,1480.411884,-9400.615463,153.219100
591.973116,1776.494261,-9844.739029,383.047749
591.973444,1924.535449,-9770.718434,612.876398
591.973772,2146.597232,-9548.656652,1302.362347
591.974100,2146.597232,-10066.800811,1762.019645
591.974427,1258.350101,-10955.047942,2068.457845
591.974755,0.000000,-10955.047942,1149.143247
591.975083,-1406.391290,-10436.903782,612.876398
591.975410,-962.267725,-9548.656652,153.219100
591.975738,-148.041188,-9030.512492,689.485948
591.976066,370.102971,-7846.182985,842.705048
591.976393,666.185348,-8438.347739,1455.581446
591.976721,-370.102971,-9326.594869,1225.752797
591.977049,-888.247130,-8882.471304,1072.533697
591.977377,-814.226536,-7698.141797,1225.752797
591.977704,518.144159,-6957.935855,1378.971896
591.978032,518.144159,-7031.956449,1762.019645
591.978360,-666.185348,-8068.244768,1915.238745
591.978687,-2368.659014,-9104.533087,1991.848295
591.979015,-3627.009116,-7698.141797,766.095498
591.979343,-3701.029710,-7698.141797,153.219100
591.979670,-2960.823768,-7772.162391,0.000000
591.979998,-2590.720797,-7624.121203,0.000000
591.980326,-1628.453072,-7328.038826,0.000000
591.980654,-1110.308913,-6587.832884,459.657299
591.980981,-1258.350101,-6957.935855,76.609550
591.981309,-1036.288319,-7105.977043,-153.219100
591.981637,-518.144159,-7698.141797,76.609550
591.981964,148.041188,-8142.265362,612.876398
591.982292,1184.329507,-7624.121203,1762.019645
591.982620,1480.411884,-7698.141797,1455.581446
591.982947,1036.288319,-9622.677246,1915.238745
591.983275,-370.102971,-10362.883188,1608.800546
591.983603,-1850.514855,-10955.047942,536.266849
591.983931,-1258.350101,-8808.450710,76.609550
591.984258,0.000000,-7772.162391,0.000000
591.984586,1258.350101,-7550.100608,-153.219100
591.984914,2516.700203,-7772.162391,383.047749
591.985241,2442.679609,-7994.224174,229.828649
591.985569,2294.638420,-7994.224174,459.657299
591.985897,2220.617826,-8068.244768,153.219100
591.986224,2738.761985,-8882.471304,1378.971896
591.986552,1702.473667,-9696.697840,1302.362347
591.986880,1554.432478,-10955.047942,1762.019645
591.987208,-666.185348,-12583.501014,1608.800546
591.987535,-2368.659014,-13101.645173,766.095498
591.987863,-3775.050304,-12435.459826,536.266849
591.988191,-3775.050304,-11991.336260,-153.219100
591.988518,-2960.823768,-10436.903782,-919.314598
591.988846,-1184.329507,-10288.862594,-919.314598
591.989174,-518.144159,-8290.306550,-536.266849
591.989501,0.000000,-7476.080014,-1072.533697
591.989829,518.144159,-7254.018232,-1302.362347
591.990157,592.164754,-7402.059420,-919.314598
591.990485,888.247130,-8142.265362,0.000000
591.990812,1184.329507,-8364.327145,766.095498
591.991140,1480.411884,-8660.409521,1762.019645
591.991468,-518.144159,-10807.006753,2221.676944
591.991795,-1702.473667,-12287.418637,2451.505594
591.992123,-4219.173869,-13397.727550,1302.362347
591.992451,-4071.132681,-12509.480420,1072.533697
591.992778,-3034.844362,-10214.842000,612.876398
591.993106,-518.144159,-9326.594869,689.485948
591.993434,148.041188,-7920.203579,153.219100
591.993762,1110.308913,-7254.018232,0.000000
591.994089,1406.391290,-6513.812290,-153.219100
591.994417,1998.556043,-5329.482782,0.000000
591.994745,1924.535449,-5847.626942,153.219100
591.995072,1850.514855,-7105.977043,689.485948
591.995400,1110.308913,-8068.244768,995.924147
591.995728,0.000000,-9992.780217,1608.800546
591.996055,-1702.473667,-11029.068536,2681.334243
591.996383,-3182.885551,-11473.192101,2068.457845
591.996711,-3330.926739,-11029.068536,1532.190996
591.997039,-2812.782580,-10140.821405,1149.143247
591.997366,-2368.659014,-9844.739029,689.485948
591.997694,-1776.494261,-8660.409521,306.438199
591.998022,-1184.329507,-7105.977043,0.000000
591.998349,0.000000,-6587.832884,-612.876398
591.998677,888.247130,-5477.523971,-995.924147
591.999005,2146.597232,-5921.647536,-383.047749
591.999332,3552.988522,-6143.709319,612.876398
591.999660,4219.173869,-6661.853478,1378.971896
591.999988,2516.700203,-8660.409521,1991.848295
592.000316,370.102971,-11177.109724,1915.238745
592.000643,-2072.576638,-12731.542202,1608.800546
592.000971,-2442.679609,-13397.727550,1378.971896
592.001299,-2146.597232,-12657.521608,1225.752797
592.001626,-1406.391290,-11473.192101,1608.800546
592.001954,-740.205942,-11325.150913,1072.533697
592.002282,-296.082377,-10288.862594,536.266849
592.002609,-222.061783,-9252.574275,0.000000
592.002937,666.185348,-7550.100608,-995.924147
592.003265,2146.597232,-6735.874072,306.438199
592.003593,3034.844362,-6217.729913,0.000000
592.003920,3552.988522,-6661.853478,1072.533697
592.004248,3034.844362,-7698.141797,1532.190996
592.004576,222.061783,-9326.594869,1378.971896
592.004903,-1850.514855,-10584.944971,1302.362347
592.005231,-3775.050304,-11177.109724,1072.533697
592.005559,-4219.173869,-11029.068536,306.438199
592.005886,-3627.009116,-11029.068536,153.219100
592.006214,-3701.029710,-10436.903782,-383.047749
592.006542,-2664.741391,-10214.842000,0.000000
592.006869,-2368.659014,-8438.347739,-1225.752797
592.007197,-1776.494261,-7179.997637,-1378.971896
592.007525,148.041188,-6513.812290,-1455.581446
592.007853,2294.638420,-6291.750507,-842.705048
592.008180,3330.926739,-6217.729913,-383.047749
592.008508,3034.844362,-7994.224174,689.485948
592.008836,1554.432478,-9992.780217,1532.190996
592.009163,-888.247130,-10955.047942,1302.362347
592.009491,-1924.535449,-12213.398043,1072.533697
592.009819,-2664.741391,-11991.336260,766.095498
592.010146,-1702.473667,-11399.171507,1302.362347
592.010474,-1406.391290,-10510.924376,383.047749
592.010802,-444.123565,-9696.697840,689.485948
592.011130,666.185348,-8660.409521,229.828649
592.011457,962.267725,-7105.977043,-229.828649
592.011785,2812.782580,-5921.647536,536.266849
592.012113,4515.256246,-5773.606348,306.438199
592.012440,4737.318029,-5921.647536,1072.533697
592.012768,4441.235652,-7254.018232,2068.457845
592.013096,2442.679609,-8882.471304,2757.943793
592.013423,296.082377,-9844.739029,2681.334243
592.013751,-2220.617826,-12065.356855,2068.457845
592.014079,-3849.070898,-12805.562797,2068.457845
592.014407,-3923.091493,-11695.253884,1685.410096
592.014734,-3552.988522,-10436.903782,1149.143247
592.015062,-2368.659014,-9474.636058,995.924147
592.015390,-2886.803174,-9104.533087,76.609550
592.015717,-2664.741391,-7846.182985,-842.705048
592.016045,-1850.514855,-6439.791695,-919.314598
592.016373,0.000000,-5625.565159,-536.266849
592.016700,1554.432478,-5625.565159,0.000000
592.017028,2294.638420,-6439.791695,1378.971896
592.017356,1554.432478,-8660.409521,1838.629195
592.017684,-962.267725,-9622.677246,1608.800546
592.018011,-2516.700203,-10362.883188,1149.143247
592.018339,-3775.050304,-11621.233289,1149.143247
592.018667,-3849.070898,-11251.130318,1225.752797
592.018994,-3182.885551,-11177.109724,229.828649
592.019322,-2368.659014,-10066.800811,306.438199
592.019650,-1924.535449,-9178.553681,-306.438199
592.019977,-370.102971,-8734.430116,-919.314598
592.020305,518.144159,-6809.894666,-842.705048
592.020633,3478.967927,-6069.688724,-306.438199
592.020961,4441.235652,-6365.771101,-536.266849
592.021288,5403.503377,-7105.977043,612.876398
592.021616,4071.132681,-8660.409521,995.924147
592.021944,2294.638420,-10955.047942,842.705048
592.022271,148.041188,-11843.295072,842.705048
592.022599,-1332.370696,-12879.583391,842.705048
592.022927,-2220.617826,-12805.562797,842.705048
592.023254,-2146.597232,-12287.418637,766.095498
592.023582,-1998.556043,-11547.212695,612.876398
592.023910,-1776.494261,-9548.656652,-153.219100
592.024238,-1184.329507,-9030.512492,-842.705048
592.024565,0.000000,-6735.874072,-1608.800546
592.024893,1258.350101,-5625.565159,-995.924147
592.025221,3256.906145,-4515.256246,0.000000
592.025548,3256.906145,-4663.297435,536.266849
592.025876,2516.700203,-7105.977043,1072.533697
592.026204,74.020594,-8216.285956,1225.752797
592.026531,-2590.720797,-9622.677246,919.314598
592.026859,-3849.070898,-11177.109724,689.485948
592.027187,-5255.462188,-11399.171507,689.485948
592.027515,-3775.050304,-12065.356855,995.924147
592.027842,-3997.112087,-11769.274478,459.657299
592.028170,-3478.967927,-11103.089130,153.219100
592.028498,-2886.803174,-9622.677246,-536.266849
592.028825,-2146.597232,-7254.018232,-1608.800546
592.029153,1406.391290,-6291.750507,-1072.533697
592.029481,2960.823768,-5625.565159,-689.485948
592.029808,4367.215058,-5773.606348,383.047749
592.030136,3627.009116,-7254.018232,1302.362347
592.030464,2072.576638,-8734.430116,1302.362347
592.030792,444.123565,-9548.656652,995.924147
592.031119,-518.144159,-10955.047942,1455.581446
592.031447,-1258.350101,-11769.274478,1608.800546
592.031775,-1184.329507,-11769.274478,1838.629195
592.032102,-666.185348,-11251.130318,1532.190996
592.032430,-2072.576638,-10807.006753,1532.190996
592.032758,-444.123565,-9844.739029,536.266849
592.033085,-296.082377,-8290.306550,-536.266849
592.033413,1850.514855,-6883.915261,-229.828649
592.033741,3404.947333,-5773.606348,0.000000
592.034069,4737.318029,-5403.503377,1149.143247
592.034396,4293.194464,-7105.977043,1072.533697
592.034724,2368.659014,-8660.409521,1915.238745
592.035052,0.000000,-10288.862594,1685.410096
592.035379,-1702.473667,-11917.315666,2145.067394
592.035707,-3552.988522,-12657.521608,1455.581446
592.036035,-3849.070898,-12435.459826,1685.410096
592.036362,-3404.947333,-12065.356855,1991.848295
592.036690,-3775.050304,-11621.233289,1838.629195
592.037018,-3701.029710,-10436.903782,766.095498
592.037345,-4219.173869,-8438.347739,-766.095498
592.037673,-3182.885551,-6587.832884,-1302.362347
592.038000,-1184.329507,-4959.379811,-1455.581446
592.038328,1036.288319,-3923.091493,-995.924147
592.038656,2294.638420,-4515.256246,0.000000
592.038983,1850.514855,-5995.668130,766.095498
592.039311,222.061783,-7624.121203,612.876398
592.039638,-1554.432478,-9992.780217,383.047749
592.039966,-2442.679609,-11177.109724,1072.533697
592.040293,-2590.720797,-11399.171507,689.485948
592.040621,-1998.556043,-11769.274478,995.924147
592.040948,-2220.617826,-11695.253884,306.438199
592.041276,-1998.556043,-11399.171507,306.438199
592.041604,-1554.432478,-9622.677246,-766.095498
592.041931,518.144159,-7846.182985,-383.047749
592.042259,3552.988522,-6809.894666,-229.828649
592.042586,4811.338623,-6365.771101,306.438199
592.042914,5921.647536,-6291.750507,153.219100
592.043241,3997.112087,-7994.224174,689.485948
592.043569,2590.720797,-9696.697840,1225.752797
592.043896,592.164754,-10362.883188,995.924147
592.044224,-148.041188,-11473.192101,1302.362347
592.044551,-444.123565,-11917.315666,919.314598
592.044879,-1110.308913,-11843.295072,1685.410096
592.045207,-1628.453072,-11547.212695,1378.971896
592.045534,-2368.659014,-10510.924376,536.266849
592.045862,-2738.761985,-8956.491898,-383.047749
592.046189,-2072.576638,-7994.224174,-1302.362347
592.046517,-888.247130,-6291.750507,-842.705048
592.046844,1036.288319,-5551.544565,-766.095498
592.047172,1850.514855,-6069.688724,0.000000
592.047499,740.205942,-7031.956449,689.485948
592.047827,-444.123565,-7031.956449,1302.362347
592.048155,-1628.453072,-9252.574275,536.266849
592.048482,-2590.720797,-10955.047942,536.266849
592.048810,-2368.659014,-11177.109724,1378.971896
592.049137,-2516.700203,-11621.233289,1302.362347
592.049465,-2368.659014,-11399.171507,1685.410096
592.049792,-2590.720797,-11399.171507,766.095498
592.050120,-2294.638420,-10807.006753,-153.219100
592.050447,-1554.432478,-9178.553681,-612.876398
592.050775,148.041188,-8068.244768,-383.047749
592.051102,2072.576638,-6735.874072,0.000000
592.051430,3627.009116,-5921.647536,536.266849
592.051758,3108.864956,-7476.080014,1149.143247
592.052085,2368.659014,-8512.368333,1302.362347
592.052413,740.205942,-9252.574275,995.924147
592.052740,0.000000,-9474.636058,1455.581446
592.053068,444.123565,-9844.739029,1455.581446
592.053395,0.000000,-10584.944971,1991.848295
592.053723,-518.144159,-11325.150913,1991.848295
592.054050,-1110.308913,-11399.171507,1915.238745
592.054378,-1554.432478,-10214.842000,1225.752797
592.054706,-666.185348,-8956.491898,1302.362347
592.055033,74.020594,-8660.409521,1072.533697
592.055361,1406.391290,-8290.306550,612.876398
592.055688,1776.494261,-7624.121203,459.657299
592.056016,1850.514855,-7698.141797,995.924147
592.056343,1110.308913,-7624.121203,919.314598
592.056671,148.041188,-9104.533087,919.314598
592.056998,-1480.411884,-9326.594869,689.485948
592.057326,-1554.432478,-9622.677246,842.705048
592.057653,-1702.473667,-9326.594869,842.705048
592.057981,-2368.659014,-9918.759623,1072.533697
592.058309,-3478.967927,-10807.006753,1149.143247
592.058636,-4589.276840,-10436.903782,766.095498
592.058964,-3849.070898,-9326.594869,306.438199
592.059291,-2812.782580,-7994.224174,0.000000
592.059619,-370.102971,-6957.935855,383.047749
592.059946,518.144159,-6217.729913,76.609550
592.060274,814.226536,-6291.750507,766.095498
592.060601,296.082377,-7031.956449,0.000000
592.060929,-370.102971,-7846.182985,-306.438199
592.061257,-518.144159,-8364.327145,0.000000
592.061584,-370.102971,-8364.327145,842.705048
592.061912,592.164754,-9178.553681,995.924147
592.062239,518.144159,-10436.903782,919.314598
592.062567,-222.061783,-11621.233289,919.314598
592.062894,-592.164754,-12139.377449,536.266849
592.063222,-962.267725,-11029.068536,0.000000
592.063549,0.000000,-9770.718434,0.000000
592.063877,1184.329507,-10140.821405,0.000000
592.064204,2294.638420,-9474.636058,0.000000
592.064532,1554.432478,-9918.759623,0.000000
592.064860,1184.329507,-9474.636058,-306.438199
592.065187,518.144159,-9326.594869,0.000000
592.065515,370.102971,-9696.697840,-612.876398
592.065842,148.041188,-9844.739029,-766.095498
592.066170,592.164754,-10140.821405,-153.219100
592.066497,666.185348,-9474.636058,76.609550
592.066825,1258.350101,-9770.718434,459.657299
592.067152,0.000000,-9622.677246,229.828649
592.067480,-222.061783,-9548.656652,-153.219100
592.067808,-444.123565,-9326.594869,0.000000
592.068135,740.205942,-8586.388927,229.828649
592.068463,1258.350101,-7476.080014,766.095498
592.068790,1258.350101,-8956.491898,1455.581446
592.069118,0.000000,-9696.697840,1302.362347
592.069445,-888.247130,-9548.656652,1302.362347
592.069773,-1480.411884,-9548.656652,766.095498
592.070100,-1702.473667,-9918.759623,1225.752797
592.070428,-1628.453072,-9770.718434,2145.067394
592.070755,-1850.514855,-10732.986159,1378.971896
592.071083,-1554.432478,-10288.862594,1302.362347
592.071411,-1776.494261,-9918.759623,1149.143247
592.071738,-2442.679609,-9326.594869,459.657299
592.072066,-1480.411884,-7994.224174,536.266849
592.072393,-666.185348,-7179.997637,919.314598
592.072721,-518.144159,-6957.935855,842.705048
592.073048,-444.123565,-7402.059420,1225.752797
592.073376,-1554.432478,-8216.285956,1225.752797
592.073703,-1776.494261,-7698.141797,1532.190996
592.074031,-2590.720797,-8068.244768,612.876398
592.074359,-1924.535449,-8438.347739,1072.533697
592.074686,-444.123565,-7920.203579,1685.410096
592.075014,0.000000,-8068.244768,1302.362347
592.075341,518.144159,-8734.430116,1608.800546
592.075669,-296.082377,-8142.265362,1225.752797
592.075996,-592.164754,-8290.306550,919.314598
592.076324,-222.061783,-8068.244768,383.047749
592.076651,1924.535449,-7550.100608,842.705048
592.076979,2146.597232,-7624.121203,1378.971896
592.077306,2146.597232,-7846.182985,1455.581446
592.077634,814.226536,-9326.594869,1378.971896
592.077962,148.041188,-9252.574275,1302.362347
592.078289,-444.123565,-9030.512492,306.438199
592.078617,-370.102971,-9622.677246,459.657299
592.078944,-296.082377,-9104.533087,229.828649
592.079272,-740.205942,-8956.491898,306.438199
592.079599,-814.226536,-8660.409521,76.609550
592.079927,0.000000,-8660.409521,383.047749
592.080254,-740.205942,-8216.285956,-383.047749
592.080582,-222.061783,-7328.038826,-383.047749
592.080910,518.144159,-7328.038826,153.219100
592.081237,1258.350101,-7402.059420,76.609550
592.081565,518.144159,-8068.244768,383.047749
592.081892,0.000000,-9548.656652,459.657299
592.082220,-1998.556043,-10288.862594,-383.047749
592.082547,-2664.741391,-10510.924376,-842.705048
592.082875,-3108.864956,-10732.986159,-1072.533697
592.083202,-2368.659014,-10288.862594,-842.705048
592.083530,-1258.350101,-9474.636058,-1302.362347
592.083857,-592.164754,-9696.697840,-842.705048
592.084185,148.041188,-9622.677246,-995.924147
592.084513,0.000000,-9400.615463,-995.924147
592.084840,296.082377,-9400.615463,-1302.362347
592.085168,1184.329507,-8956.491898,-383.047749
592.085495,2516.700203,-9104.533087,0.000000
592.085823,2886.803174,-10066.800811,1225.752797
592.086150,1332.370696,-11399.171507,1608.800546
592.086478,-148.041188,-11695.253884,1302.362347
592.086805,-888.247130,-11769.274478,1225.752797
592.087133,-962.267725,-11103.089130,1455.581446
592.087461,296.082377,-10510.924376,1225.752797
592.087788,1258.350101,-9252.574275,1302.362347
592.088116,2220.617826,-9030.512492,1149.143247
592.088443,1628.453072,-8882.471304,1608.800546
592.088771,1480.411884,-8438.347739,995.924147
592.089098,1702.473667,-8586.388927,1072.533697
592.089426,1554.432478,-8808.450710,1762.019645
592.089753,1998.556043,-8956.491898,2221.676944
592.090081,962.267725,-9104.533087,2451.505594
592.090408,-370.102971,-10807.006753,2757.943793
592.090736,-2738.761985,-11695.253884,2374.896044
592.091064,-5033.400406,-11547.212695,766.095498
592.091391,-5995.668130,-11325.150913,536.266849
592.091719,-5181.441594,-9992.780217,229.828649
592.092046,-4367.215058,-8956.491898,153.219100
592.092374,-3330.926739,-8734.430116,153.219100
592.092701,-2812.782580,-8068.244768,76.609550
592.093029,-1628.453072,-5921.647536,229.828649
592.093356,-1184.329507,-5847.626942,-536.266849
592.093684,-296.082377,-5477.523971,0.000000
592.094012,444.123565,-6069.688724,766.095498
592.094339,0.000000,-6661.853478,1991.848295
592.094667,74.020594,-8068.244768,2451.505594
592.094994,-888.247130,-9474.636058,1991.848295
592.095322,-1850.514855,-9844.739029,1072.533697
592.095649,-1924.535449,-10140.821405,612.876398
592.095977,-222.061783,-9474.636058,536.266849
592.096304,370.102971,-7994.224174,459.657299
592.096632,1776.494261,-7994.224174,229.828649
592.096959,2072.576638,-7994.224174,0.000000
592.097287,2664.741391,-7994.224174,0.000000
592.097615,2368.659014,-7476.080014,-536.266849
592.097942,3627.009116,-7624.121203,842.705048
592.098270,4145.153275,-7846.182985,1149.143247
592.098597,4219.173869,-8586.388927,1762.019645
592.098925,1850.514855,-9918.759623,1838.629195
592.099252,-222.061783,-11621.233289,1685.410096
592.099580,-2516.700203,-11473.192101,766.095498
592.099907,-3404.947333,-11103.089130,229.828649
592.100235,-2664.741391,-10288.862594,0.000000
592.100563,-2072.576638,-9104.533087,-306.438199
592.100890,-1110.308913,-8586.388927,-612.876398
592.101218,-962.267725,-7624.121203,-766.095498
592.101545,-222.061783,-6661.853478,-766.095498
592.101873,-666.185348,-6735.874072,-1608.800546
592.102200,-592.164754,-7105.977043,-1225.752797
592.102528,740.205942,-7476.080014,-229.828649
592.102855,666.185348,-8216.285956,229.828649
592.103183,592.164754,-9252.574275,1991.848295
592.103510,-1036.288319,-11473.192101,1072.533697
592.103838,-2590.720797,-12287.418637,766.095498
592.104166,-4145.153275,-13027.624579,0.000000
592.104493,-3034.844362,-11991.336260,0.000000
592.104821,-1776.494261,-11103.089130,153.219100
592.105148,0.000000,-10140.821405,229.828649
592.105476,592.164754,-9400.615463,0.000000
592.105803,1480.411884,-8808.450710,76.609550
592.106131,1406.391290,-7254.018232,-689.485948
592.106458,2590.720797,-7031.956449,-153.219100
592.106786,3552.988522,-7550.100608,842.705048
592.107114,2960.823768,-8364.327145,1225.752797
592.107441,2664.741391,-9696.697840,2681.334243
592.107769,518.144159,-10658.965565,2221.676944
592.108096,-1554.432478,-11843.295072,2221.676944
592.108424,-2812.782580,-11843.295072,1608.800546
592.108751,-3108.864956,-11251.130318,1378.971896
592.109079,-2960.823768,-10362.883188,1072.533697
592.109406,-2146.597232,-9400.615463,459.657299
592.109734,-1850.514855,-8438.347739,76.609550
592.110061,-814.226536,-7254.018232,0.000000
592.110389,0.000000,-6365.771101,-689.485948
592.110717,222.061783,-6291.750507,-536.266849
592.111044,1480.411884,-6291.750507,0.000000
592.111372,1850.514855,-6587.832884,1149.143247
592.111699,1628.453072,-7550.100608,2145.067394
592.112027,-518.144159,-9770.718434,1991.848295
592.112354,-2368.659014,-11843.295072,2221.676944
592.112682,-4441.235652,-12139.377449,1302.362347
592.113009,-4589.276840,-12065.356855,1149.143247
592.113337,-3478.967927,-10658.965565,995.924147
592.113664,-2664.741391,-9400.615463,459.657299
592.113992,-1702.473667,-8882.471304,-153.219100
592.114320,-222.061783,-7698.141797,-612.876398
592.114647,666.185348,-5625.565159,-1225.752797
592.114975,2664.741391,-4737.318029,-1072.533697
592.115302,4367.215058,-5773.606348,0.000000
592.115630,4515.256246,-6291.750507,383.047749
592.115957,3923.091493,-7550.100608,1149.143247
592.116285,2738.761985,-9696.697840,1915.238745
592.116612,370.102971,-11325.150913,1915.238745
592.116940,-1998.556043,-12435.459826,2298.286494
592.117268,-3182.885551,-13249.686362,1302.362347
592.117595,-2590.720797,-12139.377449,842.705048
592.117923,-1628.453072,-11029.068536,689.485948
592.118250,-666.185348,-10140.821405,76.609550
592.118578,-814.226536,-8808.450710,-383.047749
592.118905,74.020594,-7550.100608,-1072.533697
592.119233,1258.350101,-5551.544565,-1455.581446
592.119560,2146.597232,-5403.503377,-919.314598
592.119888,3108.864956,-5329.482782,76.609550
592.120215,2960.823768,-7254.018232,612.876398
592.120543,1110.308913,-9474.636058,1685.410096
592.120871,-370.102971,-10436.903782,1991.848295
592.121198,-2368.659014,-11399.171507,1915.238745
592.121526,-4071.132681,-12361.439231,1685.410096
592.121853,-4293.194464,-12805.562797,1225.752797
592.122181,-4219.173869,-11029.068536,0.000000
592.122508,-3108.864956,-9474.636058,229.828649
592.122836,-2146.597232,-8734.430116,-383.047749
592.123163,-666.185348,-7328.038826,-766.095498
592.123491,666.185348,-6291.750507,-995.924147
592.123819,2368.659014,-6069.688724,-383.047749
592.124146,4367.215058,-5625.565159,689.485948
592.124474,3627.009116,-6291.750507,1455.581446
592.124801,2442.679609,-8808.450710,2221.676944
592.125129,296.082377,-10140.821405,2145.067394
592.125456,-1554.432478,-11251.130318,2221.676944
592.125784,-3775.050304,-12435.459826,1072.533697
592.126111,-4071.132681,-12657.521608,1302.362347
592.126439,-2960.823768,-11547.212695,995.924147
592.126766,-2516.700203,-10510.924376,536.266849
592.127094,-1998.556043,-9104.533087,-306.438199
592.127422,-962.267725,-8142.265362,-1072.533697
592.127749,-222.061783,-6513.812290,-1608.800546
592.128077,1332.370696,-5551.544565,-1149.143247
592.128404,3404.947333,-5033.400406,-153.219100
592.128732,3849.070898,-5773.606348,459.657299
592.129059,2590.720797,-8216.285956,1072.533697
592.129387,592.164754,-10066.800811,1378.971896
592.129714,-1850.514855,-10807.006753,1072.533697
592.130042,-2886.803174,-11843.295072,1225.752797
592.130370,-3256.906145,-11843.295072,919.314598
592.130697,-2368.659014,-11769.274478,919.314598
592.131025,-2072.576638,-11399.171507,612.876398
592.131352,-1406.391290,-10066.800811,0.000000
592.131680,0.000000,-8290.306550,-459.657299
592.132007,962.267725,-7254.018232,-995.924147
592.132335,2516.700203,-6439.791695,-766.095498
592.132662,4737.318029,-6439.791695,0.000000
592.132990,5107.421000,-6365.771101,612.876398
592.133317,4663.297435,-7624.121203,1685.410096
592.133645,2146.597232,-9696.697840,1991.848295
592.133973,-296.082377,-11325.150913,2374.896044
592.134300,-2886.803174,-12805.562797,2068.457845
592.134628,-2886.803174,-13397.727550,1685.410096
592.134955,-2960.823768,-13027.624579,1915.238745
592.135283,-2516.700203,-12361.439231,1225.752797
592.135610,-2590.720797,-11843.295072,919.314598
592.135938,-2368.659014,-10214.842000,0.000000
592.136266,-2072.576638,-7920.203579,-1455.581446
592.136593,0.000000,-6661.853478,-1378.971896
592.136921,1924.535449,-5773.606348,-1072.533697
592.137248,3182.885551,-5329.482782,-383.047749
592.137576,2886.803174,-7105.977043,689.485948
592.137903,1406.391290,-8808.450710,1072.533697
592.138231,-518.144159,-9474.636058,995.924147
592.138559,-1924.535449,-11621.233289,1225.752797
592.138886,-3256.906145,-12287.418637,1455.581446
592.139214,-2590.720797,-12879.583391,1762.019645
592.139541,-3256.906145,-11991.336260,1378.971896
592.139869,-2368.659014,-10881.027347,995.924147
592.140197,-1702.473667,-9178.553681,76.609550
592.140524,-888.247130,-7698.141797,-689.485948
592.140852,222.061783,-6587.832884,-919.314598
592.141179,2294.638420,-4959.379811,-536.266849
592.141507,4071.132681,-4219.173869,-459.657299
592.141834,4515.256246,-5107.421000,689.485948
592.142162,3627.009116,-7698.141797,1762.019645
592.142490,1332.370696,-9252.574275,1838.629195
592.142817,-1554.432478,-10584.944971,1455.581446
592.143145,-2368.659014,-11843.295072,2145.067394
592.143472,-2072.576638,-11103.089130,1991.848295
592.143800,-2738.761985,-11029.068536,1915.238745
592.144128,-2294.638420,-10436.903782,1225.752797
592.144455,-1702.473667,-8808.450710,919.314598
592.144783,-2072.576638,-7179.997637,-306.438199
592.145110,-962.267725,-5699.585753,-1149.143247
592.145438,592.164754,-5107.421000,-536.266849
592.145765,1776.494261,-4737.318029,-229.828649
592.146093,2960.823768,-5403.503377,1072.533697
592.146421,1628.453072,-6883.915261,612.876398
592.146748,0.000000,-8586.388927,919.314598
592.147076,-1554.432478,-9770.718434,919.314598
592.147403,-3108.864956,-10955.047942,995.924147
592.147731,-2812.782580,-11251.130318,1149.143247
592.148059,-2812.782580,-10881.027347,842.705048
592.148386,-2738.761985,-10881.027347,842.705048
592.148714,-2738.761985,-10140.821405,76.609550
592.149041,-2072.576638,-8660.409521,-536.266849
592.149369,-1258.350101,-7550.100608,-1225.752797
592.149696,1184.329507,-6883.915261,-919.314598
592.150024,2886.803174,-5329.482782,-383.047749
592.150352,3997.112087,-6291.750507,153.219100
592.150679,3034.844362,-8364.327145,1072.533697
592.151007,1776.494261,-9474.636058,1455.581446
592.151334,592.164754,-11325.150913,919.314598
592.151662,-666.185348,-12213.398043,2221.676944
592.151990,-518.144159,-12805.562797,2221.676944
592.152317,-962.267725,-13101.645173,1838.629195
592.152645,-1406.391290,-12805.562797,1915.238745
592.152972,-1480.411884,-11991.336260,766.095498
592.153300,-1776.494261,-10362.883188,229.828649
592.153628,-592.164754,-8586.388927,-995.924147
592.153955,740.205942,-7402.059420,-1302.362347
592.154283,2664.741391,-6661.853478,-689.485948
592.154610,3997.112087,-6291.750507,-229.828649
592.154938,2664.741391,-7772.162391,612.876398
592.155265,1628.453072,-9178.553681,1149.143247
592.155593,-1036.288319,-9844.739029,459.657299
592.155921,-2220.617826,-11843.295072,995.924147
592.156248,-2886.803174,-12435.459826,1149.143247
592.156576,-2960.823768,-11843.295072,1455.581446
592.156903,-2812.782580,-11843.295072,1532.190996
592.157231,-3108.864956,-11621.233289,919.314598
592.157559,-3182.885551,-10362.883188,0.000000
592.157886,-2590.720797,-9030.512492,-1072.533697
592.158214,-370.102971,-7476.080014,-766.095498
592.158541,1480.411884,-6439.791695,-919.314598
592.158869,2516.700203,-6587.832884,-383.047749
592.159196,2220.617826,-7328.038826,0.000000
592.159524,1850.514855,-8364.327145,153.219100
592.159852,222.061783,-8290.306550,0.000000
592.160179,148.041188,-9844.739029,1455.581446
592.160507,-518.144159,-11029.068536,1225.752797
592.160834,-444.123565,-11473.192101,1685.410096
592.161162,-1110.308913,-11991.336260,1455.581446
592.161490,-1554.432478,-11399.171507,1072.533697
592.161817,-888.247130,-9770.718434,1072.533697
592.162145,-888.247130,-8660.409521,229.828649
592.162472,444.123565,-7105.977043,0.000000
592.162800,2294.638420,-6069.688724,0.000000
592.163127,3701.029710,-4885.359217,383.047749
592.163455,3627.009116,-5847.626942,842.705048
592.163783,2886.803174,-6735.874072,1378.971896
592.164110,518.144159,-7550.100608,306.438199
592.164438,-666.185348,-9474.636058,919.314598
592.164765,-1258.350101,-10066.800811,1455.581446
592.165093,-592.164754,-9992.780217,1608.800546
592.165421,-962.267725,-10436.903782,2451.505594
592.165748,-1924.535449,-10732.986159,1915.238745
592.166076,-2664.741391,-9992.780217,919.314598
592.166403,-3627.009116,-8808.450710,0.000000
592.166731,-2960.823768,-7031.956449,-306.438199
592.167058,-1110.308913,-5625.565159,-689.485948
592.167386,74.020594,-5403.503377,-995.924147
592.167714,814.226536,-5921.647536,-306.438199
592.168041,592.164754,-7031.956449,229.828649
592.168369,-666.185348,-7550.100608,306.438199
592.168696,-2072.576638,-8882.471304,612.876398
592.169024,-1776.494261,-9844.739029,459.657299
592.169352,-1332.370696,-9844.739029,995.924147
592.169679,-1480.411884,-10510.924376,1302.362347
592.170007,-1332.370696,-11325.150913,1302.362347
592.170334,-1554.432478,-10288.862594,1072.533697
592.170662,-1036.288319,-9252.574275,842.705048
592.170989,0.000000,-8882.471304,229.828649
592.171317,1480.411884,-7624.121203,383.047749
592.171645,2368.659014,-6883.915261,306.438199
592.171972,2294.638420,-7550.100608,76.609550
592.172300,592.164754,-8216.285956,689.485948
592.172627,370.102971,-8956.491898,306.438199
592.172955,296.082377,-10066.800811,459.657299
592.173283,74.020594,-10658.965565,766.095498
592.173610,592.164754,-10584.944971,1378.971896
592.173938,148.041188,-11177.109724,1302.362347
592.174265,-962.267725,-10955.047942,1072.533697
592.174593,-370.102971,-10584.944971,1225.752797
592.174920,-1702.473667,-9844.739029,76.609550
592.175248,-1184.329507,-9844.739029,0.000000
592.175576,-888.247130,-8734.430116,383.047749
592.175903,222.061783,-7476.080014,229.828649
592.176231,74.020594,-7994.224174,536.266849
592.176558,0.000000,-9178.553681,842.705048
592.176886,-962.267725,-8956.491898,306.438199
592.177214,-1702.473667,-9326.594869,0.000000
592.177541,-888.247130,-9326.594869,306.438199
592.177869,-740.205942,-9252.574275,229.828649
592.178196,-296.082377,-10140.821405,689.485948
592.178524,-592.164754,-10881.027347,842.705048
592.178851,-148.041188,-11029.068536,1225.752797
592.179179,-1036.288319,-10658.965565,612.876398
592.179507,-1036.288319,-10658.965565,612.876398
592.179834,0.000000,-10066.800811,689.485948
592.180162,1110.308913,-8808.450710,995.924147
592.180489,814.226536,-9326.594869,919.314598
592.180817,740.205942,-9030.512492,842.705048
592.181145,0.000000,-9474.636058,612.876398
592.181472,-666.185348,-8882.471304,0.000000
592.181800,-1036.288319,-9326.594869,306.438199
592.182127,-148.041188,-8956.491898,612.876398
592.182455,148.041188,-8586.388927,1072.533697
592.182783,148.041188,-9474.636058,1225.752797
592.183110,148.041188,-9252.574275,1225.752797
592.183438,-962.267725,-8808.450710,689.485948
592.183765,-1332.370696,-9474.636058,612.876398
592.184093,-370.102971,-8882.471304,689.485948
592.184420,444.123565,-7698.141797,766.095498
592.184748,592.164754,-7772.162391,1072.533697
592.185076,74.020594,-8512.368333,1225.752797
592.185403,0.000000,-8290.306550,842.705048
592.185731,-1036.288319,-8068.244768,153.219100
592.186058,-1332.370696,-8660.409521,0.000000
592.186386,-296.082377,-8216.285956,229.828649
592.186714,-444.123565,-8216.285956,459.657299
592.187041,0.000000,-8660.409521,919.314598
592.187369,-444.123565,-9548.656652,766.095498
592.187696,-1258.350101,-9548.656652,306.438199
592.188024,-1776.494261,-9474.636058,383.047749
592.188351,-518.144159,-8956.491898,459.657299
592.188679,0.000000,-8586.388927,689.485948
592.189007,888.247130,-8438.347739,612.876398
592.189334,148.041188,-8438.347739,1225.752797
592.189662,222.061783,-8364.327145,995.924147
592.189989,-1036.288319,-8586.388927,153.219100
592.190317,-1258.350101,-9030.512492,76.609550
592.190645,-666.185348,-9030.512492,153.219100
592.190972,-888.247130,-8734.430116,76.609550
592.191300,148.041188,-9474.636058,229.828649
592.191627,-518.144159,-9400.615463,153.219100
592.191955,0.000000,-9104.533087,153.219100
592.192282,-370.102971,-9326.594869,0.000000
592.192610,592.164754,-9104.533087,306.438199
592.192938,1184.329507,-9030.512492,612.876398
592.193265,1406.391290,-8882.471304,536.266849
592.193593,814.226536,-9326.594869,842.705048
592.193920,222.061783,-10066.800811,229.828649
592.194248,-1258.350101,-10214.842000,-229.828649
592.194576,-1258.350101,-9770.718434,-459.657299
592.194903,-592.164754,-9474.636058,-153.219100
592.195231,-370.102971,-8734.430116,0.000000
592.195558,518.144159,-9622.677246,459.657299
592.195886,-444.123565,-10214.842000,689.485948
592.196213,0.000000,-9104.533087,612.876398
592.196541,-666.185348,-8438.347739,0.000000
592.196869,1184.329507,-7846.182985,536.266849
592.197196,2220.617826,-7550.100608,919.314598
592.197524,1998.556043,-8068.244768,1608.800546
592.197851,1332.370696,-8734.430116,1991.848295
592.198179,0.000000,-9622.677246,1762.019645
592.198507,-2146.597232,-10584.944971,995.924147
592.198834,-3108.864956,-10881.027347,536.266849
592.199162,-2368.659014,-10362.883188,153.219100
592.199489,-1702.473667,-9622.677246,306.438199
592.199817,-814.226536,-9252.574275,536.266849
592.200144,-370.102971,-9622.677246,1072.533697
592.200472,0.000000,-8808.450710,1149.143247
592.200800,-444.123565,-7624.121203,153.219100
592.201127,-296.082377,-7920.203579,612.876398
592.201455,962.267725,-7402.059420,1072.533697
592.201782,296.082377,-7846.182985,1302.362347
592.202110,-296.082377,-9030.512492,1838.629195
592.202438,-1258.350101,-9400.615463,1608.800546
592.202765,-2516.700203,-10362.883188,1378.971896
592.203093,-3404.947333,-9770.718434,306.438199
592.203420,-2812.782580,-9622.677246,0.000000
592.203748,-1554.432478,-8734.430116,0.000000
592.204075,-222.061783,-8438.347739,229.828649
592.204403,296.082377,-8068.244768,459.657299
592.204731,962.267725,-7994.224174,766.095498
592.205058,814.226536,-7179.997637,-306.438199
592.205386,1036.288319,-7105.977043,229.828649
592.205713,2442.679609,-7698.141797,1225.752797
592.206041,1776.494261,-8290.306550,1532.190996
592.206369,1998.556043,-9474.636058,2604.724693
592.206696,1184.329507,-9548.656652,2911.162892
592.207024,0.000000,-10140.821405,2681.334243
592.207351,-888.247130,-10732.986159,2374.896044
592.207679,-1332.370696,-10658.965565,2145.067394
592.208007,-296.082377,-9474.636058,2221.676944
592.208334,-296.082377,-9326.594869,2145.067394
592.208662,-222.061783,-9178.553681,1608.800546
592.208989,0.000000,-8734.430116,1608.800546
592.209317,592.164754,-7550.100608,1455.581446
592.209644,1406.391290,-6809.894666,1685.410096
592.209972,3108.864956,-6809.894666,2911.162892
592.210300,2886.803174,-6661.853478,3447.429741
592.210627,1184.329507,-8290.306550,3447.429741
592.210955,-962.267725,-10066.800811,3064.381992
592.211282,-3182.885551,-11177.109724,2681.334243
592.211610,-5625.565159,-11399.171507,2145.067394
592.211938,-5847.626942,-12287.418637,1762.019645
592.212265,-4885.359217,-11177.109724,1608.800546
592.212593,-2072.576638,-9104.533087,1991.848295
592.212920,-296.082377,-8142.265362,1762.019645
592.213248,222.061783,-8142.265362,1532.190996
592.213575,962.267725,-7550.100608,1072.533697
592.213903,-1110.308913,-7920.203579,0.000000
592.214231,-1036.288319,-7920.203579,153.219100
592.214558,814.226536,-7772.162391,1378.971896
592.214886,3034.844362,-8438.347739,2834.553343
592.215213,3552.988522,-9918.759623,4903.011187
592.215541,3330.926739,-10807.006753,5822.325785
592.215869,2368.659014,-11251.130318,6205.373534
592.216196,-592.164754,-11843.295072,4903.011187
592.216524,-1924.535449,-12953.603985,4519.963438
592.216851,-1628.453072,-11547.212695,3830.477490
592.217179,74.020594,-10510.924376,3907.087040
592.217506,888.247130,-8882.471304,3753.867940
592.217834,1184.329507,-8586.388927,4290.134789
592.218162,1850.514855,-7402.059420,4213.525239
592.218489,1406.391290,-6365.771101,3600.648841
592.218817,888.247130,-6957.935855,3064.381992
592.219144,296.082377,-7920.203579,3064.381992
592.219472,0.000000,-8364.327145,3907.087040
592.219800,-592.164754,-9178.553681,4826.401637
592.220127,-370.102971,-10436.903782,6052.154434
592.220455,-1924.535449,-10955.047942,6511.811733
592.220782,-3552.988522,-10658.965565,5898.935335
592.221110,-4737.318029,-10362.883188,4749.792088
592.221437,-5847.626942,-10288.862594,3907.087040
592.221765,-6291.750507,-8882.471304,2757.943793
592.222093,-3701.029710,-7105.977043,2681.334243
592.222420,-1628.453072,-6069.688724,2604.724693
592.222748,-518.144159,-6217.729913,2528.115143
592.223075,-222.061783,-5773.606348,1762.019645
592.223403,-222.061783,-5551.544565,1225.752797
592.223731,888.247130,-6587.832884,2068.457845
592.224058,222.061783,-7846.182985,1762.019645
592.224386,740.205942,-8660.409521,2528.115143
592.224713,2368.659014,-9252.574275,4213.525239
592.225041,3552.988522,-10214.842000,5515.887586
592.225368,3034.844362,-11103.089130,6435.202183
592.225696,1776.494261,-11917.315666,6281.983084
592.226024,592.164754,-12065.356855,5439.278036
592.226351,0.000000,-11695.253884,4749.792088
592.226679,-148.041188,-10436.903782,3370.820191
592.227006,-888.247130,-9622.677246,2911.162892
592.227334,888.247130,-8660.409521,2298.286494
592.227662,1332.370696,-7105.977043,2528.115143
592.227989,1702.473667,-6291.750507,2528.115143
592.228317,1184.329507,-7179.997637,1685.410096
592.228644,-1036.288319,-8882.471304,1225.752797
592.228972,-2590.720797,-10066.800811,383.047749
592.229299,-4071.132681,-9918.759623,229.828649
592.229627,-3627.009116,-10214.842000,766.095498
592.229955,-2146.597232,-9844.739029,1455.581446
592.230282,-1258.350101,-10288.862594,2681.334243
592.230610,-518.144159,-9400.615463,2834.553343
592.230937,962.267725,-8808.450710,3983.696590
592.231265,888.247130,-8438.347739,3753.867940
592.231593,1406.391290,-9030.512492,3677.258390
592.231920,666.185348,-9918.759623,3064.381992
592.232248,1110.308913,-9474.636058,3217.601092
592.232575,1776.494261,-9400.615463,3907.087040
592.232903,2590.720797,-9178.553681,4213.525239
592.233230,3108.864956,-9770.718434,4060.306139
592.233558,3108.864956,-10807.006753,4290.134789
592.233886,2368.659014,-10955.047942,4366.744339
592.234213,1850.514855,-10510.924376,4290.134789
592.234541,1850.514855,-10658.965565,4136.915689
592.234868,0.000000,-11621.233289,4596.572988
592.235196,-1258.350101,-11843.295072,4136.915689
592.235523,-3404.947333,-11917.315666,3600.648841
592.235851,-3627.009116,-9770.718434,3753.867940
592.236178,-2146.597232,-8290.306550,3140.991542
592.236506,-1924.535449,-7179.997637,3370.820191
592.236834,-1850.514855,-7105.977043,3140.991542
592.237161,-2590.720797,-7105.977043,2834.553343
592.237489,-2886.803174,-6809.894666,2528.115143
592.237816,-2220.617826,-6809.894666,3294.210641
592.238144,-518.144159,-6809.894666,3677.258390
592.238471,814.226536,-7624.121203,4136.915689
592.238799,518.144159,-8956.491898,4366.744339
592.239126,-1110.308913,-9992.780217,4519.963438
592.239454,-1702.473667,-9992.780217,4366.744339
592.239782,-962.267725,-9770.718434,3983.696590
592.240109,296.082377,-9400.615463,4060.306139
592.240437,1110.308913,-9474.636058,4213.525239
592.240764,1036.288319,-10066.800811,3753.867940
592.241092,518.144159,-9770.718434,3294.210641
592.241419,518.144159,-9104.533087,3447.429741
592.241747,962.267725,-8512.368333,3830.477490
592.242074,1776.494261,-8142.265362,3447.429741
592.242402,2146.597232,-8512.368333,3830.477490
592.242729,888.247130,-8586.388927,4060.306139
592.243057,-1554.432478,-8956.491898,3447.429741
592.243385,-2368.659014,-9104.533087,3064.381992
592.243712,-2368.659014,-8882.471304,2604.724693
592.244040,-1702.473667,-9030.512492,2681.334243
592.244367,-148.041188,-8364.327145,3447.429741
592.244695,592.164754,-8142.265362,3524.039291
592.245022,-370.102971,-7698.141797,3064.381992
592.245350,-740.205942,-7624.121203,2757.943793
592.245677,-2146.597232,-7994.224174,2068.457845
592.246005,-1776.494261,-8290.306550,842.705048
592.246333,-370.102971,-8290.306550,459.657299
592.246660,740.205942,-7772.162391,2451.505594
592.246988,2146.597232,-7846.182985,3370.820191
592.247315,2590.720797,-8882.471304,4366.744339
592.247643,2294.638420,-9844.739029,4366.744339
592.247970,1332.370696,-10807.006753,3753.867940
592.248298,-370.102971,-11473.192101,3140.991542
592.248625,-1110.308913,-11769.274478,2911.162892
592.248953,-814.226536,-11177.109724,3447.429741
592.249280,740.205942,-10436.903782,4060.306139
592.249608,2738.761985,-9548.656652,5209.449386
592.249936,2738.761985,-9252.574275,5439.278036
592.250263,888.247130,-9326.594869,4136.915689
592.250591,-1776.494261,-9178.553681,3217.601092
592.250918,-3108.864956,-9474.636058,2068.457845
592.251246,-3997.112087,-9474.636058,1762.019645
592.251573,-2368.659014,-8586.388927,1762.019645
592.251901,-666.185348,-7772.162391,2681.334243
592.252228,814.226536,-7328.038826,3983.696590
592.252556,592.164754,-7550.100608,4366.744339
592.252883,0.000000,-7994.224174,4443.353888
592.253211,-1332.370696,-9474.636058,3907.087040
592.253539,-2590.720797,-10214.842000,2604.724693
592.253866,-3552.988522,-10510.924376,2145.067394
592.254194,-3256.906145,-10362.883188,2145.067394
592.254521,-1554.432478,-9992.780217,2757.943793
592.254849,444.123565,-9104.533087,3983.696590
592.255176,2368.659014,-8512.368333,4290.134789
592.255504,2368.659014,-8438.347739,4213.525239
592.255831,1850.514855,-8956.491898,3600.648841
592.256159,592.164754,-9474.636058,3217.601092
592.256487,0.000000,-9844.739029,2911.162892
592.256814,0.000000,-10066.800811,2911.162892
592.257142,370.102971,-9992.780217,3447.429741
592.257469,148.041188,-9844.739029,3677.258390
592.257797,-222.061783,-9400.615463,3753.867940
592.258124,-444.123565,-9030.512492,3830.477490
592.258452,-444.123565,-8660.409521,3907.087040
592.258779,-370.102971,-8586.388927,2681.334243
592.259107,0.000000,-8068.244768,2528.115143
592.259434,296.082377,-7846.182985,2757.943793
592.259762,962.267725,-7698.141797,3294.210641
592.260090,1554.432478,-7624.121203,4060.306139
592.260417,1258.350101,-8142.265362,3907.087040
592.260745,962.267725,-8808.450710,3983.696590
592.261072,0.000000,-9252.574275,3983.696590
592.261400,-814.226536,-9474.636058,4060.306139
592.261727,-1258.350101,-9622.677246,3830.477490
592.262055,-1036.288319,-9622.677246,3447.429741
592.262382,-1258.350101,-9622.677246,3294.210641
592.262710,-518.144159,-9622.677246,3370.820191
592.263038,0.000000,-9252.574275,3064.381992
592.263365,-296.082377,-8586.388927,3140.991542
592.263693,-296.082377,-8290.306550,2987.772442
592.264020,-592.164754,-8290.306550,2911.162892
592.264348,-962.267725,-8068.244768,2604.724693
592.264675,-888.247130,-8068.244768,2757.943793
592.265003,-814.226536,-8438.347739,2757.943793
592.265330,-370.102971,-8290.306550,3294.210641
592.265658,-222.061783,-8808.450710,3447.429741
592.265985,0.000000,-9474.636058,3983.696590
592.266313,0.000000,-9548.656652,3830.477490
592.266641,-592.164754,-9770.718434,3600.648841
592.266968,-740.205942,-9844.739029,2834.553343
592.267296,-1110.308913,-9326.594869,3447.429741
592.267623,-518.144159,-9252.574275,2681.334243
592.267951,0.000000,-9030.512492,2911.162892
592.268278,666.185348,-9030.512492,2604.724693
592.268606,814.226536,-8956.491898,2451.505594
592.268933,666.185348,-9622.677246,2374.896044
592.269261,0.000000,-9918.759623,2145.067394
592.269589,-222.061783,-10214.842000,2298.286494
592.269916,-592.164754,-10140.821405,2068.457845
592.270244,-444.123565,-9992.780217,1991.848295
592.270571,-296.082377,-9474.636058,1838.629195
592.270899,-370.102971,-9844.739029,2068.457845
592.271226,-592.164754,-9844.739029,1991.848295
592.271554,-1036.288319,-9474.636058,1915.238745
592.271881,-962.267725,-9104.533087,1608.800546
592.272209,-592.164754,-8660.409521,1302.362347
592.272536,-518.144159,-8290.306550,1225.752797
592.272864,148.041188,-8290.306550,1378.971896
592.273192,518.144159,-8216.285956,1225.752797
592.273519,444.123565,-8438.347739,1378.971896
592.273847,148.041188,-8734.430116,1762.019645
592.274174,148.041188,-8956.491898,1378.971896
592.274502,-222.061783,-9622.677246,1225.752797
592.274829,0.000000,-9844.739029,1225.752797
592.275157,444.123565,-9992.780217,1608.800546
592.275484,888.247130,-9770.718434,1762.019645
592.275812,1184.329507,-9918.759623,1532.190996
592.276140,740.205942,-9696.697840,2145.067394
592.276467,0.000000,-9474.636058,1532.190996
592.276795,-296.082377,-9326.594869,1455.581446
592.277122,-1036.288319,-8956.491898,1302.362347
592.277450,-1036.288319,-8808.450710,842.705048
592.277777,-518.144159,-8808.450710,1072.533697
592.278105,-444.123565,-8808.450710,1072.533697
592.278432,-592.164754,-8512.368333,919.314598
592.278760,-444.123565,-8290.306550,919.314598
592.279087,-444.123565,-8438.347739,842.705048
592.279415,-444.123565,-8216.285956,612.876398
592.279743,-814.226536,-7846.182985,383.047749
592.280070,-666.185348,-8216.285956,459.657299
592.280398,-740.205942,-8512.368333,842.705048
592.280725,-148.041188,-8586.388927,1072.533697
592.281053,0.000000,-8882.471304,1149.143247
592.281380,-444.123565,-9030.512492,1302.362347
592.281708,-222.061783,-9178.553681,919.314598
592.282035,-148.041188,-9030.512492,612.876398
592.282363,0.000000,-8512.368333,842.705048
592.282691,518.144159,-8734.430116,1072.533697
592.283018,222.061783,-9252.574275,689.485948
592.283346,0.000000,-9252.574275,766.095498
592.283673,0.000000,-9474.636058,1072.533697
592.284001,0.000000,-9548.656652,919.314598
592.284328,0.000000,-9400.615463,919.314598
592.284656,-518.144159,-9326.594869,919.314598
592.284983,-518.144159,-9400.615463,842.705048
592.285311,-370.102971,-8956.491898,842.705048
592.285638,-444.123565,-8882.471304,766.095498
592.285966,-740.205942,-8660.409521,459.657299
592.286294,-592.164754,-8808.450710,842.705048
592.286621,-962.267725,-8734.430116,689.485948
592.286949,-1036.288319,-8882.471304,459.657299
592.287276,-962.267725,-9030.512492,459.657299
592.287604,-1110.308913,-8808.450710,1225.752797
592.287931,-592.164754,-9252.574275,153.219100
592.288259,-370.102971,-9400.615463,459.657299
592.288586,-444.123565,-9252.574275,459.657299
592.288914,0.000000,-9400.615463,536.266849
592.289241,74.020594,-9326.594869,1072.533697
592.289569,74.020594,-9474.636058,459.657299
592.289897,0.000000,-9474.636058,383.047749
592.290224,-222.061783,-9770.718434,536.266849
592.290552,-444.123565,-9844.739029,689.485948
592.290879,-222.061783,-9770.718434,612.876398
592.291207,0.000000,-9474.636058,1225.752797
592.291534,148.041188,-9400.615463,229.828649
592.291862,518.144159,-9178.553681,689.485948
592.292189,444.123565,-9326.594869,459.657299
592.292517,222.061783,-9178.553681,536.266849
592.292845,296.082377,-9030.512492,612.876398
592.293172,74.020594,-9178.553681,306.438199
592.293500,-148.041188,-9326.594869,689.485948
592.293827,-148.041188,-9400.615463,612.876398
592.294155,0.000000,-9400.615463,536.266849
592.294482,0.000000,-9030.512492,536.266849
592.294810,444.123565,-8512.368333,0.000000
592.295137,74.020594,-8956.491898,383.047749
592.295465,74.020594,-8660.409521,76.609550
592.295792,-148.041188,-8660.409521,229.828649
592.296120,-222.061783,-8290.306550,612.876398
592.296448,-370.102971,-8734.430116,383.047749
592.296775,-592.164754,-8956.491898,153.219100
592.297103,-814.226536,-9178.553681,383.047749
592.297430,-1036.288319,-9178.553681,153.219100
592.297758,-740.205942,-8808.450710,459.657299
592.298085,0.000000,-8660.409521,536.266849
592.298413,-444.123565,-8586.388927,536.266849
592.298740,-296.082377,-8660.409521,306.438199
592.299068,-222.061783,-8660.409521,536.266849
592.299396,-592.164754,-8660.409521,459.657299
592.299723,-444.123565,-8660.409521,459.657299
592.300051,-814.226536,-8956.491898,766.095498
592.300378,-888.247130,-9326.594869,919.314598
592.300706,-888.247130,-8882.471304,919.314598
592.301033,-592.164754,-8956.491898,766.095498
592.301361,-296.082377,-9178.553681,459.657299
592.301688,-148.041188,-8142.265362,766.095498
592.302016,-296.082377,-8882.471304,689.485948
592.302343,-370.102971,-9104.533087,536.266849
592.302671,-444.123565,-9400.615463,919.314598
592.302999,-666.185348,-9104.533087,842.705048
592.303326,-296.082377,-9030.512492,766.095498
592.303654,-518.144159,-9326.594869,689.485948
592.303981,-296.082377,-9400.615463,612.876398
592.304309,0.000000,-9474.636058,229.828649
592.304636,-444.123565,-9030.512492,1455.581446
592.304964,148.041188,-8956.491898,383.047749
592.305291,-518.144159,-9030.512492,612.876398
592.305619,-518.144159,-9326.594869,689.485948
592.305947,-814.226536,-9548.656652,536.266849
592.306274,-370.102971,-9326.594869,383.047749
592.306602,-444.123565,-8956.491898,995.924147
592.306929,-370.102971,-9030.512492,383.047749
592.307257,0.000000,-9326.594869,153.219100
592.307584,-296.082377,-9104.533087,229.828649
592.307912,0.000000,-9178.553681,383.047749
592.308239,0.000000,-9252.574275,689.485948
592.308567,-222.061783,-9474.636058,612.876398
592.308894,-666.185348,-9696.697840,689.485948
592.309222,-370.102971,-9696.697840,536.266849
592.309550,-296.082377,-9474.636058,689.485948
592.309877,0.000000,-9252.574275,1149.143247
592.310205,0.000000,-9030.512492,306.438199
592.310532,-296.082377,-8882.471304,459.657299
592.310860,-592.164754,-8808.450710,76.609550
592.311187,-888.247130,-8808.450710,383.047749
592.311515,-1110.308913,-8586.388927,459.657299
592.311842,-666.185348,-8734.430116,766.095498
592.312170,-1036.288319,-9030.512492,689.485948
592.312498,-592.164754,-8660.409521,766.095498
592.312825,148.041188,-8586.388927,536.266849
592.313153,444.123565,-8364.327145,536.266849
592.313480,814.226536,-8216.285956,689.485948
592.313808,296.082377,-8438.347739,612.876398
592.314135,0.000000,-8956.491898,536.266849
592.314463,-444.123565,-9548.656652,842.705048
592.314790,-296.082377,-10288.862594,1072.533697
592.315118,-296.082377,-9770.718434,919.314598
592.315445,0.000000,-9326.594869,842.705048
592.315773,518.144159,-9030.512492,383.047749
592.316101,592.164754,-8438.347739,306.438199
592.316428,666.185348,-8216.285956,76.609550
592.316756,666.185348,-7846.182985,306.438199
592.317083,148.041188,-8364.327145,689.485948
592.317411,-148.041188,-8882.471304,306.438199
592.317738,-740.205942,-9326.594869,536.266849
592.318066,-740.205942,-9474.636058,383.047749
592.318393,-370.102971,-9326.594869,766.095498
592.318721,370.102971,-9400.615463,766.095498
592.319048,0.000000,-8808.450710,229.828649
592.319376,444.123565,-8290.306550,0.000000
592.319704,518.144159,-8364.327145,76.609550
592.320031,296.082377,-8438.347739,153.219100
592.320359,0.000000,-8956.491898,0.000000
592.320686,-666.185348,-9326.594869,612.876398
592.321014,-962.267725,-9696.697840,612.876398
592.321341,-814.226536,-10066.800811,766.095498
592.321669,-592.164754,-9548.656652,536.266849
592.321996,-148.041188,-9400.615463,459.657299
592.322324,148.041188,-8956.491898,383.047749
592.322652,444.123565,-8660.409521,229.828649
592.322979,222.061783,-8734.430116,536.266849
592.323307,222.061783,-9326.594869,536.266849
592.323634,-148.041188,-9474.636058,995.924147
592.323962,-666.185348,-9918.759623,1149.143247
592.324289,-814.226536,-10066.800811,1149.143247
592.324617,-814.226536,-10066.800811,1072.533697
592.324944,-518.144159,-9548.656652,689.485948
592.325272,-296.082377,-9104.533087,383.047749
592.325599,222.061783,-8290.306550,383.047749
592.325927,-296.082377,-8512.368333,612.876398
592.326255,-370.102971,-8956.491898,612.876398
592.326582,-740.205942,-9400.615463,689.485948
592.326910,-888.247130,-9474.636058,1072.533697
592.327237,-666.185348,-9844.739029,919.314598
592.327565,-370.102971,-9548.656652,766.095498
592.327892,-666.185348,-9474.636058,383.047749
592.328220,-370.102971,-9326.594869,612.876398
592.328547,-370.102971,-9252.574275,383.047749
592.328875,0.000000,-8956.491898,0.000000
592.329203,-148.041188,-9400.615463,689.485948
592.329530,-814.226536,-9622.677246,919.314598
592.329858,-814.226536,-9696.697840,766.095498
592.330185,-592.164754,-9622.677246,1072.533697
592.330513,-888.247130,-9178.553681,995.924147
592.330840,-740.205942,-8808.450710,689.485948
592.331168,-666.185348,-8660.409521,459.657299
592.331495,-592.164754,-8068.244768,229.828649
592.331823,-296.082377,-8216.285956,383.047749
592.332150,-814.226536,-8216.285956,153.219100
592.332478,-1036.288319,-8068.244768,536.266849
592.332806,-740.205942,-8512.368333,536.266849
592.333133,-592.164754,-8882.471304,766.095498
592.333461,-592.164754,-8956.491898,536.266849
592.333788,-444.123565,-9104.533087,612.876398
592.334116,-444.123565,-9104.533087,919.314598
592.334443,0.000000,-8808.450710,612.876398
592.334771,-222.061783,-8660.409521,459.657299
592.335098,0.000000,-8882.471304,612.876398
592.335426,-148.041188,-8882.471304,842.705048
592.335754,-222.061783,-8660.409521,459.657299
592.336081,-296.082377,-8882.471304,919.314598
592.336409,-296.082377,-8882.471304,536.266849
592.336736,-370.102971,-8808.450710,536.266849
592.337064,-222.061783,-8734.430116,306.438199
592.337391,0.000000,-8734.430116,766.095498
592.337719,222.061783,-8438.347739,459.657299
592.338047,0.000000,-8882.471304,689.485948
592.338374,148.041188,-8956.491898,536.266849
592.338702,148.041188,-9104.533087,459.657299
592.339029,0.000000,-9030.512492,536.266849
592.339357,296.082377,-9178.553681,689.485948
592.339684,0.000000,-8956.491898,612.876398
592.340012,-444.123565,-9030.512492,153.219100
592.340340,-148.041188,-8956.491898,76.609550
592.340667,-296.082377,-8882.471304,0.000000
592.340995,0.000000,-8734.430116,306.438199
592.341322,0.000000,-8882.471304,459.657299
592.341650,0.000000,-9178.553681,383.047749
592.341977,0.000000,-9252.574275,612.876398
592.342305,0.000000,-9474.636058,766.095498
592.342633,74.020594,-9622.677246,1225.752797
592.342960,-148.041188,-9548.656652,842.705048
592.343288,0.000000,-9770.718434,612.876398
592.343615,0.000000,-9548.656652,842.705048
592.343943,0.000000,-9548.656652,766.095498
592.344270,0.000000,-9400.615463,459.657299
592.344598,74.020594,-8956.491898,536.266849
592.344926,0.000000,-9178.553681,612.876398
592.345253,-370.102971,-9030.512492,459.657299
592.345581,-370.102971,-9104.533087,612.876398
592.345908,-222.061783,-9104.533087,612.876398
592.346236,0.000000,-9400.615463,919.314598
592.346563,-444.123565,-9030.512492,919.314598
592.346891,0.000000,-9474.636058,536.266849
592.347219,0.000000,-9474.636058,766.095498
592.347546,74.020594,-9474.636058,766.095498
592.347874,0.000000,-9326.594869,459.657299
592.348201,148.041188,-9326.594869,459.657299
592.348529,0.000000,-9252.574275,536.266849
592.348856,0.000000,-9400.615463,306.438199
592.349184,-148.041188,-9252.574275,229.828649
592.349512,0.000000,-9326.594869,689.485948
592.349839,-518.144159,-9104.533087,536.266849
592.350167,0.000000,-8956.491898,459.657299
592.350494,-74.020594,-8882.471304,306.438199
592.350822,0.000000,-8734.430116,306.438199
592.351149,-296.082377,-9178.553681,229.828649
592.351477,0.000000,-8956.491898,306.438199
592.351804,-222.061783,-9326.594869,842.705048
592.352132,0.000000,-9252.574275,689.485948
592.352460,0.000000,-9400.615463,689.485948
592.352787,0.000000,-9474.636058,612.876398
592.353115,0.000000,-8956.491898,766.095498
592.353442,-370.102971,-9104.533087,459.657299
592.353770,-148.041188,-9178.553681,536.266849
592.354097,-296.082377,-8956.491898,306.438199
592.354425,-370.102971,-9030.512492,612.876398
592.354753,0.000000,-9104.533087,536.266849
592.355080,-222.061783,-9252.574275,459.657299
592.355408,-518.144159,-9252.574275,306.438199
592.355735,-296.082377,-9252.574275,612.876398
592.356063,-148.041188,-9178.553681,612.876398
592.356390,0.000000,-8586.388927,459.657299
592.356718,0.000000,-9252.574275,383.047749
592.357046,-296.082377,-9104.533087,459.657299
592.357373,-370.102971,-9104.533087,536.266849
592.357701,-444.123565,-9104.533087,536.266849
592.358028,-666.185348,-8956.491898,536.266849
592.358356,0.000000,-9400.615463,383.047749
592.358683,-740.205942,-9030.512492,383.047749
592.359011,-592.164754,-8882.471304,612.876398
592.359339,-518.144159,-9252.574275,536.266849
592.359666,-444.123565,-9178.553681,383.047749
592.359994,-296.082377,-9104.533087,459.657299
592.360321,-666.185348,-8660.409521,919.314598
592.360649,-444.123565,-9104.533087,612.876398
592.360976,-370.102971,-9104.533087,689.485948
592.361304,-296.082377,-9030.512492,459.657299
592.361632,-666.185348,-8808.450710,612.876398
592.361959,-444.123565,-8734.430116,612.876398
592.362287,-666.185348,-8808.450710,306.438199
592.362614,-814.226536,-8808.450710,536.266849
592.362942,-740.205942,-8586.388927,689.485948
592.363269,-518.144159,-8586.388927,842.705048
592.363597,-814.226536,-8586.388927,995.924147
592.363925,-592.164754,-8956.491898,689.485948
592.364252,-592.164754,-8956.491898,689.485948
592.364580,-518.144159,-9030.512492,766.095498
592.364907,-592.164754,-9104.533087,919.314598
592.365235,-592.164754,-8956.491898,842.705048
592.365562,-444.123565,-8956.491898,842.705048
592.365890,-148.041188,-8956.491898,536.266849
592.366218,-296.082377,-8734.430116,612.876398
592.366545,-296.082377,-9030.512492,689.485948
592.366873,0.000000,-9178.553681,76.609550
592.367200,-296.082377,-8364.327145,689.485948
592.367528,-296.082377,-8808.450710,459.657299
592.367855,-518.144159,-8956.491898,383.047749
592.368183,-444.123565,-9178.553681,766.095498
592.368511,-296.082377,-8882.471304,383.047749
592.368838,222.061783,-9030.512492,612.876398
592.369166,0.000000,-9178.553681,383.047749
592.369493,-370.102971,-8956.491898,306.438199
592.369821,-148.041188,-9178.553681,842.705048
592.370148,0.000000,-9104.533087,766.095498
592.370476,-148.041188,-8956.491898,0.000000
592.370804,0.000000,-9104.533087,153.219100
592.371131,0.000000,-8956.491898,76.609550
592.371459,0.000000,-9030.512492,229.828649
592.371786,0.000000,-8956.491898,306.438199
592.372114,-148.041188,-8734.430116,306.438199
592.372441,0.000000,-9030.512492,459.657299
592.372769,0.000000,-9178.553681,306.438199
592.373097,0.000000,-9474.636058,229.828649
592.373424,0.000000,-9474.636058,536.266849
592.373752,-444.123565,-9326.594869,842.705048
592.374079,222.061783,-9252.574275,689.485948
592.374407,0.000000,-9326.594869,612.876398
592.374734,-296.082377,-9326.594869,842.705048
592.375062,-370.102971,-9326.594869,689.485948
592.375390,0.000000,-9178.553681,995.924147
592.375717,0.000000,-8660.409521,689.485948
592.376045,-370.102971,-8956.491898,536.266849
592.376372,-370.102971,-9252.574275,842.705048
592.376700,-370.102971,-9178.553681,612.876398
592.377027,-222.061783,-9178.553681,536.266849
592.377355,-296.082377,-8882.471304,689.485948
592.377683,-370.102971,-9474.636058,612.876398
592.378010,-222.061783,-9252.574275,689.485948
592.378338,-148.041188,-9326.594869,766.095498
592.378665,0.000000,-9326.594869,842.705048
592.378993,0.000000,-9178.553681,612.876398
592.379320,-222.061783,-9400.615463,536.266849
592.379648,-148.041188,-9178.553681,689.485948
592.379976,0.000000,-9474.636058,306.438199
592.380303,0.000000,-9474.636058,459.657299
592.380631,0.000000,-9474.636058,842.705048
592.380958,0.000000,-9622.677246,383.047749
592.381286,0.000000,-9474.636058,383.047749
592.381613,148.041188,-9622.677246,306.438199
592.381941,0.000000,-9770.718434,612.876398
592.382269,74.020594,-9400.615463,766.095498
592.382596,222.061783,-9178.553681,612.876398
592.382924,148.041188,-9400.615463,689.485948
592.383251,74.020594,-9400.615463,536.266849
592.383579,0.000000,-9178.553681,306.438199
592.383906,-370.102971,-9030.512492,536.266849
592.384234,-740.205942,-8734.430116,689.485948
592.384561,-740.205942,-8882.471304,383.047749
592.384889,-592.164754,-9104.533087,383.047749
592.385217,-444.123565,-9104.533087,612.876398
592.385544,-444.123565,-9104.533087,536.266849
592.385872,-592.164754,-8512.368333,536.266849
592.386199,-444.123565,-8956.491898,689.485948
592.386527,-518.144159,-9030.512492,612.876398
592.386854,-296.082377,-9252.574275,689.485948
592.387182,-296.082377,-8808.450710,612.876398
592.387510,-518.144159,-8586.388927,995.924147
592.387837,-740.205942,-9104.533087,842.705048
592.388165,-592.164754,-9326.594869,536.266849
592.388492,-592.164754,-9030.512492,612.876398
592.388820,-370.102971,-8734.430116,689.485948
592.389147,-222.061783,-8586.388927,842.705048
592.389475,-296.082377,-8734.430116,1225.752797
592.389803,-370.102971,-8956.491898,612.876398
592.390130,-518.144159,-8808.450710,536.266849
592.390458,-296.082377,-8660.409521,689.485948
592.390785,-444.123565,-9104.533087,536.266849
592.391113,-814.226536,-8808.450710,995.924147
592.391440,-370.102971,-8956.491898,612.876398
592.391768,-592.164754,-8586.388927,612.876398
592.392096,-444.123565,-8734.430116,229.828649
592.392423,-518.144159,-8660.409521,383.047749
592.392751,-296.082377,-8512.368333,383.047749
592.393078,-370.102971,-8586.388927,306.438199
592.393406,-222.061783,-8882.471304,0.000000
592.393733,-444.123565,-9030.512492,306.438199
592.394061,-592.164754,-9030.512492,229.828649
592.394389,0.000000,-9252.574275,459.657299
592.394716,-222.061783,-8734.430116,459.657299
592.395044,-148.041188,-9252.574275,536.266849
592.395371,0.000000,-9178.553681,229.828649
592.395699,0.000000,-9104.533087,306.438199
592.396026,0.000000,-8512.368333,383.047749
592.396354,74.020594,-8956.491898,612.876398
592.396682,-222.061783,-9178.553681,306.438199
592.397009,-148.041188,-8956.491898,383.047749
592.397337,0.000000,-9030.512492,612.876398
592.397664,-296.082377,-8956.491898,842.705048
592.397992,-222.061783,-9030.512492,229.828649
592.398319,-296.082377,-8956.491898,536.266849
592.398647,-222.061783,-8956.491898,459.657299
592.398975,-296.082377,-9030.512492,612.876398
592.399302,-444.123565,-9104.533087,612.876398
592.399630,-148.041188,-9030.512492,842.705048
592.399957,0.000000,-9030.512492,306.438199
592.400285,-148.041188,-9252.574275,459.657299
592.400612,-296.082377,-9178.553681,536.266849
592.400940,-296.082377,-9104.533087,612.876398
592.401268,-444.123565,-9030.512492,919.314598
592.401595,0.000000,-9326.594869,612.876398
592.401923,-222.061783,-9326.594869,766.095498
592.402250,0.000000,-9548.656652,689.485948
592.402578,-296.082377,-9252.574275,842.705048
592.402905,-370.102971,-9548.656652,1149.143247
592.403233,-296.082377,-9104.533087,1072.533697
592.403561,0.000000,-9548.656652,612.876398
592.403888,-148.041188,-9252.574275,842.705048
592.404216,0.000000,-9178.553681,459.657299
592.404543,74.020594,-9326.594869,612.876398
592.404871,-222.061783,-8734.430116,842.705048
592.405198,0.000000,-9178.553681,612.876398
592.405526,-296.082377,-9178.553681,766.095498
592.405854,0.000000,-9400.615463,689.485948
592.406181,-222.061783,-9400.615463,842.705048
592.406509,0.000000,-9178.553681,842.705048
592.406836,0.000000,-9400.615463,766.095498
592.407164,-222.061783,-9178.553681,612.876398
592.407491,-148.041188,-9474.636058,612.876398
592.407819,-148.041188,-9474.636058,612.876398
592.408147,0.000000,-9252.574275,306.438199
592.408474,0.000000,-9474.636058,1225.752797
592.408802,0.000000,-9474.636058,612.876398
592.409129,0.000000,-9474.636058,536.266849
592.409457,0.000000,-9474.636058,612.876398
592.409784,-148.041188,-9030.512492,383.047749
592.410112,0.000000,-9104.533087,306.438199
592.410440,0.000000,-9326.594869,306.438199
592.410767,0.000000,-9252.574275,536.266849
592.411095,0.000000,-9252.574275,536.266849
592.411422,-222.061783,-9252.574275,229.828649
592.411750,0.000000,-9770.718434,229.828649
592.412077,0.000000,-9474.636058,383.047749
592.412405,0.000000,-9030.512492,612.876398
592.412733,0.000000,-9030.512492,612.876398
592.413060,-148.041188,-9104.533087,536.266849
592.413388,-444.123565,-8808.450710,459.657299
592.413715,-444.123565,-8586.388927,459.657299
592.414043,-444.123565,-8956.491898,306.438199
592.414370,-666.185348,-8956.491898,229.828649
592.414698,-740.205942,-9104.533087,612.876398
592.415026,-740.205942,-9030.512492,229.828649
592.415353,-296.082377,-8586.388927,1149.143247
592.415681,-296.082377,-8956.491898,536.266849
592.416008,-296.082377,-8882.471304,612.876398
592.416336,-296.082377,-8882.471304,536.266849
592.416663,-370.102971,-8586.388927,689.485948
592.416991,-222.061783,-8734.430116,1149.143247
592.417319,-518.144159,-8586.388927,536.266849
592.417646,-518.144159,-8660.409521,766.095498
592.417974,-666.185348,-8734.430116,459.657299
592.418301,-740.205942,-8808.450710,459.657299
592.418629,-666.185348,-8438.347739,229.828649
592.418956,-740.205942,-8512.368333,689.485948
592.419284,-518.144159,-8808.450710,459.657299
592.419611,-518.144159,-8882.471304,612.876398
592.419939,-518.144159,-9030.512492,459.657299
592.420267,0.000000,-8882.471304,689.485948
592.420594,-296.082377,-8734.430116,536.266849
592.420922,-296.082377,-9104.533087,536.266849
592.421249,0.000000,-8956.491898,689.485948
592.421577,-296.082377,-9030.512492,383.047749
592.421904,-222.061783,-8586.388927,76.609550
592.422232,-148.041188,-8882.471304,1072.533697
592.422560,-296.082377,-8882.471304,459.657299
592.422887,-296.082377,-8734.430116,306.438199
592.423215,-222.061783,-8660.409521,306.438199
592.423542,-370.102971,-8882.471304,383.047749
592.423870,-518.144159,-8586.388927,612.876398
592.424197,-296.082377,-9178.553681,459.657299
592.424525,-370.102971,-9326.594869,536.266849
592.424853,-148.041188,-9474.636058,612.876398
592.425180,-148.041188,-9400.615463,536.266849
592.425508,-148.041188,-9104.533087,536.266849
592.425835,-296.082377,-9474.636058,459.657299
592.426163,0.000000,-9474.636058,689.485948
592.426490,-222.061783,-9474.636058,536.266849
592.426818,-296.082377,-9326.594869,612.876398
592.427146,0.000000,-9178.553681,766.095498
592.427473,0.000000,-8882.471304,612.876398
592.427801,0.000000,-9252.574275,612.876398
592.428128,-222.061783,-9326.594869,536.266849
592.428456,-296.082377,-9326.594869,612.876398
592.428783,-444.123565,-9178.553681,1072.533697
592.429111,0.000000,-9252.574275,842.705048
592.429439,-370.102971,-9252.574275,536.266849
592.429766,-444.123565,-9252.574275,536.266849
592.430094,-148.041188,-9326.594869,689.485948
592.430421,-296.082377,-9104.533087,689.485948
592.430749,296.082377,-9252.574275,919.314598
592.431076,-296.082377,-9252.574275,766.095498
592.431404,-296.082377,-9326.594869,459.657299
592.431732,-370.102971,-9030.512492,689.485948
592.432059,0.000000,-9252.574275,383.047749
592.432387,-296.082377,-9030.512492,612.876398
592.432714,0.000000,-9104.533087,459.657299
592.433042,-148.041188,-9178.553681,383.047749
592.433369,-296.082377,-9326.594869,459.657299
592.433697,0.000000,-9400.615463,459.657299
592.434025,74.020594,-9474.636058,0.000000
592.434352,0.000000,-8956.491898,766.095498
592.434680,74.020594,-9252.574275,383.047749
592.435007,0.000000,-9252.574275,459.657299
592.435335,-148.041188,-9178.553681,383.047749
592.435662,-444.123565,-9030.512492,459.657299
592.435990,0.000000,-9104.533087,459.657299
592.436318,-296.082377,-8660.409521,229.828649
592.436645,0.000000,-8956.491898,0.000000
592.436973,0.000000,-9030.512492,306.438199
592.437300,0.000000,-9178.553681,536.266849
592.437628,370.102971,-9400.615463,306.438199
592.437955,0.000000,-9178.553681,766.095498
592.438283,0.000000,-9474.636058,612.876398
592.438611,0.000000,-9474.636058,383.047749
592.438938,-148.041188,-9326.594869,612.876398
592.439266,0.000000,-9030.512492,536.266849
592.439593,0.000000,-8956.491898,612.876398
592.439921,0.000000,-9178.553681,612.876398
592.440249,-296.082377,-9252.574275,383.047749
592.440576,-296.082377,-9252.574275,689.485948
592.440904,-444.123565,-9104.533087,153.219100
592.441231,-296.082377,-9030.512492,766.095498
592.441559,-444.123565,-9252.574275,459.657299
592.441887,-444.123565,-9400.615463,536.266849
592.442214,-444.123565,-9326.594869,842.705048
592.442542,-370.102971,-8956.491898,459.657299
592.442869,-370.102971,-8438.347739,842.705048
592.443197,0.000000,-8882.471304,383.047749
592.443524,-518.144159,-8956.491898,383.047749
592.443852,-444.123565,-8808.450710,306.438199
592.444180,-518.144159,-8660.409521,306.438199
592.444507,-444.123565,-8586.388927,689.485948
592.444835,-296.082377,-8882.471304,612.876398
592.445162,-666.185348,-9252.574275,612.876398
592.445490,-592.164754,-9104.533087,612.876398
592.445818,-296.082377,-9326.594869,536.266849
592.446145,-666.185348,-8808.450710,842.705048
592.446473,0.000000,-9030.512492,689.485948
592.446800,-592.164754,-9030.512492,536.266849
592.447128,-370.102971,-9104.533087,689.485948
592.447455,-518.144159,-9104.533087,536.266849
592.447783,-592.164754,-8882.471304,612.876398
592.448111,-444.123565,-8956.491898,689.485948
592.448438,-592.164754,-8808.450710,612.876398
592.448766,-666.185348,-8734.430116,459.657299
592.449093,-444.123565,-8808.450710,383.047749
592.449421,-370.102971,-8956.491898,459.657299
592.449749,-222.061783,-8512.368333,459.657299
592.450076,-444.123565,-9030.512492,536.266849
592.450404,-370.102971,-9104.533087,383.047749
592.450731,-370.102971,-9104.533087,689.485948
592.451059,0.000000,-9104.533087,383.047749
592.451387,-444.123565,-8882.471304,1072.533697
592.451714,0.000000,-9030.512492,383.047749
592.452042,-222.061783,-8808.450710,383.047749
592.452369,0.000000,-8882.471304,306.438199
592.452697,-222.061783,-8882.471304,229.828649
592.453024,0.000000,-8660.409521,383.047749
592.453352,0.000000,-9104.533087,306.438199
592.453680,0.000000,-9252.574275,689.485948
592.454007,-222.061783,-9252.574275,766.095498
592.454335,-222.061783,-9474.636058,536.266849
592.454662,-222.061783,-9252.574275,0.000000
592.454990,0.000000,-9400.615463,383.047749
592.455318,0.000000,-9030.512492,612.876398
592.455645,-222.061783,-8956.491898,536.266849
592.455973,0.000000,-9030.512492,612.876398
592.456300,-444.123565,-8882.471304,612.876398
592.456628,0.000000,-8808.450710,612.876398
592.456955,-444.123565,-8956.491898,536.266849
592.457283,-740.205942,-8808.450710,612.876398
592.457611,-814.226536,-8808.450710,766.095498
592.457938,-592.164754,-9252.574275,612.876398
592.458266,-444.123565,-9104.533087,766.095498
592.458593,0.000000,-9178.553681,459.657299
592.458921,-296.082377,-9252.574275,919.314598
592.459249,-148.041188,-9400.615463,459.657299
592.459576,0.000000,-9474.636058,689.485948
592.459904,-222.061783,-9104.533087,536.266849
592.460231,0.000000,-9252.574275,536.266849
592.460559,-148.041188,-9474.636058,612.876398
592.460887,0.000000,-9548.656652,536.266849
592.461214,0.000000,-9400.615463,229.828649
592.461542,74.020594,-9178.553681,229.828649
592.461869,74.020594,-9030.512492,306.438199
592.462197,0.000000,-9030.512492,459.657299
592.462524,74.020594,-9474.636058,229.828649
592.462852,74.020594,-9252.574275,306.438199
592.463180,0.000000,-9474.636058,306.438199
592.463507,0.000000,-9326.594869,306.438199
592.463835,-296.082377,-9178.553681,689.485948
592.464162,-74.020594,-9252.574275,612.876398
592.464490,0.000000,-9326.594869,459.657299
592.464818,0.000000,-9252.574275,536.266849
592.465145,-222.061783,-8956.491898,229.828649
592.465473,-370.102971,-9030.512492,383.047749
592.465800,-296.082377,-9104.533087,306.438199
592.466128,-222.061783,-9252.574275,459.657299
592.466456,-148.041188,-9178.553681,383.047749
592.466783,-370.102971,-9178.553681,766.095498
592.467111,-518.144159,-9030.512492,766.095498
592.467438,-444.123565,-9252.574275,689.485948
592.467766,-148.041188,-9326.594869,842.705048
592.468093,0.000000,-9178.553681,612.876398
592.468421,-296.082377,-9474.636058,995.924147
592.468749,-444.123565,-8512.368333,1149.143247
592.469076,-444.123565,-9030.512492,995.924147
592.469404,-444.123565,-8734.430116,689.485948
592.469731,-296.082377,-8734.430116,842.705048
592.470059,-444.123565,-8734.430116,842.705048
592.470387,-148.041188,-8438.347739,1225.752797
592.470714,-296.082377,-8808.450710,689.485948
592.471042,-444.123565,-8660.409521,536.266849
592.471369,-444.123565,-8808.450710,612.876398
592.471697,-222.061783,-9178.553681,689.485948
592.472024,-222.061783,-9178.553681,995.924147
592.472352,-370.102971,-9104.533087,689.485948
592.472680,-148.041188,-9400.615463,536.266849
592.473007,-296.082377,-9252.574275,612.876398
592.473335,0.000000,-9104.533087,689.485948
592.473662,0.000000,-8956.491898,536.266849
592.473990,0.000000,-9178.553681,766.095498
592.474318,0.000000,-9104.533087,383.047749
592.474645,0.000000,-8808.450710,536.266849
592.474973,-296.082377,-8808.450710,536.266849
592.475300,0.000000,-9104.533087,306.438199
592.475628,0.000000,-9030.512492,689.485948
592.475956,0.000000,-9326.594869,612.876398
592.476283,-592.164754,-9252.574275,536.266849
592.476611,0.000000,-9252.574275,536.266849
592.476938,0.000000,-9104.533087,536.266849
592.477266,518.144159,-9252.574275,919.314598
592.477593,74.020594,-9326.594869,383.047749
592.477921,-148.041188,-9104.533087,459.657299
592.478249,-296.082377,-8882.471304,459.657299
592.478576,-666.185348,-9030.512492,306.438199
592.478904,-962.267725,-8586.388927,383.047749
592.479231,-666.185348,-8734.430116,612.876398
592.479559,-444.123565,-9252.574275,689.485948
592.479887,-740.205942,-9104.533087,689.485948
592.480214,-814.226536,-9474.636058,766.095498
592.480542,-740.205942,-9178.553681,153.219100
592.480869,-666.185348,-9030.512492,612.876398
592.481197,-518.144159,-8882.471304,536.266849
592.481524,-592.164754,-9252.574275,919.314598
592.481852,-592.164754,-9326.594869,766.095498
592.482180,-888.247130,-9030.512492,689.485948
592.482507,-444.123565,-8660.409521,1072.533697
592.482835,-370.102971,-9030.512492,612.876398
592.483162,-222.061783,-8808.450710,612.876398
592.483490,-444.123565,-8882.471304,383.047749
592.483818,0.000000,-9030.512492,536.266849
592.484145,-444.123565,-8808.450710,76.609550
592.484473,0.000000,-9178.553681,0.000000
592.484800,0.000000,-9030.512492,306.438199
592.485128,0.000000,-9474.636058,306.438199
592.485456,0.000000,-9400.615463,536.266849
592.485783,-148.041188,-8956.491898,383.047749
592.486111,370.102971,-9400.615463,383.047749
592.486438,148.041188,-9178.553681,153.219100
592.486766,296.082377,-9326.594869,306.438199
592.487093,0.000000,-9400.615463,383.047749
592.487421,148.041188,-8734.430116,76.609550
592.487749,74.020594,-9104.533087,0.000000
592.488076,-222.061783,-9178.553681,383.047749
592.488404,-222.061783,-9326.594869,459.657299
592.488731,0.000000,-9178.553681,536.266849
592.489059,-222.061783,-9178.553681,766.095498
592.489387,-148.041188,-8808.450710,459.657299
592.489714,0.000000,-9326.594869,842.705048
592.490042,-296.082377,-9030.512492,612.876398
592.490369,0.000000,-9030.512492,536.266849
592.490697,-148.041188,-9178.553681,919.314598
592.491024,-148.041188,-9030.512492,1072.533697
592.491352,-296.082377,-9178.553681,689.485948
592.491680,-518.144159,-9178.553681,612.876398
592.492007,-444.123565,-9252.574275,612.876398
592.492335,-592.164754,-9178.553681,842.705048
592.492662,-592.164754,-9178.553681,919.314598
592.492990,-370.102971,-9252.574275,536.266849
592.493318,-296.082377,-9474.636058,1072.533697
592.493645,-296.082377,-9548.656652,919.314598
592.493973,0.000000,-9474.636058,919.314598
592.494300,-222.061783,-9252.574275,0.000000
592.494628,74.020594,-9474.636058,919.314598
592.494956,0.000000,-9400.615463,536.266849
592.495283,-296.082377,-9178.553681,536.266849
592.495611,-148.041188,-8956.491898,459.657299
592.495938,-296.082377,-9030.512492,306.438199
592.496266,-222.061783,-9030.512492,459.657299
592.496593,-370.102971,-9252.574275,536.266849
592.496921,-296.082377,-9252.574275,459.657299
592.497249,-296.082377,-9104.533087,306.438199
592.497576,-296.082377,-9400.615463,383.047749
592.497904,74.020594,-9030.512492,689.485948
592.498231,0.000000,-9178.553681,459.657299
592.498559,0.000000,-9178.553681,306.438199
592.498887,0.000000,-9252.574275,306.438199
592.499214,-296.082377,-9104.533087,459.657299
592.499542,-370.102971,-8956.491898,766.095498
592.499869,0.000000,-9030.512492,1225.752797
592.500197,-296.082377,-8956.491898,612.876398
592.500524,-222.061783,-9030.512492,459.657299
592.500852,-370.102971,-8956.491898,536.266849
592.501180,-296.082377,-9030.512492,919.314598
592.501507,-296.082377,-8734.430116,766.095498
592.501835,-296.082377,-9030.512492,919.314598
592.502162,-592.164754,-9030.512492,612.876398
592.502490,-666.185348,-9178.553681,536.266849
592.502818,-888.247130,-9030.512492,995.924147
592.503145,-370.102971,-9104.533087,995.924147
592.503473,-444.123565,-8734.430116,689.485948
592.503800,-444.123565,-8586.388927,536.266849
592.504128,-370.102971,-8660.409521,689.485948
592.504456,-518.144159,-8660.409521,383.047749
592.504783,-370.102971,-8512.368333,459.657299
592.505111,-592.164754,-8586.388927,919.314598
592.505438,-444.123565,-8808.450710,459.657299
592.505766,-370.102971,-8956.491898,459.657299
592.506093,-370.102971,-8956.491898,229.828649
592.506421,-296.082377,-9400.615463,383.047749
592.506749,-296.082377,-8882.471304,536.266849
592.507076,-222.061783,-9178.553681,383.047749
592.507404,0.000000,-8882.471304,306.438199
592.507731,0.000000,-9030.512492,306.438199
592.508059,0.000000,-8734.430116,459.657299
592.508387,0.000000,-8586.388927,766.095498
592.508714,-222.061783,-9178.553681,459.657299
592.509042,-444.123565,-9252.574275,536.266849
592.509369,-592.164754,-9252.574275,536.266849
592.509697,-370.102971,-9178.553681,459.657299
592.510025,0.000000,-8734.430116,459.657299
592.510352,0.000000,-9104.533087,383.047749
592.510680,-296.082377,-9400.615463,459.657299
592.511007,-222.061783,-9326.594869,383.047749
592.511335,-222.061783,-9252.574275,536.266849
592.511662,-518.144159,-9104.533087,1072.533697
592.511990,0.000000,-9474.636058,689.485948
592.512318,-592.164754,-9474.636058,536.266849
592.512645,-370.102971,-9178.553681,536.266849
592.512973,-370.102971,-9178.553681,919.314598
592.513300,-370.102971,-8808.450710,842.705048
592.513628,-296.082377,-9178.553681,459.657299
592.513956,-296.082377,-9400.615463,536.266849
592.514283,-444.123565,-9252.574275,612.876398
592.514611,-444.123565,-9474.636058,766.095498
592.514938,-444.123565,-9622.677246,766.095498
592.515266,74.020594,-9474.636058,1225.752797
592.515593,-222.061783,-9474.636058,689.485948
592.515921,0.000000,-9474.636058,612.876398
592.516249,0.000000,-9326.594869,612.876398
592.516576,0.000000,-9178.553681,612.876398
592.516904,0.000000,-9104.533087,919.314598
592.517231,0.000000,-9178.553681,306.438199
592.517559,0.000000,-9252.574275,459.657299
592.517887,0.000000,-9326.594869,383.047749
592.518214,-148.041188,-9178.553681,229.828649
592.518542,-296.082377,-8956.491898,459.657299
592.518869,0.000000,-9474.636058,383.047749
592.519197,74.020594,-9252.574275,306.438199
592.519525,0.000000,-9178.553681,153.219100
592.519852,0.000000,-9104.533087,459.657299
592.520180,74.020594,-9178.553681,76.609550
592.520507,222.061783,-9326.594869,612.876398
592.520835,148.041188,-9104.533087,383.047749
592.521162,0.000000,-9178.553681,306.438199
592.521490,-222.061783,-9252.574275,612.876398
592.521818,-296.082377,-9178.553681,459.657299
592.522145,-296.082377,-8956.491898,1149.143247
592.522473,-148.041188,-9104.533087,612.876398
592.522800,-592.164754,-9252.574275,612.876398
592.523128,-444.123565,-9400.615463,689.485948
592.523456,-666.185348,-9252.574275,995.924147
592.523783,0.000000,-9030.512492,459.657299
592.524111,0.000000,-8660.409521,536.266849
592.524438,-222.061783,-9030.512492,689.485948
592.524766,-222.061783,-9104.533087,842.705048
592.525093,-370.102971,-8882.471304,766.095498
592.525421,-814.226536,-8290.306550,1072.533697
592.525749,-296.082377,-9104.533087,919.314598
592.526076,-592.164754,-9252.574275,766.095498
592.526404,-370.102971,-9104.533087,689.485948
592.526731,-370.102971,-9030.512492,766.095498
592.527059,-148.041188,-8808.450710,459.657299
592.527387,-444.123565,-9178.553681,612.876398
592.527714,-592.164754,-9104.533087,536.266849
592.528042,-666.185348,-9178.553681,689.485948
592.528369,-222.061783,-9104.533087,383.047749
592.528697,-296.082377,-9104.533087,229.828649
592.529025,74.020594,-9104.533087,76.609550
592.529352,-370.102971,-8808.450710,383.047749
592.529680,-74.020594,-9104.533087,306.438199
592.530007,0.000000,-9030.512492,306.438199
592.530335,-222.061783,-8808.450710,0.000000
592.530662,-148.041188,-8882.471304,995.924147
592.530990,222.061783,-8882.471304,0.000000
592.531318,-222.061783,-8956.491898,306.438199
592.531645,-222.061783,-9178.553681,229.828649
592.531973,-370.102971,-9252.574275,383.047749
592.532300,-370.102971,-8882.471304,612.876398
592.532628,148.041188,-9178.553681,383.047749
592.532956,-444.123565,-9326.594869,306.438199
592.533283,-296.082377,-8956.491898,459.657299
592.533611,-296.082377,-8808.450710,306.438199
592.533938,-296.082377,-8734.430116,306.438199
592.534266,-592.164754,-8586.388927,306.438199
592.534593,-592.164754,-8882.471304,536.266849
592.534921,-814.226536,-8808.450710,459.657299
592.535249,-740.205942,-8734.430116,689.485948
592.535576,-814.226536,-9030.512492,383.047749
592.535904,-740.205942,-8956.491898,995.924147
592.536232,-222.061783,-9030.512492,536.266849
592.536559,-518.144159,-9030.512492,689.485948
592.536887,-370.102971,-8882.471304,612.876398
592.537214,-222.061783,-9104.533087,842.705048
592.537542,-370.102971,-8290.306550,919.314598
592.537870,0.000000,-8734.430116,766.095498
592.538197,-296.082377,-8882.471304,689.485948
592.538525,-444.123565,-8956.491898,842.705048
592.538852,-370.102971,-9104.533087,306.438199
592.539180,-296.082377,-8512.368333,689.485948
592.539508,-222.061783,-9178.553681,1149.143247
592.539835,-222.061783,-9252.574275,689.485948
592.540163,-296.082377,-9104.533087,306.438199
592.540491,-296.082377,-9178.553681,536.266849
592.540818,-74.020594,-9178.553681,919.314598
592.541146,0.000000,-9178.553681,842.705048
592.541473,0.000000,-9474.636058,842.705048
592.541801,0.000000,-9474.636058,689.485948
592.542129,0.000000,-9252.574275,229.828649
592.542456,0.000000,-9104.533087,459.657299
592.542784,0.000000,-8882.471304,0.000000
592.543111,-148.041188,-9178.553681,229.828649
592.543439,0.000000,-9104.533087,383.047749
592.543767,0.000000,-9178.553681,536.266849
592.544094,74.020594,-9326.594869,536.266849
592.544422,0.000000,-9474.636058,459.657299
592.544749,-222.061783,-9104.533087,689.485948
592.545077,-222.061783,-9474.636058,536.266849
592.545405,-222.061783,-9400.615463,612.876398
592.545732,0.000000,-9326.594869,689.485948
592.546060,-222.061783,-8882.471304,919.314598
592.546388,-296.082377,-8956.491898,536.266849
592.546715,0.000000,-9326.594869,383.047749
592.547043,0.000000,-9326.594869,919.314598
592.547370,-444.123565,-9252.574275,766.095498
592.547698,-444.123565,-9400.615463,842.705048
592.548026,0.000000,-9252.574275,306.438199
592.548353,-370.102971,-9474.636058,536.266849
592.548681,-518.144159,-9474.636058,842.705048
592.549008,-740.205942,-9326.594869,689.485948
592.549336,-370.102971,-9326.594869,689.485948
592.549664,-222.061783,-9326.594869,1072.533697
592.549991,-740.205942,-8660.409521,842.705048
592.550319,-444.123565,-9178.553681,689.485948
592.550647,-296.082377,-9030.512492,689.485948
592.550974,-296.082377,-8808.450710,689.485948
592.551302,0.000000,-9030.512492,995.924147
592.551629,-518.144159,-8438.347739,612.876398
592.551957,-222.061783,-9030.512492,383.047749
592.552285,-222.061783,-8956.491898,383.047749
592.552612,0.000000,-9030.512492,306.438199
592.552940,0.000000,-9104.533087,536.266849
592.553267,-370.102971,-8660.409521,766.095498
592.553595,0.000000,-9104.533087,306.438199
592.553923,74.020594,-9030.512492,306.438199
592.554250,0.000000,-9104.533087,383.047749
592.554578,148.041188,-9030.512492,229.828649
592.554906,370.102971,-8512.368333,76.609550
592.555233,0.000000,-9030.512492,306.438199
592.555561,-222.061783,-8956.491898,459.657299
592.555888,-296.082377,-8956.491898,153.219100
592.556216,-370.102971,-8882.471304,153.219100
592.556544,0.000000,-8512.368333,306.438199
592.556871,-592.164754,-8808.450710,459.657299
592.557199,-296.082377,-9104.533087,536.266849
592.557526,-370.102971,-8882.471304,229.828649
592.557854,-148.041188,-9030.512492,383.047749
592.558182,-148.041188,-8956.491898,76.609550
592.558509,-296.082377,-8882.471304,689.485948
592.558837,-148.041188,-9030.512492,612.876398
592.559164,0.000000,-8956.491898,689.485948
592.559492,-444.123565,-8808.450710,536.266849
592.559820,-296.082377,-8808.450710,842.705048
592.560147,-518.144159,-9030.512492,842.705048
592.560475,-370.102971,-9030.512492,536.266849
592.560803,-666.185348,-8882.471304,842.705048
592.561130,-444.123565,-9030.512492,689.485948
592.561458,-444.123565,-9400.615463,842.705048
592.561785,-740.205942,-9178.553681,1378.971896
592.562113,-370.102971,-9252.574275,919.314598
592.562441,-296.082377,-9326.594869,536.266849
592.562768,-222.061783,-9474.636058,842.705048
592.563096,-296.082377,-9252.574275,689.485948
592.563423,0.000000,-9030.512492,766.095498
592.563751,-518.144159,-9178.553681,306.438199
592.564079,-592.164754,-9104.533087,536.266849
592.564406,-592.164754,-9104.533087,536.266849
592.564734,-592.164754,-9178.553681,689.485948
592.565062,-592.164754,-9030.512492,153.219100
592.565389,-444.123565,-8882.471304,919.314598
592.565717,-370.102971,-9252.574275,536.266849
592.566044,-592.164754,-9400.615463,459.657299
592.566372,-444.123565,-9252.574275,612.876398
592.566700,-444.123565,-8956.491898,689.485948
592.567027,444.123565,-9474.636058,612.876398
592.567355,0.000000,-9400.615463,459.657299
592.567682,0.000000,-9326.594869,689.485948
592.568010,0.000000,-9474.636058,459.657299
592.568338,0.000000,-9326.594869,612.876398
592.568665,74.020594,-9326.594869,612.876398
592.568993,-296.082377,-9104.533087,459.657299
592.569320,-222.061783,-9474.636058,612.876398
592.569648,-296.082377,-9252.574275,536.266849
592.569976,-370.102971,-9252.574275,689.485948
592.570303,-222.061783,-9104.533087,459.657299
592.570631,-222.061783,-9252.574275,766.095498
592.570959,0.000000,-9474.636058,842.705048
592.571286,-148.041188,-9178.553681,612.876398
592.571614,0.000000,-8956.491898,842.705048
592.571941,74.020594,-8808.450710,919.314598
592.572269,-148.041188,-8956.491898,766.095498
592.572597,-592.164754,-8956.491898,689.485948
592.572924,-444.123565,-8882.471304,459.657299
592.573252,-444.123565,-9030.512492,612.876398
592.573579,-370.102971,-8956.491898,689.485948
592.573907,-518.144159,-8882.471304,919.314598
592.574235,-370.102971,-8808.450710,306.438199
592.574562,-296.082377,-8808.450710,536.266849
592.574890,0.000000,-8956.491898,612.876398
592.575218,-148.041188,-9326.594869,383.047749
592.575545,0.000000,-9030.512492,153.219100
592.575873,148.041188,-9252.574275,306.438199
592.576200,148.041188,-9030.512492,459.657299
592.576528,74.020594,-9252.574275,612.876398
592.576856,0.000000,-9326.594869,536.266849
592.577183,74.020594,-9030.512492,-383.047749
592.577511,0.000000,-8734.430116,612.876398
592.577838,0.000000,-8808.450710,306.438199
592.578166,0.000000,-9178.553681,306.438199
592.578494,0.000000,-9104.533087,383.047749
592.578821,0.000000,-9326.594869,919.314598
592.579149,-222.061783,-9030.512492,842.705048
592.579477,-370.102971,-9474.636058,612.876398
592.579804,-370.102971,-9474.636058,689.485948
592.580132,-296.082377,-9400.615463,459.657299
592.580459,-74.020594,-8956.491898,766.095498
592.580787,0.000000,-8956.491898,842.705048
592.581115,-222.061783,-9178.553681,536.266849
592.581442,-370.102971,-9178.553681,383.047749
592.581770,-444.123565,-9030.512492,383.047749
592.582097,-444.123565,-8956.491898,536.266849
592.582425,-444.123565,-8956.491898,536.266849
592.582753,-518.144159,-8808.450710,766.095498
592.583080,-370.102971,-9326.594869,919.314598
592.583408,-370.102971,-9178.553681,689.485948
592.583735,-666.185348,-9252.574275,842.705048
592.584063,-666.185348,-8956.491898,536.266849
592.584391,-740.205942,-9104.533087,766.095498
592.584718,-444.123565,-9252.574275,766.095498
592.585046,-518.144159,-9400.615463,842.705048
592.585374,-444.123565,-9178.553681,689.485948
592.585701,-222.061783,-9178.553681,383.047749
592.586029,-518.144159,-8660.409521,306.438199
592.586356,-444.123565,-8882.471304,306.438199
592.586684,-518.144159,-8808.450710,383.047749
592.587012,-444.123565,-9030.512492,306.438199
592.587339,-740.205942,-9030.512492,306.438199
592.587667,-962.267725,-8956.491898,689.485948
592.587994,-296.082377,-9030.512492,383.047749
592.588322,-148.041188,-9178.553681,383.047749
592.588650,-444.123565,-9030.512492,383.047749
592.588977,-296.082377,-9030.512492,306.438199
592.589305,-666.185348,-8808.450710,612.876398
592.589633,-370.102971,-9104.533087,459.657299
592.589960,-518.144159,-8956.491898,612.876398
592.590288,-518.144159,-9178.553681,459.657299
592.590615,-518.144159,-9252.574275,459.657299
592.590943,-814.226536,-9030.512492,919.314598
592.591271,0.000000,-9326.594869,306.438199
592.591598,-222.061783,-9030.512492,306.438199
592.591926,0.000000,-9178.553681,383.047749
592.592253,-222.061783,-9178.553681,612.876398
592.592581,0.000000,-9474.636058,842.705048
592.592909,0.000000,-9474.636058,995.924147
592.593236,0.000000,-9178.553681,842.705048
592.593564,-74.020594,-9030.512492,689.485948
592.593892,-148.041188,-9104.533087,842.705048
592.594219,-296.082377,-8882.471304,459.657299
592.594547,-296.082377,-8512.368333,842.705048
592.594874,-444.123565,-8808.450710,459.657299
592.595202,-814.226536,-8808.450710,612.876398
592.595530,-666.185348,-8808.450710,766.095498
592.595857,-370.102971,-8956.491898,919.314598
592.596185,-222.061783,-8586.388927,842.705048
592.596512,-148.041188,-8734.430116,536.266849
592.596840,-370.102971,-8882.471304,536.266849
592.597168,0.000000,-9030.512492,612.876398
592.597495,0.000000,-9104.533087,612.876398
592.597823,296.082377,-9252.574275,612.876398
592.598150,-222.061783,-9400.615463,919.314598
592.598478,-148.041188,-9252.574275,612.876398
592.598806,-296.082377,-9400.615463,842.705048
592.599133,-148.041188,-9474.636058,612.876398
592.599461,0.000000,-9252.574275,459.657299
592.599789,0.000000,-9104.533087,459.657299
592.600116,-296.082377,-9326.594869,306.438199
592.600444,-296.082377,-9326.594869,536.266849
592.600771,-666.185348,-9474.636058,306.438199
592.601099,-444.123565,-9548.656652,536.266849
592.601427,148.041188,-9474.636058,766.095498
592.601754,148.041188,-9696.697840,612.876398
592.602082,222.061783,-9474.636058,612.876398
592.602409,222.061783,-9252.574275,766.095498
592.602737,74.020594,-9178.553681,459.657299
592.603065,370.102971,-8734.430116,229.828649
592.603392,0.000000,-9178.553681,383.047749
592.603720,-148.041188,-9474.636058,536.266849
592.604048,-222.061783,-9474.636058,536.266849
592.604375,-222.061783,-9474.636058,536.266849
592.604703,-296.082377,-8882.471304,459.657299
592.605030,-222.061783,-8882.471304,842.705048
592.605358,74.020594,-9030.512492,612.876398
592.605686,0.000000,-8808.450710,229.828649
592.606013,148.041188,-8882.471304,383.047749
592.606341,0.000000,-8882.471304,689.485948
592.606668,74.020594,-8882.471304,995.924147
592.606996,-370.102971,-9400.615463,689.485948
592.607324,-296.082377,-9474.636058,689.485948
592.607651,-444.123565,-9548.656652,995.924147
592.607979,-370.102971,-9474.636058,689.485948
592.608307,-370.102971,-9104.533087,689.485948
592.608634,-222.061783,-8956.491898,612.876398
592.608962,-370.102971,-8956.491898,459.657299
592.609289,-370.102971,-8734.430116,766.095498
592.609617,-814.226536,-8956.491898,383.047749
592.609945,-740.205942,-8808.450710,459.657299
592.610272,-666.185348,-9030.512492,306.438199
592.610600,-740.205942,-8882.471304,383.047749
592.610927,-518.144159,-8882.471304,229.828649
592.611255,-222.061783,-9030.512492,383.047749
592.611583,-296.082377,-8660.409521,459.657299
592.611910,74.020594,-9104.533087,0.000000
592.612238,0.000000,-9030.512492,459.657299
592.612565,-222.061783,-9252.574275,842.705048
592.612893,-370.102971,-9326.594869,919.314598
592.613221,0.000000,-9400.615463,689.485948
592.613548,0.000000,-9104.533087,766.095498
592.613876,-296.082377,-8956.491898,689.485948
592.614204,-222.061783,-8956.491898,536.266849
592.614531,-296.082377,-9030.512492,459.657299
592.614859,-148.041188,-8734.430116,459.657299
592.615186,-444.123565,-8660.409521,689.485948
592.615514,-444.123565,-8956.491898,612.876398
592.615842,-370.102971,-9104.533087,536.266849
592.616169,-222.061783,-9104.533087,612.876398
592.616497,-296.082377,-9104.533087,536.266849
592.616824,-296.082377,-9104.533087,766.095498
592.617152,-222.061783,-9326.594869,459.657299
592.617480,-592.164754,-9252.574275,306.438199
592.617807,-370.102971,-9326.594869,383.047749
592.618135,-518.144159,-8956.491898,459.657299
592.618463,-222.061783,-8808.450710,766.095498
592.618790,0.000000,-9030.512492,689.485948
592.619118,-296.082377,-8956.491898,536.266849
592.619445,-370.102971,-8882.471304,383.047749
592.619773,-296.082377,-8734.430116,459.657299
592.620101,-296.082377,-8586.388927,459.657299
592.620428,0.000000,-8808.450710,229.828649
592.620756,-222.061783,-8734.430116,689.485948
592.621083,-222.061783,-9104.533087,842.705048
592.621411,-222.061783,-9326.594869,689.485948
592.621739,-148.041188,-9474.636058,689.485948
592.622066,0.000000,-9104.533087,459.657299
592.622394,-74.020594,-9770.718434,1225.752797
592.622722,0.000000,-9474.636058,612.876398
592.623049,0.000000,-9400.615463,689.485948
592.623377,0.000000,-9030.512492,383.047749
592.623704,-222.061783,-8882.471304,919.314598
592.624032,-222.061783,-9252.574275,229.828649
592.624360,0.000000,-9326.594869,612.876398
592.624687,-222.061783,-9178.553681,842.705048
592.625015,-518.144159,-9104.533087,612.876398
592.625342,-518.144159,-9178.553681,612.876398
592.625670,-518.144159,-9252.574275,306.438199
592.625998,0.000000,-9252.574275,766.095498
592.626325,-370.102971,-9104.533087,612.876398
592.626653,-370.102971,-9252.574275,612.876398
592.626980,-444.123565,-9178.553681,229.828649
592.627308,0.000000,-9104.533087,-76.609550
592.627636,-222.061783,-9178.553681,536.266849
592.627963,-296.082377,-9326.594869,612.876398
592.628291,-296.082377,-9474.636058,459.657299
592.628619,-370.102971,-9252.574275,612.876398
592.628946,-370.102971,-9400.615463,459.657299
592.629274,-444.123565,-9178.553681,459.657299
592.629601,-296.082377,-9400.615463,612.876398
592.629929,-222.061783,-9178.553681,306.438199
592.630257,-296.082377,-9474.636058,689.485948
592.630584,0.000000,-8882.471304,1072.533697
592.630912,0.000000,-9178.553681,306.438199
592.631239,-296.082377,-9252.574275,689.485948
592.631567,0.000000,-9178.553681,459.657299
592.631895,-74.020594,-9104.533087,536.266849
592.632222,74.020594,-8882.471304,995.924147
592.632550,0.000000,-8586.388927,229.828649
592.632878,-222.061783,-9104.533087,306.438199
592.633205,-444.123565,-8808.450710,536.266849
592.633533,-370.102971,-8956.491898,612.876398
592.633860,-518.144159,-9178.553681,536.266849
592.634188,-296.082377,-9400.615463,229.828649
592.634516,-222.061783,-9178.553681,306.438199
592.634843,-222.061783,-8808.450710,536.266849
592.635171,0.000000,-9030.512492,536.266849
592.635498,0.000000,-8956.491898,306.438199
592.635826,0.000000,-8734.430116,842.705048
592.636154,-148.041188,-9178.553681,383.047749
592.636481,-370.102971,-9030.512492,459.657299
592.636809,-296.082377,-9474.636058,383.047749
592.637136,-370.102971,-9030.512492,459.657299
592.637464,74.020594,-9030.512492,383.047749
592.637791,-222.061783,-8364.327145,459.657299
592.638119,-296.082377,-8808.450710,459.657299
592.638446,-148.041188,-8586.388927,383.047749
592.638774,-370.102971,-8438.347739,229.828649
592.639101,-444.123565,-8438.347739,229.828649
592.639428,-222.061783,-8956.491898,383.047749
592.639756,-592.164754,-9178.553681,306.438199
592.640083,-296.082377,-9104.533087,689.485948
592.640411,74.020594,-9030.512492,612.876398
592.640738,0.000000,-8882.471304,612.876398
592.641066,74.020594,-8290.306550,689.485948
592.641393,74.020594,-8956.491898,459.657299
592.641721,0.000000,-9030.512492,383.047749
592.642048,-148.041188,-9400.615463,689.485948
592.642376,-518.144159,-9474.636058,766.095498
592.642703,0.000000,-9400.615463,919.314598
592.643031,-148.041188,-9400.615463,766.095498
592.643358,-148.041188,-9400.615463,766.095498
592.643686,-296.082377,-9178.553681,689.485948
592.644013,0.000000,-8956.491898,383.047749
592.644341,148.041188,-8660.409521,0.000000
592.644668,0.000000,-8882.471304,766.095498
592.644996,-444.123565,-9030.512492,459.657299
592.645323,-222.061783,-9474.636058,689.485948
592.645651,-518.144159,-9474.636058,919.314598
592.645978,-592.164754,-9474.636058,766.095498
592.646306,-296.082377,-8956.491898,1149.143247
592.646633,0.000000,-9104.533087,689.485948
592.646960,-222.061783,-9030.512492,383.047749
592.647288,0.000000,-8956.491898,383.047749
592.647615,-296.082377,-9030.512492,459.657299
592.647943,0.000000,-9252.574275,842.705048
592.648270,-370.102971,-9326.594869,612.876398
592.648598,-444.123565,-9548.656652,612.876398
592.648925,-518.144159,-9326.594869,612.876398
592.649253,-444.123565,-9400.615463,536.266849
592.649580,-148.041188,-9178.553681,766.095498
592.649908,740.205942,-8660.409521,1225.752797
592.650235,1258.350101,-8808.450710,1225.752797
592.650563,1258.350101,-9030.512492,1685.410096
592.650890,814.226536,-9326.594869,1762.019645
592.651218,0.000000,-9400.615463,1838.629195
592.651545,0.000000,-9474.636058,1762.019645
592.651873,0.000000,-9326.594869,1991.848295
592.652200,0.000000,-9030.512492,1915.238745
592.652528,222.061783,-9252.574275,1915.238745
592.652855,0.000000,-8808.450710,2068.457845
592.653183,-296.082377,-8290.306550,2221.676944
592.653510,0.000000,-8068.244768,2068.457845
592.653838,0.000000,-8660.409521,2298.286494
592.654165,-296.082377,-8882.471304,2604.724693
592.654492,-518.144159,-9030.512492,2681.334243
592.654820,-592.164754,-8660.409521,2451.505594
592.655147,-592.164754,-8734.430116,2604.724693
592.655475,-814.226536,-8882.471304,2604.724693
592.655802,-962.267725,-8956.491898,2911.162892
592.656130,-518.144159,-8882.471304,2911.162892
592.656457,-370.102971,-8808.450710,2911.162892
592.656785,-518.144159,-9030.512492,2911.162892
592.657112,-814.226536,-9030.512492,3064.381992
592.657440,-666.185348,-8956.491898,3217.601092
592.657767,-518.144159,-8956.491898,3294.210641
592.658095,-370.102971,-8586.388927,2911.162892
592.658422,-296.082377,-8586.388927,2987.772442
592.658750,-370.102971,-8734.430116,3294.210641
592.659077,-222.061783,-8882.471304,3064.381992
592.659405,0.000000,-9104.533087,3294.210641
592.659732,0.000000,-9252.574275,3370.820191
592.660060,0.000000,-9400.615463,3140.991542
592.660387,0.000000,-9104.533087,3524.039291
592.660715,74.020594,-9326.594869,3447.429741
592.661042,296.082377,-9252.574275,3753.867940
592.661370,666.185348,-9252.574275,3983.696590
592.661697,888.247130,-9030.512492,4213.525239
592.662025,1406.391290,-9400.615463,4596.572988
592.662352,1258.350101,-9326.594869,4596.572988
592.662679,1184.329507,-9400.615463,4903.011187
592.663007,888.247130,-9474.636058,5132.839837
592.663334,666.185348,-9400.615463,4979.620737
592.663662,74.020594,-9474.636058,4749.792088
592.663989,-370.102971,-9992.780217,4749.792088
592.664317,-814.226536,-9622.677246,4673.182538
592.664644,-962.267725,-9474.636058,4519.963438
592.664972,-1184.329507,-9326.594869,4673.182538
592.665299,-1850.514855,-9252.574275,4290.134789
592.665627,-1998.556043,-9178.553681,3370.820191
592.665954,-2220.617826,-8956.491898,3294.210641
592.666282,-2072.576638,-8734.430116,3217.601092
592.666609,-1628.453072,-8512.368333,3370.820191
592.666937,-370.102971,-7772.162391,4366.744339
592.667264,444.123565,-7846.182985,4749.792088
592.667592,1110.308913,-7994.224174,5132.839837
592.667919,1702.473667,-8364.327145,5975.544884
592.668247,1628.453072,-8882.471304,6205.373534
592.668574,1110.308913,-9474.636058,6894.859482
592.668902,222.061783,-10288.862594,6358.592633
592.669229,-1332.370696,-10881.027347,5898.935335
592.669557,-2368.659014,-11177.109724,4979.620737
592.669884,-2368.659014,-10732.986159,4290.134789
592.670211,-2072.576638,-9622.677246,3600.648841
592.670539,-666.185348,-8586.388927,4290.134789
592.670866,962.267725,-7624.121203,3753.867940
592.671194,2516.700203,-7328.038826,4290.134789
592.671521,1702.473667,-7772.162391,3983.696590
592.671849,-1776.494261,-9474.636058,2528.115143
592.672176,-6809.894666,-11325.150913,612.876398
592.672504,-10732.986159,-12213.398043,-1991.848295
592.672831,-11473.192101,-11621.233289,-3524.039291
592.673159,-8734.430116,-9178.553681,-3524.039291
592.673486,-4959.379811,-7476.080014,-2298.286494
592.673814,3552.988522,-5995.668130,-842.705048
592.674141,5699.585753,-4441.235652,1762.019645
592.674469,10140.821405,-3701.029710,2681.334243
592.674796,10362.883188,-4737.318029,3983.696590
592.675124,8586.388927,-6957.935855,4826.401637
592.675451,6883.915261,-10288.862594,5286.058936
592.675779,2294.638420,-13545.768739,6205.373534
592.676106,592.164754,-13989.892304,5286.058936
592.676434,74.020594,-14063.912898,5822.325785
592.676761,3775.050304,-11917.315666,6588.421283
592.677089,7328.038826,-10584.944971,6665.030833
592.677416,8734.430116,-8956.491898,7507.735880
592.677743,8882.471304,-8438.347739,7967.393179
592.678071,5995.668130,-8290.306550,6511.811733
592.678398,0.000000,-9770.718434,4749.792088
592.678726,-5477.523971,-10584.944971,2528.115143
592.679053,-7254.018232,-9992.780217,1915.238745
592.679381,-8512.368333,-9326.594869,2528.115143
592.679708,-5699.585753,-7031.956449,4596.572988
592.680036,-3701.029710,-6957.935855,7201.297681
592.680363,-2146.597232,-6291.750507,8044.002729
592.680691,-5477.523971,-6809.894666,6741.640382
592.681018,-6513.812290,-8290.306550,5975.544884
592.681346,-9030.512492,-8290.306550,4290.134789
592.681673,-8364.327145,-7846.182985,4826.401637
592.682001,-7031.956449,-7846.182985,4673.182538
592.682328,-3923.091493,-7328.038826,5592.497135
592.682656,-296.082377,-6217.729913,7354.516781
592.682983,4293.194464,-5033.400406,9499.584175
592.683311,7105.977043,-4811.338623,10725.336972
592.683638,6809.894666,-6513.812290,10418.898773
592.683966,3034.844362,-11251.130318,8886.707777
592.684293,-4737.318029,-16580.613101,5592.497135
592.684621,-11029.068536,-18357.107362,2068.457845
592.684948,-12361.439231,-16876.695478,-459.657299
592.685275,-9770.718434,-15174.221811,-1225.752797
592.685603,-2738.761985,-11769.274478,-536.266849
592.685930,1924.535449,-9104.533087,1225.752797
592.686258,1036.288319,-7624.121203,-612.876398
592.686585,1406.391290,-6365.771101,-1762.019645
592.686913,-888.247130,-6291.750507,-3907.087040
592.687240,-592.164754,-6217.729913,-4060.306139
592.687568,1480.411884,-6291.750507,-4443.353888
592.687895,4663.297435,-7550.100608,-2451.505594
592.688223,5033.400406,-8808.450710,612.876398
592.688550,7105.977043,-8068.244768,3294.210641
592.688878,8438.347739,-9326.594869,5439.278036
592.689205,8734.430116,-9844.739029,5209.449386
592.689533,6957.935855,-11103.089130,4673.182538
592.689860,4441.235652,-14285.974681,2834.553343
592.690188,2738.761985,-14211.954086,2298.286494
592.690515,2738.761985,-12287.418637,2145.067394
592.690843,5477.523971,-9252.574275,2987.772442
592.691170,9104.533087,-7698.141797,3907.087040
592.691498,9622.677246,-8364.327145,3294.210641
592.691825,5625.565159,-8216.285956,2987.772442
592.692153,-1628.453072,-8660.409521,1149.143247
592.692480,-6217.729913,-9030.512492,459.657299
592.692808,-7994.224174,-9474.636058,383.047749
592.693135,-7846.182985,-11251.130318,459.657299
592.693462,-7254.018232,-11029.068536,1302.362347
592.693790,-4441.235652,-9252.574275,3217.601092
592.694117,-4219.173869,-6661.853478,4826.401637
592.694445,-1110.308913,-5403.503377,6741.640382
592.694772,-1554.432478,-4663.297435,5975.544884
592.695100,-3256.906145,-5403.503377,5669.106685
592.695427,-3923.091493,-5477.523971,5745.716235
592.695755,-4811.338623,-5699.585753,5362.668486
592.696082,-5773.606348,-6069.688724,6128.763984
592.696410,-3034.844362,-7476.080014,6971.469032
592.696737,0.000000,-7402.059420,6741.640382
592.697065,2664.741391,-7550.100608,7201.297681
592.697392,3849.070898,-8734.430116,7048.078582
592.697720,2072.576638,-9770.718434,5822.325785
592.698047,-444.123565,-10732.986159,4826.401637
592.698375,-2812.782580,-12139.377449,4060.306139
592.698702,-3330.926739,-12657.521608,3217.601092
592.699030,-3627.009116,-13175.665768,2911.162892
592.699357,-2368.659014,-11991.336260,3370.820191
592.699685,-444.123565,-10066.800811,2451.505594
592.700012,0.000000,-8364.327145,4366.744339
592.700340,1850.514855,-7402.059420,3830.477490
592.700667,1702.473667,-7698.141797,3524.039291
592.700994,2072.576638,-7254.018232,3294.210641
592.701322,518.144159,-7624.121203,3064.381992
592.701649,-1406.391290,-8956.491898,3983.696590
592.701977,-2072.576638,-9326.594869,3830.477490
592.702304,148.041188,-9474.636058,5132.839837
592.702632,2220.617826,-9696.697840,6052.154434
592.702959,2590.720797,-10140.821405,5898.935335
592.703287,1480.411884,-10214.842000,5515.887586
592.703614,-222.061783,-10510.924376,4060.306139
592.703942,-2516.700203,-11473.192101,2451.505594
592.704269,-3923.091493,-12065.356855,919.314598
592.704597,-2294.638420,-11251.130318,1072.533697
592.704924,444.123565,-8808.450710,2068.457845
592.705252,2368.659014,-9178.553681,3370.820191
592.705579,3108.864956,-10066.800811,4596.572988
592.705907,2146.597232,-9992.780217,4443.353888
592.706234,888.247130,-10436.903782,3447.429741
592.706562,-2590.720797,-11621.233289,2221.676944
592.706889,-4219.173869,-13397.727550,1455.581446
592.707217,-3849.070898,-11843.295072,2068.457845
592.707544,-1702.473667,-10140.821405,3140.991542
592.707872,-370.102971,-9918.759623,4060.306139
592.708199,-370.102971,-9030.512492,4673.182538
592.708526,-1036.288319,-8438.347739,3140.991542
592.708854,-2442.679609,-7624.121203,1072.533697
592.709181,-2590.720797,-6883.915261,-536.266849
592.709509,-962.267725,-5921.647536,-995.924147
592.709836,2368.659014,-4737.318029,459.657299
