#time,accel_x,accel_y,accel_z
277.375376,-296.082377,-9178.553681,459.657299
277.375704,-74.020594,-9252.574275,459.657299
277.376032,0.000000,-9178.553681,612.876398
277.376359,-74.020594,-9178.553681,919.314598
277.376687,0.000000,-9104.533087,919.314598
277.377015,-370.102971,-9104.533087,306.438199
277.377343,-222.061783,-9104.533087,459.657299
277.377670,-148.041188,-9326.594869,536.266849
277.377998,-222.061783,-9252.574275,689.485948
277.378326,-148.041188,-8956.491898,612.876398
277.378654,-370.102971,-8586.388927,842.705048
277.378982,-370.102971,-8956.491898,459.657299
277.379309,-296.082377,-9104.533087,612.876398
277.379637,-370.102971,-9030.512492,612.876398
277.379965,-444.123565,-8660.409521,995.924147
277.380293,0.000000,-9326.594869,536.266849
277.380621,-222.061783,-9104.533087,536.266849
277.380948,-370.102971,-9104.533087,689.485948
277.381276,-222.061783,-9252.574275,459.657299
277.381604,0.000000,-9030.512492,689.485948
277.381932,-148.041188,-8956.491898,459.657299
277.382259,-296.082377,-9104.533087,153.219100
277.382587,-296.082377,-9104.533087,612.876398
277.382915,0.000000,-9252.574275,536.266849
277.383243,0.000000,-9104.533087,536.266849
277.383571,148.041188,-8808.450710,306.438199
277.383898,-444.123565,-9252.574275,536.266849
277.384226,-296.082377,-9178.553681,536.266849
277.384554,-148.041188,-9252.574275,383.047749
277.384882,-518.144159,-9252.574275,306.438199
277.385209,-1110.308913,-9104.533087,536.266849
277.385537,-1480.411884,-9548.656652,-459.657299
277.385865,-1406.391290,-9400.615463,-459.657299
277.386193,-962.267725,-9178.553681,-689.485948
277.386521,-740.205942,-8808.450710,-459.657299
277.386848,-814.226536,-8956.491898,-459.657299
277.387176,-1036.288319,-8808.450710,-383.047749
277.387504,-1184.329507,-9104.533087,-919.314598
277.387832,-1110.308913,-9030.512492,-1149.143247
277.388160,-962.267725,-8882.471304,-1532.190996
277.388487,-666.185348,-9178.553681,-2374.896044
277.388815,-296.082377,-9104.533087,-1762.019645
277.389143,0.000000,-9252.574275,-995.924147
277.389471,0.000000,-9252.574275,-1225.752797
277.389798,74.020594,-9104.533087,-1378.971896
277.390126,222.061783,-9104.533087,-1225.752797
277.390454,592.164754,-9474.636058,-1378.971896
277.390782,518.144159,-9474.636058,-1532.190996
277.391110,740.205942,-9252.574275,-1532.190996
277.391437,666.185348,-9104.533087,-995.924147
277.391765,740.205942,-9178.553681,-919.314598
277.392093,1036.288319,-9474.636058,-1455.581446
277.392421,1110.308913,-9252.574275,-1302.362347
277.392748,740.205942,-9548.656652,-1149.143247
277.393076,296.082377,-9400.615463,-1149.143247
277.393404,296.082377,-9400.615463,-1225.752797
277.393732,222.061783,-9400.615463,-1608.800546
277.394060,0.000000,-8882.471304,-766.095498
277.394387,74.020594,-9178.553681,-919.314598
277.394715,-222.061783,-9178.553681,-919.314598
277.395043,-592.164754,-9030.512492,-919.314598
277.395371,-592.164754,-8882.471304,-612.876398
277.395699,-740.205942,-8882.471304,-612.876398
277.396026,-1110.308913,-8734.430116,-1072.533697
277.396354,-1184.329507,-8660.409521,-1302.362347
277.396682,-1332.370696,-8882.471304,-995.924147
277.397010,-1702.473667,-8956.491898,-1225.752797
277.397337,-1554.432478,-8808.450710,-919.314598
277.397665,-1480.411884,-9030.512492,-1378.971896
277.397993,-1554.432478,-8660.409521,-1455.581446
277.398321,-1406.391290,-8882.471304,-1455.581446
277.398649,-1258.350101,-8808.450710,-1302.362347
277.398976,-888.247130,-8586.388927,-1455.581446
277.399304,-370.102971,-9178.553681,-1149.143247
277.399632,-444.123565,-9178.553681,-995.924147
277.399960,0.000000,-8956.491898,-995.924147
277.400287,222.061783,-9030.512492,-919.314598
277.400615,814.226536,-9104.533087,-306.438199
277.400943,814.226536,-8882.471304,0.000000
277.401271,1110.308913,-9326.594869,0.000000
277.401599,1184.329507,-9400.615463,0.000000
277.401926,1110.308913,-9400.615463,76.609550
277.402254,1406.391290,-9548.656652,229.828649
277.402582,1480.411884,-9178.553681,612.876398
277.402910,1258.350101,-9178.553681,766.095498
277.403238,1480.411884,-9252.574275,995.924147
277.403565,962.267725,-9326.594869,1072.533697
277.403893,666.185348,-9400.615463,919.314598
277.404221,222.061783,-9178.553681,766.095498
277.404549,-518.144159,-9474.636058,842.705048
277.404876,-1110.308913,-9326.594869,459.657299
277.405204,-1702.473667,-9474.636058,153.219100
277.405532,-2220.617826,-9474.636058,76.609550
277.405860,-2516.700203,-8956.491898,0.000000
277.406188,-2664.741391,-8660.409521,-612.876398
277.406515,-2368.659014,-8808.450710,-383.047749
277.406843,-2368.659014,-8438.347739,-536.266849
277.407171,-2146.597232,-8438.347739,-689.485948
277.407499,-1776.494261,-8512.368333,-306.438199
277.407826,-1406.391290,-8660.409521,0.000000
277.408154,-1554.432478,-8586.388927,0.000000
277.408482,-1332.370696,-8882.471304,0.000000
277.408810,-592.164754,-8808.450710,459.657299
277.409138,148.041188,-9030.512492,612.876398
277.409465,1110.308913,-8956.491898,1072.533697
277.409793,1924.535449,-9104.533087,1762.019645
277.410121,2368.659014,-9326.594869,2068.457845
277.410449,2368.659014,-9326.594869,2145.067394
277.410777,2146.597232,-9622.677246,2221.676944
277.411104,2146.597232,-9844.739029,2681.334243
277.411432,1702.473667,-10140.821405,1838.629195
277.411760,1258.350101,-10140.821405,2145.067394
277.412088,740.205942,-9918.759623,1378.971896
277.412415,0.000000,-9770.718434,1532.190996
277.412743,74.020594,-9548.656652,1225.752797
277.413071,-1110.308913,-9474.636058,1149.143247
277.413399,-1702.473667,-9474.636058,459.657299
277.413727,-1998.556043,-8882.471304,-153.219100
277.414054,-2072.576638,-8956.491898,0.000000
277.414382,-2220.617826,-8438.347739,0.000000
277.414710,-1998.556043,-8290.306550,153.219100
277.415038,-2294.638420,-8290.306550,-153.219100
277.415365,-2516.700203,-8216.285956,-459.657299
277.415693,-2516.700203,-8438.347739,-383.047749
277.416021,-2516.700203,-8290.306550,-536.266849
277.416349,-1184.329507,-8438.347739,-153.219100
277.416677,-888.247130,-8216.285956,0.000000
277.417004,0.000000,-8216.285956,306.438199
277.417332,740.205942,-8586.388927,612.876398
277.417660,1184.329507,-8808.450710,612.876398
277.417988,1554.432478,-9400.615463,842.705048
277.418316,1776.494261,-9770.718434,1149.143247
277.418643,1258.350101,-10066.800811,1072.533697
277.418971,1110.308913,-10066.800811,689.485948
277.419299,888.247130,-10362.883188,612.876398
277.419627,814.226536,-10214.842000,0.000000
277.419954,518.144159,-9918.759623,689.485948
277.420282,814.226536,-9622.677246,229.828649
277.420610,74.020594,-9622.677246,0.000000
277.420938,370.102971,-9252.574275,0.000000
277.421266,222.061783,-8882.471304,0.000000
277.421593,-296.082377,-8586.388927,-76.609550
277.421921,-296.082377,-8290.306550,0.000000
277.422249,-444.123565,-8216.285956,0.000000
277.422577,-962.267725,-8364.327145,0.000000
277.422904,-666.185348,-8068.244768,0.000000
277.423232,-666.185348,-8290.306550,459.657299
277.423560,-444.123565,-8438.347739,612.876398
277.423888,-296.082377,-8438.347739,612.876398
277.424216,0.000000,-8512.368333,612.876398
277.424543,222.061783,-8438.347739,995.924147
277.424871,518.144159,-8734.430116,2145.067394
277.425199,0.000000,-9030.512492,842.705048
277.425527,74.020594,-9622.677246,1072.533697
277.425855,-444.123565,-9622.677246,995.924147
277.426182,-444.123565,-9770.718434,766.095498
277.426510,-962.267725,-9696.697840,1302.362347
277.426838,-592.164754,-9696.697840,153.219100
277.427166,-962.267725,-9696.697840,229.828649
277.427493,-1184.329507,-9548.656652,76.609550
277.427821,-1332.370696,-9400.615463,229.828649
277.428149,-1110.308913,-8808.450710,229.828649
277.428477,-296.082377,-9178.553681,153.219100
277.428805,-1036.288319,-8734.430116,229.828649
277.429132,-1036.288319,-8364.327145,0.000000
277.429460,-1036.288319,-8290.306550,383.047749
277.429788,0.000000,-8290.306550,612.876398
277.430116,296.082377,-8364.327145,766.095498
277.430443,74.020594,-8216.285956,689.485948
277.430771,370.102971,-8364.327145,995.924147
277.431099,518.144159,-8734.430116,842.705048
277.431427,666.185348,-9030.512492,1072.533697
277.431755,1110.308913,-8956.491898,1072.533697
277.432082,1110.308913,-10066.800811,1225.752797
277.432410,1036.288319,-9770.718434,995.924147
277.432738,814.226536,-9992.780217,1225.752797
277.433066,518.144159,-10288.862594,919.314598
277.433394,0.000000,-9918.759623,1149.143247
277.433721,-444.123565,-9844.739029,76.609550
277.434049,-1258.350101,-9992.780217,306.438199
277.434377,-1406.391290,-9992.780217,0.000000
277.434704,-1554.432478,-9548.656652,0.000000
277.435032,-1332.370696,-9178.553681,-229.828649
277.435360,-962.267725,-8142.265362,-229.828649
277.435688,-1036.288319,-8216.285956,0.000000
277.436015,-1258.350101,-8068.244768,0.000000
277.436343,-1036.288319,-8290.306550,0.000000
277.436671,-814.226536,-8216.285956,0.000000
277.436999,-148.041188,-8216.285956,76.609550
277.437326,-148.041188,-7994.224174,536.266849
277.437654,148.041188,-8438.347739,612.876398
277.437982,592.164754,-8882.471304,842.705048
277.438310,888.247130,-8956.491898,1302.362347
277.438637,1332.370696,-8882.471304,1838.629195
277.438965,1924.535449,-9400.615463,1685.410096
277.439293,1702.473667,-9548.656652,1608.800546
277.439621,1480.411884,-9844.739029,1455.581446
277.439948,1110.308913,-10288.862594,1378.971896
277.440276,444.123565,-10066.800811,995.924147
277.440604,-148.041188,-9918.759623,1302.362347
277.440932,-592.164754,-10214.842000,766.095498
277.441259,-1258.350101,-10140.821405,612.876398
277.441587,-1258.350101,-9622.677246,612.876398
277.441915,-1258.350101,-9178.553681,383.047749
277.442242,-1480.411884,-8660.409521,383.047749
277.442570,-1628.453072,-8364.327145,153.219100
277.442898,-1406.391290,-8216.285956,229.828649
277.443226,-1776.494261,-7920.203579,153.219100
277.443553,-1850.514855,-7994.224174,153.219100
277.443881,-1258.350101,-7698.141797,1225.752797
277.444209,-1628.453072,-7772.162391,306.438199
277.444537,-1406.391290,-8142.265362,459.657299
277.444864,-962.267725,-8290.306550,612.876398
277.445192,-666.185348,-8512.368333,919.314598
277.445520,222.061783,-8956.491898,1072.533697
277.445848,592.164754,-8438.347739,995.924147
277.446175,666.185348,-9252.574275,995.924147
277.446503,1110.308913,-10066.800811,1302.362347
277.446831,1184.329507,-10140.821405,1072.533697
277.447159,1184.329507,-10214.842000,1302.362347
277.447486,888.247130,-10288.862594,919.314598
277.447814,296.082377,-10732.986159,842.705048
277.448142,-370.102971,-10510.924376,229.828649
277.448470,-370.102971,-10066.800811,306.438199
277.448797,-370.102971,-9622.677246,76.609550
277.449125,-592.164754,-9548.656652,76.609550
277.449453,-740.205942,-9030.512492,-306.438199
277.449781,-740.205942,-8586.388927,-306.438199
277.450108,-444.123565,-8216.285956,-383.047749
277.450436,-666.185348,-7846.182985,-229.828649
277.450764,74.020594,-8216.285956,0.000000
277.451091,-888.247130,-7698.141797,0.000000
277.451419,-222.061783,-8142.265362,-153.219100
277.451747,-444.123565,-8142.265362,153.219100
277.452075,0.000000,-8512.368333,536.266849
277.452402,444.123565,-9104.533087,842.705048
277.452730,666.185348,-8882.471304,766.095498
277.453058,740.205942,-9400.615463,1072.533697
277.453386,888.247130,-9548.656652,1302.362347
277.453713,888.247130,-9696.697840,1225.752797
277.454041,592.164754,-9844.739029,995.924147
277.454369,370.102971,-10214.842000,1302.362347
277.454697,74.020594,-10436.903782,1072.533697
277.455024,-592.164754,-10288.862594,689.485948
277.455352,-740.205942,-10066.800811,689.485948
277.455680,-1332.370696,-9918.759623,76.609550
277.456008,-1406.391290,-9104.533087,306.438199
277.456335,-1184.329507,-9104.533087,0.000000
277.456663,-1480.411884,-8364.327145,76.609550
277.456991,-1406.391290,-8290.306550,0.000000
277.457319,-1332.370696,-7994.224174,76.609550
277.457646,-1184.329507,-7550.100608,-383.047749
277.457974,-1184.329507,-7550.100608,-153.219100
277.458302,-1036.288319,-7846.182985,306.438199
277.458629,-888.247130,-8068.244768,306.438199
277.458957,-592.164754,-8216.285956,689.485948
277.459285,-148.041188,-8438.347739,919.314598
277.459613,0.000000,-8882.471304,1072.533697
277.459940,592.164754,-9252.574275,919.314598
277.460268,962.267725,-9400.615463,995.924147
277.460596,1110.308913,-9548.656652,1149.143247
277.460924,1480.411884,-9992.780217,1225.752797
277.461251,1184.329507,-9918.759623,1302.362347
277.461579,740.205942,-10140.821405,1072.533697
277.461907,370.102971,-10288.862594,1149.143247
277.462235,-296.082377,-10362.883188,689.485948
277.462562,-666.185348,-9992.780217,383.047749
277.462890,-1332.370696,-9474.636058,536.266849
277.463218,-1258.350101,-9400.615463,0.000000
277.463546,-1184.329507,-9030.512492,76.609550
277.463873,-1258.350101,-8660.409521,0.000000
277.464201,-1480.411884,-8438.347739,0.000000
277.464529,-1332.370696,-7624.121203,-229.828649
277.464857,-740.205942,-7994.224174,0.000000
277.465184,-592.164754,-7846.182985,0.000000
277.465512,-444.123565,-8290.306550,229.828649
277.465840,0.000000,-8290.306550,229.828649
277.466168,74.020594,-8290.306550,1149.143247
277.466495,666.185348,-8586.388927,689.485948
277.466823,666.185348,-9252.574275,1072.533697
277.467151,1036.288319,-9474.636058,1455.581446
277.467478,1332.370696,-9918.759623,1455.581446
277.467806,1480.411884,-9918.759623,2068.457845
277.468134,1258.350101,-9918.759623,1608.800546
277.468462,814.226536,-10362.883188,1455.581446
277.468789,148.041188,-10288.862594,1302.362347
277.469117,0.000000,-10140.821405,1302.362347
277.469445,-518.144159,-10066.800811,995.924147
277.469773,-962.267725,-9770.718434,612.876398
277.470100,-1332.370696,-9622.677246,766.095498
277.470428,-1702.473667,-9252.574275,306.438199
277.470756,-1850.514855,-8956.491898,306.438199
277.471084,-1998.556043,-8438.347739,76.609550
277.471411,-1850.514855,-8290.306550,306.438199
277.471739,-1924.535449,-8068.244768,153.219100
277.472067,-1480.411884,-7994.224174,0.000000
277.472395,-1554.432478,-7920.203579,459.657299
277.472722,-1332.370696,-8142.265362,229.828649
277.473050,-888.247130,-8290.306550,536.266849
277.473378,-518.144159,-8660.409521,306.438199
277.473706,-222.061783,-8882.471304,536.266849
277.474033,222.061783,-9178.553681,766.095498
277.474361,666.185348,-9326.594869,919.314598
277.474689,1110.308913,-9030.512492,1149.143247
277.475016,1702.473667,-9548.656652,1532.190996
277.475344,1628.453072,-9992.780217,1149.143247
277.475672,1406.391290,-10140.821405,995.924147
277.476000,962.267725,-10214.842000,766.095498
277.476327,222.061783,-10288.862594,536.266849
277.476655,148.041188,-10362.883188,612.876398
277.476983,-814.226536,-9844.739029,306.438199
277.477311,-814.226536,-9400.615463,0.000000
277.477638,-1184.329507,-9178.553681,0.000000
277.477966,-814.226536,-8808.450710,0.000000
277.478294,-1184.329507,-7994.224174,153.219100
277.478622,-740.205942,-7920.203579,-612.876398
277.478949,-888.247130,-7846.182985,-383.047749
277.479277,-740.205942,-7920.203579,-153.219100
277.479605,-740.205942,-7994.224174,-229.828649
277.479933,-592.164754,-8290.306550,0.000000
277.480260,148.041188,-8660.409521,306.438199
277.480588,-148.041188,-8586.388927,612.876398
277.480916,444.123565,-8956.491898,612.876398
277.481244,592.164754,-9252.574275,1072.533697
277.481571,888.247130,-9326.594869,919.314598
277.481899,1332.370696,-9400.615463,1072.533697
277.482227,1258.350101,-9770.718434,1225.752797
277.482554,1184.329507,-10066.800811,1149.143247
277.482882,518.144159,-10140.821405,1072.533697
277.483210,222.061783,-10214.842000,1072.533697
277.483538,-370.102971,-9918.759623,1762.019645
277.483865,-444.123565,-10066.800811,383.047749
277.484193,-1258.350101,-9770.718434,229.828649
277.484521,-1184.329507,-9400.615463,229.828649
277.484849,-1480.411884,-9030.512492,76.609550
277.485176,-1480.411884,-8290.306550,229.828649
277.485504,-1480.411884,-8512.368333,-459.657299
277.485832,-1702.473667,-8216.285956,0.000000
277.486160,-1628.453072,-8216.285956,0.000000
277.486487,-1406.391290,-7994.224174,0.000000
277.486815,-1776.494261,-7920.203579,0.000000
277.487143,-1110.308913,-7994.224174,76.609550
277.487471,-592.164754,-8216.285956,383.047749
277.487798,-444.123565,-8660.409521,536.266849
277.488126,296.082377,-8808.450710,766.095498
277.488454,518.144159,-9252.574275,842.705048
277.488782,1110.308913,-9474.636058,1072.533697
277.489109,1258.350101,-9696.697840,1072.533697
277.489437,1332.370696,-10066.800811,1225.752797
277.489765,1480.411884,-10140.821405,1302.362347
277.490093,888.247130,-10140.821405,1302.362347
277.490420,888.247130,-10436.903782,1149.143247
277.490748,0.000000,-10066.800811,689.485948
277.491076,-222.061783,-10140.821405,612.876398
277.491403,-740.205942,-9844.739029,229.828649
277.491731,-1554.432478,-9474.636058,0.000000
277.492059,-1036.288319,-9030.512492,0.000000
277.492387,-888.247130,-8216.285956,-459.657299
277.492714,-888.247130,-8216.285956,-153.219100
277.493042,-1036.288319,-7994.224174,-153.219100
277.493370,-814.226536,-7920.203579,-153.219100
277.493698,-592.164754,-7476.080014,76.609550
277.494025,-592.164754,-7994.224174,536.266849
277.494353,-222.061783,-8142.265362,0.000000
277.494681,0.000000,-8808.450710,766.095498
277.495009,0.000000,-8882.471304,766.095498
277.495336,148.041188,-9178.553681,1072.533697
277.495664,962.267725,-9104.533087,1455.581446
277.495992,1110.308913,-9326.594869,1532.190996
277.496320,1332.370696,-9770.718434,1685.410096
277.496647,1258.350101,-9844.739029,1608.800546
277.496975,740.205942,-9918.759623,1302.362347
277.497303,740.205942,-10214.842000,1072.533697
277.497631,74.020594,-10066.800811,689.485948
277.497958,-518.144159,-10140.821405,842.705048
277.498286,-1110.308913,-10066.800811,766.095498
277.498614,-1406.391290,-9474.636058,383.047749
277.498941,-1480.411884,-9030.512492,919.314598
277.499269,-1258.350101,-8660.409521,153.219100
277.499597,-1776.494261,-8512.368333,153.219100
277.499925,-1776.494261,-8438.347739,76.609550
277.500252,-1628.453072,-8216.285956,153.219100
277.500580,-1628.453072,-7994.224174,0.000000
277.500908,-1110.308913,-7994.224174,229.828649
277.501236,-1258.350101,-8068.244768,459.657299
277.501563,-962.267725,-8216.285956,459.657299
277.501891,-740.205942,-8364.327145,536.266849
277.502219,0.000000,-8512.368333,766.095498
277.502547,518.144159,-9252.574275,766.095498
277.502874,444.123565,-8882.471304,1072.533697
277.503202,1110.308913,-9400.615463,1225.752797
277.503530,1258.350101,-9474.636058,1072.533697
277.503858,1332.370696,-9918.759623,1149.143247
277.504185,962.267725,-10214.842000,1378.971896
277.504513,740.205942,-10140.821405,995.924147
277.504841,296.082377,-10288.862594,842.705048
277.505169,-296.082377,-10362.883188,689.485948
277.505496,-518.144159,-9992.780217,459.657299
277.505824,-444.123565,-9474.636058,229.828649
277.506152,-1258.350101,-9104.533087,612.876398
277.506480,-740.205942,-9104.533087,0.000000
277.506807,-1332.370696,-8660.409521,-153.219100
277.507135,-1110.308913,-8438.347739,0.000000
277.507463,-888.247130,-7846.182985,0.000000
277.507790,-740.205942,-7402.059420,229.828649
277.508118,-518.144159,-7920.203579,0.000000
277.508446,-370.102971,-8216.285956,0.000000
277.508774,-222.061783,-8364.327145,306.438199
277.509101,-148.041188,-8808.450710,536.266849
277.509429,0.000000,-8290.306550,1225.752797
277.509757,148.041188,-9252.574275,919.314598
277.510085,370.102971,-9326.594869,766.095498
277.510412,666.185348,-9474.636058,1225.752797
277.510740,1036.288319,-9548.656652,1532.190996
277.511068,740.205942,-9474.636058,1685.410096
277.511396,888.247130,-9844.739029,1685.410096
277.511723,148.041188,-9770.718434,766.095498
277.512051,-370.102971,-9844.739029,1072.533697
277.512379,-888.247130,-9770.718434,689.485948
277.512707,-1110.308913,-9696.697840,-229.828649
277.513034,-1480.411884,-9178.553681,612.876398
277.513362,-1628.453072,-9178.553681,153.219100
277.513690,-1480.411884,-8660.409521,153.219100
277.514018,-1554.432478,-8512.368333,76.609550
277.514345,-1332.370696,-8512.368333,0.000000
277.514673,-1184.329507,-8216.285956,0.000000
277.515001,-1332.370696,-8142.265362,0.000000
277.515328,-1110.308913,-8068.244768,153.219100
277.515656,-814.226536,-8216.285956,153.219100
277.515984,-444.123565,-8512.368333,459.657299
277.516312,0.000000,-9104.533087,76.609550
277.516639,74.020594,-8734.430116,383.047749
277.516967,814.226536,-9104.533087,689.485948
277.517295,1332.370696,-9326.594869,995.924147
277.517623,1184.329507,-9548.656652,1225.752797
277.517950,1332.370696,-9918.759623,1225.752797
277.518278,1332.370696,-9474.636058,1302.362347
277.518606,1110.308913,-10214.842000,1225.752797
277.518934,444.123565,-10362.883188,919.314598
277.519261,0.000000,-10140.821405,689.485948
277.519589,0.000000,-9844.739029,0.000000
277.519917,-888.247130,-9474.636058,153.219100
277.520245,-1406.391290,-9474.636058,-76.609550
277.520572,-1258.350101,-8808.450710,-153.219100
277.520900,-1480.411884,-8734.430116,-383.047749
277.521228,-1332.370696,-8364.327145,-306.438199
277.521556,-1258.350101,-7772.162391,-306.438199
277.521883,-1184.329507,-7994.224174,0.000000
277.522211,-814.226536,-7772.162391,-306.438199
277.522539,-962.267725,-7846.182985,0.000000
277.522867,-518.144159,-8364.327145,76.609550
277.523194,148.041188,-8142.265362,689.485948
277.523522,740.205942,-8512.368333,536.266849
277.523850,740.205942,-9030.512492,995.924147
277.524177,1036.288319,-9400.615463,1225.752797
277.524505,1332.370696,-9400.615463,1455.581446
277.524833,1406.391290,-9030.512492,1838.629195
277.525161,1480.411884,-9696.697840,1762.019645
277.525488,1184.329507,-9992.780217,1838.629195
277.525816,592.164754,-10066.800811,1915.238745
277.526144,296.082377,-9992.780217,1608.800546
277.526472,-222.061783,-9918.759623,995.924147
277.526799,-370.102971,-9844.739029,919.314598
277.527127,-1036.288319,-9696.697840,1302.362347
277.527455,-1628.453072,-9400.615463,229.828649
277.527783,-1554.432478,-9104.533087,536.266849
277.528110,-1776.494261,-8586.388927,76.609550
277.528438,-1850.514855,-8216.285956,0.000000
277.528766,-2146.597232,-8068.244768,229.828649
277.529094,-1850.514855,-7994.224174,306.438199
277.529421,-1702.473667,-7772.162391,229.828649
277.529749,-1628.453072,-8068.244768,459.657299
277.530077,-1184.329507,-7846.182985,919.314598
277.530405,-962.267725,-8290.306550,1072.533697
277.530732,-666.185348,-8512.368333,612.876398
277.531060,-222.061783,-9030.512492,766.095498
277.531388,296.082377,-9104.533087,1072.533697
277.531715,888.247130,-9474.636058,1149.143247
277.532044,1110.308913,-9474.636058,766.095498
277.532371,1258.350101,-9844.739029,1072.533697
277.532699,1406.391290,-10066.800811,1225.752797
277.533027,740.205942,-10214.842000,1225.752797
277.533354,444.123565,-10362.883188,995.924147
277.533682,-222.061783,-10288.862594,995.924147
277.534010,-444.123565,-10066.800811,459.657299
277.534338,-666.185348,-10214.842000,383.047749
277.534665,-814.226536,-9622.677246,0.000000
277.534993,-962.267725,-9178.553681,0.000000
277.535321,-592.164754,-8586.388927,153.219100
277.535648,-962.267725,-8512.368333,-229.828649
277.535976,-666.185348,-8290.306550,-306.438199
277.536304,-666.185348,-8068.244768,-459.657299
277.536632,-740.205942,-8290.306550,-153.219100
277.536959,-222.061783,-7920.203579,-229.828649
277.537287,-592.164754,-7994.224174,76.609550
277.537615,-148.041188,-8512.368333,229.828649
277.537942,148.041188,-8660.409521,383.047749
277.538270,518.144159,-8882.471304,459.657299
277.538598,888.247130,-9178.553681,306.438199
277.538925,962.267725,-8882.471304,995.924147
277.539253,1184.329507,-9770.718434,1072.533697
277.539581,1332.370696,-9770.718434,995.924147
277.539909,888.247130,-9770.718434,1149.143247
277.540236,592.164754,-9770.718434,1608.800546
277.540564,592.164754,-10658.965565,1072.533697
277.540892,-296.082377,-10066.800811,766.095498
277.541219,-740.205942,-9696.697840,229.828649
277.541547,-962.267725,-9548.656652,76.609550
277.541875,-1406.391290,-9400.615463,153.219100
277.542202,-1184.329507,-9030.512492,-383.047749
277.542530,-1554.432478,-8512.368333,76.609550
277.542858,-1628.453072,-8216.285956,0.000000
277.543186,-1406.391290,-8142.265362,-229.828649
277.543513,-1554.432478,-8290.306550,0.000000
277.543841,-1480.411884,-7698.141797,0.000000
277.544169,-1036.288319,-7698.141797,0.000000
277.544496,-740.205942,-8068.244768,306.438199
277.544824,-518.144159,-8290.306550,536.266849
277.545152,-148.041188,-8512.368333,689.485948
277.545479,148.041188,-8808.450710,842.705048
277.545807,740.205942,-8882.471304,1378.971896
277.546135,888.247130,-9474.636058,1072.533697
277.546463,1110.308913,-9474.636058,1302.362347
277.546790,1110.308913,-9696.697840,1455.581446
277.547118,1036.288319,-9770.718434,1455.581446
277.547446,888.247130,-9918.759623,1072.533697
277.547773,222.061783,-10066.800811,1225.752797
277.548101,-296.082377,-10066.800811,766.095498
277.548429,-888.247130,-9622.677246,383.047749
277.548756,-962.267725,-9548.656652,76.609550
277.549084,-1554.432478,-9622.677246,153.219100
277.549412,-1184.329507,-8956.491898,-306.438199
277.549740,-1258.350101,-8734.430116,0.000000
277.550067,-1258.350101,-8142.265362,-229.828649
277.550395,-888.247130,-7920.203579,76.609550
277.550723,-740.205942,-7772.162391,459.657299
277.551050,-518.144159,-7624.121203,612.876398
277.551378,-518.144159,-8068.244768,383.047749
277.551706,-370.102971,-8290.306550,536.266849
277.552033,0.000000,-8808.450710,842.705048
277.552361,222.061783,-9030.512492,229.828649
277.552689,148.041188,-8660.409521,1608.800546
277.553017,888.247130,-9104.533087,1532.190996
277.553344,1480.411884,-9622.677246,1608.800546
277.553672,1258.350101,-9770.718434,1838.629195
277.554000,1036.288319,-9992.780217,1455.581446
277.554327,1110.308913,-10140.821405,1378.971896
277.554655,296.082377,-10140.821405,1378.971896
277.554983,-148.041188,-10214.842000,1072.533697
277.555311,-740.205942,-9992.780217,689.485948
277.555638,-1184.329507,-9918.759623,612.876398
277.555966,-1036.288319,-9178.553681,229.828649
277.556294,-1776.494261,-9030.512492,383.047749
277.556621,-1628.453072,-8882.471304,306.438199
277.556949,-1702.473667,-8734.430116,0.000000
277.557277,-1776.494261,-8364.327145,0.000000
277.557604,-1480.411884,-8216.285956,0.000000
277.557932,-1406.391290,-7698.141797,0.000000
277.558260,-1258.350101,-8216.285956,306.438199
277.558588,-666.185348,-8216.285956,306.438199
277.558915,-814.226536,-8364.327145,459.657299
277.559243,-370.102971,-8586.388927,842.705048
277.559571,518.144159,-8660.409521,459.657299
277.559898,666.185348,-9104.533087,766.095498
277.560226,962.267725,-9474.636058,995.924147
277.560554,1258.350101,-9474.636058,1149.143247
277.560881,1406.391290,-9992.780217,1455.581446
277.561209,1406.391290,-9992.780217,1072.533697
277.561537,814.226536,-10140.821405,919.314598
277.561865,370.102971,-10214.842000,842.705048
277.562192,0.000000,-10214.842000,612.876398
277.562520,-444.123565,-10066.800811,383.047749
277.562848,-296.082377,-9844.739029,0.000000
277.563175,-740.205942,-9400.615463,76.609550
277.563503,-962.267725,-9030.512492,0.000000
277.563831,-888.247130,-8956.491898,-229.828649
277.564158,-1110.308913,-8660.409521,-153.219100
277.564486,-814.226536,-8290.306550,-383.047749
277.564814,-1036.288319,-7846.182985,-153.219100
277.565142,-666.185348,-7846.182985,0.000000
277.565469,-740.205942,-8216.285956,76.609550
277.565797,-518.144159,-8216.285956,76.609550
277.566125,0.000000,-8216.285956,919.314598
277.566452,-296.082377,-8290.306550,1225.752797
277.566780,444.123565,-8956.491898,766.095498
277.567108,518.144159,-9178.553681,919.314598
277.567435,888.247130,-9252.574275,842.705048
277.567763,888.247130,-9474.636058,1149.143247
277.568091,888.247130,-9104.533087,1225.752797
277.568419,1036.288319,-9844.739029,1225.752797
277.568746,444.123565,-9844.739029,1225.752797
277.569074,148.041188,-9844.739029,1072.533697
277.569402,0.000000,-9992.780217,995.924147
277.569729,-962.267725,-9844.739029,1072.533697
277.570057,-962.267725,-9770.718434,229.828649
277.570385,-1258.350101,-9252.574275,229.828649
277.570712,-1776.494261,-8956.491898,229.828649
277.571040,-1258.350101,-8808.450710,306.438199
277.571368,-1628.453072,-8364.327145,689.485948
277.571696,-1332.370696,-7698.141797,153.219100
277.572023,-1332.370696,-8142.265362,153.219100
277.572351,-1332.370696,-8068.244768,229.828649
277.572679,-1184.329507,-8290.306550,229.828649
277.573006,-666.185348,-8438.347739,536.266849
277.573334,-592.164754,-7994.224174,689.485948
277.573662,-296.082377,-8808.450710,536.266849
277.573990,0.000000,-9104.533087,536.266849
277.574317,666.185348,-9400.615463,689.485948
277.574645,962.267725,-9400.615463,842.705048
277.574973,1332.370696,-9400.615463,1225.752797
277.575300,1036.288319,-9770.718434,1149.143247
277.575628,888.247130,-10066.800811,995.924147
277.575956,592.164754,-10140.821405,1149.143247
277.576283,222.061783,-10140.821405,689.485948
277.576611,-296.082377,-9918.759623,919.314598
277.576939,-444.123565,-10214.842000,383.047749
277.577267,-1110.308913,-9696.697840,153.219100
277.577594,-1184.329507,-9474.636058,0.000000
277.577922,-1332.370696,-9104.533087,0.000000
277.578250,-1184.329507,-8586.388927,0.000000
277.578577,-814.226536,-8364.327145,-229.828649
277.578905,-1110.308913,-8068.244768,-536.266849
277.579233,-962.267725,-8068.244768,-229.828649
277.579560,-518.144159,-8068.244768,0.000000
277.579888,-666.185348,-8142.265362,-689.485948
277.580216,-592.164754,-8364.327145,689.485948
277.580544,0.000000,-8512.368333,153.219100
277.580871,148.041188,-8734.430116,766.095498
277.581199,740.205942,-9104.533087,919.314598
277.581527,962.267725,-9400.615463,1378.971896
277.581854,1406.391290,-9030.512492,1762.019645
277.582182,1332.370696,-9622.677246,1302.362347
277.582510,1332.370696,-9992.780217,1532.190996
277.582837,1036.288319,-10362.883188,1532.190996
277.583165,666.185348,-10288.862594,1225.752797
277.583493,74.020594,-9770.718434,1302.362347
277.583821,-370.102971,-9918.759623,612.876398
277.584148,-518.144159,-9992.780217,689.485948
277.584476,-1036.288319,-9696.697840,536.266849
277.584804,-1702.473667,-9178.553681,306.438199
277.585131,-1628.453072,-8956.491898,459.657299
277.585459,-1702.473667,-8512.368333,0.000000
277.585787,-2072.576638,-8290.306550,0.000000
277.586114,-1480.411884,-8586.388927,0.000000
277.586442,-1628.453072,-7846.182985,0.000000
277.586770,-1776.494261,-7846.182985,229.828649
277.587098,-1184.329507,-8142.265362,76.609550
277.587425,-1184.329507,-8216.285956,612.876398
277.587753,-814.226536,-8364.327145,229.828649
277.588081,-148.041188,-9030.512492,612.876398
277.588408,74.020594,-8438.347739,766.095498
277.588736,740.205942,-9178.553681,1455.581446
277.589064,1036.288319,-9178.553681,919.314598
277.589391,1332.370696,-9844.739029,1072.533697
277.589719,1406.391290,-9622.677246,1225.752797
277.590047,1184.329507,-10140.821405,1225.752797
277.590375,1184.329507,-10288.862594,1149.143247
277.590702,592.164754,-10362.883188,766.095498
277.591030,222.061783,-10288.862594,612.876398
277.591358,-296.082377,-10066.800811,459.657299
277.591685,-518.144159,-9622.677246,229.828649
277.592013,-592.164754,-9252.574275,153.219100
277.592341,-518.144159,-9030.512492,76.609550
277.592669,-666.185348,-8882.471304,153.219100
277.592996,-888.247130,-8068.244768,0.000000
277.593324,-814.226536,-8438.347739,0.000000
277.593652,-888.247130,-8290.306550,0.000000
277.593979,-666.185348,-8290.306550,0.000000
277.594307,-740.205942,-8290.306550,153.219100
277.594635,-740.205942,-8142.265362,229.828649
277.594962,-370.102971,-8734.430116,459.657299
277.595290,0.000000,-8882.471304,229.828649
277.595618,222.061783,-8956.491898,612.876398
277.595946,740.205942,-9252.574275,1608.800546
277.596273,148.041188,-9178.553681,842.705048
277.596601,888.247130,-9770.718434,1455.581446
277.596929,592.164754,-9474.636058,995.924147
277.597256,444.123565,-9696.697840,842.705048
277.597584,74.020594,-9770.718434,1302.362347
277.597912,-962.267725,-9918.759623,612.876398
277.598239,-370.102971,-10436.903782,766.095498
277.598567,-740.205942,-9474.636058,153.219100
277.598895,-1850.514855,-9252.574275,229.828649
277.599223,-740.205942,-9030.512492,766.095498
277.599550,-1332.370696,-8882.471304,0.000000
277.599878,-1036.288319,-8512.368333,306.438199
277.600206,-1184.329507,-8512.368333,0.000000
277.600533,-1258.350101,-8438.347739,0.000000
277.600861,-1184.329507,-8142.265362,306.438199
277.601189,-1110.308913,-8068.244768,229.828649
277.601516,-814.226536,-8512.368333,306.438199
277.601844,-370.102971,-8364.327145,306.438199
277.602172,222.061783,-8660.409521,612.876398
277.602500,296.082377,-8512.368333,995.924147
277.602827,1406.391290,-9178.553681,1072.533697
277.603155,888.247130,-9474.636058,995.924147
277.603483,1110.308913,-9548.656652,919.314598
277.603810,740.205942,-9918.759623,1149.143247
277.604138,1184.329507,-9696.697840,1302.362347
277.604466,592.164754,-9844.739029,1225.752797
277.604793,296.082377,-9696.697840,842.705048
277.605121,0.000000,-10140.821405,689.485948
277.605449,-592.164754,-9992.780217,766.095498
277.605777,-1332.370696,-9844.739029,76.609550
277.606104,-1036.288319,-9622.677246,0.000000
277.606432,-1628.453072,-9252.574275,-229.828649
277.606760,-1480.411884,-8660.409521,-229.828649
277.607087,-1332.370696,-8586.388927,-306.438199
277.607415,-1332.370696,-8068.244768,-306.438199
277.607743,-814.226536,-8068.244768,-153.219100
277.608070,-370.102971,-7994.224174,0.000000
277.608398,-444.123565,-8216.285956,153.219100
277.608726,0.000000,-8216.285956,153.219100
277.609054,-296.082377,-8438.347739,459.657299
277.609381,-666.185348,-8216.285956,766.095498
277.609709,740.205942,-9474.636058,1072.533697
277.610037,814.226536,-9326.594869,919.314598
277.610364,1184.329507,-9474.636058,1608.800546
277.610692,1702.473667,-9474.636058,1532.190996
277.611020,1776.494261,-9474.636058,1762.019645
277.611348,1258.350101,-9696.697840,1685.410096
277.611675,814.226536,-10140.821405,1302.362347
277.612003,222.061783,-10140.821405,1225.752797
277.612331,-592.164754,-9844.739029,689.485948
277.612658,-888.247130,-10140.821405,1225.752797
277.612986,-1110.308913,-9622.677246,536.266849
277.613314,-1628.453072,-9252.574275,229.828649
277.613641,-1628.453072,-9104.533087,153.219100
277.613969,-1776.494261,-8734.430116,0.000000
277.614297,-1924.535449,-8364.327145,-229.828649
277.614625,-1924.535449,-7920.203579,153.219100
277.614952,-1480.411884,-7846.182985,-229.828649
277.615280,-1776.494261,-8142.265362,0.000000
277.615608,-1406.391290,-7994.224174,0.000000
277.615935,-1332.370696,-8364.327145,0.000000
277.616263,-888.247130,-8216.285956,383.047749
277.616591,148.041188,-8586.388927,459.657299
277.616918,296.082377,-8808.450710,383.047749
277.617246,740.205942,-9104.533087,919.314598
277.617574,1258.350101,-9400.615463,919.314598
277.617902,2220.617826,-9400.615463,919.314598
277.618229,1702.473667,-9992.780217,1302.362347
277.618557,1480.411884,-10288.862594,1532.190996
277.618885,1036.288319,-10066.800811,1072.533697
277.619212,444.123565,-10510.924376,919.314598
277.619540,296.082377,-10214.842000,689.485948
277.619868,222.061783,-9918.759623,536.266849
277.620195,-370.102971,-9770.718434,459.657299
277.620523,-444.123565,-9622.677246,153.219100
277.620851,-666.185348,-8882.471304,76.609550
277.621179,-888.247130,-8734.430116,153.219100
277.621506,-740.205942,-7846.182985,153.219100
277.621834,-1036.288319,-8142.265362,153.219100
277.622162,-1184.329507,-8068.244768,0.000000
277.622489,-1036.288319,-7920.203579,0.000000
277.622817,-740.205942,-8216.285956,76.609550
277.623145,-740.205942,-8216.285956,229.828649
277.623472,-518.144159,-8068.244768,383.047749
277.623800,-518.144159,-8586.388927,766.095498
277.624128,0.000000,-8956.491898,459.657299
277.624456,296.082377,-9104.533087,842.705048
277.624783,370.102971,-9326.594869,1149.143247
277.625111,962.267725,-9622.677246,1225.752797
277.625439,814.226536,-9622.677246,1149.143247
277.625766,592.164754,-9770.718434,1378.971896
277.626094,222.061783,-9918.759623,1072.533697
277.626422,-222.061783,-9992.780217,1225.752797
277.626749,-444.123565,-9770.718434,1225.752797
277.627077,-740.205942,-9918.759623,459.657299
277.627405,-1184.329507,-9474.636058,459.657299
277.627733,-1110.308913,-9252.574275,306.438199
277.628060,-1258.350101,-9030.512492,76.609550
277.628388,-1258.350101,-8956.491898,229.828649
277.628716,-1258.350101,-7994.224174,229.828649
277.629043,-814.226536,-8290.306550,153.219100
277.629371,-888.247130,-8290.306550,76.609550
277.629699,-962.267725,-8438.347739,153.219100
277.630027,-592.164754,-8660.409521,459.657299
277.630354,-444.123565,-7846.182985,306.438199
277.630682,-222.061783,-8512.368333,383.047749
277.631010,222.061783,-8734.430116,689.485948
277.631337,666.185348,-8882.471304,842.705048
277.631665,1036.288319,-8808.450710,1225.752797
277.631993,1554.432478,-9178.553681,1378.971896
277.632320,1184.329507,-9696.697840,1072.533697
277.632648,1036.288319,-10066.800811,1072.533697
277.632976,666.185348,-10066.800811,842.705048
277.633304,148.041188,-10066.800811,842.705048
277.633631,0.000000,-10288.862594,1072.533697
277.633959,-444.123565,-10288.862594,383.047749
277.634286,-962.267725,-9992.780217,76.609550
277.634614,-1110.308913,-9622.677246,0.000000
277.634942,-1258.350101,-9326.594869,0.000000
277.635269,-1184.329507,-8586.388927,-229.828649
277.635597,-1184.329507,-8364.327145,-459.657299
277.635924,-1036.288319,-8364.327145,-76.609550
277.636252,-740.205942,-8216.285956,0.000000
277.636580,-518.144159,-7920.203579,0.000000
277.636907,0.000000,-8290.306550,229.828649
277.637235,-222.061783,-8290.306550,612.876398
277.637562,-296.082377,-8512.368333,536.266849
277.637890,0.000000,-8882.471304,459.657299
277.638218,222.061783,-8956.491898,995.924147
277.638545,444.123565,-9104.533087,995.924147
277.638873,1110.308913,-9400.615463,1072.533697
277.639200,1184.329507,-9474.636058,1762.019645
277.639528,1332.370696,-9770.718434,1225.752797
277.639856,1036.288319,-9770.718434,1378.971896
277.640183,666.185348,-9844.739029,1302.362347
277.640511,814.226536,-9992.780217,842.705048
277.640838,0.000000,-9918.759623,1072.533697
277.641166,-666.185348,-9844.739029,689.485948
277.641494,-1184.329507,-9770.718434,689.485948
277.641821,-1406.391290,-9474.636058,229.828649
277.642149,-1554.432478,-9030.512492,153.219100
277.642476,-1776.494261,-8586.388927,76.609550
277.642804,-1850.514855,-8512.368333,0.000000
277.643132,-1850.514855,-8290.306550,0.000000
277.643459,-1776.494261,-8290.306550,-229.828649
277.643787,-1628.453072,-7772.162391,0.000000
277.644114,-1480.411884,-7328.038826,-153.219100
277.644442,-1110.308913,-7994.224174,229.828649
277.644770,-666.185348,-8586.388927,153.219100
277.645097,-296.082377,-8586.388927,536.266849
277.645425,148.041188,-8882.471304,536.266849
277.645752,814.226536,-8882.471304,612.876398
277.646080,1036.288319,-9252.574275,1072.533697
277.646408,1480.411884,-9696.697840,1149.143247
277.646735,1480.411884,-9918.759623,1532.190996
277.647063,1554.432478,-10140.821405,1225.752797
277.647390,1480.411884,-10066.800811,1685.410096
277.647718,740.205942,-10066.800811,1455.581446
277.648046,148.041188,-10288.862594,842.705048
277.648373,-74.020594,-9918.759623,919.314598
277.648701,-592.164754,-9844.739029,536.266849
277.649028,-740.205942,-9474.636058,842.705048
277.649356,-962.267725,-9104.533087,612.876398
277.649684,-1036.288319,-8734.430116,153.219100
277.650011,-962.267725,-8364.327145,229.828649
277.650339,-1184.329507,-7994.224174,0.000000
277.650666,-1110.308913,-8142.265362,306.438199
277.650994,-814.226536,-8068.244768,306.438199
277.651322,-814.226536,-8290.306550,76.609550
277.651649,-740.205942,-8364.327145,612.876398
277.651977,-666.185348,-8438.347739,766.095498
277.652304,-370.102971,-8660.409521,689.485948
277.652632,0.000000,-9400.615463,1302.362347
277.652960,370.102971,-8956.491898,1225.752797
277.653287,444.123565,-9252.574275,1302.362347
277.653615,888.247130,-9474.636058,1149.143247
277.653942,814.226536,-9770.718434,1608.800546
277.654270,888.247130,-9474.636058,842.705048
277.654598,740.205942,-9696.697840,1378.971896
277.654925,0.000000,-9992.780217,1149.143247
277.655253,-518.144159,-10288.862594,842.705048
277.655580,-740.205942,-9844.739029,919.314598
277.655908,-1258.350101,-9178.553681,459.657299
277.656236,-888.247130,-8882.471304,766.095498
277.656563,-962.267725,-9030.512492,229.828649
277.656891,-1332.370696,-8882.471304,229.828649
277.657218,-1184.329507,-8364.327145,153.219100
277.657546,-1184.329507,-8364.327145,0.000000
277.657874,-962.267725,-8216.285956,689.485948
277.658201,-1110.308913,-8216.285956,0.000000
277.658529,-814.226536,-8290.306550,306.438199
277.658856,-740.205942,-8290.306550,536.266849
277.659184,0.000000,-8438.347739,383.047749
277.659512,148.041188,-8660.409521,766.095498
277.659839,444.123565,-9104.533087,536.266849
277.660167,740.205942,-9400.615463,919.314598
277.660494,1036.288319,-9548.656652,995.924147
277.660822,1184.329507,-9770.718434,919.314598
277.661150,1258.350101,-10140.821405,689.485948
277.661477,962.267725,-9770.718434,689.485948
277.661805,296.082377,-9992.780217,842.705048
277.662132,74.020594,-10214.842000,612.876398
277.662460,0.000000,-10066.800811,459.657299
277.662788,-740.205942,-9622.677246,306.438199
277.663115,-888.247130,-9548.656652,229.828649
277.663443,-1406.391290,-9474.636058,-229.828649
277.663770,-1480.411884,-9030.512492,-383.047749
277.664098,-1406.391290,-8512.368333,-306.438199
277.664426,-1110.308913,-8216.285956,-306.438199
277.664753,-518.144159,-8364.327145,-536.266849
277.665081,-666.185348,-7994.224174,0.000000
277.665408,-222.061783,-7994.224174,0.000000
277.665736,0.000000,-8068.244768,0.000000
277.666064,0.000000,-8364.327145,229.828649
277.666391,74.020594,-8438.347739,995.924147
277.666719,296.082377,-8956.491898,766.095498
277.667046,740.205942,-9252.574275,766.095498
277.667374,1332.370696,-9252.574275,1225.752797
277.667702,1480.411884,-9326.594869,1455.581446
277.668029,1332.370696,-9474.636058,1762.019645
277.668357,1850.514855,-9474.636058,1455.581446
277.668684,1036.288319,-9992.780217,1302.362347
277.669012,222.061783,-10066.800811,1225.752797
277.669340,-222.061783,-9844.739029,1225.752797
277.669667,-666.185348,-10140.821405,995.924147
277.669995,-888.247130,-9844.739029,536.266849
277.670322,-1702.473667,-9326.594869,0.000000
277.670650,-1850.514855,-9030.512492,153.219100
277.670978,-1776.494261,-8660.409521,0.000000
277.671305,-1998.556043,-8290.306550,153.219100
277.671633,-2220.617826,-7772.162391,229.828649
277.671960,-1850.514855,-7698.141797,0.000000
277.672288,-1554.432478,-7846.182985,76.609550
277.672616,-1628.453072,-7994.224174,0.000000
277.672943,-1480.411884,-8068.244768,153.219100
277.673271,-962.267725,-8290.306550,919.314598
277.673598,-222.061783,-8512.368333,612.876398
277.673926,-222.061783,-8882.471304,995.924147
277.674254,222.061783,-9030.512492,919.314598
277.674581,888.247130,-9252.574275,1225.752797
277.674909,1480.411884,-9474.636058,1072.533697
277.675236,1628.453072,-9474.636058,1762.019645
277.675564,1258.350101,-9918.759623,1302.362347
277.675892,1110.308913,-10510.924376,1302.362347
277.676219,518.144159,-10288.862594,1225.752797
277.676547,148.041188,-10436.903782,919.314598
277.676874,-370.102971,-10288.862594,995.924147
277.677202,-592.164754,-9992.780217,459.657299
277.677530,-740.205942,-9770.718434,536.266849
277.677857,-1184.329507,-9178.553681,0.000000
277.678185,-888.247130,-8882.471304,76.609550
277.678512,-1332.370696,-8216.285956,229.828649
277.678840,-1184.329507,-8364.327145,0.000000
277.679168,-1480.411884,-8290.306550,0.000000
277.679495,-1258.350101,-8142.265362,0.000000
277.679823,-1110.308913,-7994.224174,229.828649
277.680150,-666.185348,-7846.182985,229.828649
277.680478,-592.164754,-8438.347739,383.047749
277.680806,-148.041188,-8586.388927,536.266849
277.681133,222.061783,-8956.491898,766.095498
277.681461,518.144159,-8956.491898,689.485948
277.681788,1110.308913,-9178.553681,1455.581446
277.682116,1258.350101,-9400.615463,1532.190996
277.682444,1036.288319,-9918.759623,1149.143247
277.682771,888.247130,-9696.697840,1149.143247
277.683099,962.267725,-9918.759623,1149.143247
277.683426,518.144159,-9770.718434,1149.143247
277.683754,74.020594,-9622.677246,842.705048
277.684082,-370.102971,-9844.739029,842.705048
277.684409,-666.185348,-9696.697840,76.609550
277.684737,-962.267725,-9252.574275,229.828649
277.685064,-962.267725,-9104.533087,383.047749
277.685392,-1036.288319,-8808.450710,0.000000
277.685720,-1184.329507,-8512.368333,229.828649
277.686047,-1110.308913,-8216.285956,0.000000
277.686375,-1110.308913,-8068.244768,76.609550
277.686702,-1184.329507,-8290.306550,0.000000
277.687030,-1036.288319,-7846.182985,536.266849
277.687358,-888.247130,-7846.182985,0.000000
277.687685,-740.205942,-8586.388927,383.047749
277.688013,-222.061783,-8734.430116,612.876398
277.688340,74.020594,-8586.388927,689.485948
277.688668,296.082377,-8586.388927,995.924147
277.688996,740.205942,-8808.450710,919.314598
277.689323,888.247130,-9474.636058,1072.533697
277.689651,1110.308913,-9696.697840,1072.533697
277.689978,740.205942,-9844.739029,995.924147
277.690306,148.041188,-10066.800811,689.485948
277.690634,74.020594,-10584.944971,689.485948
277.690961,-296.082377,-10140.821405,612.876398
277.691289,-592.164754,-10066.800811,229.828649
277.691616,-962.267725,-9696.697840,0.000000
277.691944,-1184.329507,-9474.636058,0.000000
277.692272,-814.226536,-8660.409521,0.000000
277.692599,-1184.329507,-8660.409521,-229.828649
277.692927,-962.267725,-8438.347739,0.000000
277.693254,-814.226536,-7994.224174,0.000000
277.693582,-740.205942,-8068.244768,0.000000
277.693910,-222.061783,-7994.224174,459.657299
277.694237,0.000000,-8290.306550,229.828649
277.694565,0.000000,-8364.327145,689.485948
277.694892,148.041188,-8734.430116,689.485948
277.695220,370.102971,-8882.471304,842.705048
277.695548,518.144159,-9400.615463,1072.533697
277.695875,1258.350101,-9178.553681,1532.190996
277.696203,1258.350101,-9326.594869,1455.581446
277.696530,1258.350101,-9696.697840,1608.800546
277.696858,1036.288319,-10140.821405,1685.410096
277.697186,592.164754,-10140.821405,1378.971896
277.697513,518.144159,-10362.883188,1455.581446
277.697841,0.000000,-10066.800811,1149.143247
277.698168,-962.267725,-10140.821405,536.266849
277.698496,-1184.329507,-9918.759623,612.876398
277.698824,-1406.391290,-9548.656652,229.828649
277.699151,-1480.411884,-9178.553681,-612.876398
277.699479,-2146.597232,-8512.368333,153.219100
277.699806,-1998.556043,-8660.409521,76.609550
277.700134,-2146.597232,-8364.327145,-153.219100
277.700462,-1998.556043,-8142.265362,0.000000
277.700789,-1480.411884,-7698.141797,0.000000
277.701117,-1258.350101,-7772.162391,536.266849
277.701444,-888.247130,-8290.306550,229.828649
277.701772,-444.123565,-8512.368333,612.876398
277.702100,-370.102971,-8660.409521,459.657299
277.702427,0.000000,-8808.450710,536.266849
277.702755,296.082377,-9030.512492,306.438199
277.703082,1036.288319,-9400.615463,1149.143247
277.703410,1628.453072,-9622.677246,1072.533697
277.703738,1702.473667,-9770.718434,1072.533697
277.704065,1776.494261,-10066.800811,1378.971896
277.704393,1628.453072,-9696.697840,995.924147
277.704720,1258.350101,-10140.821405,995.924147
277.705048,444.123565,-10140.821405,689.485948
277.705376,0.000000,-10140.821405,459.657299
277.705703,-444.123565,-9770.718434,229.828649
277.706031,-1332.370696,-9104.533087,0.000000
277.706358,-814.226536,-9178.553681,153.219100
277.706686,-1332.370696,-8808.450710,-229.828649
277.707014,-888.247130,-8364.327145,-229.828649
277.707341,-814.226536,-8216.285956,0.000000
277.707669,-1184.329507,-7920.203579,153.219100
277.707996,-1184.329507,-7698.141797,536.266849
277.708324,-1110.308913,-7994.224174,0.000000
277.708652,-962.267725,-8068.244768,-153.219100
277.708979,-740.205942,-8438.347739,229.828649
277.709307,-444.123565,-8438.347739,0.000000
277.709634,148.041188,-8808.450710,689.485948
277.709962,370.102971,-8882.471304,689.485948
277.710290,740.205942,-9326.594869,995.924147
277.710617,1258.350101,-9326.594869,1225.752797
277.710945,1184.329507,-9622.677246,1532.190996
277.711272,740.205942,-9696.697840,2145.067394
277.711600,1110.308913,-10066.800811,1532.190996
277.711928,740.205942,-10214.842000,1608.800546
277.712255,0.000000,-10214.842000,1225.752797
277.712583,-296.082377,-10066.800811,995.924147
277.712910,-814.226536,-9326.594869,995.924147
277.713238,-1258.350101,-9252.574275,1149.143247
277.713566,-888.247130,-9326.594869,689.485948
277.713893,-1036.288319,-8586.388927,229.828649
277.714221,-1480.411884,-8364.327145,612.876398
277.714548,-1258.350101,-8364.327145,459.657299
277.714876,-1406.391290,-7994.224174,612.876398
277.715204,-1776.494261,-8290.306550,153.219100
277.715531,-1258.350101,-8364.327145,536.266849
277.715859,-1480.411884,-8216.285956,383.047749
277.716186,-1036.288319,-8734.430116,689.485948
277.716514,-370.102971,-8142.265362,536.266849
277.716842,-296.082377,-8808.450710,1072.533697
277.717169,148.041188,-8882.471304,842.705048
277.717497,518.144159,-9400.615463,766.095498
277.717824,444.123565,-9548.656652,1072.533697
277.718152,962.267725,-9548.656652,1225.752797
277.718480,740.205942,-10066.800811,1225.752797
277.718807,444.123565,-10066.800811,995.924147
277.719135,222.061783,-10214.842000,1072.533697
277.719462,0.000000,-10362.883188,766.095498
277.719790,-296.082377,-9622.677246,919.314598
277.720118,-888.247130,-9622.677246,229.828649
277.720445,-1036.288319,-9696.697840,0.000000
277.720773,-1258.350101,-9326.594869,0.000000
277.721100,-888.247130,-8956.491898,-153.219100
277.721428,-814.226536,-8734.430116,-459.657299
277.721756,-740.205942,-8142.265362,-229.828649
277.722083,-518.144159,-8142.265362,-383.047749
277.722411,-222.061783,-8216.285956,0.000000
277.722738,0.000000,-8216.285956,229.828649
277.723066,222.061783,-8290.306550,153.219100
277.723394,222.061783,-8956.491898,306.438199
277.723721,592.164754,-9104.533087,689.485948
277.724049,666.185348,-9030.512492,612.876398
277.724376,962.267725,-9400.615463,919.314598
277.724704,1110.308913,-9548.656652,1072.533697
277.725032,1406.391290,-9474.636058,919.314598
277.725359,1406.391290,-9400.615463,1685.410096
277.725687,888.247130,-9770.718434,995.924147
277.726014,592.164754,-9918.759623,919.314598
277.726342,0.000000,-10066.800811,689.485948
277.726670,-148.041188,-10214.842000,612.876398
277.726997,-814.226536,-9770.718434,459.657299
277.727325,-1406.391290,-9400.615463,459.657299
277.727652,-1406.391290,-9400.615463,153.219100
277.727980,-1702.473667,-8956.491898,0.000000
277.728308,-1702.473667,-8364.327145,0.000000
277.728635,-1480.411884,-8290.306550,306.438199
277.728963,-1628.453072,-8142.265362,-229.828649
277.729290,-1480.411884,-7920.203579,0.000000
277.729618,-1480.411884,-7920.203579,153.219100
277.729946,-1110.308913,-8290.306550,76.609550
277.730273,-888.247130,-8142.265362,536.266849
277.730601,-592.164754,-8586.388927,383.047749
277.730928,0.000000,-8808.450710,766.095498
277.731256,148.041188,-8882.471304,842.705048
277.731584,518.144159,-9104.533087,1225.752797
277.731911,1110.308913,-9474.636058,1378.971896
277.732239,1480.411884,-9326.594869,1149.143247
277.732566,1406.391290,-9770.718434,1455.581446
277.732894,1332.370696,-10066.800811,1149.143247
277.733222,962.267725,-10140.821405,1072.533697
277.733549,592.164754,-10214.842000,1149.143247
277.733877,296.082377,-9918.759623,612.876398
277.734204,-592.164754,-9622.677246,383.047749
277.734532,-814.226536,-9844.739029,383.047749
277.734860,-1036.288319,-9252.574275,76.609550
277.735187,-1406.391290,-8882.471304,0.000000
277.735515,-1036.288319,-8290.306550,0.000000
277.735842,-1184.329507,-8290.306550,0.000000
277.736170,-1702.473667,-8364.327145,-306.438199
277.736497,-1110.308913,-8142.265362,-229.828649
277.736825,-1258.350101,-8068.244768,0.000000
277.737153,-888.247130,-7994.224174,0.000000
277.737480,-666.185348,-8142.265362,306.438199
277.737808,-444.123565,-8586.388927,306.438199
277.738135,-296.082377,-8734.430116,689.485948
277.738463,370.102971,-9104.533087,842.705048
277.738790,740.205942,-9326.594869,766.095498
277.739118,1036.288319,-9400.615463,1225.752797
277.739446,962.267725,-9844.739029,1532.190996
277.739773,1110.308913,-9770.718434,1302.362347
277.740101,1184.329507,-10140.821405,1302.362347
277.740428,666.185348,-10066.800811,1302.362347
277.740756,0.000000,-10214.842000,995.924147
277.741084,-148.041188,-10066.800811,842.705048
277.741411,-518.144159,-10066.800811,689.485948
277.741739,-1036.288319,-9400.615463,536.266849
277.742066,-1480.411884,-9178.553681,612.876398
277.742394,-592.164754,-8882.471304,0.000000
277.742721,-1184.329507,-8660.409521,76.609550
277.743049,-1184.329507,-8142.265362,536.266849
277.743377,-1258.350101,-8216.285956,306.438199
277.743704,-1332.370696,-8142.265362,229.828649
277.744032,-1036.288319,-8290.306550,0.000000
277.744359,-1258.350101,-7920.203579,306.438199
277.744687,-1258.350101,-8068.244768,306.438199
277.745014,-592.164754,-8808.450710,383.047749
277.745342,-296.082377,-8808.450710,766.095498
277.745670,0.000000,-8808.450710,612.876398
277.745997,444.123565,-9104.533087,1149.143247
277.746325,1036.288319,-9474.636058,689.485948
277.746652,888.247130,-9548.656652,1225.752797
277.746980,888.247130,-9770.718434,1302.362347
277.747308,518.144159,-9770.718434,1225.752797
277.747635,444.123565,-9844.739029,919.314598
277.747963,-222.061783,-9992.780217,689.485948
277.748290,-518.144159,-10140.821405,306.438199
277.748618,-666.185348,-9622.677246,153.219100
277.748945,-888.247130,-9622.677246,0.000000
277.749273,-1258.350101,-8956.491898,229.828649
277.749601,-740.205942,-8882.471304,-153.219100
277.749928,-740.205942,-8438.347739,0.000000
277.750256,-814.226536,-8290.306550,-306.438199
277.750583,-814.226536,-8068.244768,0.000000
277.750911,-888.247130,-7550.100608,0.000000
277.751238,-592.164754,-8216.285956,76.609550
277.751566,-444.123565,-8142.265362,229.828649
277.751894,-148.041188,-8660.409521,306.438199
277.752221,74.020594,-9030.512492,383.047749
277.752549,666.185348,-8956.491898,1225.752797
277.752876,1110.308913,-8956.491898,1225.752797
277.753204,962.267725,-9252.574275,1455.581446
277.753532,1184.329507,-9474.636058,1225.752797
277.753859,962.267725,-9548.656652,1378.971896
277.754187,962.267725,-9844.739029,1225.752797
277.754514,666.185348,-9844.739029,1378.971896
277.754842,0.000000,-9770.718434,1302.362347
277.755169,-370.102971,-9770.718434,1072.533697
277.755497,-666.185348,-9918.759623,842.705048
277.755825,-1258.350101,-9622.677246,536.266849
277.756152,-1480.411884,-9252.574275,383.047749
277.756480,-1554.432478,-9104.533087,383.047749
277.756807,-1998.556043,-8882.471304,0.000000
277.757135,-1998.556043,-8660.409521,153.219100
277.757462,-1776.494261,-8438.347739,229.828649
277.757790,-1332.370696,-8142.265362,383.047749
277.758118,-1480.411884,-7994.224174,-229.828649
277.758445,-1036.288319,-8290.306550,306.438199
277.758773,-814.226536,-8290.306550,306.438199
277.759100,-370.102971,-8586.388927,536.266849
277.759428,-222.061783,-8808.450710,919.314598
277.759756,0.000000,-8882.471304,1225.752797
277.760083,444.123565,-9400.615463,842.705048
277.760411,1110.308913,-9622.677246,1072.533697
277.760738,1110.308913,-9474.636058,1072.533697
277.761066,1480.411884,-9696.697840,1302.362347
277.761393,1406.391290,-9770.718434,689.485948
277.761721,962.267725,-9918.759623,1072.533697
277.762049,666.185348,-10140.821405,995.924147
277.762376,-222.061783,-9844.739029,612.876398
277.762704,-518.144159,-10066.800811,459.657299
277.763031,-740.205942,-9400.615463,842.705048
277.763359,-1036.288319,-9326.594869,0.000000
277.763686,-1110.308913,-9400.615463,0.000000
277.764014,-1332.370696,-8512.368333,-306.438199
277.764342,-814.226536,-8512.368333,-153.219100
277.764669,-1036.288319,-8216.285956,76.609550
277.764997,-518.144159,-8216.285956,0.000000
277.765324,-962.267725,-8290.306550,-229.828649
277.765652,-888.247130,-8216.285956,0.000000
277.765980,-518.144159,-8364.327145,229.828649
277.766307,-296.082377,-8512.368333,229.828649
277.766635,0.000000,-7994.224174,612.876398
277.766962,222.061783,-9178.553681,842.705048
277.767290,888.247130,-9252.574275,919.314598
277.767617,1184.329507,-9252.574275,995.924147
277.767945,1258.350101,-9474.636058,1378.971896
277.768273,1406.391290,-9622.677246,1762.019645
277.768600,1036.288319,-9918.759623,1302.362347
277.768928,592.164754,-9918.759623,1149.143247
277.769255,74.020594,-10140.821405,1149.143247
277.769583,0.000000,-10140.821405,919.314598
277.769910,0.000000,-9770.718434,689.485948
277.770238,-888.247130,-9548.656652,306.438199
277.770566,-1184.329507,-9252.574275,383.047749
277.770893,-962.267725,-8956.491898,536.266849
277.771221,-1332.370696,-8660.409521,153.219100
277.771548,-888.247130,-8364.327145,383.047749
277.771876,-1332.370696,-7994.224174,-153.219100
277.772204,-1480.411884,-8216.285956,229.828649
277.772531,-1406.391290,-8142.265362,383.047749
277.772859,-1406.391290,-8290.306550,0.000000
277.773186,-1036.288319,-8586.388927,536.266849
277.773514,-666.185348,-8364.327145,612.876398
277.773841,-370.102971,-8512.368333,842.705048
277.774169,0.000000,-8734.430116,842.705048
277.774497,444.123565,-9252.574275,1072.533697
277.774824,814.226536,-9400.615463,1072.533697
277.775152,592.164754,-9252.574275,1302.362347
277.775479,814.226536,-9622.677246,1378.971896
277.775807,444.123565,-9918.759623,995.924147
277.776134,370.102971,-10214.842000,995.924147
277.776462,-148.041188,-10066.800811,689.485948
277.776790,-222.061783,-9696.697840,612.876398
277.777117,-518.144159,-9696.697840,153.219100
277.777445,-1036.288319,-9474.636058,0.000000
277.777772,-1036.288319,-9252.574275,229.828649
277.778100,-1332.370696,-8808.450710,76.609550
277.778428,-370.102971,-8586.388927,383.047749
277.778755,-962.267725,-7846.182985,-306.438199
277.779083,-444.123565,-8290.306550,76.609550
277.779410,-592.164754,-7994.224174,229.828649
277.779738,-518.144159,-8068.244768,153.219100
277.780065,0.000000,-8290.306550,153.219100
277.780393,74.020594,-8660.409521,689.485948
277.780721,74.020594,-8808.450710,459.657299
277.781048,370.102971,-8808.450710,1072.533697
277.781376,666.185348,-9400.615463,919.314598
277.781703,1036.288319,-9474.636058,995.924147
277.782031,1628.453072,-9474.636058,1072.533697
277.782358,1332.370696,-9474.636058,1378.971896
277.782686,1258.350101,-9770.718434,1302.362347
277.783014,592.164754,-10066.800811,1302.362347
277.783341,74.020594,-9918.759623,842.705048
277.783669,74.020594,-9992.780217,383.047749
277.783996,-888.247130,-9474.636058,612.876398
277.784324,-1480.411884,-9696.697840,459.657299
277.784652,-1776.494261,-9622.677246,383.047749
277.784979,-1702.473667,-9400.615463,306.438199
277.785307,-1480.411884,-8586.388927,153.219100
277.785634,-1776.494261,-8216.285956,0.000000
277.785962,-1776.494261,-8438.347739,0.000000
277.786289,-1702.473667,-8290.306550,0.000000
277.786617,-1480.411884,-7846.182985,0.000000
277.786945,-1110.308913,-7994.224174,153.219100
277.787272,-888.247130,-8364.327145,536.266849
277.787600,-666.185348,-8290.306550,229.828649
277.787927,-148.041188,-8808.450710,459.657299
277.788255,0.000000,-8882.471304,612.876398
277.788582,444.123565,-9030.512492,689.485948
277.788910,1554.432478,-8882.471304,612.876398
277.789238,1480.411884,-9400.615463,1072.533697
277.789565,1332.370696,-9844.739029,1225.752797
277.789893,1480.411884,-9992.780217,1302.362347
277.790220,1258.350101,-9918.759623,919.314598
277.790548,814.226536,-10066.800811,1378.971896
277.790876,444.123565,-10436.903782,612.876398
277.791203,0.000000,-10066.800811,689.485948
277.791531,-296.082377,-9918.759623,306.438199
277.791858,-1184.329507,-9252.574275,76.609550
277.792186,-518.144159,-8956.491898,0.000000
277.792513,-962.267725,-8956.491898,0.000000
277.792841,-1332.370696,-8290.306550,0.000000
277.793169,-1406.391290,-8142.265362,-383.047749
277.793496,-1332.370696,-8068.244768,-383.047749
277.793824,-1258.350101,-8068.244768,-306.438199
277.794151,-962.267725,-7846.182985,-306.438199
277.794479,-666.185348,-8216.285956,-153.219100
277.794806,-592.164754,-8364.327145,229.828649
277.795134,0.000000,-8512.368333,383.047749
277.795462,148.041188,-8956.491898,612.876398
277.795789,444.123565,-8586.388927,995.924147
277.796117,962.267725,-9178.553681,1225.752797
277.796444,1258.350101,-9252.574275,1302.362347
277.796772,1332.370696,-9770.718434,1378.971896
277.797100,1258.350101,-9844.739029,1608.800546
277.797427,814.226536,-9622.677246,1685.410096
277.797755,1036.288319,-10288.862594,1149.143247
277.798082,148.041188,-10066.800811,1149.143247
277.798410,-592.164754,-10066.800811,1072.533697
277.798737,-666.185348,-9918.759623,919.314598
277.799065,-1110.308913,-9400.615463,842.705048
277.799393,-888.247130,-9030.512492,0.000000
277.799720,-1110.308913,-8882.471304,459.657299
277.800048,-1480.411884,-8660.409521,306.438199
277.800375,-1480.411884,-8438.347739,383.047749
277.800703,-1480.411884,-8290.306550,229.828649
277.801030,-1332.370696,-7698.141797,612.876398
277.801358,-1628.453072,-8142.265362,459.657299
277.801686,-1480.411884,-8586.388927,536.266849
277.802013,-1184.329507,-9030.512492,383.047749
277.802341,-740.205942,-8734.430116,689.485948
277.802668,-592.164754,-8216.285956,612.876398
277.802996,148.041188,-9252.574275,995.924147
277.803324,370.102971,-9326.594869,1225.752797
277.803651,740.205942,-9474.636058,1302.362347
277.803979,814.226536,-9548.656652,1455.581446
277.804306,888.247130,-9622.677246,1302.362347
277.804634,370.102971,-10214.842000,1225.752797
277.804961,0.000000,-10436.903782,995.924147
277.805289,-296.082377,-10214.842000,689.485948
277.805617,-444.123565,-10288.862594,689.485948
277.805944,-444.123565,-10066.800811,383.047749
277.806272,-518.144159,-9548.656652,459.657299
277.806599,-888.247130,-9178.553681,0.000000
277.806927,-740.205942,-8882.471304,0.000000
277.807254,-444.123565,-8290.306550,0.000000
277.807582,-518.144159,-8364.327145,0.000000
277.807910,-148.041188,-7920.203579,0.000000
277.808237,-296.082377,-8142.265362,229.828649
277.808565,-296.082377,-8290.306550,459.657299
277.808892,0.000000,-8438.347739,459.657299
277.809220,74.020594,-8734.430116,383.047749
277.809548,518.144159,-8882.471304,919.314598
277.809875,962.267725,-8956.491898,766.095498
277.810203,962.267725,-9178.553681,1072.533697
277.810530,1406.391290,-9474.636058,1225.752797
277.810858,1110.308913,-9696.697840,1302.362347
277.811185,666.185348,-9474.636058,1149.143247
277.811513,814.226536,-9918.759623,1532.190996
277.811841,74.020594,-9770.718434,1072.533697
277.812168,-370.102971,-9770.718434,1149.143247
277.812496,-370.102971,-9548.656652,689.485948
277.812823,-1332.370696,-9548.656652,612.876398
277.813151,-1110.308913,-9474.636058,229.828649
277.813478,-1850.514855,-9326.594869,0.000000
277.813806,-1850.514855,-8734.430116,0.000000
277.814134,-1998.556043,-8438.347739,0.000000
277.814461,-1850.514855,-8364.327145,0.000000
277.814789,-1480.411884,-8142.265362,0.000000
277.815116,-1850.514855,-7698.141797,-383.047749
277.815444,-1258.350101,-7920.203579,0.000000
277.815772,-1036.288319,-8068.244768,0.000000
277.816099,-740.205942,-8364.327145,76.609550
277.816427,-148.041188,-8956.491898,612.876398
277.816754,296.082377,-8956.491898,842.705048
277.817082,0.000000,-8660.409521,153.219100
277.817409,592.164754,-9622.677246,536.266849
277.817737,1406.391290,-9474.636058,919.314598
277.818065,1924.535449,-9918.759623,1225.752797
277.818392,1702.473667,-10140.821405,1378.971896
277.818720,1110.308913,-10066.800811,1149.143247
277.819047,888.247130,-10140.821405,1072.533697
277.819375,444.123565,-10214.842000,612.876398
277.819702,222.061783,-10436.903782,536.266849
277.820030,0.000000,-9770.718434,306.438199
277.820358,-740.205942,-9696.697840,0.000000
277.820685,-1036.288319,-9844.739029,76.609550
277.821013,-1554.432478,-8660.409521,-153.219100
277.821340,-1184.329507,-8882.471304,0.000000
277.821668,-962.267725,-8068.244768,0.000000
277.821996,-1258.350101,-8216.285956,-383.047749
277.822323,-1406.391290,-8142.265362,0.000000
277.822651,-1036.288319,-7772.162391,-153.219100
277.822978,-592.164754,-8216.285956,0.000000
277.823306,-296.082377,-8068.244768,536.266849
277.823633,-222.061783,-8586.388927,0.000000
277.823961,0.000000,-8808.450710,612.876398
277.824289,222.061783,-9178.553681,766.095498
277.824616,814.226536,-9400.615463,995.924147
277.824944,1258.350101,-9474.636058,1225.752797
277.825271,1406.391290,-9918.759623,1455.581446
277.825599,1258.350101,-9770.718434,1608.800546
277.825927,444.123565,-10066.800811,1532.190996
277.826254,0.000000,-9844.739029,1302.362347
277.826582,0.000000,-10288.862594,1302.362347
277.826909,0.000000,-9918.759623,919.314598
277.827237,-814.226536,-9918.759623,919.314598
277.827564,-888.247130,-9400.615463,536.266849
277.827892,-1406.391290,-9178.553681,536.266849
277.828220,-740.205942,-8660.409521,383.047749
277.828547,-1332.370696,-8586.388927,153.219100
277.828875,-1554.432478,-8068.244768,459.657299
277.829202,-1258.350101,-8364.327145,76.609550
277.829530,-1480.411884,-8142.265362,229.828649
277.829857,-1184.329507,-8438.347739,0.000000
277.830185,-1258.350101,-8068.244768,383.047749
277.830513,-962.267725,-8068.244768,612.876398
277.830840,-518.144159,-8660.409521,612.876398
277.831168,222.061783,-8734.430116,842.705048
277.831495,148.041188,-8956.491898,842.705048
277.831823,740.205942,-8956.491898,1455.581446
277.832151,666.185348,-8882.471304,1149.143247
277.832478,740.205942,-9622.677246,1149.143247
277.832806,592.164754,-9918.759623,919.314598
277.833133,444.123565,-10140.821405,842.705048
277.833461,222.061783,-9992.780217,842.705048
277.833788,0.000000,-10140.821405,306.438199
277.834116,-666.185348,-9918.759623,459.657299
277.834444,-1036.288319,-9770.718434,0.000000
277.834771,-1036.288319,-9548.656652,306.438199
277.835099,-814.226536,-9252.574275,-153.219100
277.835426,-1184.329507,-8734.430116,0.000000
277.835754,-666.185348,-8290.306550,0.000000
277.836081,-740.205942,-8290.306550,0.000000
277.836409,-518.144159,-8216.285956,0.000000
277.836737,-444.123565,-8216.285956,153.219100
277.837064,0.000000,-8142.265362,536.266849
277.837392,-148.041188,-8068.244768,536.266849
277.837719,0.000000,-8808.450710,383.047749
277.838047,222.061783,-9030.512492,689.485948
277.838375,666.185348,-8956.491898,919.314598
277.838702,888.247130,-9400.615463,1149.143247
277.839030,1406.391290,-9474.636058,995.924147
277.839357,962.267725,-9622.677246,1378.971896
277.839685,1036.288319,-9770.718434,1302.362347
277.840013,518.144159,-9696.697840,1302.362347
277.840340,222.061783,-9844.739029,1225.752797
277.840668,0.000000,-9844.739029,1072.533697
277.840995,-814.226536,-9992.780217,919.314598
277.841323,-1110.308913,-9844.739029,536.266849
277.841650,-1554.432478,-9474.636058,306.438199
277.841978,-1776.494261,-9326.594869,229.828649
277.842306,-1850.514855,-9178.553681,383.047749
277.842633,-1776.494261,-8660.409521,76.609550
277.842961,-1776.494261,-8438.347739,-229.828649
277.843288,-1776.494261,-8068.244768,0.000000
277.843616,-1480.411884,-8142.265362,0.000000
277.843944,-1332.370696,-7920.203579,0.000000
277.844271,-814.226536,-8068.244768,383.047749
277.844599,-888.247130,-8364.327145,153.219100
277.844926,-518.144159,-8586.388927,383.047749
277.845254,-222.061783,-8734.430116,536.266849
277.845582,370.102971,-8956.491898,536.266849
277.845909,814.226536,-9030.512492,612.876398
277.846237,1258.350101,-9474.636058,1072.533697
277.846564,1406.391290,-9696.697840,1072.533697
277.846892,1628.453072,-9844.739029,1149.143247
277.847219,1332.370696,-10066.800811,1072.533697
277.847547,1184.329507,-10362.883188,766.095498
277.847875,222.061783,-10140.821405,536.266849
277.848202,0.000000,-10436.903782,306.438199
277.848530,-444.123565,-9844.739029,689.485948
277.848857,-1184.329507,-9474.636058,153.219100
277.849185,-1110.308913,-9178.553681,-153.219100
277.849513,-1110.308913,-9104.533087,229.828649
277.849840,-1332.370696,-8586.388927,-229.828649
277.850168,-1258.350101,-8290.306550,-383.047749
277.850495,-1480.411884,-7994.224174,-383.047749
277.850823,-888.247130,-8290.306550,-536.266849
277.851151,-1110.308913,-7920.203579,0.000000
277.851478,-814.226536,-7846.182985,-229.828649
277.851806,-296.082377,-8290.306550,76.609550
277.852133,0.000000,-8512.368333,229.828649
277.852461,0.000000,-8882.471304,306.438199
277.852788,296.082377,-9030.512492,1302.362347
277.853116,962.267725,-9326.594869,842.705048
277.853444,1258.350101,-9548.656652,919.314598
277.853771,1332.370696,-9696.697840,1225.752797
277.854099,1406.391290,-9992.780217,1225.752797
277.854426,1184.329507,-9548.656652,1532.190996
277.854754,888.247130,-10066.800811,1302.362347
277.855082,518.144159,-9992.780217,1072.533697
277.855409,0.000000,-10066.800811,1072.533697
277.855737,-444.123565,-9844.739029,842.705048
277.856064,-592.164754,-9548.656652,1455.581446
277.856392,-1406.391290,-9030.512492,229.828649
277.856720,-1184.329507,-8956.491898,459.657299
277.857047,-1628.453072,-8734.430116,459.657299
277.857375,-1480.411884,-8512.368333,153.219100
277.857702,-1258.350101,-8438.347739,612.876398
277.858030,-888.247130,-8068.244768,459.657299
277.858357,-1702.473667,-8068.244768,306.438199
277.858685,-1480.411884,-8068.244768,383.047749
277.859013,-1406.391290,-8438.347739,612.876398
277.859340,-962.267725,-8586.388927,612.876398
277.859668,-148.041188,-8660.409521,919.314598
277.859995,-222.061783,-8660.409521,1072.533697
277.860323,370.102971,-9030.512492,1225.752797
277.860651,518.144159,-9252.574275,1225.752797
277.860978,814.226536,-9548.656652,1225.752797
277.861306,666.185348,-9770.718434,2068.457845
277.861633,814.226536,-10140.821405,1455.581446
277.861961,74.020594,-10140.821405,1378.971896
277.862289,0.000000,-10066.800811,842.705048
277.862616,-518.144159,-10214.842000,919.314598
277.862944,-814.226536,-10066.800811,995.924147
277.863271,-740.205942,-9326.594869,-306.438199
277.863599,-962.267725,-9326.594869,229.828649
277.863927,-666.185348,-8734.430116,229.828649
277.864254,-592.164754,-8512.368333,0.000000
277.864582,-444.123565,-7772.162391,0.000000
277.864909,0.000000,-8068.244768,459.657299
277.865237,-296.082377,-8290.306550,383.047749
277.865564,-518.144159,-8290.306550,306.438199
277.865892,-296.082377,-8364.327145,536.266849
277.866220,-444.123565,-8660.409521,459.657299
277.866547,0.000000,-8586.388927,1302.362347
277.866875,222.061783,-9178.553681,919.314598
277.867202,444.123565,-9104.533087,1302.362347
277.867530,962.267725,-9104.533087,1072.533697
277.867858,1036.288319,-9252.574275,1302.362347
277.868185,1036.288319,-9252.574275,1149.143247
277.868513,592.164754,-9696.697840,1455.581446
277.868840,74.020594,-9770.718434,1225.752797
277.869168,-148.041188,-9918.759623,842.705048
277.869496,-592.164754,-10140.821405,766.095498
277.869823,-962.267725,-9770.718434,459.657299
277.870151,-1184.329507,-9252.574275,459.657299
277.870478,-1258.350101,-9400.615463,306.438199
277.870806,-1554.432478,-9326.594869,153.219100
277.871133,-1924.535449,-9030.512492,76.609550
277.871461,-1702.473667,-8512.368333,383.047749
277.871789,-1110.308913,-8142.265362,0.000000
277.872116,-1332.370696,-8142.265362,0.000000
277.872444,-1184.329507,-8216.285956,0.000000
277.872771,-814.226536,-8068.244768,0.000000
277.873099,-444.123565,-8290.306550,306.438199
277.873427,148.041188,-8586.388927,459.657299
277.873754,0.000000,-8512.368333,459.657299
277.874082,148.041188,-8660.409521,689.485948
277.874409,592.164754,-9252.574275,766.095498
277.874737,962.267725,-9326.594869,995.924147
277.875065,1702.473667,-9326.594869,1455.581446
277.875392,1406.391290,-9548.656652,1378.971896
277.875720,1110.308913,-9770.718434,1378.971896
277.876047,666.185348,-9918.759623,1072.533697
277.876375,444.123565,-9992.780217,689.485948
277.876702,74.020594,-9770.718434,1378.971896
277.877030,-666.185348,-9844.739029,689.485948
277.877358,-1036.288319,-9474.636058,229.828649
277.877685,-1332.370696,-9474.636058,0.000000
277.878013,-1480.411884,-8956.491898,-229.828649
277.878340,-1480.411884,-8660.409521,-229.828649
277.878668,-1332.370696,-8068.244768,0.000000
277.878996,-1480.411884,-7846.182985,-153.219100
277.879323,-1110.308913,-7846.182985,-306.438199
277.879651,-1258.350101,-7920.203579,0.000000
277.879978,-814.226536,-7994.224174,-153.219100
277.880306,-592.164754,-8364.327145,76.609550
277.880634,0.000000,-8438.347739,153.219100
277.880961,0.000000,-8808.450710,153.219100
277.881289,370.102971,-9030.512492,689.485948
277.881616,888.247130,-9178.553681,1149.143247
277.881944,1332.370696,-9622.677246,1149.143247
277.882271,1406.391290,-9178.553681,1302.362347
277.882599,1702.473667,-9770.718434,1378.971896
277.882927,1480.411884,-9770.718434,1532.190996
277.883254,814.226536,-9844.739029,1225.752797
277.883582,666.185348,-9992.780217,1225.752797
277.883909,148.041188,-9992.780217,1455.581446
277.884237,-592.164754,-9918.759623,612.876398
277.884565,-592.164754,-9622.677246,459.657299
277.884892,-962.267725,-9400.615463,383.047749
277.885220,-1258.350101,-8956.491898,306.438199
277.885547,-1406.391290,-8734.430116,536.266849
277.885875,-1406.391290,-8512.368333,76.609550
277.886203,-1776.494261,-8660.409521,0.000000
277.886530,-1480.411884,-8216.285956,229.828649
277.886858,-1850.514855,-8290.306550,76.609550
277.887185,-1406.391290,-8142.265362,-229.828649
277.887513,-1184.329507,-8290.306550,76.609550
277.887841,-888.247130,-8438.347739,306.438199
277.888168,-592.164754,-8438.347739,612.876398
277.888496,0.000000,-8956.491898,612.876398
277.888823,666.185348,-9030.512492,919.314598
277.889151,1036.288319,-9252.574275,1225.752797
277.889478,962.267725,-9548.656652,1225.752797
277.889806,888.247130,-9844.739029,1149.143247
277.890134,888.247130,-10140.821405,1225.752797
277.890461,740.205942,-10066.800811,919.314598
277.890789,518.144159,-10214.842000,919.314598
277.891116,0.000000,-10140.821405,995.924147
277.891444,-296.082377,-10140.821405,689.485948
277.891772,-740.205942,-9696.697840,229.828649
277.892099,-888.247130,-9548.656652,229.828649
277.892427,-666.185348,-8512.368333,153.219100
277.892754,-888.247130,-8882.471304,153.219100
277.893082,-962.267725,-8438.347739,0.000000
277.893410,-740.205942,-8364.327145,0.000000
277.893737,-592.164754,-7846.182985,0.000000
277.894065,-444.123565,-7772.162391,306.438199
277.894392,-370.102971,-7994.224174,76.609550
277.894720,-592.164754,-8512.368333,306.438199
277.895047,-518.144159,-8808.450710,536.266849
277.895375,0.000000,-8882.471304,689.485948
277.895703,370.102971,-9030.512492,1225.752797
277.896030,888.247130,-9178.553681,536.266849
277.896358,962.267725,-9400.615463,1149.143247
277.896685,1184.329507,-9474.636058,1302.362347
277.897013,1110.308913,-9770.718434,1225.752797
277.897341,444.123565,-9696.697840,1072.533697
277.897668,444.123565,-9696.697840,536.266849
277.897996,0.000000,-10140.821405,1072.533697
277.898323,-666.185348,-9770.718434,689.485948
277.898651,-962.267725,-9548.656652,536.266849
277.898979,-1110.308913,-9474.636058,459.657299
277.899306,-1702.473667,-8734.430116,689.485948
277.899634,-1628.453072,-9030.512492,0.000000
277.899961,-1406.391290,-8882.471304,229.828649
277.900289,-1480.411884,-8364.327145,76.609550
277.900616,-1480.411884,-8142.265362,0.000000
277.900944,-1036.288319,-7994.224174,229.828649
277.901272,-1184.329507,-8142.265362,0.000000
277.901599,-1110.308913,-8290.306550,0.000000
277.901927,-962.267725,-8438.347739,0.000000
277.902254,-518.144159,-8586.388927,229.828649
277.902582,-296.082377,-8660.409521,689.485948
277.902910,222.061783,-8808.450710,229.828649
277.903237,962.267725,-9178.553681,842.705048
277.903565,1184.329507,-9474.636058,919.314598
277.903892,1258.350101,-9622.677246,1072.533697
277.904220,1332.370696,-9918.759623,995.924147
277.904548,1184.329507,-10066.800811,919.314598
277.904875,592.164754,-9992.780217,1072.533697
277.905203,74.020594,-10362.883188,689.485948
277.905530,-444.123565,-10362.883188,612.876398
277.905858,-518.144159,-9918.759623,383.047749
277.906185,-740.205942,-9104.533087,383.047749
277.906513,-814.226536,-9178.553681,0.000000
277.906841,-962.267725,-9104.533087,0.000000
277.907168,-1184.329507,-8586.388927,0.000000
277.907496,-1110.308913,-8364.327145,-306.438199
277.907823,-962.267725,-8142.265362,0.000000
277.908151,-888.247130,-8068.244768,-689.485948
277.908479,-666.185348,-8290.306550,76.609550
277.908806,-444.123565,-8364.327145,76.609550
277.909134,-222.061783,-8660.409521,536.266849
277.909461,0.000000,-8882.471304,1149.143247
277.909789,222.061783,-8882.471304,1225.752797
277.910117,518.144159,-9178.553681,919.314598
277.910444,740.205942,-9400.615463,1225.752797
277.910772,740.205942,-9622.677246,1532.190996
277.911099,962.267725,-9622.677246,1608.800546
277.911427,1036.288319,-9400.615463,1378.971896
277.911754,666.185348,-9770.718434,1378.971896
277.912082,222.061783,-9918.759623,1532.190996
277.912410,-148.041188,-10066.800811,995.924147
277.912737,-592.164754,-9992.780217,766.095498
277.913065,-666.185348,-9844.739029,995.924147
277.913392,-1480.411884,-9326.594869,229.828649
277.913720,-1406.391290,-9400.615463,306.438199
277.914048,-1554.432478,-8882.471304,229.828649
277.914375,-1480.411884,-8438.347739,229.828649
277.914703,-1480.411884,-8734.430116,306.438199
277.915030,-814.226536,-8142.265362,383.047749
277.915358,-1554.432478,-8216.285956,76.609550
277.915686,-1332.370696,-8216.285956,229.828649
277.916013,-1110.308913,-8068.244768,153.219100
277.916341,-888.247130,-8068.244768,689.485948
277.916668,0.000000,-8364.327145,383.047749
277.916996,370.102971,-8882.471304,383.047749
277.917324,814.226536,-8956.491898,842.705048
277.917651,1258.350101,-9326.594869,1149.143247
277.917979,1406.391290,-9474.636058,1225.752797
277.918306,1332.370696,-9844.739029,1225.752797
277.918634,1258.350101,-10140.821405,1149.143247
277.918961,666.185348,-10066.800811,995.924147
277.919289,222.061783,-10288.862594,995.924147
277.919617,0.000000,-10140.821405,842.705048
277.919944,-444.123565,-10214.842000,766.095498
277.920272,-740.205942,-9474.636058,0.000000
277.920599,-1110.308913,-9400.615463,0.000000
277.920927,-962.267725,-8660.409521,0.000000
277.921255,-962.267725,-8734.430116,0.000000
277.921582,-888.247130,-8142.265362,0.000000
277.921910,-370.102971,-8142.265362,383.047749
277.922237,-666.185348,-8142.265362,0.000000
277.922565,-444.123565,-7994.224174,229.828649
277.922893,-444.123565,-8290.306550,383.047749
277.923220,0.000000,-8512.368333,995.924147
277.923548,-148.041188,-8586.388927,536.266849
277.923875,0.000000,-9030.512492,995.924147
277.924203,296.082377,-9030.512492,842.705048
277.924530,666.185348,-9252.574275,1302.362347
277.924858,888.247130,-9474.636058,1378.971896
277.925186,1184.329507,-9474.636058,1378.971896
277.925513,1036.288319,-9770.718434,1302.362347
277.925841,592.164754,-9844.739029,1225.752797
277.926168,296.082377,-9918.759623,1072.533697
277.926496,-222.061783,-9918.759623,919.314598
277.926824,-518.144159,-9844.739029,766.095498
277.927151,-888.247130,-10066.800811,689.485948
277.927479,-1110.308913,-9622.677246,383.047749
277.927806,-1480.411884,-9326.594869,229.828649
277.928134,-1480.411884,-9104.533087,76.609550
277.928462,-1850.514855,-8586.388927,842.705048
277.928789,-1110.308913,-8142.265362,0.000000
277.929117,-1406.391290,-8364.327145,0.000000
277.929444,-962.267725,-8216.285956,0.000000
277.929772,-1184.329507,-8068.244768,0.000000
277.930099,-518.144159,-8364.327145,536.266849
277.930427,-592.164754,-8142.265362,536.266849
277.930755,-222.061783,-8512.368333,459.657299
277.931082,0.000000,-8660.409521,536.266849
277.931410,444.123565,-8882.471304,689.485948
277.931737,592.164754,-9030.512492,919.314598
277.932065,1554.432478,-9178.553681,1072.533697
277.932393,1258.350101,-9770.718434,919.314598
277.932720,1184.329507,-10066.800811,1225.752797
277.933048,962.267725,-9770.718434,995.924147
277.933375,666.185348,-10288.862594,919.314598
277.933703,74.020594,-10066.800811,689.485948
277.934031,-888.247130,-10214.842000,612.876398
277.934358,-888.247130,-9696.697840,459.657299
277.934686,-1628.453072,-9326.594869,0.000000
277.935013,-1332.370696,-9252.574275,0.000000
277.935341,-1702.473667,-8808.450710,229.828649
277.935668,-1258.350101,-7698.141797,-536.266849
277.935996,-1184.329507,-7994.224174,-383.047749
277.936324,-1036.288319,-7994.224174,-153.219100
277.936651,-888.247130,-7624.121203,-229.828649
277.936979,-740.205942,-7920.203579,229.828649
277.937306,0.000000,-8364.327145,229.828649
277.937634,-222.061783,-8512.368333,306.438199
277.937962,74.020594,-8808.450710,459.657299
277.938289,148.041188,-8956.491898,612.876398
277.938617,370.102971,-9252.574275,1072.533697
277.938944,592.164754,-9178.553681,1302.362347
277.939272,1554.432478,-9622.677246,1378.971896
277.939600,1332.370696,-9474.636058,1378.971896
277.939927,1184.329507,-9696.697840,1378.971896
277.940255,888.247130,-9918.759623,1378.971896
277.940582,518.144159,-9770.718434,919.314598
277.940910,-296.082377,-9992.780217,995.924147
277.941237,-888.247130,-9770.718434,459.657299
277.941565,-962.267725,-9474.636058,459.657299
277.941893,-1480.411884,-9252.574275,229.828649
277.942220,-1184.329507,-9252.574275,153.219100
277.942548,-1332.370696,-8290.306550,229.828649
277.942875,-1258.350101,-8364.327145,229.828649
277.943203,-1628.453072,-8216.285956,76.609550
277.943531,-1628.453072,-8364.327145,383.047749
277.943858,-1702.473667,-8068.244768,-229.828649
277.944186,-1702.473667,-8142.265362,76.609550
277.944513,-888.247130,-8512.368333,76.609550
277.944841,-592.164754,-8512.368333,459.657299
277.945168,148.041188,-8586.388927,612.876398
277.945496,518.144159,-8734.430116,766.095498
277.945824,1110.308913,-8586.388927,1225.752797
277.946151,1480.411884,-9326.594869,1378.971896
277.946479,1184.329507,-9770.718434,1149.143247
277.946806,1258.350101,-9770.718434,1225.752797
277.947134,1110.308913,-10214.842000,1302.362347
277.947462,370.102971,-9992.780217,1149.143247
277.947789,518.144159,-10658.965565,1532.190996
277.948117,74.020594,-10140.821405,1149.143247
277.948444,-148.041188,-10066.800811,766.095498
277.948772,-444.123565,-9622.677246,536.266849
277.949100,-962.267725,-9104.533087,612.876398
277.949427,-1036.288319,-8660.409521,459.657299
277.949755,-1036.288319,-8734.430116,76.609550
277.950082,-1184.329507,-8142.265362,0.000000
277.950410,-962.267725,-7920.203579,76.609550
277.950737,-962.267725,-7920.203579,459.657299
277.951065,-814.226536,-7476.080014,689.485948
277.951393,-518.144159,-8068.244768,689.485948
277.951720,-666.185348,-8364.327145,536.266849
277.952048,-444.123565,-8882.471304,766.095498
277.952375,-592.164754,-8734.430116,1149.143247
277.952703,-444.123565,-8956.491898,995.924147
277.953031,296.082377,-9326.594869,1072.533697
277.953358,444.123565,-9474.636058,1532.190996
277.953686,814.226536,-9622.677246,995.924147
277.954013,814.226536,-9474.636058,1378.971896
277.954341,592.164754,-9474.636058,1455.581446
277.954668,370.102971,-9770.718434,1225.752797
277.954996,0.000000,-9622.677246,689.485948
277.955324,-666.185348,-9844.739029,689.485948
277.955651,-888.247130,-9770.718434,459.657299
277.955979,-1110.308913,-9622.677246,0.000000
277.956306,-1332.370696,-9178.553681,76.609550
277.956634,-1480.411884,-8882.471304,229.828649
277.956962,-1110.308913,-8512.368333,229.828649
277.957289,-1184.329507,-8364.327145,153.219100
277.957617,-1110.308913,-8290.306550,0.000000
277.957944,-962.267725,-7994.224174,-229.828649
277.958272,-814.226536,-8216.285956,536.266849
277.958600,-740.205942,-8068.244768,0.000000
277.958927,-518.144159,-8586.388927,306.438199
277.959255,-148.041188,-8586.388927,153.219100
277.959582,148.041188,-8660.409521,76.609550
277.959910,740.205942,-8956.491898,995.924147
277.960237,1036.288319,-9178.553681,689.485948
277.960565,1406.391290,-9474.636058,919.314598
277.960893,1332.370696,-9622.677246,766.095498
277.961220,1406.391290,-10066.800811,995.924147
277.961548,814.226536,-9992.780217,1378.971896
277.961875,370.102971,-10214.842000,766.095498
277.962203,0.000000,-10288.862594,766.095498
277.962531,-518.144159,-9992.780217,306.438199
277.962858,-814.226536,-9918.759623,383.047749
277.963186,-962.267725,-9252.574275,0.000000
277.963513,-1332.370696,-8808.450710,0.000000
277.963841,-1332.370696,-8956.491898,-229.828649
277.964169,-1332.370696,-8216.285956,-153.219100
277.964496,-1110.308913,-8142.265362,-459.657299
277.964824,-1036.288319,-7994.224174,0.000000
277.965151,-888.247130,-8068.244768,-153.219100
277.965479,-740.205942,-8142.265362,-306.438199
277.965806,-444.123565,-8068.244768,306.438199
277.966134,-222.061783,-8364.327145,383.047749
277.966462,74.020594,-8364.327145,919.314598
277.966789,370.102971,-8882.471304,1225.752797
277.967117,666.185348,-9474.636058,919.314598
277.967444,592.164754,-9400.615463,1072.533697
277.967772,962.267725,-9696.697840,1378.971896
277.968100,888.247130,-9400.615463,1225.752797
277.968427,888.247130,-9400.615463,1149.143247
277.968755,814.226536,-9844.739029,1455.581446
277.969082,518.144159,-9548.656652,1378.971896
277.969410,0.000000,-9844.739029,1302.362347
277.969737,-518.144159,-9770.718434,689.485948
277.970065,-1110.308913,-9474.636058,459.657299
277.970393,-1332.370696,-9474.636058,536.266849
277.970720,-1554.432478,-8956.491898,306.438199
277.971048,-1554.432478,-8808.450710,0.000000
277.971375,-1406.391290,-8512.368333,306.438199
277.971703,-1924.535449,-8142.265362,842.705048
277.972031,-1554.432478,-7994.224174,153.219100
277.972358,-1554.432478,-8290.306550,0.000000
277.972686,-1554.432478,-8142.265362,0.000000
277.973013,-1406.391290,-8364.327145,0.000000
277.973341,-740.205942,-8290.306550,689.485948
277.973669,-666.185348,-8512.368333,0.000000
277.973996,148.041188,-8956.491898,536.266849
277.974324,740.205942,-9104.533087,766.095498
277.974651,962.267725,-9252.574275,919.314598
277.974979,814.226536,-9474.636058,1149.143247
277.975306,1110.308913,-9548.656652,1378.971896
277.975634,1332.370696,-9844.739029,1455.581446
277.975962,1036.288319,-10288.862594,1302.362347
277.976289,740.205942,-10362.883188,1149.143247
277.976617,74.020594,-10214.842000,842.705048
277.976944,0.000000,-10214.842000,1072.533697
277.977272,-740.205942,-9696.697840,536.266849
277.977600,-592.164754,-9252.574275,306.438199
277.977927,-1110.308913,-9030.512492,306.438199
277.978255,-666.185348,-8882.471304,153.219100
277.978582,-740.205942,-8290.306550,0.000000
277.978910,-444.123565,-7698.141797,229.828649
277.979237,-888.247130,-7994.224174,229.828649
277.979565,-666.185348,-8290.306550,153.219100
277.979893,-814.226536,-8290.306550,306.438199
277.980220,-666.185348,-8142.265362,306.438199
277.980548,-518.144159,-8438.347739,612.876398
277.980875,-592.164754,-8660.409521,689.485948
277.981203,0.000000,-9030.512492,842.705048
277.981531,148.041188,-9178.553681,1072.533697
277.981858,518.144159,-9030.512492,1762.019645
277.982186,666.185348,-9326.594869,689.485948
277.982513,740.205942,-9474.636058,1225.752797
277.982841,518.144159,-9548.656652,995.924147
277.983169,444.123565,-9918.759623,1149.143247
277.983496,-222.061783,-9844.739029,919.314598
277.983824,-222.061783,-9548.656652,536.266849
277.984151,-666.185348,-9844.739029,536.266849
277.984479,-888.247130,-9770.718434,229.828649
277.984806,-1406.391290,-9400.615463,76.609550
277.985134,-1258.350101,-9326.594869,383.047749
277.985462,-1184.329507,-8734.430116,0.000000
277.985789,-1184.329507,-8438.347739,76.609550
277.986117,-1258.350101,-8438.347739,0.000000
277.986444,-1036.288319,-8438.347739,383.047749
277.986772,-1184.329507,-8290.306550,76.609550
277.987100,-444.123565,-8068.244768,383.047749
277.987427,-370.102971,-8216.285956,383.047749
277.987755,-222.061783,-8734.430116,536.266849
277.988082,0.000000,-8882.471304,459.657299
277.988410,370.102971,-9104.533087,612.876398
277.988737,740.205942,-9178.553681,919.314598
277.989065,1628.453072,-9326.594869,995.924147
277.989393,1036.288319,-9696.697840,1072.533697
277.989720,1258.350101,-9844.739029,995.924147
277.990048,1184.329507,-9992.780217,1149.143247
277.990375,666.185348,-9992.780217,842.705048
277.990703,222.061783,-9992.780217,1072.533697
277.991031,0.000000,-10140.821405,459.657299
277.991358,-814.226536,-9844.739029,383.047749
277.991686,-1406.391290,-9474.636058,306.438199
277.992013,-1480.411884,-9252.574275,0.000000
277.992341,-1258.350101,-8660.409521,0.000000
277.992669,-814.226536,-7920.203579,0.000000
277.992996,-1258.350101,-8216.285956,-306.438199
277.993324,-1110.308913,-8068.244768,-306.438199
277.993651,-962.267725,-8068.244768,0.000000
277.993979,-962.267725,-7920.203579,0.000000
277.994306,-222.061783,-8068.244768,76.609550
277.994634,-296.082377,-8364.327145,153.219100
277.994962,-148.041188,-8586.388927,536.266849
277.995289,0.000000,-8882.471304,536.266849
277.995617,222.061783,-9178.553681,766.095498
277.995944,740.205942,-9474.636058,1149.143247
277.996272,1036.288319,-9252.574275,1149.143247
277.996600,1332.370696,-9400.615463,1378.971896
277.996927,1110.308913,-9622.677246,1302.362347
277.997255,962.267725,-9844.739029,1149.143247
277.997582,666.185348,-9696.697840,1608.800546
277.997910,222.061783,-9918.759623,919.314598
277.998237,-370.102971,-9770.718434,766.095498
277.998565,-814.226536,-9770.718434,536.266849
277.998893,-1258.350101,-9474.636058,306.438199
277.999220,-1258.350101,-8882.471304,459.657299
277.999548,-1332.370696,-8512.368333,153.219100
277.999875,-1628.453072,-8438.347739,0.000000
278.000203,-1702.473667,-8660.409521,76.609550
278.000531,-1480.411884,-8438.347739,76.609550
278.000858,-1554.432478,-8290.306550,0.000000
278.001186,-1332.370696,-7846.182985,0.000000
278.001513,-1184.329507,-8364.327145,0.000000
278.001841,-962.267725,-8512.368333,0.000000
278.002169,-370.102971,-8660.409521,229.828649
278.002496,370.102971,-8734.430116,612.876398
278.002824,888.247130,-8808.450710,842.705048
278.003151,1406.391290,-9104.533087,995.924147
278.003479,1184.329507,-9474.636058,1072.533697
278.003806,1258.350101,-9770.718434,1072.533697
278.004134,1184.329507,-9844.739029,1225.752797
278.004462,666.185348,-9696.697840,1378.971896
278.004789,518.144159,-10066.800811,1455.581446
278.005117,296.082377,-10288.862594,1149.143247
278.005444,-222.061783,-10140.821405,842.705048
278.005772,-592.164754,-9770.718434,766.095498
278.006100,-518.144159,-9548.656652,766.095498
278.006427,-962.267725,-9104.533087,383.047749
278.006755,-1036.288319,-8956.491898,76.609550
278.007082,-1036.288319,-8660.409521,153.219100
278.007410,-888.247130,-8364.327145,76.609550
278.007737,-1258.350101,-8216.285956,0.000000
278.008065,-814.226536,-8142.265362,153.219100
278.008393,-814.226536,-8216.285956,0.000000
278.008720,-592.164754,-8586.388927,459.657299
278.009048,-518.144159,-8438.347739,766.095498
278.009375,-666.185348,-8882.471304,842.705048
278.009703,0.000000,-8882.471304,612.876398
278.010031,0.000000,-9030.512492,1072.533697
278.010358,666.185348,-9400.615463,1378.971896
278.010686,814.226536,-9474.636058,1608.800546
278.011013,962.267725,-9474.636058,1608.800546
278.011341,962.267725,-9696.697840,1685.410096
278.011669,370.102971,-9622.677246,1302.362347
278.011996,148.041188,-9548.656652,1072.533697
278.012324,-222.061783,-9770.718434,1072.533697
278.012651,-814.226536,-9770.718434,766.095498
278.012979,-888.247130,-9622.677246,536.266849
278.013306,-1036.288319,-9400.615463,766.095498
278.013634,-1184.329507,-9030.512492,229.828649
278.013962,-1110.308913,-8808.450710,76.609550
278.014289,-1332.370696,-8660.409521,383.047749
278.014617,-1184.329507,-8438.347739,0.000000
278.014944,-888.247130,-7920.203579,229.828649
278.015272,-740.205942,-8290.306550,76.609550
278.015600,-962.267725,-8068.244768,76.609550
278.015927,-666.185348,-8512.368333,229.828649
278.016255,-518.144159,-8734.430116,229.828649
278.016582,0.000000,-8586.388927,766.095498
278.016910,148.041188,-8438.347739,536.266849
278.017237,444.123565,-8882.471304,536.266849
278.017565,1036.288319,-9326.594869,689.485948
278.017893,962.267725,-9400.615463,766.095498
278.018220,1258.350101,-9918.759623,1378.971896
278.018548,1110.308913,-10066.800811,1378.971896
278.018875,592.164754,-10288.862594,919.314598
278.019203,370.102971,-10140.821405,459.657299
278.019531,-296.082377,-10066.800811,536.266849
278.019858,-444.123565,-10066.800811,459.657299
278.020186,-518.144159,-9474.636058,0.000000
278.020513,-1110.308913,-9474.636058,0.000000
278.020841,-1036.288319,-8882.471304,0.000000
278.021169,-1110.308913,-8586.388927,-229.828649
278.021496,-1110.308913,-8512.368333,-229.828649
278.021824,-888.247130,-8290.306550,-153.219100
278.022151,-888.247130,-7920.203579,-306.438199
278.022479,-740.205942,-7994.224174,-306.438199
278.022806,-518.144159,-7994.224174,-153.219100
278.023134,-222.061783,-8142.265362,229.828649
278.023462,0.000000,-8216.285956,459.657299
278.023789,370.102971,-8660.409521,229.828649
278.024117,370.102971,-9104.533087,689.485948
278.024444,740.205942,-9474.636058,612.876398
278.024772,962.267725,-9548.656652,995.924147
278.025100,1332.370696,-9474.636058,995.924147
278.025427,1258.350101,-9844.739029,1072.533697
278.025755,1184.329507,-9844.739029,1302.362347
278.026082,814.226536,-9844.739029,1378.971896
278.026410,296.082377,-9918.759623,1072.533697
278.026738,0.000000,-9918.759623,842.705048
278.027065,-888.247130,-9918.759623,1149.143247
278.027393,-1258.350101,-9548.656652,383.047749
278.027720,-1628.453072,-9400.615463,153.219100
278.028048,-1776.494261,-9030.512492,0.000000
278.028375,-1776.494261,-8734.430116,0.000000
278.028703,-1406.391290,-8586.388927,306.438199
278.029031,-1554.432478,-8364.327145,0.000000
278.029358,-1480.411884,-8290.306550,0.000000
278.029686,-1554.432478,-8216.285956,153.219100
278.030013,-1554.432478,-7994.224174,0.000000
278.030341,-1184.329507,-7920.203579,536.266849
278.030669,-518.144159,-8586.388927,153.219100
278.030996,0.000000,-8660.409521,536.266849
278.031324,222.061783,-8808.450710,842.705048
278.031651,962.267725,-9104.533087,1072.533697
278.031979,962.267725,-9252.574275,1378.971896
278.032306,1628.453072,-9548.656652,1532.190996
278.032634,1258.350101,-9844.739029,1532.190996
278.032962,1110.308913,-9918.759623,1378.971896
278.033289,518.144159,-9992.780217,1149.143247
278.033617,222.061783,-10288.862594,1532.190996
278.033944,0.000000,-10140.821405,689.485948
278.034272,-444.123565,-10140.821405,842.705048
278.034600,-592.164754,-9622.677246,383.047749
278.034927,-1554.432478,-9178.553681,229.828649
278.035255,-1036.288319,-9030.512492,76.609550
278.035582,-1332.370696,-7994.224174,0.000000
278.035910,-1258.350101,-7920.203579,0.000000
278.036238,-888.247130,-7994.224174,0.000000
278.036565,-888.247130,-8142.265362,0.000000
278.036893,-962.267725,-8142.265362,306.438199
278.037220,-444.123565,-8216.285956,383.047749
278.037548,-222.061783,-7772.162391,0.000000
278.037875,-518.144159,-8512.368333,766.095498
278.038203,0.000000,-8734.430116,995.924147
278.038530,74.020594,-8882.471304,1149.143247
278.038858,296.082377,-8512.368333,1455.581446
278.039185,1332.370696,-9178.553681,1072.533697
278.039513,1036.288319,-9474.636058,1455.581446
278.039840,1036.288319,-9474.636058,1532.190996
278.040168,666.185348,-9992.780217,1302.362347
278.040495,222.061783,-9770.718434,1072.533697
278.040823,0.000000,-9992.780217,995.924147
278.041150,-370.102971,-9474.636058,919.314598
278.041478,-740.205942,-9696.697840,612.876398
278.041805,-888.247130,-9622.677246,536.266849
278.042133,-962.267725,-9326.594869,383.047749
278.042460,-888.247130,-9104.533087,153.219100
278.042788,-1480.411884,-9252.574275,459.657299
278.043115,-1628.453072,-8438.347739,153.219100
278.043443,-1332.370696,-8290.306550,229.828649
278.043770,-1554.432478,-8068.244768,0.000000
278.044098,-1406.391290,-7846.182985,689.485948
278.044425,-444.123565,-8586.388927,229.828649
278.044753,-592.164754,-8364.327145,76.609550
278.045080,-296.082377,-8660.409521,76.609550
278.045408,0.000000,-8808.450710,459.657299
278.045735,296.082377,-9030.512492,536.266849
278.046063,814.226536,-9178.553681,995.924147
278.046390,740.205942,-9104.533087,689.485948
278.046718,1036.288319,-9622.677246,766.095498
278.047045,1184.329507,-9918.759623,1072.533697
278.047373,888.247130,-10214.842000,995.924147
278.047700,740.205942,-9992.780217,842.705048
278.048028,148.041188,-10066.800811,689.485948
278.048355,-296.082377,-10140.821405,536.266849
278.048683,-518.144159,-10066.800811,229.828649
278.049010,-1036.288319,-9622.677246,76.609550
278.049338,-962.267725,-8956.491898,0.000000
278.049665,-1036.288319,-8882.471304,76.609550
278.049993,-1258.350101,-8438.347739,0.000000
278.050320,-888.247130,-8364.327145,-306.438199
278.050648,-814.226536,-7994.224174,-153.219100
278.050975,-962.267725,-7920.203579,-306.438199
278.051303,-370.102971,-8142.265362,536.266849
278.051630,-518.144159,-8216.285956,76.609550
278.051958,0.000000,-8512.368333,229.828649
278.052286,0.000000,-8808.450710,459.657299
278.052613,0.000000,-9178.553681,612.876398
278.052941,444.123565,-8808.450710,1302.362347
278.053268,962.267725,-9400.615463,1225.752797
278.053596,1110.308913,-9474.636058,1378.971896
278.053923,1036.288319,-9474.636058,1378.971896
278.054251,1036.288319,-9770.718434,1378.971896
278.054578,592.164754,-9326.594869,1225.752797
278.054906,0.000000,-9992.780217,842.705048
278.055233,-296.082377,-9992.780217,919.314598
278.055561,-1110.308913,-9844.739029,536.266849
278.055888,-1184.329507,-9622.677246,536.266849
278.056216,-1480.411884,-8882.471304,-306.438199
278.056543,-1480.411884,-8956.491898,459.657299
278.056871,-1480.411884,-8660.409521,0.000000
278.057198,-1554.432478,-8586.388927,0.000000
278.057526,-1406.391290,-8586.388927,0.000000
278.057853,-1924.535449,-7624.121203,0.000000
278.058181,-1184.329507,-8068.244768,-229.828649
278.058508,-1332.370696,-8438.347739,153.219100
278.058836,-1036.288319,-8068.244768,153.219100
278.059163,-666.185348,-7994.224174,153.219100
278.059491,148.041188,-8512.368333,536.266849
278.059818,1110.308913,-8512.368333,1149.143247
278.060146,1036.288319,-8882.471304,766.095498
278.060473,1702.473667,-9844.739029,1072.533697
278.060801,1702.473667,-9252.574275,1225.752797
278.061128,1628.453072,-9992.780217,919.314598
278.061456,1850.514855,-10436.903782,1608.800546
278.061783,666.185348,-9992.780217,1072.533697
278.062111,740.205942,-10214.842000,1225.752797
278.062438,0.000000,-9992.780217,842.705048
278.062766,-296.082377,-10066.800811,536.266849
278.063093,-962.267725,-9474.636058,689.485948
278.063421,-814.226536,-9622.677246,689.485948
278.063748,-1036.288319,-9548.656652,76.609550
278.064076,-1480.411884,-8660.409521,0.000000
278.064403,-1110.308913,-8290.306550,-306.438199
278.064731,-1110.308913,-8364.327145,383.047749
278.065058,-592.164754,-7624.121203,689.485948
278.065386,-1480.411884,-8142.265362,0.000000
278.065713,-814.226536,-8216.285956,229.828649
278.066041,-444.123565,-8364.327145,689.485948
278.066368,-962.267725,-8438.347739,306.438199
278.066696,-222.061783,-8956.491898,1378.971896
278.067023,0.000000,-9030.512492,689.485948
278.067351,444.123565,-9474.636058,1072.533697
278.067678,962.267725,-9474.636058,1455.581446
278.068006,1406.391290,-9622.677246,1455.581446
278.068334,1036.288319,-9622.677246,2145.067394
278.068661,888.247130,-9622.677246,1378.971896
278.068989,444.123565,-9918.759623,1455.581446
278.069316,148.041188,-9918.759623,1302.362347
278.069644,-370.102971,-10214.842000,689.485948
278.069971,-1332.370696,-9696.697840,459.657299
278.070299,-814.226536,-9770.718434,536.266849
278.070626,-814.226536,-9400.615463,229.828649
278.070954,-1036.288319,-9252.574275,383.047749
278.071281,-1480.411884,-8586.388927,306.438199
278.071609,-1184.329507,-8956.491898,306.438199
278.071936,-1628.453072,-7846.182985,76.609550
278.072264,-1406.391290,-8290.306550,153.219100
278.072591,-1406.391290,-8364.327145,153.219100
278.072919,-1332.370696,-8068.244768,76.609550
278.073246,-1110.308913,-8438.347739,459.657299
278.073574,-592.164754,-8142.265362,459.657299
278.073901,-296.082377,-8364.327145,612.876398
278.074229,518.144159,-8512.368333,689.485948
278.074556,814.226536,-8956.491898,766.095498
278.074884,1036.288319,-9326.594869,842.705048
278.075211,962.267725,-9474.636058,1225.752797
278.075539,1258.350101,-9696.697840,689.485948
278.075866,962.267725,-10066.800811,995.924147
278.076194,370.102971,-10140.821405,919.314598
278.076521,0.000000,-10288.862594,689.485948
278.076849,-148.041188,-9844.739029,536.266849
278.077176,0.000000,-9696.697840,689.485948
278.077504,-740.205942,-9696.697840,76.609550
278.077831,-962.267725,-9474.636058,76.609550
278.078159,-1036.288319,-9104.533087,0.000000
278.078486,-1184.329507,-8290.306550,-229.828649
278.078814,-1110.308913,-8142.265362,0.000000
278.079141,-814.226536,-8068.244768,0.000000
278.079469,-518.144159,-7772.162391,-229.828649
278.079796,-444.123565,-8068.244768,0.000000
278.080124,0.000000,-8068.244768,76.609550
278.080451,0.000000,-8364.327145,306.438199
278.080779,0.000000,-8808.450710,459.657299
278.081106,148.041188,-8956.491898,766.095498
278.081434,0.000000,-9030.512492,919.314598
278.081761,296.082377,-9474.636058,1302.362347
278.082089,592.164754,-9770.718434,1378.971896
278.082416,1036.288319,-9622.677246,1455.581446
278.082744,962.267725,-9844.739029,1302.362347
278.083071,518.144159,-9696.697840,842.705048
278.083399,222.061783,-9696.697840,1149.143247
278.083726,74.020594,-9696.697840,1302.362347
278.084054,-222.061783,-9770.718434,536.266849
278.084382,-962.267725,-9770.718434,459.657299
278.084709,-1406.391290,-9400.615463,229.828649
278.085037,-1628.453072,-9252.574275,229.828649
278.085364,-1628.453072,-8956.491898,-229.828649
278.085692,-1998.556043,-8512.368333,76.609550
278.086019,-1628.453072,-8438.347739,-229.828649
278.086347,-1776.494261,-8216.285956,0.000000
278.086674,-1406.391290,-8142.265362,0.000000
278.087002,-1332.370696,-8216.285956,153.219100
278.087329,-888.247130,-8364.327145,306.438199
278.087657,-296.082377,-8290.306550,76.609550
278.087984,-148.041188,-8660.409521,306.438199
278.088312,148.041188,-8808.450710,536.266849
278.088639,740.205942,-8882.471304,919.314598
278.088967,1406.391290,-8956.491898,1532.190996
278.089294,1554.432478,-8882.471304,842.705048
278.089622,1554.432478,-9622.677246,1302.362347
278.089949,1480.411884,-10066.800811,1149.143247
278.090277,1110.308913,-10214.842000,1378.971896
278.090604,518.144159,-10140.821405,1302.362347
278.090932,148.041188,-9696.697840,919.314598
278.091259,-370.102971,-9992.780217,536.266849
278.091587,-814.226536,-9992.780217,536.266849
278.091914,-1036.288319,-9474.636058,229.828649
278.092242,-1332.370696,-9104.533087,76.609550
278.092569,-1184.329507,-8512.368333,76.609550
278.092897,-1184.329507,-8438.347739,0.000000
278.093224,-1184.329507,-8290.306550,0.000000
278.093552,-1036.288319,-8142.265362,0.000000
278.093879,-1036.288319,-8290.306550,0.000000
278.094207,-814.226536,-8068.244768,766.095498
278.094534,-370.102971,-8068.244768,76.609550
278.094862,-444.123565,-8660.409521,842.705048
278.095189,0.000000,-8808.450710,689.485948
278.095517,0.000000,-9030.512492,1072.533697
278.095844,370.102971,-8882.471304,995.924147
278.096172,814.226536,-9474.636058,1915.238745
278.096499,814.226536,-9474.636058,1302.362347
278.096827,1036.288319,-9622.677246,1685.410096
278.097154,888.247130,-9844.739029,1455.581446
278.097482,592.164754,-9992.780217,1455.581446
278.097809,74.020594,-9474.636058,1072.533697
278.098137,0.000000,-9770.718434,995.924147
278.098464,-592.164754,-9770.718434,766.095498
278.098792,-888.247130,-9622.677246,766.095498
278.099119,-814.226536,-9474.636058,766.095498
278.099447,-1036.288319,-8956.491898,229.828649
278.099774,-1554.432478,-8734.430116,383.047749
278.100102,-1332.370696,-8956.491898,383.047749
278.100429,-1480.411884,-8364.327145,76.609550
278.100757,-1480.411884,-8364.327145,536.266849
278.101085,-962.267725,-8290.306550,766.095498
278.101412,-1480.411884,-8364.327145,383.047749
278.101740,-888.247130,-8364.327145,153.219100
278.102067,-666.185348,-8512.368333,306.438199
278.102395,-296.082377,-8660.409521,536.266849
278.102722,74.020594,-8586.388927,383.047749
278.103050,370.102971,-8882.471304,842.705048
278.103377,888.247130,-9252.574275,689.485948
278.103705,888.247130,-9474.636058,766.095498
278.104032,1258.350101,-9844.739029,612.876398
278.104360,888.247130,-9918.759623,995.924147
278.104687,814.226536,-9918.759623,1532.190996
278.105015,222.061783,-10066.800811,842.705048
278.105342,-296.082377,-10066.800811,842.705048
278.105670,-592.164754,-9770.718434,383.047749
278.105997,-888.247130,-9622.677246,0.000000
278.106325,-1036.288319,-9474.636058,-536.266849
278.106652,-814.226536,-9030.512492,-306.438199
278.106980,-740.205942,-8956.491898,-459.657299
278.107307,-814.226536,-8438.347739,-153.219100
278.107635,-666.185348,-8142.265362,-383.047749
278.107962,-370.102971,-8142.265362,0.000000
278.108290,-666.185348,-7476.080014,306.438199
278.108617,-222.061783,-8364.327145,0.000000
278.108945,-222.061783,-8660.409521,306.438199
278.109272,0.000000,-8808.450710,536.266849
278.109600,0.000000,-8734.430116,229.828649
278.109927,370.102971,-8956.491898,1072.533697
278.110255,444.123565,-9326.594869,1302.362347
278.110582,666.185348,-9326.594869,1149.143247
278.110910,1110.308913,-9474.636058,995.924147
278.111237,888.247130,-9474.636058,1072.533697
278.111565,444.123565,-9548.656652,1149.143247
278.111892,148.041188,-9770.718434,919.314598
278.112220,-222.061783,-9844.739029,766.095498
278.112547,-740.205942,-9548.656652,459.657299
278.112875,-1110.308913,-9696.697840,536.266849
278.113202,-1554.432478,-9474.636058,153.219100
278.113530,-1702.473667,-9030.512492,306.438199
278.113857,-1702.473667,-8882.471304,229.828649
278.114185,-1702.473667,-8956.491898,229.828649
278.114512,-1628.453072,-8586.388927,0.000000
278.114840,-1628.453072,-8438.347739,459.657299
278.115167,-1406.391290,-8068.244768,0.000000
278.115495,-1110.308913,-8290.306550,76.609550
278.115822,-814.226536,-8438.347739,0.000000
278.116150,-592.164754,-8438.347739,459.657299
278.116477,-222.061783,-8364.327145,536.266849
278.116805,296.082377,-8734.430116,766.095498
278.117133,740.205942,-8956.491898,919.314598
278.117460,1184.329507,-9400.615463,1378.971896
278.117788,1406.391290,-9178.553681,1225.752797
278.118115,1480.411884,-9622.677246,1302.362347
278.118443,1406.391290,-10066.800811,766.095498
278.118770,1184.329507,-10214.842000,1225.752797
278.119098,814.226536,-10288.862594,1302.362347
278.119425,222.061783,-10214.842000,919.314598
278.119753,0.000000,-9992.780217,612.876398
278.120080,-740.205942,-9992.780217,612.876398
278.120408,-592.164754,-9104.533087,0.000000
278.120735,-1332.370696,-9252.574275,153.219100
278.121063,-1406.391290,-8882.471304,-229.828649
278.121390,-1406.391290,-8438.347739,0.000000
278.121718,-1406.391290,-8068.244768,-383.047749
278.122045,-1184.329507,-7698.141797,229.828649
278.122373,-888.247130,-8068.244768,383.047749
278.122700,-888.247130,-8290.306550,306.438199
278.123028,-518.144159,-8068.244768,612.876398
278.123355,-518.144159,-8586.388927,995.924147
278.123683,-592.164754,-8956.491898,919.314598
278.124010,-148.041188,-9104.533087,995.924147
278.124338,296.082377,-9326.594869,995.924147
278.124665,814.226536,-9326.594869,1378.971896
278.124993,1110.308913,-9474.636058,1455.581446
278.125320,1628.453072,-9400.615463,1762.019645
278.125648,1258.350101,-9918.759623,1915.238745
278.125975,740.205942,-9992.780217,1455.581446
278.126303,296.082377,-10066.800811,1455.581446
278.126630,0.000000,-9992.780217,766.095498
278.126958,-592.164754,-9992.780217,689.485948
278.127285,-1036.288319,-9844.739029,689.485948
278.127613,-962.267725,-9474.636058,459.657299
278.127940,-1110.308913,-9030.512492,536.266849
278.128268,-1332.370696,-8882.471304,306.438199
278.128595,-1554.432478,-8660.409521,766.095498
278.128923,-1184.329507,-7994.224174,383.047749
278.129250,-1406.391290,-8364.327145,76.609550
278.129578,-1332.370696,-8290.306550,153.219100
278.129905,-1554.432478,-8216.285956,0.000000
278.130233,-1258.350101,-8364.327145,306.438199
278.130560,-518.144159,-8512.368333,536.266849
278.130888,-370.102971,-8660.409521,153.219100
278.131215,0.000000,-8438.347739,383.047749
278.131543,444.123565,-9104.533087,383.047749
278.131870,888.247130,-9252.574275,766.095498
278.132198,888.247130,-8956.491898,995.924147
278.132525,1184.329507,-10066.800811,919.314598
278.132853,1184.329507,-10140.821405,842.705048
278.133181,740.205942,-10214.842000,842.705048
278.133508,222.061783,-10140.821405,536.266849
278.133836,0.000000,-10140.821405,1378.971896
278.134163,0.000000,-10066.800811,229.828649
278.134491,-592.164754,-9844.739029,229.828649
278.134818,-814.226536,-9400.615463,0.000000
278.135146,-592.164754,-9030.512492,0.000000
278.135473,-740.205942,-8808.450710,0.000000
278.135801,-370.102971,-8586.388927,-766.095498
278.136128,-666.185348,-8512.368333,-383.047749
278.136456,-518.144159,-8142.265362,0.000000
278.136783,-444.123565,-8068.244768,-229.828649
278.137111,-296.082377,-8216.285956,229.828649
278.137438,-296.082377,-8068.244768,459.657299
278.137766,-148.041188,-8586.388927,689.485948
278.138093,148.041188,-8882.471304,612.876398
278.138420,148.041188,-9178.553681,1072.533697
278.138748,444.123565,-9252.574275,1149.143247
278.139075,814.226536,-9400.615463,1608.800546
278.139403,592.164754,-9622.677246,919.314598
278.139730,666.185348,-9474.636058,1225.752797
278.140058,518.144159,-9548.656652,1302.362347
278.140385,296.082377,-9770.718434,1455.581446
278.140712,0.000000,-9548.656652,1225.752797
278.141040,-518.144159,-9622.677246,536.266849
278.141367,-1036.288319,-9770.718434,306.438199
278.141695,-1480.411884,-9622.677246,229.828649
278.142022,-1554.432478,-9400.615463,153.219100
278.142349,-1702.473667,-8808.450710,459.657299
278.142677,-1702.473667,-8734.430116,-153.219100
278.143004,-1702.473667,-8512.368333,76.609550
278.143332,-1480.411884,-8586.388927,0.000000
278.143659,-1258.350101,-8364.327145,0.000000
278.143987,-1258.350101,-8290.306550,76.609550
278.144314,-888.247130,-8364.327145,0.000000
278.144641,-962.267725,-8512.368333,229.828649
278.144969,-444.123565,-8660.409521,459.657299
278.145296,148.041188,-8956.491898,383.047749
278.145624,740.205942,-8808.450710,842.705048
278.145951,1406.391290,-8882.471304,1455.581446
278.146278,1332.370696,-9030.512492,1455.581446
278.146606,1850.514855,-9622.677246,995.924147
278.146933,1628.453072,-9770.718434,1378.971896
278.147261,1258.350101,-9992.780217,1302.362347
278.147588,888.247130,-10214.842000,1149.143247
278.147916,0.000000,-9844.739029,766.095498
278.148243,0.000000,-10214.842000,536.266849
278.148570,-666.185348,-9992.780217,536.266849
278.148898,-888.247130,-9474.636058,306.438199
278.149225,-888.247130,-9326.594869,383.047749
278.149553,-1332.370696,-8734.430116,536.266849
278.149880,-1332.370696,-8438.347739,0.000000
278.150207,-1036.288319,-8142.265362,-153.219100
278.150535,-1036.288319,-8142.265362,0.000000
278.150862,-1184.329507,-8142.265362,-153.219100
278.151190,-666.185348,-7698.141797,766.095498
278.151517,-592.164754,-8142.265362,229.828649
278.151845,-444.123565,-8364.327145,383.047749
278.152172,-222.061783,-8734.430116,536.266849
278.152499,0.000000,-8734.430116,995.924147
278.152827,296.082377,-9400.615463,1225.752797
278.153154,888.247130,-8956.491898,1149.143247
278.153482,814.226536,-9548.656652,1608.800546
278.153809,1406.391290,-9474.636058,1455.581446
278.154136,1184.329507,-9696.697840,1608.800546
278.154464,888.247130,-9474.636058,1302.362347
278.154791,370.102971,-9474.636058,1532.190996
278.155119,222.061783,-9918.759623,1072.533697
278.155446,-148.041188,-9992.780217,1072.533697
278.155774,-814.226536,-9474.636058,536.266849
278.156101,-1110.308913,-9252.574275,766.095498
278.156428,-1110.308913,-8956.491898,612.876398
278.156756,-1406.391290,-8956.491898,612.876398
278.157083,-1554.432478,-8512.368333,306.438199
278.157411,-1332.370696,-8364.327145,229.828649
278.157738,-1554.432478,-8438.347739,153.219100
278.158065,-1332.370696,-8142.265362,842.705048
278.158393,-1628.453072,-8142.265362,229.828649
278.158720,-1406.391290,-8216.285956,229.828649
278.159048,-888.247130,-8216.285956,612.876398
278.159375,-592.164754,-8586.388927,612.876398
278.159703,148.041188,-8364.327145,842.705048
278.160030,296.082377,-9030.512492,766.095498
278.160357,518.144159,-9030.512492,612.876398
278.160685,1036.288319,-9474.636058,536.266849
278.161012,888.247130,-9622.677246,995.924147
278.161340,1184.329507,-9770.718434,919.314598
278.161667,1258.350101,-9918.759623,842.705048
278.161994,666.185348,-10288.862594,842.705048
278.162322,296.082377,-10436.903782,689.485948
278.162649,-148.041188,-10288.862594,306.438199
278.162977,-740.205942,-9992.780217,153.219100
278.163304,-666.185348,-9400.615463,-153.219100
278.163632,-592.164754,-9252.574275,76.609550
278.163959,-1036.288319,-8660.409521,0.000000
278.164286,-518.144159,-8586.388927,-229.828649
278.164614,-666.185348,-8512.368333,-229.828649
278.164941,-518.144159,-7920.203579,153.219100
278.165269,-518.144159,-8142.265362,76.609550
278.165596,-222.061783,-8290.306550,153.219100
278.165923,-296.082377,-8586.388927,306.438199
278.166251,-148.041188,-8808.450710,306.438199
278.166578,148.041188,-8734.430116,766.095498
278.166906,222.061783,-9252.574275,995.924147
278.167233,444.123565,-9326.594869,1072.533697
278.167561,444.123565,-9326.594869,995.924147
278.167888,740.205942,-9474.636058,1225.752797
278.168215,962.267725,-9326.594869,1608.800546
278.168543,518.144159,-9622.677246,919.314598
278.168870,148.041188,-9696.697840,842.705048
278.169198,-296.082377,-9844.739029,842.705048
278.169525,-592.164754,-9622.677246,842.705048
278.169852,-1110.308913,-9474.636058,689.485948
278.170180,-962.267725,-9178.553681,0.000000
278.170507,-1628.453072,-9030.512492,229.828649
278.170835,-1406.391290,-8808.450710,0.000000
278.171162,-1628.453072,-8808.450710,0.000000
278.171490,-1850.514855,-8586.388927,0.000000
278.171817,-1702.473667,-7920.203579,229.828649
278.172144,-1628.453072,-7920.203579,76.609550
278.172472,-1554.432478,-8216.285956,153.219100
278.172799,-1258.350101,-8216.285956,0.000000
278.173127,-666.185348,-8290.306550,0.000000
278.173454,-222.061783,-8290.306550,459.657299
278.173781,74.020594,-8734.430116,536.266849
278.174109,592.164754,-8808.450710,459.657299
278.174436,962.267725,-9030.512492,536.266849
278.174764,1184.329507,-9178.553681,995.924147
278.175091,1628.453072,-9474.636058,1608.800546
278.175419,1776.494261,-9696.697840,1608.800546
278.175746,1628.453072,-9918.759623,1149.143247
278.176073,1036.288319,-9992.780217,1149.143247
278.176401,592.164754,-9992.780217,1072.533697
278.176728,222.061783,-9918.759623,919.314598
278.177056,0.000000,-9400.615463,689.485948
278.177383,-814.226536,-9474.636058,229.828649
278.177710,-1258.350101,-9474.636058,0.000000
278.178038,-1406.391290,-9178.553681,0.000000
278.178365,-1332.370696,-8734.430116,-383.047749
278.178693,-1184.329507,-8290.306550,-306.438199
278.179020,-1036.288319,-7994.224174,-229.828649
278.179348,-1184.329507,-7846.182985,0.000000
278.179675,-888.247130,-7846.182985,0.000000
278.180002,-740.205942,-7920.203579,153.219100
278.180330,-444.123565,-8364.327145,536.266849
278.180657,-222.061783,-9030.512492,536.266849
278.180985,-222.061783,-9030.512492,689.485948
278.181312,0.000000,-9252.574275,1149.143247
278.181639,518.144159,-9548.656652,1149.143247
278.181967,962.267725,-9400.615463,1302.362347
278.182294,1554.432478,-9400.615463,1991.848295
278.182622,1554.432478,-9844.739029,1532.190996
278.182949,1258.350101,-9918.759623,1225.752797
278.183277,666.185348,-10140.821405,1378.971896
278.183604,148.041188,-10288.862594,1378.971896
278.183931,0.000000,-9992.780217,1149.143247
278.184259,-666.185348,-9918.759623,766.095498
278.184586,-814.226536,-9548.656652,612.876398
278.184914,-1184.329507,-9622.677246,383.047749
278.185241,-1036.288319,-9252.574275,536.266849
278.185568,-1184.329507,-8808.450710,689.485948
278.185896,-1258.350101,-8586.388927,459.657299
278.186223,-1702.473667,-8290.306550,153.219100
278.186551,-1554.432478,-8512.368333,306.438199
278.186878,-1702.473667,-8586.388927,0.000000
278.187206,-1480.411884,-8438.347739,-536.266849
278.187533,-1110.308913,-7994.224174,76.609550
278.187860,-962.267725,-8364.327145,229.828649
278.188188,-222.061783,-8660.409521,459.657299
278.188515,0.000000,-8364.327145,689.485948
278.188843,666.185348,-8438.347739,1072.533697
278.189170,1258.350101,-8808.450710,1685.410096
278.189497,1258.350101,-9622.677246,919.314598
278.189825,1036.288319,-9992.780217,1149.143247
278.190152,888.247130,-9844.739029,1149.143247
278.190480,518.144159,-10066.800811,1072.533697
278.190807,296.082377,-10214.842000,229.828649
278.191135,-370.102971,-10140.821405,766.095498
278.191462,-148.041188,-9770.718434,459.657299
278.191789,-296.082377,-9622.677246,306.438199
278.192117,-592.164754,-9178.553681,0.000000
278.192444,-1110.308913,-9178.553681,689.485948
278.192772,-296.082377,-8068.244768,0.000000
278.193099,-740.205942,-8438.347739,0.000000
278.193426,-518.144159,-8142.265362,153.219100
278.193754,-444.123565,-7994.224174,0.000000
278.194081,-370.102971,-7994.224174,612.876398
278.194409,0.000000,-7772.162391,383.047749
278.194736,-296.082377,-8364.327145,459.657299
278.195064,-222.061783,-8734.430116,459.657299
278.195391,0.000000,-9030.512492,689.485948
278.195718,0.000000,-9178.553681,766.095498
278.196046,592.164754,-9030.512492,1302.362347
278.196373,740.205942,-9474.636058,1072.533697
278.196701,518.144159,-9474.636058,1149.143247
278.197028,592.164754,-9474.636058,995.924147
278.197355,222.061783,-9548.656652,995.924147
278.197683,-222.061783,-9474.636058,995.924147
278.198010,-444.123565,-9622.677246,383.047749
278.198338,-740.205942,-9696.697840,383.047749
278.198665,-1258.350101,-9622.677246,153.219100
278.198993,-1480.411884,-9548.656652,0.000000
278.199320,-1702.473667,-9030.512492,76.609550
278.199647,-1184.329507,-8956.491898,0.000000
278.199975,-1480.411884,-8808.450710,76.609550
278.200302,-1332.370696,-8734.430116,0.000000
278.200630,-1406.391290,-8290.306550,-306.438199
278.200957,-962.267725,-8438.347739,0.000000
278.201284,-962.267725,-8290.306550,76.609550
278.201612,-814.226536,-8364.327145,0.000000
278.201939,-444.123565,-8438.347739,153.219100
278.202267,222.061783,-8808.450710,306.438199
278.202594,370.102971,-8882.471304,459.657299
278.202922,1258.350101,-8734.430116,306.438199
278.203249,1406.391290,-9030.512492,689.485948
278.203576,1776.494261,-9622.677246,1149.143247
278.203904,1554.432478,-9770.718434,1455.581446
278.204231,1184.329507,-10066.800811,1225.752797
278.204559,1036.288319,-9474.636058,1225.752797
278.204886,518.144159,-10140.821405,842.705048
278.205213,-148.041188,-10436.903782,842.705048
278.205541,-518.144159,-10288.862594,689.485948
278.205868,-962.267725,-9844.739029,459.657299
278.206196,-1110.308913,-9622.677246,0.000000
278.206523,-1554.432478,-8882.471304,-306.438199
278.206851,-1480.411884,-8512.368333,-306.438199
278.207178,-1110.308913,-8290.306550,-383.047749
278.207505,-1332.370696,-7920.203579,-383.047749
278.207833,-1554.432478,-7550.100608,76.609550
278.208160,-888.247130,-8142.265362,459.657299
278.208488,-666.185348,-7994.224174,306.438199
278.208815,-370.102971,-8290.306550,459.657299
278.209142,-296.082377,-8438.347739,919.314598
278.209470,-222.061783,-8882.471304,1302.362347
278.209797,148.041188,-8808.450710,1762.019645
278.210125,518.144159,-9178.553681,1302.362347
278.210452,888.247130,-9400.615463,1762.019645
278.210780,888.247130,-9548.656652,1838.629195
278.211107,1110.308913,-9696.697840,1685.410096
278.211434,1332.370696,-10214.842000,1532.190996
278.211762,666.185348,-9844.739029,1608.800546
