#time,accel_x,accel_y,accel_z
320.020070,0.000000,-9178.553681,766.095498
320.020398,-444.123565,-9030.512492,536.266849
320.020726,-370.102971,-9104.533087,459.657299
320.021053,-222.061783,-9030.512492,536.266849
320.021381,-222.061783,-9252.574275,612.876398
320.021709,0.000000,-9326.594869,919.314598
320.022037,0.000000,-8956.491898,536.266849
320.022365,-222.061783,-9326.594869,536.266849
320.022692,-444.123565,-9104.533087,459.657299
320.023020,-222.061783,-9030.512492,612.876398
320.023348,-296.082377,-9030.512492,536.266849
320.023676,-370.102971,-8734.430116,689.485948
320.024004,-296.082377,-9178.553681,459.657299
320.024331,-296.082377,-9178.553681,612.876398
320.024659,-296.082377,-9104.533087,766.095498
320.024987,-444.123565,-9252.574275,612.876398
320.025315,0.000000,-8956.491898,689.485948
320.025642,-370.102971,-9178.553681,306.438199
320.025970,-296.082377,-9104.533087,689.485948
320.026298,-370.102971,-8956.491898,459.657299
320.026626,-370.102971,-9178.553681,612.876398
320.026954,-296.082377,-8882.471304,612.876398
320.027281,-222.061783,-8882.471304,306.438199
320.027609,-222.061783,-9252.574275,306.438199
320.027937,-370.102971,-8956.491898,612.876398
320.028265,-444.123565,-9104.533087,689.485948
320.028593,-370.102971,-8882.471304,536.266849
320.028920,-148.041188,-8956.491898,766.095498
320.029248,-370.102971,-8882.471304,612.876398
320.029576,-296.082377,-9178.553681,536.266849
320.029904,0.000000,-9178.553681,612.876398
320.030232,-222.061783,-9252.574275,459.657299
320.030559,-222.061783,-9104.533087,689.485948
320.030887,-888.247130,-9400.615463,229.828649
320.031215,-1036.288319,-9326.594869,0.000000
320.031543,-1332.370696,-9474.636058,-306.438199
320.031871,-1258.350101,-9252.574275,-306.438199
320.032198,-592.164754,-8956.491898,0.000000
320.032526,-222.061783,-8956.491898,-536.266849
320.032854,-518.144159,-9104.533087,-612.876398
320.033182,-1036.288319,-9104.533087,-766.095498
320.033510,-1406.391290,-9178.553681,-1225.752797
320.033837,-1110.308913,-8956.491898,-1149.143247
320.034165,-740.205942,-9030.512492,-1608.800546
320.034493,-814.226536,-9326.594869,-1532.190996
320.034821,-296.082377,-9104.533087,-1378.971896
320.035148,-148.041188,-9178.553681,-1302.362347
320.035476,0.000000,-9178.553681,-1302.362347
320.035804,74.020594,-9326.594869,-1455.581446
320.036132,-148.041188,-9178.553681,-1762.019645
320.036460,0.000000,-9252.574275,-1608.800546
320.036787,0.000000,-9178.553681,-1915.238745
320.037115,370.102971,-9474.636058,-1838.629195
320.037443,0.000000,-9252.574275,-1378.971896
320.037771,222.061783,-9252.574275,-1532.190996
320.038099,518.144159,-8956.491898,-1838.629195
320.038426,740.205942,-9178.553681,-1455.581446
320.038754,518.144159,-9326.594869,-1608.800546
320.039082,0.000000,-8956.491898,-1302.362347
320.039410,888.247130,-9252.574275,-1838.629195
320.039738,370.102971,-9178.553681,-1532.190996
320.040065,74.020594,-8956.491898,-1608.800546
320.040393,74.020594,-9326.594869,-1455.581446
320.040721,0.000000,-8808.450710,-1302.362347
320.041049,-222.061783,-9474.636058,-1608.800546
320.041377,-592.164754,-9030.512492,-1685.410096
320.041704,-814.226536,-9104.533087,-1532.190996
320.042032,-1036.288319,-8882.471304,-1838.629195
320.042360,-1332.370696,-8956.491898,-1685.410096
320.042688,-1184.329507,-8808.450710,-1532.190996
320.043016,-1480.411884,-8956.491898,-1762.019645
320.043343,-1554.432478,-8882.471304,-1915.238745
320.043671,-1776.494261,-8808.450710,-2221.676944
320.043999,-1628.453072,-8808.450710,-2298.286494
320.044327,-1332.370696,-8734.430116,-2298.286494
320.044654,-2072.576638,-8438.347739,-2451.505594
320.044982,-1332.370696,-8882.471304,-2451.505594
320.045310,-1184.329507,-8956.491898,-2298.286494
320.045638,-740.205942,-8956.491898,-2221.676944
320.045966,-222.061783,-8882.471304,-2221.676944
320.046293,370.102971,-9178.553681,-1608.800546
320.046621,740.205942,-8956.491898,-1149.143247
320.046949,1332.370696,-8808.450710,-919.314598
320.047277,2146.597232,-8660.409521,-383.047749
320.047605,2812.782580,-8512.368333,153.219100
320.047932,2368.659014,-9178.553681,229.828649
320.048260,2146.597232,-9474.636058,536.266849
320.048588,1480.411884,-9696.697840,383.047749
320.048916,814.226536,-9844.739029,153.219100
320.049244,148.041188,-10066.800811,0.000000
320.049571,-370.102971,-9770.718434,-306.438199
320.049899,-962.267725,-9474.636058,-306.438199
320.050227,-814.226536,-9474.636058,-536.266849
320.050555,-962.267725,-8882.471304,-842.705048
320.050883,-1332.370696,-8660.409521,-766.095498
320.051210,-1554.432478,-8438.347739,-1225.752797
320.051538,-1406.391290,-8364.327145,-1225.752797
320.051866,-1480.411884,-8142.265362,-995.924147
320.052194,-1036.288319,-8216.285956,-383.047749
320.052522,-296.082377,-8068.244768,0.000000
320.052849,0.000000,-8364.327145,766.095498
320.053177,518.144159,-8068.244768,1915.238745
320.053505,0.000000,-8882.471304,1685.410096
320.053833,-296.082377,-9326.594869,1915.238745
320.054160,-814.226536,-9548.656652,1685.410096
320.054488,-1406.391290,-9770.718434,1532.190996
320.054816,-1036.288319,-10140.821405,1685.410096
320.055144,-888.247130,-9918.759623,919.314598
320.055472,-296.082377,-9474.636058,919.314598
320.055799,0.000000,-9252.574275,995.924147
320.056127,148.041188,-8956.491898,842.705048
320.056455,0.000000,-9178.553681,459.657299
320.056783,-592.164754,-9252.574275,306.438199
320.057111,-444.123565,-9104.533087,153.219100
320.057438,-444.123565,-9104.533087,536.266849
320.057766,0.000000,-9252.574275,842.705048
320.058094,74.020594,-9548.656652,1762.019645
320.058422,370.102971,-9474.636058,1991.848295
320.058750,-370.102971,-9326.594869,1991.848295
320.059077,-814.226536,-9474.636058,1838.629195
320.059405,-1702.473667,-9548.656652,1455.581446
320.059733,-1998.556043,-9252.574275,919.314598
320.060061,-1554.432478,-9030.512492,153.219100
320.060389,-1480.411884,-8882.471304,153.219100
320.060716,-592.164754,-8438.347739,0.000000
320.061044,148.041188,-7994.224174,0.000000
320.061372,518.144159,-7994.224174,153.219100
320.061700,740.205942,-7846.182985,153.219100
320.062028,592.164754,-8660.409521,-383.047749
320.062355,74.020594,-9178.553681,-153.219100
320.062683,-222.061783,-9474.636058,0.000000
320.063011,0.000000,-9918.759623,459.657299
320.063339,370.102971,-9844.739029,1149.143247
320.063666,888.247130,-9992.780217,1532.190996
320.063994,592.164754,-9992.780217,1685.410096
320.064322,296.082377,-9770.718434,1532.190996
320.064650,-444.123565,-9918.759623,1302.362347
320.064978,-1332.370696,-9400.615463,459.657299
320.065305,-1480.411884,-9030.512492,0.000000
320.065633,-740.205942,-8808.450710,-612.876398
320.065961,-444.123565,-8290.306550,-383.047749
320.066289,0.000000,-7920.203579,-306.438199
320.066617,592.164754,-7402.059420,-229.828649
320.066944,592.164754,-7402.059420,383.047749
320.067272,74.020594,-7772.162391,-536.266849
320.067600,-296.082377,-8364.327145,-383.047749
320.067928,-814.226536,-8956.491898,-306.438199
320.068256,-1036.288319,-9252.574275,0.000000
320.068583,-518.144159,-8882.471304,612.876398
320.068911,74.020594,-9326.594869,689.485948
320.069239,518.144159,-9400.615463,1302.362347
320.069567,518.144159,-9474.636058,1455.581446
320.069895,0.000000,-9548.656652,919.314598
320.070222,-740.205942,-9844.739029,766.095498
320.070550,-1036.288319,-9622.677246,-229.828649
320.070878,-1258.350101,-9400.615463,-459.657299
320.071206,-740.205942,-9104.533087,-766.095498
320.071534,74.020594,-8882.471304,-459.657299
320.071861,666.185348,-8290.306550,-459.657299
320.072189,1036.288319,-7550.100608,76.609550
320.072517,888.247130,-8364.327145,153.219100
320.072845,370.102971,-8364.327145,306.438199
320.073172,296.082377,-8956.491898,229.828649
320.073500,74.020594,-8660.409521,536.266849
320.073828,592.164754,-8586.388927,1762.019645
320.074156,888.247130,-9030.512492,1762.019645
320.074484,666.185348,-9178.553681,2374.896044
320.074811,296.082377,-9252.574275,2451.505594
320.075139,0.000000,-9548.656652,1915.238745
320.075467,-1332.370696,-9400.615463,1915.238745
320.075795,-1480.411884,-9474.636058,766.095498
320.076123,-1480.411884,-9400.615463,459.657299
320.076450,-1110.308913,-9030.512492,76.609550
320.076778,-370.102971,-8734.430116,383.047749
320.077106,0.000000,-8734.430116,612.876398
320.077434,222.061783,-8660.409521,689.485948
320.077761,-296.082377,-8956.491898,766.095498
320.078089,-1480.411884,-9252.574275,536.266849
320.078417,-1924.535449,-9474.636058,306.438199
320.078745,-1702.473667,-9548.656652,229.828649
320.079072,-1554.432478,-9474.636058,1149.143247
320.079400,-1110.308913,-9178.553681,1455.581446
320.079728,-740.205942,-8956.491898,1608.800546
320.080056,-444.123565,-8956.491898,1762.019645
320.080383,-814.226536,-8882.471304,1532.190996
320.080711,-1406.391290,-9252.574275,612.876398
320.081039,-1702.473667,-9104.533087,306.438199
320.081367,-1628.453072,-9400.615463,0.000000
320.081694,-1036.288319,-9104.533087,-383.047749
320.082022,-222.061783,-9030.512492,-153.219100
320.082350,962.267725,-8956.491898,153.219100
320.082678,1406.391290,-8808.450710,0.000000
320.083005,1036.288319,-9178.553681,153.219100
320.083333,962.267725,-9622.677246,153.219100
320.083661,592.164754,-9844.739029,0.000000
320.083989,296.082377,-10214.842000,0.000000
320.084316,444.123565,-9918.759623,919.314598
320.084644,888.247130,-9770.718434,1225.752797
320.084972,1110.308913,-9770.718434,1762.019645
320.085300,1110.308913,-9622.677246,1991.848295
320.085627,592.164754,-9400.615463,1532.190996
320.085955,-148.041188,-9178.553681,766.095498
320.086283,-740.205942,-9400.615463,229.828649
320.086611,-1332.370696,-8956.491898,-229.828649
320.086938,-1258.350101,-8808.450710,-689.485948
320.087266,-592.164754,-8512.368333,-383.047749
320.087594,296.082377,-7846.182985,-536.266849
320.087922,0.000000,-7846.182985,-459.657299
320.088249,0.000000,-7920.203579,-306.438199
320.088577,-814.226536,-8364.327145,-306.438199
320.088905,-1480.411884,-8660.409521,-306.438199
320.089233,-1258.350101,-9030.512492,-229.828649
320.089560,-1480.411884,-9252.574275,306.438199
320.089888,-592.164754,-9252.574275,459.657299
320.090216,0.000000,-9252.574275,1302.362347
320.090544,296.082377,-9400.615463,1378.971896
320.090871,0.000000,-9252.574275,1991.848295
320.091199,148.041188,-9622.677246,1072.533697
320.091527,-1184.329507,-9252.574275,459.657299
320.091855,-1258.350101,-9400.615463,0.000000
320.092182,-888.247130,-9104.533087,-306.438199
320.092510,0.000000,-8660.409521,0.000000
320.092838,1110.308913,-8290.306550,0.000000
320.093166,1554.432478,-8142.265362,383.047749
320.093493,1554.432478,-8216.285956,612.876398
320.093821,1406.391290,-8216.285956,689.485948
320.094149,444.123565,-8808.450710,612.876398
320.094477,148.041188,-9030.512492,842.705048
320.094804,0.000000,-9548.656652,1225.752797
320.095132,0.000000,-9326.594869,1685.410096
320.095460,592.164754,-9474.636058,2298.286494
320.095788,518.144159,-9474.636058,2451.505594
320.096116,222.061783,-9696.697840,2604.724693
320.096443,-888.247130,-9770.718434,1838.629195
320.096771,-1850.514855,-9548.656652,1149.143247
320.097099,-2294.638420,-9400.615463,459.657299
320.097427,-2146.597232,-8956.491898,0.000000
320.097754,-1628.453072,-8882.471304,459.657299
320.098082,-1036.288319,-8290.306550,0.000000
320.098410,-592.164754,-8364.327145,306.438199
320.098738,-666.185348,-8438.347739,0.000000
320.099065,-1480.411884,-8734.430116,536.266849
320.099393,-1924.535449,-9400.615463,0.000000
320.099721,-2146.597232,-9252.574275,0.000000
320.100049,-1554.432478,-9252.574275,536.266849
320.100376,-814.226536,-9474.636058,842.705048
320.100704,0.000000,-9474.636058,1532.190996
320.101032,370.102971,-9548.656652,1991.848295
320.101360,592.164754,-9326.594869,1302.362347
320.101687,0.000000,-9770.718434,1072.533697
320.102015,-370.102971,-9696.697840,612.876398
320.102343,-814.226536,-9474.636058,0.000000
320.102671,-370.102971,-9400.615463,-306.438199
320.102998,666.185348,-9104.533087,0.000000
320.103326,1184.329507,-8956.491898,-229.828649
320.103654,1924.535449,-8660.409521,153.219100
320.103982,2294.638420,-8808.450710,536.266849
320.104309,1406.391290,-9474.636058,229.828649
320.104637,888.247130,-9770.718434,-229.828649
320.104965,0.000000,-9844.739029,612.876398
320.105293,-370.102971,-9992.780217,459.657299
320.105620,0.000000,-9548.656652,919.314598
320.105948,370.102971,-9400.615463,1532.190996
320.106276,962.267725,-9474.636058,1608.800546
320.106604,222.061783,-8808.450710,1915.238745
320.106931,-592.164754,-9030.512492,919.314598
320.107259,-1554.432478,-8956.491898,306.438199
320.107587,-2146.597232,-8882.471304,-383.047749
320.107915,-2072.576638,-8734.430116,-919.314598
320.108242,-1480.411884,-8142.265362,-1072.533697
320.108570,-888.247130,-8216.285956,-995.924147
320.108898,-518.144159,-7994.224174,-536.266849
320.109226,-592.164754,-7994.224174,-459.657299
320.109553,-740.205942,-8512.368333,-612.876398
320.109881,-592.164754,-9252.574275,-383.047749
320.110209,-1036.288319,-9252.574275,-383.047749
320.110537,-1184.329507,-9030.512492,0.000000
320.110864,-296.082377,-9252.574275,612.876398
320.111192,592.164754,-8734.430116,1455.581446
320.111520,1406.391290,-8956.491898,1532.190996
320.111848,1184.329507,-8808.450710,1762.019645
320.112175,370.102971,-9326.594869,1378.971896
320.112503,-444.123565,-9474.636058,459.657299
320.112831,-814.226536,-9400.615463,0.000000
320.113159,-370.102971,-9030.512492,-229.828649
320.113486,296.082377,-8660.409521,-689.485948
320.113814,666.185348,-8586.388927,0.000000
320.114142,1628.453072,-8290.306550,0.000000
320.114470,2072.576638,-8068.244768,612.876398
320.114797,1406.391290,-8438.347739,842.705048
320.115125,1110.308913,-8808.450710,995.924147
320.115453,0.000000,-9252.574275,536.266849
320.115781,-370.102971,-9548.656652,766.095498
320.116108,0.000000,-9474.636058,1455.581446
320.116436,148.041188,-9474.636058,1991.848295
320.116764,370.102971,-9252.574275,2451.505594
320.117092,222.061783,-9474.636058,2298.286494
320.117420,-888.247130,-9548.656652,1685.410096
320.117747,-1776.494261,-9474.636058,1149.143247
320.118075,-2294.638420,-9326.594869,383.047749
320.118403,-2294.638420,-8808.450710,0.000000
320.118731,-1628.453072,-8734.430116,-229.828649
320.119058,-1110.308913,-8512.368333,0.000000
320.119386,-518.144159,-8438.347739,229.828649
320.119714,-518.144159,-8290.306550,306.438199
320.120042,-666.185348,-8512.368333,229.828649
320.120369,-1184.329507,-9474.636058,306.438199
320.120697,-1850.514855,-9548.656652,536.266849
320.121025,-1628.453072,-9548.656652,689.485948
320.121353,-888.247130,-9474.636058,1302.362347
320.121680,0.000000,-9400.615463,1838.629195
320.122008,740.205942,-9548.656652,2451.505594
320.122336,518.144159,-9696.697840,2145.067394
320.122664,0.000000,-9696.697840,1455.581446
320.122991,-592.164754,-9844.739029,995.924147
320.123319,-888.247130,-9622.677246,306.438199
320.123647,-1036.288319,-9104.533087,0.000000
320.123975,222.061783,-9326.594869,-229.828649
320.124302,888.247130,-8734.430116,153.219100
320.124630,1850.514855,-8290.306550,612.876398
320.124958,1850.514855,-8660.409521,612.876398
320.125286,1702.473667,-9104.533087,842.705048
320.125613,962.267725,-9252.574275,689.485948
320.125941,-518.144159,-9696.697840,306.438199
320.126269,-666.185348,-9622.677246,536.266849
320.126597,-370.102971,-9474.636058,919.314598
320.126924,222.061783,-9474.636058,766.095498
320.127252,148.041188,-8734.430116,1762.019645
320.127580,296.082377,-9030.512492,1608.800546
320.127908,-370.102971,-9104.533087,919.314598
320.128235,-1184.329507,-8956.491898,459.657299
320.128563,-2072.576638,-8734.430116,-229.828649
320.128891,-2220.617826,-8142.265362,0.000000
320.129219,-1258.350101,-8586.388927,-842.705048
320.129546,-1036.288319,-8438.347739,-689.485948
320.129874,-370.102971,-8290.306550,-153.219100
320.130202,-296.082377,-8290.306550,-229.828649
320.130530,-370.102971,-8364.327145,-229.828649
320.130857,-592.164754,-8512.368333,-383.047749
320.131185,-1184.329507,-9178.553681,-229.828649
320.131513,-1036.288319,-9326.594869,0.000000
320.131841,-222.061783,-9178.553681,459.657299
320.132168,296.082377,-8956.491898,1149.143247
320.132496,962.267725,-8882.471304,1762.019645
320.132824,1110.308913,-9030.512492,1532.190996
320.133152,296.082377,-9252.574275,995.924147
320.133479,0.000000,-9400.615463,612.876398
320.133807,-740.205942,-9400.615463,153.219100
320.134135,-296.082377,-9178.553681,-229.828649
320.134463,-296.082377,-9030.512492,-612.876398
320.134790,444.123565,-8808.450710,-229.828649
320.135118,1332.370696,-8438.347739,76.609550
320.135446,1554.432478,-8142.265362,306.438199
320.135774,1554.432478,-8438.347739,842.705048
320.136101,814.226536,-8882.471304,612.876398
320.136429,74.020594,-9326.594869,459.657299
320.136757,-444.123565,-9622.677246,536.266849
320.137085,-370.102971,-9992.780217,919.314598
320.137412,74.020594,-9548.656652,2374.896044
320.137740,740.205942,-9548.656652,2145.067394
320.138068,222.061783,-9474.636058,2068.457845
320.138396,-148.041188,-9622.677246,1762.019645
320.138724,-1184.329507,-9474.636058,1302.362347
320.139051,-2072.576638,-9178.553681,306.438199
320.139379,-1924.535449,-9030.512492,0.000000
320.139707,-1924.535449,-8586.388927,76.609550
320.140035,-1184.329507,-8586.388927,0.000000
320.140362,-740.205942,-8586.388927,229.828649
320.140690,-518.144159,-8808.450710,689.485948
320.141018,-666.185348,-8882.471304,536.266849
320.141346,-1036.288319,-9104.533087,383.047749
320.141673,-1554.432478,-9474.636058,459.657299
320.142001,-1554.432478,-9548.656652,766.095498
320.142329,-1036.288319,-9474.636058,995.924147
320.142657,-444.123565,-8956.491898,1685.410096
320.142984,296.082377,-9104.533087,2298.286494
320.143312,370.102971,-9400.615463,2068.457845
320.143640,370.102971,-9696.697840,1608.800546
320.143968,-666.185348,-9622.677246,1072.533697
320.144295,-1110.308913,-9252.574275,1225.752797
320.144623,-518.144159,-9474.636058,76.609550
320.144951,-518.144159,-9104.533087,0.000000
320.145279,148.041188,-9104.533087,76.609550
320.145606,1332.370696,-8734.430116,459.657299
320.145934,1850.514855,-8882.471304,689.485948
320.146262,1332.370696,-8734.430116,536.266849
320.146590,740.205942,-9400.615463,383.047749
320.146917,-296.082377,-9696.697840,229.828649
320.147245,-518.144159,-9844.739029,153.219100
320.147573,-222.061783,-9696.697840,612.876398
320.147901,444.123565,-9030.512492,1149.143247
320.148228,740.205942,-9178.553681,1532.190996
320.148556,518.144159,-9326.594869,1685.410096
320.148884,0.000000,-9030.512492,1149.143247
320.149212,-666.185348,-9178.553681,766.095498
320.149539,-1554.432478,-8586.388927,383.047749
320.149867,-2146.597232,-8734.430116,-536.266849
320.150195,-1702.473667,-8734.430116,-842.705048
320.150523,-962.267725,-8586.388927,-919.314598
320.150850,-296.082377,-8512.368333,-536.266849
320.151178,0.000000,-7846.182985,0.000000
320.151506,74.020594,-8364.327145,-459.657299
320.151834,-740.205942,-8660.409521,-459.657299
320.152161,-1036.288319,-9178.553681,-383.047749
320.152489,-1184.329507,-9104.533087,-459.657299
320.152817,-814.226536,-8660.409521,-306.438199
320.153145,296.082377,-8808.450710,689.485948
320.153472,888.247130,-9178.553681,1378.971896
320.153800,1036.288319,-9030.512492,1302.362347
320.154128,518.144159,-9178.553681,1149.143247
320.154456,0.000000,-9474.636058,689.485948
320.154783,-592.164754,-9252.574275,766.095498
320.155111,-962.267725,-9326.594869,-612.876398
320.155439,-518.144159,-9178.553681,-536.266849
320.155767,296.082377,-8882.471304,-229.828649
320.156094,1258.350101,-8512.368333,229.828649
320.156422,2146.597232,-8438.347739,536.266849
320.156750,1628.453072,-8142.265362,459.657299
320.157078,1406.391290,-8734.430116,766.095498
320.157405,148.041188,-9474.636058,536.266849
320.157733,-370.102971,-9548.656652,536.266849
320.158061,-148.041188,-9770.718434,842.705048
320.158389,0.000000,-9252.574275,995.924147
320.158716,370.102971,-9622.677246,2145.067394
320.159044,148.041188,-9474.636058,2221.676944
320.159372,-296.082377,-9400.615463,2145.067394
320.159700,-1110.308913,-9474.636058,1532.190996
320.160028,-1850.514855,-9030.512492,612.876398
320.160355,-2590.720797,-9178.553681,153.219100
320.160683,-2146.597232,-9104.533087,0.000000
320.161011,-1628.453072,-8808.450710,0.000000
320.161339,-740.205942,-8512.368333,0.000000
320.161666,-148.041188,-8290.306550,612.876398
320.161994,-444.123565,-8808.450710,229.828649
320.162322,-962.267725,-8808.450710,383.047749
320.162650,-1184.329507,-9326.594869,459.657299
320.162977,-1406.391290,-9548.656652,459.657299
320.163305,-814.226536,-9548.656652,689.485948
320.163633,-148.041188,-9474.636058,1225.752797
320.163961,518.144159,-9474.636058,1838.629195
320.164288,296.082377,-9474.636058,2221.676944
320.164616,296.082377,-9696.697840,2068.457845
320.164944,-222.061783,-9770.718434,1915.238745
320.165272,-888.247130,-9770.718434,612.876398
320.165599,-888.247130,-9622.677246,153.219100
320.165927,-666.185348,-9252.574275,-306.438199
320.166255,222.061783,-8956.491898,-306.438199
320.166583,1110.308913,-8808.450710,306.438199
320.166910,1924.535449,-8586.388927,306.438199
320.167238,1480.411884,-8808.450710,612.876398
320.167566,666.185348,-8956.491898,536.266849
320.167894,-148.041188,-9474.636058,306.438199
320.168221,-740.205942,-9622.677246,76.609550
320.168549,-814.226536,-9474.636058,0.000000
320.168877,0.000000,-9030.512492,1225.752797
320.169205,370.102971,-9030.512492,1455.581446
320.169532,296.082377,-9030.512492,1685.410096
320.169860,0.000000,-9030.512492,1532.190996
320.170188,-814.226536,-8956.491898,1072.533697
320.170516,-1554.432478,-9030.512492,383.047749
320.170843,-1850.514855,-8882.471304,-383.047749
320.171171,-1628.453072,-8586.388927,-689.485948
320.171499,-1110.308913,-8586.388927,-612.876398
320.171827,-222.061783,-7994.224174,0.000000
320.172154,296.082377,-8142.265362,0.000000
320.172482,0.000000,-8512.368333,0.000000
320.172810,-370.102971,-8882.471304,0.000000
320.173138,-962.267725,-9252.574275,-153.219100
320.173465,-1110.308913,-9326.594869,0.000000
320.173793,-518.144159,-8734.430116,306.438199
320.174121,0.000000,-9326.594869,995.924147
320.174449,666.185348,-8882.471304,1302.362347
320.174776,814.226536,-8956.491898,1685.410096
320.175104,814.226536,-9104.533087,1532.190996
320.175432,370.102971,-9178.553681,1072.533697
320.175760,-814.226536,-9252.574275,306.438199
320.176087,-888.247130,-9104.533087,0.000000
320.176415,-814.226536,-8734.430116,-229.828649
320.176743,-370.102971,-8660.409521,-383.047749
320.177071,962.267725,-8660.409521,0.000000
320.177398,1332.370696,-8142.265362,459.657299
320.177726,1480.411884,-8142.265362,459.657299
320.178054,962.267725,-8512.368333,689.485948
320.178381,222.061783,-9474.636058,459.657299
320.178709,-666.185348,-9400.615463,0.000000
320.179037,-518.144159,-9474.636058,1225.752797
320.179364,-370.102971,-9252.574275,1378.971896
320.179692,148.041188,-9548.656652,1838.629195
320.180019,148.041188,-9474.636058,2221.676944
320.180347,74.020594,-9474.636058,2068.457845
320.180675,-518.144159,-9104.533087,2374.896044
320.181002,-1480.411884,-9178.553681,766.095498
320.181330,-2220.617826,-9474.636058,383.047749
320.181658,-1776.494261,-9178.553681,153.219100
320.181985,-1480.411884,-8956.491898,0.000000
320.182313,-962.267725,-8290.306550,0.000000
320.182640,-296.082377,-8290.306550,459.657299
320.182968,-222.061783,-8808.450710,459.657299
320.183296,-740.205942,-9030.512492,459.657299
320.183623,-1258.350101,-9104.533087,229.828649
320.183951,-888.247130,-9326.594869,536.266849
320.184279,-1110.308913,-8956.491898,536.266849
320.184606,-370.102971,-9622.677246,766.095498
320.184934,0.000000,-9474.636058,1378.971896
320.185262,592.164754,-9178.553681,1915.238745
320.185589,740.205942,-9622.677246,1762.019645
320.185917,296.082377,-9770.718434,1149.143247
320.186244,-888.247130,-9918.759623,459.657299
320.186572,-1110.308913,-9252.574275,153.219100
320.186900,-962.267725,-9696.697840,-306.438199
320.187227,-148.041188,-9030.512492,-229.828649
320.187555,740.205942,-9178.553681,383.047749
320.187883,1406.391290,-8438.347739,383.047749
320.188210,1258.350101,-9030.512492,766.095498
320.188538,1110.308913,-9178.553681,766.095498
320.188866,296.082377,-8882.471304,383.047749
320.189193,-148.041188,-9474.636058,689.485948
320.189521,-1184.329507,-9178.553681,459.657299
320.189848,-666.185348,-9474.636058,766.095498
320.190176,296.082377,-9030.512492,1455.581446
320.190504,296.082377,-9400.615463,1455.581446
320.190831,592.164754,-9326.594869,1915.238745
320.191159,-370.102971,-9252.574275,1225.752797
320.191487,-1628.453072,-8956.491898,536.266849
320.191814,-1998.556043,-9104.533087,0.000000
320.192142,-1924.535449,-8734.430116,-536.266849
320.192470,-1406.391290,-8364.327145,0.000000
320.192797,-962.267725,-7846.182985,-612.876398
320.193125,-592.164754,-8216.285956,-306.438199
320.193452,74.020594,-8660.409521,0.000000
320.193780,0.000000,-8512.368333,0.000000
320.194108,-962.267725,-9030.512492,-383.047749
320.194435,-592.164754,-9474.636058,-229.828649
320.194763,-518.144159,-9696.697840,0.000000
320.195091,-666.185348,-9030.512492,383.047749
320.195418,740.205942,-8956.491898,1378.971896
320.195746,962.267725,-9252.574275,1608.800546
320.196074,1332.370696,-9178.553681,1762.019645
320.196401,222.061783,-9030.512492,1608.800546
320.196729,-222.061783,-9474.636058,995.924147
320.197056,-1110.308913,-9474.636058,153.219100
320.197384,-1036.288319,-9326.594869,0.000000
320.197712,-814.226536,-8512.368333,0.000000
320.198039,444.123565,-8660.409521,0.000000
320.198367,1258.350101,-8438.347739,383.047749
320.198695,1628.453072,-8216.285956,383.047749
320.199022,1406.391290,-8512.368333,536.266849
320.199350,666.185348,-8956.491898,689.485948
320.199678,0.000000,-8956.491898,919.314598
320.200005,-592.164754,-9770.718434,383.047749
320.200333,-370.102971,-9326.594869,995.924147
320.200660,296.082377,-9400.615463,1608.800546
320.200988,592.164754,-9474.636058,2145.067394
320.201316,296.082377,-9770.718434,1915.238745
320.201643,-518.144159,-9474.636058,1149.143247
320.201971,-1258.350101,-9622.677246,1302.362347
320.202299,-1702.473667,-9252.574275,306.438199
320.202626,-2516.700203,-9326.594869,-383.047749
320.202954,-1554.432478,-9030.512492,-459.657299
320.203282,-1184.329507,-8882.471304,229.828649
320.203609,-444.123565,-8438.347739,76.609550
320.203937,-296.082377,-8438.347739,153.219100
320.204264,-592.164754,-8660.409521,0.000000
320.204592,-962.267725,-9548.656652,0.000000
320.204920,-1184.329507,-9104.533087,153.219100
320.205247,-1554.432478,-9474.636058,76.609550
320.205575,-592.164754,-9474.636058,459.657299
320.205903,148.041188,-9474.636058,1302.362347
320.206230,592.164754,-9400.615463,1762.019645
320.206558,740.205942,-9326.594869,1991.848295
320.206885,518.144159,-9622.677246,1455.581446
320.207213,-148.041188,-9696.697840,1149.143247
320.207541,-1036.288319,-9474.636058,229.828649
320.207868,-888.247130,-9252.574275,0.000000
320.208196,-222.061783,-8734.430116,306.438199
320.208524,1258.350101,-8438.347739,0.000000
320.208851,1480.411884,-8438.347739,153.219100
320.209179,1628.453072,-8512.368333,459.657299
320.209507,1332.370696,-8660.409521,689.485948
320.209834,592.164754,-9030.512492,536.266849
320.210162,-74.020594,-9548.656652,612.876398
320.210489,-740.205942,-9622.677246,306.438199
320.210817,-666.185348,-9474.636058,536.266849
320.211145,-148.041188,-9474.636058,1225.752797
320.211472,296.082377,-9474.636058,1762.019645
320.211800,370.102971,-8882.471304,1608.800546
320.212128,-592.164754,-9326.594869,1532.190996
320.212455,-1258.350101,-9400.615463,842.705048
320.212783,-2146.597232,-9178.553681,76.609550
320.213111,-2072.576638,-8882.471304,-612.876398
320.213438,-1628.453072,-8216.285956,153.219100
320.213766,-814.226536,-8364.327145,-689.485948
320.214093,-370.102971,-7994.224174,-229.828649
320.214421,0.000000,-8216.285956,-229.828649
320.214749,-148.041188,-8586.388927,0.000000
320.215076,-592.164754,-8956.491898,-229.828649
320.215404,-518.144159,-9326.594869,0.000000
320.215732,-888.247130,-9252.574275,153.219100
320.216059,-222.061783,-9400.615463,612.876398
320.216387,296.082377,-9400.615463,919.314598
320.216715,740.205942,-8734.430116,1302.362347
320.217042,1184.329507,-9474.636058,1838.629195
320.217370,444.123565,-9622.677246,1532.190996
320.217697,-296.082377,-9474.636058,842.705048
320.218025,-740.205942,-9548.656652,0.000000
320.218353,-1110.308913,-9474.636058,-459.657299
320.218680,-592.164754,-9178.553681,-153.219100
320.219008,148.041188,-8734.430116,-459.657299
320.219336,740.205942,-8660.409521,0.000000
320.219663,1480.411884,-8438.347739,306.438199
320.219991,1332.370696,-8438.347739,153.219100
320.220319,592.164754,-8808.450710,153.219100
320.220646,74.020594,-9400.615463,383.047749
320.220974,-666.185348,-9622.677246,306.438199
320.221301,-666.185348,-9622.677246,612.876398
320.221629,148.041188,-9474.636058,1225.752797
320.221957,370.102971,-9400.615463,1685.410096
320.222284,1110.308913,-9400.615463,1991.848295
320.222612,0.000000,-9474.636058,1608.800546
320.222940,-962.267725,-9696.697840,1149.143247
320.223267,-1776.494261,-9622.677246,306.438199
320.223595,-1924.535449,-9030.512492,0.000000
320.223923,-1480.411884,-8882.471304,76.609550
320.224250,-1184.329507,-8956.491898,-383.047749
320.224578,-666.185348,-8586.388927,0.000000
320.224905,0.000000,-8586.388927,153.219100
320.225233,-222.061783,-8734.430116,459.657299
320.225561,-518.144159,-8734.430116,76.609550
320.225888,-1258.350101,-9252.574275,383.047749
320.226216,-1406.391290,-9474.636058,0.000000
320.226544,-1184.329507,-9400.615463,612.876398
320.226871,-222.061783,-9178.553681,1302.362347
320.227199,518.144159,-9326.594869,1532.190996
320.227526,370.102971,-9474.636058,2068.457845
320.227854,74.020594,-9400.615463,1838.629195
320.228182,-666.185348,-9400.615463,919.314598
320.228509,-1184.329507,-9474.636058,536.266849
320.228837,-666.185348,-9030.512492,0.000000
320.229165,-888.247130,-8956.491898,229.828649
320.229492,370.102971,-8438.347739,76.609550
320.229820,962.267725,-8660.409521,536.266849
320.230148,1480.411884,-8438.347739,842.705048
320.230475,1406.391290,-8882.471304,919.314598
320.230803,888.247130,-9474.636058,612.876398
320.231130,0.000000,-9548.656652,612.876398
320.231458,-592.164754,-9622.677246,536.266849
320.231786,-518.144159,-9474.636058,766.095498
320.232113,-148.041188,-9326.594869,1608.800546
320.232441,222.061783,-8882.471304,2221.676944
320.232769,0.000000,-9104.533087,1915.238745
320.233096,-222.061783,-9104.533087,1838.629195
320.233424,-1036.288319,-8956.491898,995.924147
320.233752,-2072.576638,-8956.491898,229.828649
320.234079,-1998.556043,-8216.285956,76.609550
320.234407,-1924.535449,-7994.224174,0.000000
320.234734,-1184.329507,-8142.265362,-229.828649
320.235062,-666.185348,-7994.224174,0.000000
320.235390,-222.061783,-8068.244768,459.657299
320.235717,-296.082377,-8364.327145,536.266849
320.236045,-740.205942,-8660.409521,229.828649
320.236373,-1184.329507,-9252.574275,76.609550
320.236700,-1480.411884,-9030.512492,0.000000
320.237028,-1110.308913,-9474.636058,536.266849
320.237356,-370.102971,-9474.636058,1225.752797
320.237683,222.061783,-8956.491898,2221.676944
320.238011,666.185348,-9178.553681,1225.752797
320.238338,592.164754,-9400.615463,1302.362347
320.238666,0.000000,-9548.656652,766.095498
320.238994,-814.226536,-9548.656652,0.000000
320.239321,-814.226536,-9474.636058,0.000000
320.239649,-370.102971,-9104.533087,-536.266849
320.239977,148.041188,-8882.471304,-459.657299
320.240304,1036.288319,-8734.430116,0.000000
320.240632,1480.411884,-8512.368333,76.609550
320.240960,1998.556043,-8586.388927,0.000000
320.241287,1406.391290,-8956.491898,229.828649
320.241615,370.102971,-9400.615463,306.438199
320.241942,0.000000,-9474.636058,306.438199
320.242270,-148.041188,-9696.697840,459.657299
320.242598,148.041188,-9252.574275,1072.533697
320.242925,444.123565,-9474.636058,1915.238745
320.243253,740.205942,-9474.636058,1915.238745
320.243581,370.102971,-9474.636058,1991.848295
320.243908,-444.123565,-9400.615463,995.924147
320.244236,-1406.391290,-9622.677246,919.314598
320.244564,-2368.659014,-9474.636058,0.000000
320.244891,-2072.576638,-9178.553681,-459.657299
320.245219,-1628.453072,-9104.533087,-383.047749
320.245546,-1110.308913,-8734.430116,-229.828649
320.245874,-444.123565,-8808.450710,153.219100
320.246202,-444.123565,-8216.285956,0.000000
320.246529,-740.205942,-8586.388927,153.219100
320.246857,-1258.350101,-9030.512492,459.657299
320.247185,-1480.411884,-9400.615463,229.828649
320.247512,-888.247130,-9474.636058,689.485948
320.247840,-444.123565,-9030.512492,1302.362347
320.248168,518.144159,-8882.471304,1608.800546
320.248495,666.185348,-9178.553681,2374.896044
320.248823,296.082377,-9252.574275,1915.238745
320.249150,-296.082377,-9400.615463,1608.800546
320.249478,-592.164754,-9474.636058,1608.800546
320.249806,-962.267725,-9400.615463,919.314598
320.250133,-814.226536,-9178.553681,0.000000
320.250461,-296.082377,-9178.553681,153.219100
320.250789,518.144159,-8882.471304,306.438199
320.251116,1406.391290,-8438.347739,842.705048
320.251444,1110.308913,-8216.285956,689.485948
320.251771,740.205942,-8808.450710,766.095498
320.252099,0.000000,-9400.615463,459.657299
320.252427,-888.247130,-9474.636058,383.047749
320.252754,-666.185348,-9400.615463,689.485948
320.253082,-370.102971,-9474.636058,1072.533697
320.253410,222.061783,-9252.574275,1608.800546
320.253737,222.061783,-9030.512492,2068.457845
320.254065,0.000000,-9104.533087,1685.410096
320.254393,-592.164754,-9252.574275,1149.143247
320.254720,-1406.391290,-9178.553681,612.876398
320.255048,-1776.494261,-9178.553681,0.000000
320.255375,-2072.576638,-8438.347739,-612.876398
320.255703,-1110.308913,-8438.347739,-306.438199
320.256031,-370.102971,-8290.306550,0.000000
320.256358,0.000000,-8216.285956,153.219100
320.256686,148.041188,-8290.306550,153.219100
320.257014,0.000000,-8808.450710,0.000000
320.257341,-740.205942,-9326.594869,-229.828649
320.257669,-1036.288319,-9474.636058,0.000000
320.257997,-814.226536,-9400.615463,153.219100
320.258324,0.000000,-9178.553681,612.876398
320.258652,814.226536,-9326.594869,1149.143247
320.258979,814.226536,-9474.636058,1608.800546
320.259307,814.226536,-9474.636058,1455.581446
320.259635,148.041188,-9474.636058,1072.533697
320.259962,-666.185348,-9918.759623,306.438199
320.260290,-1036.288319,-9844.739029,-306.438199
320.260618,-592.164754,-9400.615463,-459.657299
320.260945,-296.082377,-8808.450710,-612.876398
320.261273,518.144159,-8660.409521,-383.047749
320.261601,1184.329507,-8364.327145,229.828649
320.261928,1702.473667,-8142.265362,689.485948
320.262256,1110.308913,-8586.388927,383.047749
320.262583,592.164754,-9252.574275,459.657299
320.262911,-370.102971,-9474.636058,306.438199
320.263239,-296.082377,-9844.739029,153.219100
320.263566,0.000000,-9474.636058,1149.143247
320.263894,222.061783,-9474.636058,1915.238745
320.264222,592.164754,-9622.677246,2374.896044
320.264549,74.020594,-9622.677246,2145.067394
320.264877,-740.205942,-9548.656652,1455.581446
320.265205,-1258.350101,-9252.574275,995.924147
320.265532,-2072.576638,-9474.636058,153.219100
320.265860,-2368.659014,-9326.594869,-383.047749
320.266187,-1850.514855,-9030.512492,-229.828649
320.266515,-1184.329507,-8734.430116,-612.876398
320.266843,-148.041188,-8290.306550,229.828649
320.267170,-296.082377,-8660.409521,76.609550
320.267498,-592.164754,-8808.450710,229.828649
320.267826,-1332.370696,-9030.512492,0.000000
320.268153,-1406.391290,-9326.594869,0.000000
320.268481,-1184.329507,-9252.574275,383.047749
320.268809,-666.185348,-9104.533087,612.876398
320.269136,148.041188,-9548.656652,1378.971896
320.269464,444.123565,-9178.553681,1838.629195
320.269791,666.185348,-9474.636058,1685.410096
320.270119,222.061783,-8956.491898,1302.362347
320.270447,-296.082377,-9326.594869,612.876398
320.270774,-1184.329507,-9474.636058,0.000000
320.271102,-740.205942,-9400.615463,-306.438199
320.271430,0.000000,-9104.533087,-383.047749
320.271757,814.226536,-9178.553681,-383.047749
320.272085,1332.370696,-8068.244768,153.219100
320.272412,1554.432478,-8660.409521,229.828649
320.272740,1258.350101,-8734.430116,459.657299
320.273068,444.123565,-9252.574275,306.438199
320.273395,-296.082377,-9400.615463,383.047749
320.273723,-592.164754,-9400.615463,842.705048
320.274051,0.000000,-9252.574275,689.485948
320.274378,296.082377,-9400.615463,1225.752797
320.274706,518.144159,-9400.615463,1762.019645
320.275034,592.164754,-9326.594869,1685.410096
320.275361,-518.144159,-9252.574275,1838.629195
320.275689,-962.267725,-9104.533087,919.314598
320.276016,-1628.453072,-8882.471304,153.219100
320.276344,-1628.453072,-8438.347739,-153.219100
320.276672,-1332.370696,-8512.368333,-383.047749
320.276999,-666.185348,-8068.244768,76.609550
320.277327,0.000000,-7920.203579,0.000000
320.277655,74.020594,-8364.327145,0.000000
320.277982,-296.082377,-8882.471304,229.828649
320.278310,-962.267725,-9178.553681,0.000000
320.278638,-1036.288319,-9696.697840,0.000000
320.278965,-1036.288319,-9252.574275,536.266849
320.279293,-666.185348,-9326.594869,766.095498
320.279620,0.000000,-9252.574275,1302.362347
320.279948,444.123565,-9104.533087,1762.019645
320.280276,444.123565,-9326.594869,1838.629195
320.280603,0.000000,-8956.491898,2068.457845
320.280931,-962.267725,-9252.574275,995.924147
320.281259,-1776.494261,-9474.636058,536.266849
320.281586,-1332.370696,-9178.553681,-383.047749
320.281914,-740.205942,-9030.512492,-383.047749
320.282242,222.061783,-8586.388927,229.828649
320.282569,1332.370696,-8290.306550,0.000000
320.282897,1332.370696,-8438.347739,459.657299
320.283225,1258.350101,-8734.430116,766.095498
320.283552,444.123565,-8882.471304,536.266849
320.283880,-296.082377,-9252.574275,1302.362347
320.284208,-888.247130,-9548.656652,1072.533697
320.284535,-148.041188,-9844.739029,1072.533697
320.284863,0.000000,-9178.553681,1762.019645
320.285190,444.123565,-9400.615463,1762.019645
320.285518,592.164754,-9474.636058,1991.848295
320.285846,222.061783,-9252.574275,1915.238745
320.286173,-666.185348,-9548.656652,1072.533697
320.286501,-1702.473667,-9548.656652,306.438199
320.286829,-1702.473667,-9326.594869,-153.219100
320.287156,-1776.494261,-9104.533087,-383.047749
320.287484,-888.247130,-8882.471304,0.000000
320.287812,-518.144159,-8586.388927,229.828649
320.288139,-370.102971,-8512.368333,153.219100
320.288467,-518.144159,-8512.368333,153.219100
320.288795,-592.164754,-9104.533087,0.000000
320.289122,-962.267725,-9474.636058,0.000000
320.289450,-1110.308913,-9326.594869,0.000000
320.289777,-962.267725,-9474.636058,536.266849
320.290105,-370.102971,-9474.636058,995.924147
320.290433,370.102971,-9326.594869,1608.800546
320.290760,962.267725,-9104.533087,1762.019645
320.291088,518.144159,-8956.491898,1225.752797
320.291416,0.000000,-9474.636058,919.314598
320.291743,-666.185348,-9622.677246,306.438199
320.292071,-740.205942,-9326.594869,-229.828649
320.292399,-592.164754,-8956.491898,-383.047749
320.292726,-296.082377,-8438.347739,-306.438199
320.293054,962.267725,-9030.512492,0.000000
320.293382,1184.329507,-8734.430116,306.438199
320.293709,1036.288319,-8586.388927,536.266849
320.294037,888.247130,-9030.512492,306.438199
320.294365,148.041188,-9474.636058,383.047749
320.294692,-222.061783,-9474.636058,153.219100
320.295020,-592.164754,-9252.574275,689.485948
320.295347,0.000000,-9104.533087,995.924147
320.295675,444.123565,-9030.512492,1685.410096
320.296003,666.185348,-8734.430116,2068.457845
320.296330,148.041188,-9252.574275,1915.238745
320.296658,-666.185348,-9104.533087,1149.143247
320.296986,-1628.453072,-8882.471304,153.219100
320.297313,-1628.453072,-8512.368333,-153.219100
320.297641,-1628.453072,-8660.409521,-229.828649
320.297969,-518.144159,-8660.409521,0.000000
320.298296,-296.082377,-8068.244768,-153.219100
320.298624,0.000000,-8142.265362,0.000000
320.298952,-148.041188,-8512.368333,229.828649
320.299279,-666.185348,-9178.553681,0.000000
320.299607,-1036.288319,-9474.636058,0.000000
320.299934,-1258.350101,-9252.574275,383.047749
320.300262,-740.205942,-9326.594869,459.657299
320.300590,0.000000,-9178.553681,1072.533697
320.300917,222.061783,-9030.512492,1532.190996
320.301245,518.144159,-9252.574275,1915.238745
320.301573,444.123565,-8882.471304,1302.362347
320.301900,-222.061783,-9400.615463,995.924147
320.302228,-1554.432478,-9400.615463,306.438199
320.302556,-1332.370696,-9178.553681,-153.219100
320.302883,-592.164754,-8734.430116,229.828649
320.303211,0.000000,-8290.306550,-383.047749
320.303539,888.247130,-8512.368333,0.000000
320.303866,1702.473667,-8586.388927,306.438199
320.304194,1554.432478,-8586.388927,536.266849
320.304522,888.247130,-9104.533087,536.266849
320.304849,148.041188,-9474.636058,153.219100
320.305177,-444.123565,-9918.759623,689.485948
320.305504,-296.082377,-9844.739029,919.314598
320.305832,0.000000,-9622.677246,1149.143247
320.306160,296.082377,-9548.656652,1762.019645
320.306487,666.185348,-9400.615463,1685.410096
320.306815,74.020594,-9400.615463,1532.190996
320.307143,-592.164754,-9548.656652,842.705048
320.307470,-1628.453072,-9474.636058,306.438199
320.307798,-2072.576638,-9474.636058,0.000000
320.308126,-1776.494261,-9400.615463,-919.314598
320.308453,-1554.432478,-8734.430116,-995.924147
320.308781,-740.205942,-8882.471304,0.000000
320.309109,-370.102971,-8512.368333,153.219100
320.309436,-370.102971,-8586.388927,306.438199
320.309764,-666.185348,-8956.491898,383.047749
320.310091,-1332.370696,-8882.471304,76.609550
320.310419,-1480.411884,-9474.636058,-153.219100
320.310747,-1036.288319,-9474.636058,229.828649
320.311074,-296.082377,-9252.574275,919.314598
320.311402,222.061783,-9030.512492,1455.581446
320.311730,592.164754,-8882.471304,2145.067394
320.312057,666.185348,-9252.574275,1608.800546
320.312385,0.000000,-9474.636058,995.924147
320.312713,-740.205942,-9622.677246,536.266849
320.313040,-1110.308913,-9252.574275,0.000000
320.313368,-518.144159,-9178.553681,-229.828649
320.313696,0.000000,-8512.368333,-689.485948
320.314023,740.205942,-8882.471304,76.609550
320.314351,1258.350101,-8512.368333,306.438199
320.314679,1628.453072,-8734.430116,536.266849
320.315006,1332.370696,-8882.471304,842.705048
320.315334,0.000000,-9252.574275,459.657299
320.315661,-592.164754,-9400.615463,383.047749
320.315989,-370.102971,-9400.615463,842.705048
320.316317,0.000000,-9030.512492,1072.533697
320.316644,518.144159,-8956.491898,1991.848295
320.316972,666.185348,-8734.430116,2451.505594
320.317300,0.000000,-9030.512492,1838.629195
320.317627,-592.164754,-9178.553681,1378.971896
320.317955,-1406.391290,-9178.553681,383.047749
320.318283,-1776.494261,-9030.512492,-153.219100
320.318610,-1110.308913,-8660.409521,0.000000
320.318938,-1036.288319,-8660.409521,0.000000
320.319266,-296.082377,-8586.388927,76.609550
320.319593,74.020594,-8438.347739,459.657299
320.319921,-222.061783,-8586.388927,459.657299
320.320248,-518.144159,-8660.409521,536.266849
320.320576,-1110.308913,-8882.471304,153.219100
320.320904,-1480.411884,-9400.615463,459.657299
320.321231,-1036.288319,-9400.615463,459.657299
320.321559,-222.061783,-9104.533087,995.924147
320.321887,444.123565,-8956.491898,1762.019645
320.322214,740.205942,-8808.450710,1991.848295
320.322542,222.061783,-9252.574275,1838.629195
320.322870,-444.123565,-9474.636058,1149.143247
320.323197,-1258.350101,-9474.636058,612.876398
320.323525,-1480.411884,-9252.574275,-229.828649
320.323853,-1036.288319,-8512.368333,-995.924147
320.324180,0.000000,-8734.430116,-229.828649
320.324508,518.144159,-8734.430116,0.000000
320.324836,1406.391290,-8586.388927,459.657299
320.325163,1776.494261,-8586.388927,689.485948
320.325491,1480.411884,-9104.533087,842.705048
320.325818,0.000000,-9252.574275,383.047749
320.326146,-592.164754,-9696.697840,153.219100
320.326474,-296.082377,-9770.718434,1072.533697
320.326801,74.020594,-9400.615463,1378.971896
320.327129,518.144159,-9622.677246,2451.505594
320.327457,1036.288319,-9326.594869,2145.067394
320.327784,222.061783,-9474.636058,1838.629195
320.328112,-740.205942,-9178.553681,1149.143247
320.328440,-1332.370696,-9548.656652,612.876398
320.328767,-2146.597232,-9104.533087,0.000000
320.329095,-2146.597232,-9104.533087,-383.047749
320.329423,-1332.370696,-8660.409521,-536.266849
320.329750,-666.185348,-8660.409521,-383.047749
320.330078,-296.082377,-8512.368333,76.609550
320.330405,-222.061783,-8512.368333,229.828649
320.330733,-666.185348,-8438.347739,0.000000
320.331061,-1184.329507,-9178.553681,0.000000
320.331388,-1480.411884,-9400.615463,-383.047749
320.331716,-1480.411884,-9252.574275,76.609550
320.332044,-814.226536,-9030.512492,459.657299
320.332371,74.020594,-8956.491898,536.266849
320.332699,666.185348,-9030.512492,1302.362347
320.333027,592.164754,-9400.615463,1225.752797
320.333354,74.020594,-9326.594869,1149.143247
320.333682,-518.144159,-9474.636058,459.657299
320.334010,-888.247130,-9548.656652,0.000000
320.334337,-740.205942,-9326.594869,-306.438199
320.334665,-148.041188,-9030.512492,-459.657299
320.334993,518.144159,-8956.491898,0.000000
320.335320,1258.350101,-8586.388927,229.828649
320.335648,1776.494261,-8808.450710,153.219100
320.335975,1184.329507,-8808.450710,536.266849
320.336303,444.123565,-9252.574275,0.000000
320.336631,-148.041188,-9252.574275,0.000000
320.336958,-148.041188,-9104.533087,459.657299
320.337286,0.000000,-9400.615463,842.705048
320.337614,592.164754,-9030.512492,1532.190996
320.337941,740.205942,-9030.512492,1838.629195
320.338269,444.123565,-8956.491898,2068.457845
320.338597,-296.082377,-9178.553681,1455.581446
320.338924,-1184.329507,-9326.594869,842.705048
320.339252,-1554.432478,-9474.636058,612.876398
320.339580,-1258.350101,-8956.491898,76.609550
320.339907,-1184.329507,-8586.388927,0.000000
320.340235,-370.102971,-8734.430116,0.000000
320.340562,-222.061783,-8586.388927,383.047749
320.340890,-148.041188,-8438.347739,536.266849
320.341218,-518.144159,-8586.388927,383.047749
320.341545,-1554.432478,-8956.491898,0.000000
320.341873,-1776.494261,-9326.594869,229.828649
320.342201,-1554.432478,-9474.636058,459.657299
320.342528,-962.267725,-8956.491898,995.924147
320.342856,-444.123565,-8808.450710,1378.971896
320.343184,0.000000,-9104.533087,1991.848295
320.343511,0.000000,-9474.636058,1532.190996
320.343839,-518.144159,-9252.574275,1302.362347
320.344167,-1184.329507,-9474.636058,612.876398
320.344494,-1184.329507,-9474.636058,306.438199
320.344822,-1332.370696,-9474.636058,-459.657299
320.345150,-740.205942,-8956.491898,0.000000
320.345477,370.102971,-8882.471304,0.000000
320.345805,1480.411884,-8808.450710,383.047749
320.346132,1850.514855,-8364.327145,689.485948
320.346460,1628.453072,-8882.471304,919.314598
320.346788,740.205942,-9400.615463,689.485948
320.347115,0.000000,-9474.636058,459.657299
320.347443,0.000000,-9992.780217,766.095498
320.347771,370.102971,-9770.718434,1455.581446
320.348098,814.226536,-9252.574275,1838.629195
320.348426,740.205942,-9770.718434,2068.457845
320.348754,518.144159,-10140.821405,2374.896044
320.349081,-222.061783,-9474.636058,1762.019645
320.349409,-592.164754,-9770.718434,766.095498
320.349737,-1554.432478,-9400.615463,-229.828649
320.350064,-2072.576638,-9178.553681,0.000000
320.350392,-1776.494261,-9030.512492,-383.047749
320.350719,-1332.370696,-8438.347739,-459.657299
320.351047,-962.267725,-7994.224174,-229.828649
320.351375,-592.164754,-8512.368333,0.000000
320.351702,-740.205942,-8216.285956,-229.828649
320.352030,-1406.391290,-9252.574275,-229.828649
320.352358,-1850.514855,-9104.533087,0.000000
320.352685,-1776.494261,-8956.491898,0.000000
320.353013,-740.205942,-9030.512492,689.485948
320.353341,-296.082377,-8956.491898,536.266849
320.353668,592.164754,-9400.615463,1378.971896
320.353996,814.226536,-9104.533087,1455.581446
320.354324,518.144159,-9030.512492,1455.581446
320.354651,0.000000,-9474.636058,766.095498
320.354979,-222.061783,-9474.636058,383.047749
320.355306,-592.164754,-9474.636058,0.000000
320.355634,0.000000,-9326.594869,-306.438199
320.355962,740.205942,-9104.533087,0.000000
320.356289,1036.288319,-8586.388927,459.657299
320.356617,1776.494261,-8216.285956,383.047749
320.356945,1924.535449,-8512.368333,306.438199
320.357272,666.185348,-8882.471304,229.828649
320.357600,296.082377,-9400.615463,306.438199
320.357928,-222.061783,-9622.677246,153.219100
320.358255,0.000000,-9030.512492,536.266849
320.358583,592.164754,-9252.574275,1149.143247
320.358911,518.144159,-9030.512492,1685.410096
320.359238,296.082377,-9104.533087,1991.848295
320.359566,-370.102971,-9252.574275,1762.019645
320.359894,-1110.308913,-9178.553681,1072.533697
320.360221,-1850.514855,-9030.512492,612.876398
320.360549,-1924.535449,-8808.450710,0.000000
320.360876,-1702.473667,-8956.491898,-153.219100
320.361204,-1036.288319,-8438.347739,-306.438199
320.361532,-148.041188,-8364.327145,0.000000
320.361859,-222.061783,-7920.203579,153.219100
320.362187,-592.164754,-8512.368333,0.000000
320.362515,-1110.308913,-9178.553681,0.000000
320.362842,-1406.391290,-9474.636058,76.609550
320.363170,-1406.391290,-9622.677246,459.657299
320.363498,-1184.329507,-9178.553681,1302.362347
320.363825,-148.041188,-9326.594869,1455.581446
320.364153,296.082377,-9326.594869,1762.019645
320.364481,296.082377,-9474.636058,1762.019645
320.364808,0.000000,-9770.718434,1762.019645
320.365136,-444.123565,-9326.594869,1378.971896
320.365463,-1184.329507,-9400.615463,229.828649
320.365791,-1184.329507,-9326.594869,-229.828649
320.366119,-370.102971,-9030.512492,0.000000
320.366446,740.205942,-8734.430116,0.000000
320.366774,1480.411884,-8660.409521,612.876398
320.367102,1702.473667,-7994.224174,919.314598
320.367429,1406.391290,-8734.430116,919.314598
320.367757,740.205942,-9178.553681,689.485948
320.368085,74.020594,-9696.697840,766.095498
320.368412,-370.102971,-9696.697840,842.705048
320.368740,0.000000,-9548.656652,919.314598
320.369068,148.041188,-9548.656652,1685.410096
320.369395,296.082377,-9400.615463,2298.286494
320.369723,222.061783,-9474.636058,1991.848295
320.370051,-222.061783,-9326.594869,1608.800546
320.370378,-1332.370696,-9252.574275,1302.362347
320.370706,-1998.556043,-9252.574275,76.609550
320.371033,-2368.659014,-9030.512492,-459.657299
320.371361,-2368.659014,-8586.388927,-689.485948
320.371689,-1258.350101,-8438.347739,-536.266849
320.372016,-1036.288319,-8364.327145,-459.657299
320.372344,-740.205942,-8142.265362,-383.047749
320.372672,-740.205942,-8512.368333,-153.219100
320.372999,-1332.370696,-8586.388927,-383.047749
320.373327,-1406.391290,-9178.553681,-306.438199
320.373655,-1258.350101,-9104.533087,-153.219100
320.373982,-740.205942,-9178.553681,153.219100
320.374310,0.000000,-9030.512492,536.266849
320.374638,962.267725,-9030.512492,1455.581446
320.374965,1406.391290,-9178.553681,1455.581446
320.375293,1110.308913,-9178.553681,995.924147
320.375620,518.144159,-9474.636058,383.047749
320.375948,-444.123565,-9474.636058,0.000000
320.376276,-296.082377,-9622.677246,-459.657299
320.376603,-148.041188,-9474.636058,-612.876398
320.376931,444.123565,-9104.533087,-842.705048
320.377259,444.123565,-8660.409521,0.000000
320.377586,1850.514855,-8438.347739,0.000000
320.377914,1628.453072,-8808.450710,229.828649
320.378242,1258.350101,-9252.574275,0.000000
320.378569,148.041188,-9252.574275,76.609550
320.378897,-370.102971,-9326.594869,229.828649
320.379224,-444.123565,-9474.636058,536.266849
320.379552,0.000000,-9474.636058,1455.581446
320.379880,666.185348,-9030.512492,1455.581446
320.380207,296.082377,-9030.512492,1608.800546
320.380535,74.020594,-9104.533087,2298.286494
320.380862,-888.247130,-8956.491898,842.705048
320.381190,-1628.453072,-9104.533087,459.657299
320.381518,-1998.556043,-8882.471304,0.000000
320.381845,-1628.453072,-8660.409521,76.609550
320.382173,-1184.329507,-8734.430116,229.828649
320.382500,-740.205942,-8660.409521,383.047749
320.382828,0.000000,-8660.409521,383.047749
320.383156,-444.123565,-8512.368333,383.047749
320.383483,-740.205942,-9178.553681,229.828649
320.383811,-1554.432478,-9474.636058,383.047749
320.384139,-1702.473667,-9474.636058,383.047749
320.384466,-1332.370696,-9548.656652,766.095498
320.384794,-222.061783,-9474.636058,1072.533697
320.385121,0.000000,-9252.574275,1762.019645
320.385449,296.082377,-9326.594869,1991.848295
320.385777,296.082377,-9622.677246,1608.800546
320.386104,-814.226536,-9178.553681,1378.971896
320.386432,-1184.329507,-9548.656652,842.705048
320.386759,-1258.350101,-9400.615463,306.438199
320.387087,-740.205942,-8956.491898,153.219100
320.387415,148.041188,-8364.327145,0.000000
320.387742,1924.535449,-7920.203579,689.485948
320.388070,1998.556043,-8586.388927,842.705048
320.388397,1998.556043,-8438.347739,1149.143247
320.388725,962.267725,-8808.450710,1302.362347
320.389053,148.041188,-9400.615463,1072.533697
320.389380,-222.061783,-9770.718434,536.266849
320.389708,-888.247130,-9696.697840,1072.533697
320.390036,-148.041188,-9474.636058,1762.019645
320.390363,0.000000,-9326.594869,2068.457845
320.390691,148.041188,-9474.636058,2145.067394
320.391018,-444.123565,-9030.512492,2221.676944
320.391346,-1184.329507,-9474.636058,1225.752797
320.391674,-2072.576638,-9178.553681,536.266849
320.392001,-2442.679609,-8882.471304,0.000000
320.392329,-2220.617826,-8808.450710,-306.438199
320.392656,-1924.535449,-8660.409521,76.609550
320.392984,-666.185348,-8364.327145,0.000000
320.393312,-518.144159,-8216.285956,0.000000
320.393639,-296.082377,-8216.285956,0.000000
320.393967,-814.226536,-8512.368333,0.000000
320.394294,-740.205942,-9178.553681,-383.047749
320.394622,-1036.288319,-9252.574275,0.000000
320.394950,-1036.288319,-9104.533087,153.219100
320.395277,-148.041188,-9030.512492,766.095498
320.395605,222.061783,-8956.491898,1302.362347
320.395933,1110.308913,-9252.574275,1685.410096
320.396260,962.267725,-8956.491898,1532.190996
320.396588,222.061783,-9400.615463,1072.533697
320.396915,-592.164754,-9622.677246,383.047749
320.397243,-666.185348,-9474.636058,-229.828649
320.397571,-592.164754,-9400.615463,-689.485948
320.397898,0.000000,-9178.553681,-383.047749
320.398226,296.082377,-8956.491898,-459.657299
320.398553,1332.370696,-8734.430116,0.000000
320.398881,1406.391290,-8438.347739,0.000000
320.399209,962.267725,-8660.409521,-153.219100
320.399536,370.102971,-8956.491898,0.000000
320.399864,0.000000,-9178.553681,0.000000
320.400192,-370.102971,-9252.574275,153.219100
320.400519,0.000000,-9030.512492,689.485948
320.400847,370.102971,-8956.491898,1072.533697
320.401174,888.247130,-8512.368333,1991.848295
320.401502,666.185348,-9104.533087,1378.971896
320.401830,-222.061783,-9178.553681,995.924147
320.402157,-1036.288319,-9178.553681,536.266849
320.402485,-1850.514855,-9178.553681,0.000000
320.402812,-1776.494261,-9030.512492,-306.438199
320.403140,-1036.288319,-8512.368333,-536.266849
320.403468,-666.185348,-8956.491898,-153.219100
320.403795,0.000000,-8660.409521,0.000000
320.404123,-148.041188,-8734.430116,-153.219100
320.404450,-370.102971,-9104.533087,0.000000
320.404778,-888.247130,-9178.553681,0.000000
320.405106,-1036.288319,-9326.594869,153.219100
320.405433,-962.267725,-9696.697840,306.438199
320.405761,-518.144159,-9178.553681,766.095498
320.406089,148.041188,-9326.594869,1302.362347
320.406416,444.123565,-9178.553681,1915.238745
320.406744,592.164754,-9474.636058,1915.238745
320.407071,0.000000,-9400.615463,1685.410096
320.407399,-1184.329507,-9474.636058,1149.143247
320.407727,-1332.370696,-9474.636058,459.657299
320.408054,-962.267725,-9178.553681,995.924147
320.408382,-518.144159,-8660.409521,0.000000
320.408709,592.164754,-8808.450710,229.828649
320.409037,1110.308913,-8660.409521,459.657299
320.409365,1184.329507,-8660.409521,995.924147
320.409692,740.205942,-8956.491898,842.705048
320.410020,148.041188,-8956.491898,1149.143247
320.410347,-518.144159,-9696.697840,919.314598
320.410675,-888.247130,-9992.780217,995.924147
320.411003,-592.164754,-9844.739029,1378.971896
320.411330,-148.041188,-9474.636058,1915.238745
320.411658,370.102971,-9696.697840,2681.334243
320.411986,148.041188,-9844.739029,1915.238745
320.412313,-888.247130,-9696.697840,1838.629195
320.412641,-1702.473667,-9622.677246,842.705048
320.412968,-2368.659014,-9178.553681,153.219100
320.413296,-2146.597232,-8660.409521,-229.828649
320.413624,-1776.494261,-8882.471304,-76.609550
320.413951,-1110.308913,-8438.347739,0.000000
320.414279,-370.102971,-8216.285956,0.000000
320.414606,-148.041188,-8290.306550,0.000000
320.414934,0.000000,-8438.347739,0.000000
320.415262,-740.205942,-8882.471304,76.609550
320.415589,-1184.329507,-9252.574275,-229.828649
320.415917,-1184.329507,-9326.594869,0.000000
320.416244,-666.185348,-9326.594869,459.657299
320.416572,148.041188,-9400.615463,1149.143247
320.416900,1184.329507,-9474.636058,1455.581446
320.417227,1036.288319,-9474.636058,1072.533697
320.417555,518.144159,-9622.677246,842.705048
320.417883,0.000000,-10066.800811,459.657299
320.418210,-592.164754,-9770.718434,-306.438199
320.418538,-592.164754,-9474.636058,-536.266849
320.418865,0.000000,-9474.636058,-995.924147
320.419193,592.164754,-8956.491898,-689.485948
320.419521,1184.329507,-8364.327145,-229.828649
320.419848,1628.453072,-8438.347739,0.000000
320.420176,1258.350101,-8956.491898,306.438199
320.420503,888.247130,-8882.471304,0.000000
320.420831,-296.082377,-8956.491898,0.000000
320.421159,-370.102971,-9252.574275,306.438199
320.421486,-370.102971,-9104.533087,689.485948
320.421814,222.061783,-9104.533087,1455.581446
320.422142,1036.288319,-8808.450710,1838.629195
320.422469,444.123565,-9030.512492,1685.410096
320.422797,-296.082377,-9252.574275,1455.581446
320.423124,-962.267725,-9326.594869,842.705048
320.423452,-1628.453072,-9178.553681,459.657299
320.423780,-1702.473667,-9030.512492,229.828649
320.424107,-1554.432478,-8734.430116,-689.485948
320.424435,-814.226536,-8734.430116,-229.828649
320.424762,-370.102971,-8734.430116,229.828649
320.425090,0.000000,-8660.409521,76.609550
320.425418,-296.082377,-8438.347739,766.095498
320.425745,-666.185348,-9252.574275,229.828649
320.426073,-888.247130,-9326.594869,306.438199
320.426400,-1184.329507,-9400.615463,689.485948
320.426728,-666.185348,-9252.574275,842.705048
320.427056,74.020594,-9104.533087,1532.190996
320.427383,0.000000,-8956.491898,2298.286494
320.427711,0.000000,-9104.533087,2145.067394
320.428039,-518.144159,-9474.636058,1608.800546
320.428366,-1184.329507,-9400.615463,1149.143247
320.428694,-1702.473667,-9252.574275,612.876398
320.429021,-962.267725,-9104.533087,536.266849
320.429349,-592.164754,-8956.491898,0.000000
320.429677,444.123565,-8734.430116,306.438199
320.430004,1110.308913,-8364.327145,842.705048
320.430332,1554.432478,-8438.347739,689.485948
320.430659,666.185348,-8660.409521,1072.533697
320.430987,814.226536,-9474.636058,1072.533697
320.431315,-518.144159,-9622.677246,919.314598
320.431642,-814.226536,-9918.759623,1072.533697
320.431970,-296.082377,-9918.759623,1608.800546
320.432297,-222.061783,-9030.512492,2145.067394
320.432625,666.185348,-9770.718434,2451.505594
320.432953,74.020594,-9474.636058,2221.676944
320.433280,-444.123565,-9474.636058,1762.019645
320.433608,-1258.350101,-9400.615463,995.924147
320.433936,-1776.494261,-8734.430116,0.000000
320.434263,-1776.494261,-8808.450710,0.000000
320.434591,-1332.370696,-8512.368333,-229.828649
320.434918,-962.267725,-8438.347739,-383.047749
320.435246,-296.082377,-8438.347739,0.000000
320.435574,0.000000,-8364.327145,0.000000
320.435901,0.000000,-8512.368333,0.000000
320.436229,-740.205942,-9030.512492,76.609550
320.436556,-1480.411884,-9474.636058,0.000000
320.436884,-1332.370696,-9548.656652,0.000000
320.437212,-814.226536,-9696.697840,306.438199
320.437539,0.000000,-9178.553681,1302.362347
320.437867,666.185348,-9326.594869,1225.752797
320.438194,962.267725,-9326.594869,1378.971896
320.438522,296.082377,-9400.615463,1072.533697
320.438850,-296.082377,-9474.636058,612.876398
320.439177,-962.267725,-8734.430116,0.000000
320.439505,-888.247130,-9326.594869,-842.705048
320.439833,-518.144159,-9104.533087,-842.705048
320.440160,222.061783,-8956.491898,-919.314598
320.440488,962.267725,-8586.388927,-536.266849
320.440815,1258.350101,-8512.368333,-612.876398
320.441143,1184.329507,-8438.347739,-229.828649
320.441471,518.144159,-8882.471304,0.000000
320.441798,0.000000,-8734.430116,0.000000
320.442126,-444.123565,-9104.533087,76.609550
320.442453,-444.123565,-9030.512492,229.828649
320.442781,592.164754,-9104.533087,1225.752797
320.443109,888.247130,-9030.512492,1685.410096
320.443436,814.226536,-8882.471304,1455.581446
320.443764,444.123565,-9178.553681,1225.752797
320.444092,-444.123565,-9178.553681,612.876398
320.444419,-962.267725,-8808.450710,153.219100
320.444747,-1332.370696,-9030.512492,-766.095498
320.445074,-1258.350101,-8882.471304,-459.657299
320.445402,-814.226536,-8956.491898,-383.047749
320.445730,0.000000,-8808.450710,0.000000
320.446057,0.000000,-8068.244768,383.047749
320.446385,-222.061783,-8438.347739,229.828649
320.446712,-592.164754,-9030.512492,0.000000
320.447040,-888.247130,-9400.615463,0.000000
320.447368,-1110.308913,-9104.533087,153.219100
320.447695,-740.205942,-9030.512492,842.705048
320.448023,222.061783,-8808.450710,995.924147
320.448350,518.144159,-9104.533087,1685.410096
320.448678,518.144159,-9326.594869,1991.848295
320.449006,0.000000,-9400.615463,1915.238745
320.449333,-814.226536,-9400.615463,1378.971896
320.449661,-1258.350101,-9474.636058,766.095498
320.449989,-1258.350101,-9326.594869,612.876398
320.450316,-740.205942,-9178.553681,153.219100
320.450644,148.041188,-8734.430116,229.828649
320.450971,888.247130,-8660.409521,919.314598
320.451299,1554.432478,-8734.430116,1302.362347
320.451627,1628.453072,-8882.471304,1302.362347
320.451954,444.123565,-9400.615463,1378.971896
320.452282,-592.164754,-9770.718434,919.314598
320.452609,-888.247130,-9992.780217,1225.752797
320.452937,-1036.288319,-9548.656652,1378.971896
320.453265,-222.061783,-9622.677246,1685.410096
320.453592,0.000000,-9474.636058,2145.067394
320.453920,-148.041188,-9400.615463,2145.067394
320.454247,-518.144159,-9474.636058,1991.848295
320.454575,-1480.411884,-9474.636058,1302.362347
320.454903,-1998.556043,-9178.553681,1072.533697
320.455230,-2368.659014,-9252.574275,0.000000
320.455558,-1998.556043,-8808.450710,-306.438199
320.455886,-1480.411884,-8586.388927,-229.828649
320.456213,-370.102971,-8438.347739,0.000000
320.456541,0.000000,-8512.368333,689.485948
320.456868,0.000000,-8586.388927,383.047749
320.457196,-666.185348,-9104.533087,153.219100
320.457524,-888.247130,-9326.594869,0.000000
320.457851,-1184.329507,-9474.636058,0.000000
320.458179,-888.247130,-9178.553681,842.705048
320.458506,444.123565,-9474.636058,1225.752797
320.458834,740.205942,-9252.574275,1455.581446
320.459162,1332.370696,-9474.636058,1532.190996
320.459489,888.247130,-9548.656652,1378.971896
320.459817,370.102971,-9252.574275,1149.143247
320.460144,-740.205942,-9400.615463,229.828649
320.460472,-592.164754,-9326.594869,-766.095498
320.460800,-888.247130,-9326.594869,-612.876398
320.461127,0.000000,-8808.450710,-612.876398
320.461455,666.185348,-8586.388927,-229.828649
320.461783,1628.453072,-7994.224174,76.609550
320.462110,1406.391290,-8438.347739,76.609550
320.462438,666.185348,-8660.409521,-153.219100
320.462765,0.000000,-9030.512492,0.000000
320.463093,-592.164754,-9326.594869,-153.219100
320.463421,-592.164754,-8882.471304,766.095498
320.463748,148.041188,-8956.491898,842.705048
320.464076,666.185348,-8808.450710,1378.971896
320.464403,888.247130,-8882.471304,1608.800546
320.464731,370.102971,-8808.450710,1455.581446
320.465059,-518.144159,-8660.409521,1225.752797
320.465386,-1332.370696,-9252.574275,229.828649
320.465714,-1406.391290,-9326.594869,0.000000
320.466041,-1628.453072,-9104.533087,-383.047749
320.466369,-962.267725,-8734.430116,-459.657299
320.466697,-518.144159,-8364.327145,-153.219100
320.467024,0.000000,-8512.368333,0.000000
320.467352,-296.082377,-8660.409521,0.000000
320.467680,-592.164754,-8586.388927,0.000000
320.468007,-1110.308913,-9178.553681,0.000000
320.468335,-1258.350101,-9252.574275,0.000000
320.468662,-592.164754,-9104.533087,919.314598
320.468990,0.000000,-9104.533087,995.924147
320.469318,296.082377,-8956.491898,1838.629195
320.469645,518.144159,-9178.553681,1838.629195
320.469973,74.020594,-9326.594869,1685.410096
320.470300,-1184.329507,-9252.574275,1225.752797
320.470628,-592.164754,-9400.615463,766.095498
320.470956,-1332.370696,-9252.574275,229.828649
320.471283,-962.267725,-9252.574275,0.000000
320.471611,0.000000,-8808.450710,153.219100
320.471939,666.185348,-7846.182985,689.485948
320.472266,1850.514855,-8586.388927,919.314598
320.472594,1258.350101,-8660.409521,1072.533697
320.472921,740.205942,-9326.594869,1149.143247
320.473249,0.000000,-9844.739029,842.705048
320.473577,-296.082377,-9696.697840,689.485948
320.473904,-518.144159,-9770.718434,995.924147
320.474232,-444.123565,-9918.759623,1608.800546
320.474559,0.000000,-9844.739029,2298.286494
320.474887,0.000000,-9474.636058,2298.286494
320.475215,-296.082377,-9696.697840,2068.457845
320.475542,-962.267725,-9252.574275,1455.581446
320.475870,-2294.638420,-9474.636058,842.705048
320.476197,-2368.659014,-9326.594869,0.000000
320.476525,-2294.638420,-9030.512492,-229.828649
320.476853,-1554.432478,-8438.347739,-306.438199
320.477180,-740.205942,-8068.244768,0.000000
320.477508,0.000000,-8364.327145,0.000000
320.477836,-148.041188,-8512.368333,612.876398
320.478163,-518.144159,-8956.491898,229.828649
320.478491,-1036.288319,-9400.615463,153.219100
320.478818,-1332.370696,-9622.677246,76.609550
320.479146,-592.164754,-9696.697840,229.828649
320.479474,-148.041188,-9622.677246,842.705048
320.479801,666.185348,-9548.656652,1762.019645
320.480129,1036.288319,-9622.677246,1685.410096
320.480456,1036.288319,-9770.718434,1302.362347
320.480784,740.205942,-9844.739029,459.657299
320.481112,-518.144159,-9622.677246,459.657299
320.481439,-814.226536,-9474.636058,-459.657299
320.481767,-518.144159,-9326.594869,-766.095498
320.482092,0.000000,-8808.450710,-689.485948
320.482420,518.144159,-8586.388927,-306.438199
320.482748,1258.350101,-7994.224174,0.000000
320.483075,1406.391290,-8290.306550,0.000000
320.483403,740.205942,-8512.368333,-229.828649
320.483730,296.082377,-9178.553681,0.000000
320.484058,-222.061783,-9548.656652,-459.657299
320.484385,-740.205942,-9326.594869,229.828649
320.484713,0.000000,-9030.512492,383.047749
320.485040,222.061783,-9104.533087,1149.143247
320.485368,666.185348,-8956.491898,1302.362347
320.485695,444.123565,-9178.553681,1455.581446
320.486023,-148.041188,-8882.471304,766.095498
320.486350,-1036.288319,-9030.512492,306.438199
320.486678,-1554.432478,-9104.533087,-153.219100
320.487006,-1702.473667,-9104.533087,-536.266849
320.487333,-1036.288319,-8956.491898,-306.438199
320.487661,-148.041188,-8586.388927,-306.438199
320.487988,0.000000,-8586.388927,0.000000
320.488316,0.000000,-8660.409521,0.000000
320.488643,0.000000,-8734.430116,0.000000
320.488971,-740.205942,-9030.512492,229.828649
320.489298,-740.205942,-8956.491898,306.438199
320.489626,-888.247130,-9030.512492,459.657299
320.489953,0.000000,-9104.533087,1149.143247
320.490281,518.144159,-9104.533087,1608.800546
320.490608,592.164754,-9178.553681,2068.457845
320.490936,370.102971,-9178.553681,1991.848295
320.491264,-148.041188,-9400.615463,1302.362347
320.491591,-888.247130,-9548.656652,1072.533697
320.491919,-962.267725,-9326.594869,536.266849
320.492246,-1036.288319,-9326.594869,153.219100
320.492574,-592.164754,-8660.409521,153.219100
320.492901,296.082377,-8586.388927,306.438199
320.493229,1258.350101,-8586.388927,612.876398
320.493556,1406.391290,-8734.430116,1149.143247
320.493884,814.226536,-8882.471304,995.924147
320.494211,0.000000,-9474.636058,919.314598
320.494539,-666.185348,-9326.594869,842.705048
320.494866,-1036.288319,-9992.780217,1149.143247
320.495194,-814.226536,-9992.780217,1455.581446
320.495522,-296.082377,-9770.718434,2145.067394
320.495849,0.000000,-9696.697840,2221.676944
320.496177,148.041188,-9696.697840,2604.724693
320.496504,-1184.329507,-9400.615463,1762.019645
320.496832,-1776.494261,-9400.615463,1302.362347
320.497159,-2368.659014,-9252.574275,536.266849
320.497487,-1924.535449,-8882.471304,153.219100
320.497814,-1480.411884,-8808.450710,229.828649
320.498142,-888.247130,-8290.306550,0.000000
320.498469,-148.041188,-8438.347739,306.438199
320.498797,74.020594,-8586.388927,459.657299
320.499124,0.000000,-8956.491898,536.266849
320.499452,-592.164754,-9252.574275,306.438199
320.499780,-1406.391290,-9474.636058,766.095498
320.500107,-1110.308913,-9622.677246,459.657299
320.500435,-666.185348,-9474.636058,842.705048
320.500762,0.000000,-9474.636058,1455.581446
320.501090,592.164754,-9326.594869,1838.629195
320.501417,1110.308913,-9252.574275,1608.800546
320.501745,74.020594,-9400.615463,1072.533697
320.502072,-444.123565,-9474.636058,536.266849
320.502400,-666.185348,-9326.594869,-306.438199
320.502727,-888.247130,-9252.574275,-919.314598
320.503055,-444.123565,-8734.430116,-995.924147
320.503383,74.020594,-8586.388927,-766.095498
320.503710,740.205942,-8216.285956,-459.657299
320.504038,962.267725,-8068.244768,0.000000
320.504365,888.247130,-8290.306550,0.000000
320.504693,444.123565,-8660.409521,-306.438199
320.505020,0.000000,-8956.491898,76.609550
320.505348,-518.144159,-8956.491898,0.000000
320.505675,0.000000,-9178.553681,383.047749
320.506003,444.123565,-8808.450710,919.314598
320.506330,814.226536,-8882.471304,1532.190996
320.506658,814.226536,-8734.430116,1532.190996
320.506985,444.123565,-9030.512492,995.924147
320.507313,-370.102971,-9104.533087,689.485948
320.507641,-962.267725,-9030.512492,0.000000
320.507968,-1554.432478,-9252.574275,-459.657299
320.508296,-1036.288319,-8808.450710,-1608.800546
320.508623,-444.123565,-8956.491898,-459.657299
320.508951,0.000000,-8586.388927,-383.047749
320.509278,222.061783,-8364.327145,0.000000
320.509606,148.041188,-8438.347739,0.000000
320.509933,-148.041188,-8808.450710,306.438199
320.510261,-592.164754,-8956.491898,0.000000
320.510588,-666.185348,-8956.491898,0.000000
320.510916,-296.082377,-9178.553681,612.876398
320.511243,0.000000,-8956.491898,1302.362347
320.511571,518.144159,-9252.574275,2221.676944
320.511899,444.123565,-9030.512492,1915.238745
320.512226,0.000000,-9252.574275,1838.629195
320.512554,-962.267725,-9474.636058,1072.533697
320.512881,-1554.432478,-9548.656652,459.657299
320.513209,-1480.411884,-9474.636058,229.828649
320.513536,-814.226536,-8660.409521,229.828649
320.513864,-222.061783,-9030.512492,153.219100
320.514191,518.144159,-8660.409521,229.828649
320.514519,888.247130,-8734.430116,766.095498
320.514846,888.247130,-8808.450710,919.314598
320.515174,740.205942,-9400.615463,1149.143247
320.515501,-444.123565,-9400.615463,995.924147
320.515829,-740.205942,-9622.677246,995.924147
320.516157,-592.164754,-9770.718434,1608.800546
320.516484,-222.061783,-9548.656652,2068.457845
320.516812,148.041188,-8956.491898,2374.896044
320.517139,0.000000,-9474.636058,2221.676944
320.517467,-592.164754,-9548.656652,1991.848295
320.517794,-1110.308913,-9548.656652,1378.971896
320.518122,-2072.576638,-9326.594869,842.705048
320.518449,-1332.370696,-9030.512492,995.924147
320.518777,-1480.411884,-8512.368333,76.609550
320.519104,-666.185348,-8364.327145,383.047749
320.519432,296.082377,-8512.368333,612.876398
320.519759,148.041188,-8068.244768,766.095498
320.520087,0.000000,-8882.471304,306.438199
320.520415,-518.144159,-8956.491898,459.657299
320.520742,-1332.370696,-9622.677246,229.828649
320.521070,-1554.432478,-9696.697840,306.438199
320.521397,-1184.329507,-9770.718434,459.657299
320.521725,-592.164754,-9696.697840,1149.143247
320.522052,444.123565,-9474.636058,1225.752797
320.522380,444.123565,-9400.615463,1532.190996
320.522707,0.000000,-9400.615463,1149.143247
320.523035,-666.185348,-9474.636058,383.047749
320.523362,-1332.370696,-9400.615463,-153.219100
320.523690,-962.267725,-9178.553681,-383.047749
320.524017,-1258.350101,-8586.388927,-1225.752797
320.524345,-148.041188,-8734.430116,-995.924147
320.524673,296.082377,-8438.347739,-766.095498
320.525000,1110.308913,-8438.347739,-383.047749
320.525328,1184.329507,-8216.285956,0.000000
320.525655,1036.288319,-8882.471304,-459.657299
320.525983,370.102971,-9400.615463,-229.828649
320.526310,0.000000,-9474.636058,-229.828649
320.526638,148.041188,-9474.636058,0.000000
320.526965,740.205942,-9474.636058,536.266849
320.527293,1628.453072,-9104.533087,1225.752797
320.527620,1332.370696,-9178.553681,1378.971896
320.527948,1036.288319,-9178.553681,1378.971896
320.528275,296.082377,-9474.636058,689.485948
320.528603,-814.226536,-9252.574275,76.609550
320.528931,-1702.473667,-8808.450710,0.000000
320.529258,-1036.288319,-8882.471304,-612.876398
320.529586,-666.185348,-8660.409521,-612.876398
320.529913,-370.102971,-8586.388927,-306.438199
320.530241,74.020594,-8142.265362,-229.828649
320.530568,0.000000,-8438.347739,0.000000
320.530896,-296.082377,-8512.368333,-153.219100
320.531223,-1406.391290,-8808.450710,0.000000
320.531551,-1480.411884,-8956.491898,0.000000
320.531878,-1332.370696,-9030.512492,306.438199
320.532206,-518.144159,-8364.327145,1378.971896
320.532533,0.000000,-8734.430116,1608.800546
320.532861,0.000000,-8660.409521,1685.410096
320.533189,-296.082377,-9178.553681,1455.581446
320.533516,-962.267725,-9474.636058,842.705048
320.533844,-1554.432478,-9474.636058,306.438199
320.534171,-1258.350101,-9252.574275,0.000000
320.534499,-1036.288319,-9326.594869,0.000000
320.534826,-444.123565,-9326.594869,0.000000
320.535154,740.205942,-8956.491898,229.828649
320.535481,1258.350101,-8438.347739,689.485948
320.535809,1628.453072,-9252.574275,766.095498
320.536136,962.267725,-9178.553681,919.314598
320.536464,148.041188,-9770.718434,1072.533697
320.536792,-370.102971,-9918.759623,919.314598
320.537119,-444.123565,-9770.718434,1455.581446
320.537447,296.082377,-9844.739029,1915.238745
320.537774,518.144159,-9844.739029,2221.676944
320.538102,592.164754,-9770.718434,2451.505594
320.538429,0.000000,-9474.636058,2298.286494
320.538757,-740.205942,-9696.697840,1762.019645
320.539084,-1036.288319,-9474.636058,1455.581446
320.539412,-1776.494261,-9030.512492,766.095498
320.539739,-1110.308913,-9178.553681,383.047749
320.540067,-740.205942,-8586.388927,229.828649
320.540394,-296.082377,-8512.368333,383.047749
320.540722,296.082377,-8882.471304,842.705048
320.541050,0.000000,-8882.471304,842.705048
320.541377,-814.226536,-9030.512492,536.266849
320.541705,-1332.370696,-9622.677246,459.657299
320.542032,-1998.556043,-9770.718434,306.438199
320.542360,-1702.473667,-9696.697840,459.657299
320.542687,-740.205942,-9622.677246,1302.362347
320.543015,-222.061783,-9252.574275,1608.800546
320.543342,0.000000,-9178.553681,1685.410096
320.543670,0.000000,-9252.574275,1532.190996
320.543997,-444.123565,-9252.574275,995.924147
320.544325,-1110.308913,-9400.615463,-153.219100
320.544652,-1110.308913,-8660.409521,76.609550
320.544980,-888.247130,-9252.574275,-459.657299
320.545308,-222.061783,-8734.430116,-536.266849
320.545635,592.164754,-8586.388927,-383.047749
320.545963,962.267725,-8290.306550,0.000000
320.546290,1480.411884,-8068.244768,689.485948
320.546618,1036.288319,-8882.471304,153.219100
320.546945,518.144159,-9252.574275,0.000000
320.547273,0.000000,-9548.656652,0.000000
320.547600,0.000000,-9474.636058,459.657299
320.547928,814.226536,-9622.677246,612.876398
320.548255,740.205942,-9104.533087,1225.752797
320.548583,962.267725,-9030.512492,1608.800546
320.548910,814.226536,-9104.533087,1302.362347
320.549238,0.000000,-9104.533087,842.705048
320.549566,-962.267725,-8882.471304,229.828649
320.549893,-1110.308913,-8956.491898,-229.828649
320.550221,-1258.350101,-8734.430116,-689.485948
320.550548,-888.247130,-8808.450710,-766.095498
320.550876,-444.123565,-8586.388927,-612.876398
320.551203,0.000000,-8512.368333,-766.095498
320.551531,0.000000,-7698.141797,0.000000
320.551858,-296.082377,-8438.347739,-306.438199
320.552186,-1036.288319,-8512.368333,0.000000
320.552513,-1258.350101,-9178.553681,-153.219100
320.552841,-1036.288319,-9030.512492,306.438199
320.553168,-518.144159,-8660.409521,459.657299
320.553496,74.020594,-8882.471304,1149.143247
320.553824,666.185348,-8956.491898,1455.581446
320.554151,518.144159,-9326.594869,1455.581446
320.554479,0.000000,-9252.574275,995.924147
320.554806,-370.102971,-9326.594869,306.438199
320.555134,-1036.288319,-9474.636058,229.828649
320.555461,-1110.308913,-9474.636058,0.000000
320.555789,-444.123565,-9252.574275,0.000000
320.556116,296.082377,-9030.512492,229.828649
320.556444,1776.494261,-8808.450710,306.438199
320.556771,1332.370696,-8512.368333,1072.533697
320.557099,1110.308913,-9030.512492,689.485948
320.557426,518.144159,-9252.574275,995.924147
320.557754,-222.061783,-9696.697840,1149.143247
320.558082,-444.123565,-9622.677246,1455.581446
320.558409,-444.123565,-9474.636058,1838.629195
320.558737,222.061783,-9474.636058,2145.067394
320.559064,222.061783,-9400.615463,2528.115143
320.559392,0.000000,-9326.594869,2451.505594
320.559719,-740.205942,-9770.718434,2298.286494
320.560047,-1776.494261,-9400.615463,1378.971896
320.560374,-2146.597232,-9030.512492,459.657299
320.560702,-2072.576638,-8882.471304,153.219100
320.561029,-1702.473667,-8734.430116,153.219100
320.561357,-888.247130,-8586.388927,383.047749
320.561684,-222.061783,-8068.244768,766.095498
320.562012,-222.061783,-8586.388927,689.485948
320.562340,-666.185348,-8882.471304,612.876398
320.562667,-1406.391290,-9474.636058,766.095498
320.562995,-1776.494261,-9622.677246,459.657299
320.563322,-1480.411884,-9622.677246,766.095498
320.563650,-1332.370696,-9400.615463,919.314598
320.563977,-444.123565,-9400.615463,1455.581446
320.564305,296.082377,-9326.594869,1455.581446
320.564632,296.082377,-9326.594869,1302.362347
320.564960,74.020594,-9178.553681,995.924147
320.565287,-444.123565,-9178.553681,919.314598
320.565615,-1406.391290,-9104.533087,0.000000
320.565943,-1110.308913,-9326.594869,-689.485948
320.566270,-444.123565,-8882.471304,-459.657299
320.566598,296.082377,-8586.388927,-689.485948
320.566925,1480.411884,-8290.306550,0.000000
320.567253,1554.432478,-8290.306550,0.000000
320.567580,1110.308913,-8660.409521,76.609550
320.567908,592.164754,-9400.615463,0.000000
320.568235,0.000000,-9548.656652,-153.219100
320.568563,-370.102971,-9474.636058,1225.752797
320.568890,0.000000,-9474.636058,229.828649
320.569218,518.144159,-9474.636058,842.705048
320.569545,962.267725,-9104.533087,1378.971896
320.569873,814.226536,-9030.512492,1455.581446
320.570201,296.082377,-8882.471304,766.095498
320.570528,-592.164754,-9104.533087,76.609550
320.570856,-1554.432478,-9030.512492,-306.438199
320.571183,-1850.514855,-8882.471304,-995.924147
320.571511,-1554.432478,-8660.409521,-689.485948
320.571838,-888.247130,-8660.409521,-1302.362347
320.572166,-444.123565,-8364.327145,-459.657299
320.572493,0.000000,-8216.285956,-229.828649
320.572821,0.000000,-8586.388927,-153.219100
320.573148,-518.144159,-8734.430116,0.000000
320.573476,-1036.288319,-9030.512492,-229.828649
320.573803,-370.102971,-9326.594869,536.266849
320.574131,-518.144159,-9178.553681,306.438199
320.574459,74.020594,-9104.533087,919.314598
320.574786,518.144159,-9178.553681,1685.410096
320.575114,666.185348,-9400.615463,1762.019645
320.575441,296.082377,-9696.697840,1149.143247
320.575769,-592.164754,-9474.636058,766.095498
320.576096,-740.205942,-9696.697840,153.219100
320.576424,-888.247130,-9400.615463,-153.219100
320.576751,-740.205942,-9252.574275,0.000000
320.577079,148.041188,-8660.409521,76.609550
320.577406,1036.288319,-8808.450710,306.438199
320.577734,1554.432478,-8734.430116,612.876398
320.578061,1184.329507,-8882.471304,612.876398
320.578389,444.123565,-9326.594869,842.705048
320.578717,0.000000,-9326.594869,766.095498
320.579044,-592.164754,-9770.718434,766.095498
320.579372,-370.102971,-9696.697840,1455.581446
320.579699,-148.041188,-9548.656652,1991.848295
320.580027,222.061783,-9622.677246,2451.505594
320.580354,0.000000,-9696.697840,2451.505594
320.580682,-592.164754,-9400.615463,2068.457845
320.581009,-1258.350101,-9548.656652,1685.410096
320.581337,-1924.535449,-9326.594869,919.314598
320.581664,-2294.638420,-9178.553681,459.657299
320.581992,-1406.391290,-8882.471304,536.266849
320.582319,-740.205942,-8364.327145,842.705048
320.582646,370.102971,-8364.327145,612.876398
320.582974,0.000000,-8586.388927,995.924147
320.583301,-518.144159,-8882.471304,919.314598
320.583629,-1628.453072,-9548.656652,536.266849
320.583956,-1628.453072,-10288.862594,612.876398
320.584284,-1702.473667,-9252.574275,689.485948
320.584611,-1406.391290,-9474.636058,766.095498
320.584939,-592.164754,-9474.636058,1225.752797
320.585266,0.000000,-9252.574275,1455.581446
320.585594,0.000000,-8808.450710,1762.019645
320.585921,0.000000,-9474.636058,1225.752797
320.586249,-814.226536,-9400.615463,459.657299
320.586576,-1184.329507,-9474.636058,-306.438199
320.586904,-1184.329507,-9104.533087,-536.266849
320.587231,-666.185348,-8660.409521,-919.314598
320.587559,444.123565,-8364.327145,-612.876398
320.587886,1036.288319,-8364.327145,-153.219100
320.588213,1480.411884,-8438.347739,0.000000
320.588541,1332.370696,-8882.471304,0.000000
320.588868,740.205942,-9548.656652,-229.828649
320.589196,592.164754,-9474.636058,0.000000
320.589523,-222.061783,-9474.636058,-153.219100
320.589851,592.164754,-9696.697840,306.438199
320.590178,1110.308913,-9400.615463,1149.143247
320.590506,1628.453072,-9400.615463,1455.581446
320.590833,1036.288319,-8808.450710,1225.752797
320.591161,814.226536,-9252.574275,1762.019645
320.591488,-222.061783,-9326.594869,459.657299
320.591816,-1036.288319,-8956.491898,76.609550
320.592143,-1258.350101,-9474.636058,-536.266849
320.592471,-814.226536,-8956.491898,-842.705048
320.592798,-370.102971,-8142.265362,-153.219100
320.593126,-148.041188,-8438.347739,-459.657299
320.593453,148.041188,-8586.388927,-153.219100
320.593780,0.000000,-8512.368333,0.000000
320.594108,-740.205942,-8808.450710,0.000000
320.594435,-1628.453072,-8808.450710,0.000000
320.594763,-1480.411884,-9474.636058,229.828649
320.595090,-1036.288319,-9178.553681,459.657299
320.595418,-296.082377,-9178.553681,1302.362347
320.595745,148.041188,-8882.471304,1302.362347
320.596073,0.000000,-8882.471304,1991.848295
320.596400,666.185348,-9474.636058,1608.800546
320.596728,-740.205942,-9474.636058,1072.533697
320.597055,-1258.350101,-9326.594869,383.047749
320.597383,-1406.391290,-9252.574275,0.000000
320.597710,-962.267725,-9326.594869,0.000000
320.598038,0.000000,-9104.533087,766.095498
320.598365,518.144159,-8586.388927,459.657299
320.598692,1258.350101,-8882.471304,1072.533697
320.599020,1258.350101,-8660.409521,1225.752797
320.599347,592.164754,-9030.512492,1072.533697
320.599675,74.020594,-8882.471304,1072.533697
320.600002,-370.102971,-9400.615463,1302.362347
320.600330,-148.041188,-9326.594869,1532.190996
320.600657,0.000000,-9474.636058,1762.019645
320.600985,444.123565,-9252.574275,2451.505594
320.601312,444.123565,-9104.533087,2834.553343
320.601640,-148.041188,-9400.615463,2451.505594
320.601967,-1036.288319,-9252.574275,1608.800546
320.602295,-1628.453072,-9252.574275,995.924147
320.602622,-1924.535449,-9030.512492,689.485948
320.602950,-1258.350101,-8882.471304,153.219100
320.603277,-962.267725,-8734.430116,0.000000
320.603605,-296.082377,-8512.368333,459.657299
320.603932,-222.061783,-8438.347739,612.876398
320.604259,-518.144159,-8734.430116,459.657299
320.604587,-962.267725,-8882.471304,459.657299
320.604914,-1480.411884,-9622.677246,0.000000
320.605242,-1776.494261,-9400.615463,76.609550
320.605569,-1554.432478,-9326.594869,459.657299
320.605897,-814.226536,-8956.491898,1072.533697
320.606224,0.000000,-9178.553681,1608.800546
320.606552,666.185348,-9104.533087,1378.971896
320.606879,148.041188,-9252.574275,1455.581446
320.607207,-444.123565,-9474.636058,766.095498
320.607534,-1110.308913,-9326.594869,0.000000
320.607862,-1110.308913,-9326.594869,-536.266849
320.608189,-740.205942,-9178.553681,-612.876398
320.608517,370.102971,-8734.430116,-153.219100
320.608844,1036.288319,-8364.327145,-306.438199
320.609172,1702.473667,-8512.368333,76.609550
320.609499,1258.350101,-8586.388927,306.438199
320.609826,814.226536,-9104.533087,229.828649
320.610154,148.041188,-9474.636058,306.438199
320.610481,0.000000,-9844.739029,0.000000
320.610809,-222.061783,-9548.656652,383.047749
320.611136,296.082377,-9474.636058,689.485948
320.611464,888.247130,-9400.615463,1838.629195
320.611791,888.247130,-9030.512492,1762.019645
320.612119,444.123565,-9252.574275,1378.971896
320.612446,-370.102971,-9400.615463,919.314598
320.612774,-1258.350101,-9178.553681,153.219100
320.613101,-1850.514855,-8956.491898,-459.657299
320.613429,-1480.411884,-8734.430116,-536.266849
320.613756,-1406.391290,-8586.388927,-919.314598
320.614084,-888.247130,-8290.306550,-612.876398
320.614411,-518.144159,-7994.224174,-459.657299
320.614739,-666.185348,-8290.306550,-229.828649
320.615066,-740.205942,-8512.368333,-689.485948
320.615393,-888.247130,-8808.450710,-229.828649
320.615721,-1110.308913,-8956.491898,-229.828649
320.616048,-962.267725,-9104.533087,229.828649
320.616376,-370.102971,-9030.512492,459.657299
320.616703,296.082377,-9178.553681,1072.533697
320.617031,814.226536,-8882.471304,1762.019645
320.617358,740.205942,-9400.615463,1225.752797
320.617686,222.061783,-9474.636058,1072.533697
320.618013,-518.144159,-9696.697840,612.876398
320.618341,-962.267725,-9474.636058,76.609550
320.618668,-740.205942,-9326.594869,-306.438199
320.618996,0.000000,-9030.512492,-536.266849
320.619323,814.226536,-8882.471304,0.000000
320.619651,1480.411884,-8586.388927,0.000000
320.619978,1258.350101,-8586.388927,536.266849
320.620306,1332.370696,-8956.491898,229.828649
320.620633,444.123565,-9030.512492,689.485948
320.620960,0.000000,-9400.615463,383.047749
320.621288,-222.061783,-9474.636058,766.095498
320.621615,-148.041188,-9474.636058,1532.190996
320.621943,592.164754,-9474.636058,1455.581446
320.622270,222.061783,-9104.533087,2374.896044
320.622598,0.000000,-9474.636058,2298.286494
320.622925,-740.205942,-9548.656652,1838.629195
320.623253,-1628.453072,-9326.594869,995.924147
320.623580,-1998.556043,-8882.471304,689.485948
320.623908,-1628.453072,-8586.388927,229.828649
320.624235,-1036.288319,-8734.430116,153.219100
320.624563,-592.164754,-8364.327145,689.485948
320.624890,0.000000,-8438.347739,459.657299
320.625218,-444.123565,-8808.450710,1072.533697
320.625545,-666.185348,-9548.656652,612.876398
320.625873,-1628.453072,-9474.636058,612.876398
320.626200,-1702.473667,-9622.677246,536.266849
320.626527,-1702.473667,-9696.697840,842.705048
320.626855,-962.267725,-9622.677246,1225.752797
320.627182,-370.102971,-9252.574275,1378.971896
320.627510,74.020594,-9178.553681,1915.238745
320.627837,0.000000,-9400.615463,1838.629195
320.628165,-740.205942,-9548.656652,995.924147
320.628492,-1258.350101,-9474.636058,306.438199
320.628820,-1110.308913,-9400.615463,0.000000
320.629147,-888.247130,-8956.491898,-459.657299
320.629475,-296.082377,-8882.471304,-536.266849
320.629802,518.144159,-8734.430116,-229.828649
320.630130,1258.350101,-8660.409521,153.219100
320.630457,1628.453072,-8512.368333,459.657299
320.630785,1406.391290,-8882.471304,612.876398
320.631112,592.164754,-9474.636058,229.828649
320.631440,0.000000,-9770.718434,153.219100
320.631767,0.000000,-9770.718434,229.828649
320.632094,296.082377,-9474.636058,842.705048
320.632422,740.205942,-9178.553681,1685.410096
320.632749,1036.288319,-9400.615463,1608.800546
320.633077,666.185348,-9252.574275,1608.800546
320.633404,-296.082377,-9178.553681,842.705048
320.633732,-962.267725,-9104.533087,76.609550
320.634059,-1258.350101,-9030.512492,0.000000
320.634387,-1702.473667,-9104.533087,-842.705048
320.634714,-1258.350101,-8586.388927,-612.876398
320.635042,-592.164754,-8290.306550,-536.266849
320.635369,-148.041188,-8142.265362,-306.438199
320.635697,-518.144159,-8068.244768,-306.438199
320.636024,-370.102971,-8512.368333,0.000000
320.636352,-962.267725,-8956.491898,-229.828649
320.636679,-1332.370696,-9178.553681,0.000000
320.637007,-1258.350101,-8956.491898,-229.828649
320.637334,-814.226536,-9030.512492,0.000000
320.637661,148.041188,-8956.491898,919.314598
320.637989,666.185348,-9030.512492,1302.362347
320.638316,518.144159,-9104.533087,1532.190996
320.638644,222.061783,-9326.594869,1225.752797
320.638971,-592.164754,-9326.594869,766.095498
320.639299,-1110.308913,-9178.553681,383.047749
320.639626,-1110.308913,-9400.615463,-459.657299
320.639954,-370.102971,-9030.512492,-459.657299
320.640281,740.205942,-8586.388927,-306.438199
320.640609,1554.432478,-8364.327145,229.828649
320.640936,1924.535449,-8438.347739,0.000000
320.641264,1850.514855,-8808.450710,612.876398
320.641591,814.226536,-9030.512492,689.485948
320.641919,148.041188,-9400.615463,766.095498
320.642246,-370.102971,-9622.677246,1072.533697
320.642573,-666.185348,-9178.553681,1608.800546
320.642901,592.164754,-9696.697840,2374.896044
320.643228,444.123565,-9178.553681,2451.505594
320.643556,148.041188,-9400.615463,2528.115143
320.643883,-666.185348,-9474.636058,2068.457845
320.644211,-1258.350101,-9104.533087,1532.190996
320.644538,-1850.514855,-9104.533087,689.485948
320.644866,-2146.597232,-8956.491898,153.219100
320.645193,-1702.473667,-8586.388927,76.609550
320.645521,-1036.288319,-8660.409521,229.828649
320.645848,-740.205942,-8586.388927,612.876398
320.646176,-1036.288319,-8882.471304,1378.971896
320.646503,-666.185348,-8956.491898,766.095498
320.646831,-1628.453072,-9326.594869,459.657299
320.647158,-2220.617826,-9696.697840,306.438199
320.647486,-1998.556043,-9844.739029,536.266849
320.647813,-1110.308913,-9622.677246,766.095498
320.648140,-518.144159,-9178.553681,1302.362347
320.648468,222.061783,-9474.636058,1838.629195
320.648795,148.041188,-9474.636058,1991.848295
320.649123,0.000000,-9474.636058,1455.581446
320.649450,-666.185348,-9326.594869,306.438199
320.649778,-666.185348,-9474.636058,383.047749
320.650105,-1036.288319,-9326.594869,-306.438199
320.650433,-222.061783,-9178.553681,-229.828649
320.650760,814.226536,-8734.430116,-383.047749
320.651088,1776.494261,-8882.471304,459.657299
320.651415,2368.659014,-8882.471304,995.924147
320.651743,1702.473667,-8956.491898,536.266849
320.652070,814.226536,-9918.759623,306.438199
320.652398,0.000000,-9918.759623,0.000000
320.652725,-222.061783,-9992.780217,383.047749
320.653053,0.000000,-9474.636058,612.876398
320.653380,296.082377,-9178.553681,842.705048
320.653707,666.185348,-9178.553681,1455.581446
320.654035,370.102971,-9104.533087,1378.971896
320.654362,0.000000,-8956.491898,995.924147
320.654690,-814.226536,-8734.430116,0.000000
320.655017,-1702.473667,-8882.471304,-229.828649
320.655345,-2146.597232,-8882.471304,-842.705048
320.655672,-1702.473667,-8512.368333,-1072.533697
320.656000,-1036.288319,-8290.306550,-766.095498
320.656327,-518.144159,-8068.244768,-459.657299
320.656655,-370.102971,-8068.244768,-383.047749
320.656982,-444.123565,-8364.327145,-229.828649
320.657310,-666.185348,-8660.409521,-229.828649
320.657637,-1036.288319,-8956.491898,-459.657299
320.657965,-888.247130,-9104.533087,-383.047749
320.658292,-444.123565,-9104.533087,612.876398
320.658620,296.082377,-9104.533087,995.924147
320.658947,888.247130,-9178.553681,1532.190996
320.659274,814.226536,-9252.574275,1608.800546
320.659602,444.123565,-9474.636058,1302.362347
320.659929,-148.041188,-9474.636058,1225.752797
320.660257,-592.164754,-9770.718434,76.609550
320.660584,-962.267725,-9474.636058,-229.828649
320.660912,-444.123565,-9030.512492,-306.438199
320.661239,0.000000,-8586.388927,-153.219100
320.661567,962.267725,-8734.430116,0.000000
320.661894,962.267725,-8142.265362,229.828649
320.662222,1110.308913,-8586.388927,383.047749
320.662549,592.164754,-8734.430116,612.876398
320.662877,0.000000,-9326.594869,842.705048
320.663204,-444.123565,-9548.656652,995.924147
320.663532,-444.123565,-9474.636058,1455.581446
320.663859,74.020594,-9474.636058,1915.238745
320.664187,74.020594,-9400.615463,2298.286494
320.664514,222.061783,-9474.636058,2604.724693
320.664841,-222.061783,-9474.636058,2374.896044
320.665169,-592.164754,-9326.594869,1762.019645
320.665496,-1850.514855,-9326.594869,766.095498
320.665824,-2072.576638,-9104.533087,306.438199
320.666151,-1554.432478,-8956.491898,76.609550
320.666479,-1110.308913,-8734.430116,306.438199
320.666806,-370.102971,-8808.450710,536.266849
320.667134,0.000000,-8586.388927,536.266849
320.667461,-370.102971,-8808.450710,612.876398
320.667789,-888.247130,-9104.533087,919.314598
320.668116,-1628.453072,-9474.636058,689.485948
320.668444,-1702.473667,-9548.656652,536.266849
320.668771,-1628.453072,-9326.594869,1149.143247
320.669099,-592.164754,-9326.594869,1455.581446
320.669426,0.000000,-9326.594869,1991.848295
320.669754,74.020594,-9252.574275,1685.410096
320.670081,0.000000,-9474.636058,1532.190996
320.670408,-444.123565,-9474.636058,536.266849
320.670736,-962.267725,-9400.615463,536.266849
320.671063,-1184.329507,-9030.512492,0.000000
320.671391,-888.247130,-8956.491898,-306.438199
320.671718,370.102971,-9104.533087,0.000000
320.672046,666.185348,-8660.409521,306.438199
320.672373,1554.432478,-8660.409521,0.000000
320.672701,1184.329507,-8808.450710,459.657299
320.673028,1036.288319,-9474.636058,306.438199
320.673356,222.061783,-9918.759623,306.438199
320.673683,0.000000,-9548.656652,0.000000
320.674011,-222.061783,-9622.677246,536.266849
320.674338,444.123565,-9326.594869,842.705048
320.674666,814.226536,-9400.615463,1149.143247
320.674993,518.144159,-9326.594869,1149.143247
320.675321,74.020594,-8660.409521,1762.019645
320.675648,-296.082377,-9178.553681,383.047749
320.675975,-1258.350101,-9104.533087,0.000000
320.676303,-1554.432478,-9178.553681,-766.095498
320.676630,-1480.411884,-8660.409521,-995.924147
320.676958,-740.205942,-8216.285956,-612.876398
320.677285,74.020594,-8216.285956,0.000000
320.677613,0.000000,-8438.347739,-153.219100
320.677940,0.000000,-8512.368333,-153.219100
320.678268,-592.164754,-8586.388927,-383.047749
320.678595,-888.247130,-8956.491898,-153.219100
320.678923,-1036.288319,-8882.471304,-459.657299
320.679250,-740.205942,-9326.594869,153.219100
320.679578,-296.082377,-9104.533087,689.485948
320.679905,518.144159,-8882.471304,1149.143247
320.680233,740.205942,-8956.491898,1225.752797
320.680560,592.164754,-9326.594869,1608.800546
320.680887,-222.061783,-9326.594869,766.095498
320.681215,-888.247130,-9474.636058,0.000000
320.681542,-1258.350101,-9474.636058,-383.047749
320.681870,-1036.288319,-9178.553681,-536.266849
320.682198,-296.082377,-8956.491898,-153.219100
320.682525,1036.288319,-8586.388927,76.609550
320.682853,1480.411884,-8290.306550,459.657299
320.683180,1480.411884,-8586.388927,766.095498
320.683508,1110.308913,-8660.409521,689.485948
320.683835,444.123565,-9104.533087,1149.143247
320.684163,-296.082377,-9104.533087,842.705048
320.684490,-222.061783,-9622.677246,1072.533697
320.684818,0.000000,-9474.636058,1532.190996
320.685145,370.102971,-9326.594869,2145.067394
320.685473,444.123565,-9474.636058,2221.676944
320.685801,-148.041188,-8586.388927,2374.896044
320.686128,-592.164754,-9770.718434,1685.410096
320.686456,-1628.453072,-9474.636058,995.924147
320.686783,-1924.535449,-9326.594869,153.219100
320.687111,-1850.514855,-9252.574275,0.000000
320.687438,-1554.432478,-8882.471304,536.266849
320.687766,-592.164754,-8660.409521,0.000000
320.688093,-370.102971,-8808.450710,153.219100
320.688421,-592.164754,-8734.430116,459.657299
320.688748,-740.205942,-9252.574275,459.657299
320.689076,-1184.329507,-9178.553681,612.876398
320.689404,-1554.432478,-9474.636058,306.438199
320.689731,-1332.370696,-9400.615463,689.485948
320.690059,-592.164754,-9474.636058,1149.143247
320.690386,0.000000,-9400.615463,1608.800546
320.690714,518.144159,-9474.636058,2068.457845
320.691041,740.205942,-9104.533087,2145.067394
320.691369,-444.123565,-9178.553681,1455.581446
320.691696,-740.205942,-9474.636058,612.876398
320.692024,-888.247130,-9326.594869,153.219100
320.692351,-814.226536,-9252.574275,76.609550
320.692679,370.102971,-8734.430116,689.485948
320.693006,1110.308913,-8734.430116,459.657299
320.693334,1480.411884,-8956.491898,612.876398
320.693662,1628.453072,-8956.491898,766.095498
320.693989,814.226536,-9326.594869,766.095498
320.694317,0.000000,-9548.656652,76.609550
320.694644,-370.102971,-9992.780217,536.266849
320.694972,-740.205942,-9770.718434,459.657299
320.695299,-370.102971,-9400.615463,995.924147
320.695627,222.061783,-9030.512492,1302.362347
320.695954,518.144159,-8290.306550,1685.410096
320.696282,444.123565,-8734.430116,1302.362347
320.696609,-444.123565,-8956.491898,689.485948
320.696937,-1332.370696,-8660.409521,0.000000
320.697265,-1850.514855,-8808.450710,-766.095498
320.697592,-1702.473667,-8438.347739,-919.314598
320.697920,-1332.370696,-8660.409521,-995.924147
320.698247,-592.164754,-8216.285956,-842.705048
320.698575,-148.041188,-8142.265362,-229.828649
320.698902,-222.061783,-8364.327145,0.000000
320.699230,-370.102971,-8660.409521,-229.828649
320.699557,-518.144159,-8882.471304,-306.438199
320.699885,-666.185348,-9178.553681,153.219100
320.700212,-592.164754,-9474.636058,76.609550
320.700540,148.041188,-9400.615463,766.095498
320.700868,814.226536,-9326.594869,1225.752797
320.701195,1332.370696,-9030.512492,1149.143247
320.701523,1258.350101,-9030.512492,1762.019645
320.701850,370.102971,-9474.636058,995.924147
320.702178,-222.061783,-9622.677246,536.266849
320.702505,-888.247130,-9474.636058,0.000000
320.702833,-888.247130,-9104.533087,229.828649
320.703160,0.000000,-8956.491898,0.000000
320.703488,222.061783,-8808.450710,-229.828649
320.703815,962.267725,-8364.327145,229.828649
320.704143,1110.308913,-8438.347739,612.876398
320.704471,518.144159,-8808.450710,766.095498
320.704798,148.041188,-8882.471304,383.047749
320.705126,-592.164754,-9252.574275,689.485948
320.705453,-740.205942,-9400.615463,689.485948
320.705781,-444.123565,-9178.553681,1149.143247
320.706108,74.020594,-9326.594869,1915.238745
320.706436,222.061783,-9178.553681,2221.676944
320.706763,74.020594,-9474.636058,2145.067394
320.707091,-740.205942,-9548.656652,1685.410096
320.707418,-1628.453072,-9400.615463,1149.143247
320.707746,-1850.514855,-9400.615463,689.485948
320.708074,-1998.556043,-9104.533087,0.000000
320.708401,-1184.329507,-8734.430116,229.828649
320.708729,-666.185348,-8882.471304,229.828649
320.709056,-296.082377,-8660.409521,612.876398
320.709384,0.000000,-8660.409521,689.485948
320.709711,-518.144159,-8956.491898,919.314598
320.710039,-1480.411884,-9104.533087,766.095498
320.710366,-1776.494261,-9622.677246,0.000000
320.710694,-1480.411884,-9474.636058,689.485948
320.711021,-814.226536,-9400.615463,842.705048
320.711349,0.000000,-9326.594869,1455.581446
320.711677,592.164754,-8956.491898,2068.457845
320.712004,444.123565,-9252.574275,2068.457845
320.712332,0.000000,-9400.615463,1302.362347
320.712659,-814.226536,-9474.636058,689.485948
320.712987,-1258.350101,-9252.574275,76.609550
320.713314,-888.247130,-9178.553681,0.000000
320.713642,0.000000,-9178.553681,-229.828649
320.713969,740.205942,-8808.450710,0.000000
320.714297,1332.370696,-8734.430116,0.000000
320.714624,1480.411884,-8808.450710,306.438199
320.714952,1332.370696,-8660.409521,842.705048
320.715280,592.164754,-8882.471304,306.438199
320.715607,-148.041188,-9622.677246,76.609550
320.715935,-296.082377,-9474.636058,306.438199
320.716262,0.000000,-9326.594869,689.485948
320.716590,592.164754,-9104.533087,1225.752797
320.716917,592.164754,-9030.512492,1608.800546
320.717245,740.205942,-9178.553681,1302.362347
320.717572,-296.082377,-9030.512492,919.314598
320.717900,-1036.288319,-9178.553681,612.876398
320.718227,-1480.411884,-9326.594869,-306.438199
320.718555,-1554.432478,-8364.327145,0.000000
320.718883,-1036.288319,-8808.450710,0.000000
320.719210,-518.144159,-8512.368333,-229.828649
320.719538,74.020594,-8290.306550,76.609550
320.719865,222.061783,-8438.347739,76.609550
320.720193,-296.082377,-8290.306550,766.095498
320.720520,-666.185348,-9178.553681,0.000000
320.720848,-1036.288319,-9326.594869,76.609550
320.721175,-888.247130,-9326.594869,306.438199
320.721503,-592.164754,-9104.533087,842.705048
320.721830,444.123565,-9104.533087,1532.190996
320.722158,814.226536,-9030.512492,1991.848295
320.722485,444.123565,-9178.553681,1532.190996
320.722813,-370.102971,-9252.574275,1225.752797
320.723141,-1036.288319,-9548.656652,536.266849
320.723468,-1554.432478,-9326.594869,0.000000
320.723796,-1258.350101,-8734.430116,-383.047749
320.724123,-1110.308913,-8660.409521,-536.266849
320.724451,0.000000,-8586.388927,-153.219100
320.724778,518.144159,-8364.327145,0.000000
320.725106,1184.329507,-8216.285956,306.438199
320.725433,1110.308913,-8438.347739,1225.752797
320.725761,0.000000,-8290.306550,612.876398
320.726088,-740.205942,-9252.574275,536.266849
320.726416,-518.144159,-9696.697840,689.485948
320.726744,-444.123565,-9104.533087,1149.143247
320.727071,148.041188,-9030.512492,1532.190996
320.727399,740.205942,-9030.512492,2221.676944
320.727726,592.164754,-8734.430116,1915.238745
320.728054,74.020594,-9474.636058,1915.238745
320.728381,-518.144159,-9474.636058,1302.362347
320.728709,-1036.288319,-8956.491898,536.266849
320.729036,-1480.411884,-9622.677246,153.219100
320.729364,-1332.370696,-9326.594869,0.000000
320.729691,-814.226536,-8956.491898,0.000000
320.730019,-592.164754,-8364.327145,0.000000
320.730347,-148.041188,-8882.471304,153.219100
320.730674,0.000000,-8956.491898,153.219100
320.731002,-1036.288319,-9030.512492,0.000000
320.731329,-1554.432478,-9326.594869,-229.828649
320.731657,-1406.391290,-9252.574275,0.000000
320.731984,-1110.308913,-9622.677246,229.828649
320.732312,296.082377,-9326.594869,842.705048
320.732639,0.000000,-8956.491898,1532.190996
320.732967,0.000000,-8956.491898,1455.581446
320.733294,148.041188,-9770.718434,1455.581446
320.733622,-222.061783,-9622.677246,612.876398
320.733950,-666.185348,-9474.636058,0.000000
320.734277,-666.185348,-9252.574275,0.000000
320.734605,-222.061783,-9474.636058,-153.219100
320.734932,518.144159,-8956.491898,0.000000
320.735260,1332.370696,-9030.512492,153.219100
320.735587,1554.432478,-8512.368333,766.095498
320.735915,1480.411884,-8660.409521,1072.533697
320.736242,518.144159,-9770.718434,612.876398
320.736570,-296.082377,-9622.677246,229.828649
320.736897,-518.144159,-10066.800811,383.047749
320.737225,0.000000,-9622.677246,536.266849
320.737553,0.000000,-8956.491898,766.095498
320.737880,222.061783,-9326.594869,1455.581446
320.738208,74.020594,-9104.533087,1608.800546
320.738535,74.020594,-9178.553681,1455.581446
320.738863,-962.267725,-8956.491898,612.876398
320.739190,-1776.494261,-8956.491898,306.438199
320.739518,-1702.473667,-9030.512492,-459.657299
320.739845,-2072.576638,-9030.512492,-689.485948
320.740173,-888.247130,-8586.388927,-229.828649
320.740500,-296.082377,-8068.244768,-229.828649
320.740828,-518.144159,-7624.121203,-383.047749
320.741156,296.082377,-8882.471304,-459.657299
320.741483,-814.226536,-8734.430116,0.000000
320.741811,-1036.288319,-8882.471304,0.000000
320.742138,-740.205942,-9548.656652,0.000000
320.742466,-518.144159,-8734.430116,229.828649
320.742793,814.226536,-8882.471304,1072.533697
320.743121,444.123565,-8956.491898,1302.362347
320.743448,888.247130,-9252.574275,2145.067394
320.743776,148.041188,-9326.594869,1608.800546
320.744103,-666.185348,-9474.636058,766.095498
320.744431,-444.123565,-9992.780217,153.219100
320.744759,-1110.308913,-9474.636058,0.000000
320.745086,-962.267725,-9178.553681,-459.657299
320.745414,0.000000,-8956.491898,0.000000
320.745741,296.082377,-8512.368333,-229.828649
320.746069,888.247130,-8586.388927,0.000000
320.746396,1406.391290,-8438.347739,76.609550
320.746724,888.247130,-8882.471304,0.000000
320.747051,-296.082377,-9326.594869,0.000000
320.747379,444.123565,-9548.656652,766.095498
320.747706,-518.144159,-9400.615463,1149.143247
320.748034,222.061783,-9178.553681,1532.190996
320.748362,148.041188,-9326.594869,1685.410096
320.748689,1036.288319,-9696.697840,2298.286494
320.749017,-444.123565,-9326.594869,1455.581446
320.749344,-666.185348,-9992.780217,1762.019645
320.749672,-1332.370696,-9400.615463,995.924147
320.749999,-1776.494261,-9548.656652,0.000000
320.750327,-1332.370696,-9548.656652,153.219100
320.750654,-1110.308913,-8882.471304,-383.047749
320.750982,-148.041188,-8660.409521,153.219100
320.751309,0.000000,-8216.285956,459.657299
320.751637,0.000000,-9400.615463,536.266849
320.751964,0.000000,-9030.512492,536.266849
320.752292,-1332.370696,-9622.677246,76.609550
320.752620,-1332.370696,-9918.759623,459.657299
320.752947,-1184.329507,-9474.636058,689.485948
320.753275,-370.102971,-9400.615463,1072.533697
320.753602,-222.061783,-9030.512492,1762.019645
320.753930,296.082377,-9844.739029,2068.457845
320.754257,740.205942,-9474.636058,1685.410096
320.754585,-296.082377,-9252.574275,995.924147
320.754912,-814.226536,-9918.759623,689.485948
320.755240,-1406.391290,-9252.574275,0.000000
320.755567,-1110.308913,-9030.512492,0.000000
320.755895,148.041188,-9178.553681,0.000000
320.756223,666.185348,-8586.388927,153.219100
320.756550,962.267725,-8586.388927,153.219100
320.756878,1332.370696,-9252.574275,383.047749
320.757205,518.144159,-9104.533087,459.657299
320.757533,-296.082377,-9622.677246,229.828649
320.757860,-740.205942,-9770.718434,229.828649
320.758188,-518.144159,-9252.574275,689.485948
320.758515,-370.102971,-9104.533087,689.485948
320.758843,370.102971,-9474.636058,1608.800546
320.759170,444.123565,-9030.512492,1685.410096
320.759498,148.041188,-8882.471304,1685.410096
320.759826,-888.247130,-8882.471304,612.876398
320.760153,-1406.391290,-9178.553681,153.219100
320.760481,-1480.411884,-8734.430116,-306.438199
320.760808,-1332.370696,-8364.327145,-306.438199
320.761136,-592.164754,-8364.327145,-459.657299
320.761463,-518.144159,-7920.203579,-383.047749
320.761791,666.185348,-8438.347739,0.000000
320.762118,666.185348,-8586.388927,459.657299
320.762446,-74.020594,-8734.430116,459.657299
320.762773,-592.164754,-8956.491898,306.438199
320.763101,-962.267725,-9622.677246,383.047749
320.763429,-592.164754,-9400.615463,1302.362347
320.763756,148.041188,-9400.615463,1225.752797
320.764084,370.102971,-9252.574275,1532.190996
320.764411,296.082377,-8882.471304,1762.019645
320.764739,-148.041188,-9030.512492,1378.971896
320.765066,-296.082377,-9548.656652,842.705048
320.765394,-962.267725,-8956.491898,612.876398
320.765721,-1776.494261,-8808.450710,-153.219100
320.766049,-1184.329507,-8660.409521,-612.876398
320.766376,-666.185348,-8882.471304,-306.438199
320.766704,74.020594,-8438.347739,-306.438199
320.767032,1036.288319,-7698.141797,0.000000
320.767359,1036.288319,-8216.285956,383.047749
320.767687,518.144159,-8808.450710,306.438199
320.768014,-296.082377,-9104.533087,76.609550
320.768342,-666.185348,-9178.553681,459.657299
320.768669,0.000000,-9400.615463,842.705048
320.768997,222.061783,-9400.615463,1225.752797
320.769324,592.164754,-9400.615463,1838.629195
320.769652,814.226536,-9326.594869,1991.848295
320.769979,666.185348,-9474.636058,1685.410096
320.770307,-74.020594,-9400.615463,1532.190996
320.770635,-1110.308913,-9696.697840,689.485948
320.770962,-1332.370696,-9474.636058,0.000000
320.771290,-1554.432478,-9474.636058,-229.828649
320.771617,-1036.288319,-9400.615463,-459.657299
320.771945,-370.102971,-9252.574275,-383.047749
320.772272,0.000000,-8734.430116,153.219100
320.772600,0.000000,-8808.450710,229.828649
320.772927,-518.144159,-8808.450710,0.000000
320.773255,-1036.288319,-9178.553681,0.000000
320.773582,-1184.329507,-9474.636058,-306.438199
320.773910,-1036.288319,-9474.636058,1072.533697
320.774238,-666.185348,-9104.533087,612.876398
320.774565,148.041188,-8882.471304,1302.362347
320.774893,444.123565,-9030.512492,1762.019645
320.775220,518.144159,-9252.574275,1991.848295
320.775548,0.000000,-9326.594869,1302.362347
320.775875,-740.205942,-9252.574275,459.657299
320.776203,-1110.308913,-9252.574275,306.438199
320.776530,-962.267725,-9178.553681,0.000000
320.776858,-296.082377,-9030.512492,0.000000
320.777185,740.205942,-9030.512492,0.000000
320.777513,1480.411884,-8734.430116,229.828649
320.777841,1406.391290,-8882.471304,459.657299
320.778168,518.144159,-9104.533087,995.924147
320.778496,0.000000,-9474.636058,766.095498
320.778823,-444.123565,-9696.697840,689.485948
320.779151,-888.247130,-9548.656652,766.095498
320.779478,-296.082377,-9696.697840,1149.143247
320.779806,0.000000,-9474.636058,1838.629195
320.780133,74.020594,-8956.491898,2298.286494
320.780461,0.000000,-9326.594869,1608.800546
320.780788,-962.267725,-9030.512492,1685.410096
320.781116,-1480.411884,-8660.409521,536.266849
320.781443,-1924.535449,-8734.430116,0.000000
320.781771,-1924.535449,-8512.368333,0.000000
320.782099,-1406.391290,-8438.347739,-229.828649
320.782426,-148.041188,-7772.162391,-306.438199
320.782754,0.000000,-8068.244768,76.609550
320.783081,74.020594,-8216.285956,0.000000
320.783409,-370.102971,-8956.491898,0.000000
320.783736,-888.247130,-9400.615463,0.000000
320.784064,-1036.288319,-9474.636058,-229.828649
320.784391,-666.185348,-9474.636058,383.047749
320.784719,-296.082377,-9400.615463,0.000000
320.785046,666.185348,-9400.615463,1455.581446
320.785374,740.205942,-9474.636058,1532.190996
320.785701,1184.329507,-9178.553681,1915.238745
320.786029,0.000000,-9252.574275,766.095498
320.786356,-592.164754,-9474.636058,459.657299
320.786684,-1036.288319,-9474.636058,0.000000
320.787012,-1110.308913,-9326.594869,-383.047749
320.787339,0.000000,-8734.430116,0.000000
320.787667,296.082377,-8438.347739,-383.047749
320.787994,1184.329507,-8512.368333,76.609550
320.788322,1480.411884,-8512.368333,459.657299
320.788649,1036.288319,-8808.450710,689.485948
320.788977,148.041188,-9326.594869,229.828649
320.789304,-148.041188,-9844.739029,612.876398
320.789632,-740.205942,-9770.718434,766.095498
320.789959,-148.041188,-9622.677246,1225.752797
320.790287,0.000000,-9474.636058,1455.581446
320.790614,444.123565,-9548.656652,1762.019645
320.790942,148.041188,-9548.656652,1455.581446
320.791269,-444.123565,-9474.636058,1532.190996
320.791597,-1110.308913,-9326.594869,766.095498
320.791924,-1924.535449,-9400.615463,76.609550
320.792252,-1924.535449,-9400.615463,0.000000
320.792580,-1628.453072,-9474.636058,-919.314598
320.792907,-962.267725,-8734.430116,0.000000
320.793235,-296.082377,-8586.388927,0.000000
320.793562,0.000000,-8512.368333,76.609550
320.793890,-296.082377,-8734.430116,0.000000
320.794217,-888.247130,-9030.512492,306.438199
320.794545,-666.185348,-9178.553681,383.047749
320.794872,-1258.350101,-9326.594869,229.828649
320.795200,-444.123565,-9252.574275,919.314598
320.795527,74.020594,-9104.533087,1225.752797
320.795855,740.205942,-9104.533087,1685.410096
320.796182,592.164754,-9030.512492,2221.676944
320.796510,296.082377,-9474.636058,1302.362347
320.796837,-222.061783,-9474.636058,766.095498
320.797165,-740.205942,-9326.594869,459.657299
320.797492,-962.267725,-9326.594869,0.000000
320.797820,0.000000,-9030.512492,-383.047749
320.798148,148.041188,-8808.450710,76.609550
320.798475,1036.288319,-8734.430116,306.438199
320.798803,1332.370696,-8512.368333,612.876398
320.799130,888.247130,-8882.471304,536.266849
320.799458,0.000000,-9030.512492,536.266849
320.799785,-592.164754,-9178.553681,536.266849
320.800113,-888.247130,-9474.636058,536.266849
320.800440,-592.164754,-9252.574275,842.705048
320.800768,-222.061783,-8956.491898,1455.581446
320.801095,0.000000,-8660.409521,1608.800546
320.801423,222.061783,-8586.388927,2145.067394
320.801750,-518.144159,-8586.388927,1302.362347
320.802078,-1184.329507,-8734.430116,919.314598
320.802405,-1776.494261,-8808.450710,229.828649
320.802733,-1628.453072,-8734.430116,0.000000
320.803060,-1184.329507,-7772.162391,0.000000
320.803388,-740.205942,-8438.347739,0.000000
320.803716,0.000000,-8364.327145,306.438199
320.804043,0.000000,-8512.368333,306.438199
320.804371,-296.082377,-8956.491898,229.828649
320.804698,-666.185348,-9104.533087,612.876398
320.805026,-814.226536,-9326.594869,76.609550
320.805353,-740.205942,-9548.656652,383.047749
320.805681,-148.041188,-9474.636058,766.095498
320.806008,148.041188,-9326.594869,1685.410096
320.806336,592.164754,-9252.574275,2221.676944
320.806663,592.164754,-9326.594869,1455.581446
320.806991,-148.041188,-9474.636058,1225.752797
320.807318,-814.226536,-9474.636058,842.705048
320.807646,-1480.411884,-9474.636058,-229.828649
320.807973,-1702.473667,-9178.553681,-459.657299
320.808301,-1332.370696,-8586.388927,-919.314598
320.808628,0.000000,-8660.409521,-229.828649
320.808956,962.267725,-8364.327145,0.000000
320.809284,1184.329507,-8364.327145,153.219100
320.809611,1110.308913,-8512.368333,76.609550
320.809939,962.267725,-8956.491898,459.657299
320.810266,-74.020594,-9326.594869,229.828649
320.810594,-444.123565,-9844.739029,153.219100
320.810921,-222.061783,-9696.697840,612.876398
320.811249,74.020594,-9622.677246,1378.971896
320.811576,888.247130,-9474.636058,2298.286494
320.811904,518.144159,-9474.636058,1915.238745
320.812231,296.082377,-9474.636058,1378.971896
320.812559,-222.061783,-9770.718434,995.924147
320.812886,-1406.391290,-9474.636058,0.000000
320.813214,-1480.411884,-9178.553681,0.000000
320.813541,-1332.370696,-9474.636058,-766.095498
320.813869,-962.267725,-8882.471304,-306.438199
320.814196,-370.102971,-8808.450710,0.000000
320.814524,0.000000,-8586.388927,153.219100
320.814852,-444.123565,-8364.327145,153.219100
320.815179,-666.185348,-8882.471304,459.657299
320.815507,-1406.391290,-8882.471304,153.219100
320.815834,-1554.432478,-9252.574275,459.657299
320.816162,-962.267725,-9104.533087,689.485948
320.816489,0.000000,-9252.574275,1149.143247
320.816817,148.041188,-8068.244768,1838.629195
320.817144,592.164754,-9400.615463,1762.019645
320.817472,222.061783,-8956.491898,1532.190996
320.817799,-370.102971,-9326.594869,1302.362347
320.818127,-888.247130,-9474.636058,536.266849
320.818454,-740.205942,-9326.594869,153.219100
320.818782,-962.267725,-9178.553681,-383.047749
320.819109,148.041188,-9178.553681,-153.219100
320.819437,666.185348,-8808.450710,76.609550
320.819764,1184.329507,-8882.471304,766.095498
320.820092,1036.288319,-8882.471304,1072.533697
320.820419,666.185348,-9178.553681,612.876398
320.820747,148.041188,-9548.656652,383.047749
320.821075,-518.144159,-9548.656652,459.657299
320.821402,-592.164754,-9474.636058,842.705048
320.821730,-296.082377,-9252.574275,1455.581446
320.822057,296.082377,-8734.430116,1302.362347
320.822385,296.082377,-9104.533087,1685.410096
320.822712,0.000000,-8882.471304,1762.019645
320.823040,-1036.288319,-8956.491898,1072.533697
320.823367,-1480.411884,-8882.471304,229.828649
320.823695,-1110.308913,-9252.574275,76.609550
320.824022,-1554.432478,-8290.306550,-459.657299
320.824350,-962.267725,-8586.388927,-459.657299
320.824677,0.000000,-8586.388927,0.000000
320.825005,148.041188,-8586.388927,76.609550
320.825332,0.000000,-8956.491898,459.657299
320.825660,-370.102971,-8734.430116,76.609550
320.825987,-888.247130,-9474.636058,153.219100
320.826315,-1184.329507,-9548.656652,76.609550
320.826643,-740.205942,-9696.697840,612.876398
320.826970,-148.041188,-9252.574275,995.924147
320.827298,814.226536,-9178.553681,1685.410096
320.827625,444.123565,-9252.574275,1685.410096
320.827953,0.000000,-9252.574275,1608.800546
320.828280,-370.102971,-9696.697840,689.485948
320.828608,-962.267725,-9178.553681,76.609550
320.828935,-1184.329507,-9252.574275,0.000000
320.829263,-962.267725,-9178.553681,-383.047749
320.829590,74.020594,-8808.450710,0.000000
320.829918,888.247130,-8586.388927,76.609550
320.830245,1554.432478,-8586.388927,229.828649
320.830573,1406.391290,-8216.285956,459.657299
320.830900,740.205942,-9030.512492,229.828649
320.831228,0.000000,-9474.636058,689.485948
320.831555,-888.247130,-9474.636058,612.876398
320.831883,-518.144159,-9770.718434,842.705048
320.832211,0.000000,-9844.739029,1302.362347
320.832538,814.226536,-9326.594869,2451.505594
320.832866,370.102971,-9474.636058,1915.238745
320.833193,148.041188,-9326.594869,1915.238745
320.833521,-592.164754,-9474.636058,1149.143247
320.833848,-1258.350101,-9326.594869,689.485948
320.834176,-2072.576638,-9474.636058,76.609550
320.834503,-1998.556043,-8956.491898,-306.438199
320.834831,-1554.432478,-8956.491898,-383.047749
320.835158,-888.247130,-8586.388927,0.000000
320.835486,-370.102971,-8512.368333,0.000000
320.835813,-518.144159,-8068.244768,0.000000
320.836141,-666.185348,-8808.450710,153.219100
320.836468,-1184.329507,-9104.533087,306.438199
320.836796,-1628.453072,-9104.533087,76.609550
320.837123,-1110.308913,-9326.594869,459.657299
320.837451,-740.205942,-9030.512492,1072.533697
320.837779,370.102971,-8882.471304,995.924147
320.838106,888.247130,-9030.512492,1378.971896
320.838434,740.205942,-8808.450710,1608.800546
320.838761,148.041188,-9104.533087,1225.752797
320.839089,-444.123565,-8956.491898,76.609550
320.839416,-962.267725,-8956.491898,0.000000
320.839744,-592.164754,-9326.594869,-383.047749
320.840071,74.020594,-9104.533087,-612.876398
320.840399,740.205942,-8956.491898,-153.219100
320.840726,1184.329507,-8586.388927,306.438199
320.841054,1258.350101,-8734.430116,306.438199
320.841381,370.102971,-9030.512492,229.828649
320.841709,-148.041188,-9326.594869,76.609550
320.842036,-370.102971,-9548.656652,153.219100
320.842364,-666.185348,-9474.636058,76.609550
320.842691,-148.041188,-8734.430116,842.705048
320.843019,74.020594,-8882.471304,1149.143247
320.843347,814.226536,-8734.430116,1685.410096
320.843674,0.000000,-8660.409521,1225.752797
320.844002,0.000000,-9030.512492,995.924147
320.844329,-888.247130,-9030.512492,766.095498
320.844657,-1480.411884,-8808.450710,-383.047749
320.844984,-1184.329507,-9178.553681,-229.828649
320.845312,-962.267725,-8734.430116,-536.266849
320.845639,-296.082377,-8882.471304,153.219100
320.845967,-370.102971,-8586.388927,0.000000
320.846294,444.123565,-8808.450710,383.047749
320.846622,-222.061783,-9252.574275,306.438199
320.846949,-1258.350101,-9252.574275,229.828649
320.847277,-518.144159,-9992.780217,383.047749
320.847604,-592.164754,-9548.656652,383.047749
320.847932,-592.164754,-9030.512492,1225.752797
320.848259,518.144159,-9770.718434,1225.752797
320.848587,962.267725,-9622.677246,1991.848295
320.848915,-370.102971,-9030.512492,1302.362347
320.849242,-962.267725,-9696.697840,1302.362347
320.849570,-740.205942,-9696.697840,1608.800546
320.849897,-888.247130,-10066.800811,0.000000
320.850225,-1332.370696,-9104.533087,0.000000
320.850552,222.061783,-9104.533087,0.000000
320.850880,74.020594,-9030.512492,0.000000
320.851207,1480.411884,-8364.327145,995.924147
320.851535,222.061783,-7624.121203,536.266849
320.851862,888.247130,-9400.615463,995.924147
320.852190,518.144159,-8956.491898,842.705048
320.852517,-888.247130,-9696.697840,536.266849
320.852845,0.000000,-10288.862594,1072.533697
320.853172,-814.226536,-9104.533087,1149.143247
320.853500,370.102971,-9918.759623,2221.676944
320.853827,1406.391290,-9548.656652,2374.896044
320.854155,-518.144159,-9252.574275,1455.581446
320.854482,-740.205942,-9844.739029,1532.190996
320.854810,-1480.411884,-9252.574275,995.924147
320.855138,-1628.453072,-9326.594869,229.828649
320.855465,-1924.535449,-9252.574275,0.000000
320.855793,-1480.411884,-8438.347739,-536.266849
320.856120,-666.185348,-8808.450710,-459.657299
320.856448,296.082377,-8216.285956,306.438199
320.856775,-222.061783,-7846.182985,306.438199
320.857103,-666.185348,-9104.533087,306.438199
320.857430,-518.144159,-8586.388927,76.609550
320.857758,-962.267725,-9622.677246,306.438199
320.858085,-370.102971,-9104.533087,612.876398
320.858413,-592.164754,-9104.533087,766.095498
320.858740,-222.061783,-8808.450710,1302.362347
