#time,accel_x,accel_y,accel_z
537.134290,-222.061783,-9030.512492,459.657299
537.134617,-222.061783,-9178.553681,383.047749
537.134945,-222.061783,-8808.450710,536.266849
537.135273,0.000000,-9252.574275,612.876398
537.135601,-296.082377,-9104.533087,459.657299
537.135929,-296.082377,-9252.574275,459.657299
537.136256,-222.061783,-9400.615463,612.876398
537.136584,-222.061783,-9400.615463,689.485948
537.136912,-222.061783,-9252.574275,612.876398
537.137240,0.000000,-9104.533087,612.876398
537.137568,0.000000,-9104.533087,612.876398
537.137895,-296.082377,-9030.512492,306.438199
537.138223,-222.061783,-8956.491898,612.876398
537.138551,0.000000,-8808.450710,995.924147
537.138879,-148.041188,-9104.533087,766.095498
537.139207,-222.061783,-9104.533087,766.095498
537.139534,-296.082377,-9252.574275,689.485948
537.139862,-222.061783,-9252.574275,842.705048
537.140190,0.000000,-8660.409521,612.876398
537.140518,0.000000,-8808.450710,383.047749
537.140846,-370.102971,-8882.471304,536.266849
537.141173,-296.082377,-9252.574275,919.314598
537.141501,-370.102971,-9178.553681,689.485948
537.141829,-148.041188,-8808.450710,1072.533697
537.142157,-74.020594,-8586.388927,153.219100
537.142485,-148.041188,-9252.574275,536.266849
537.142812,-444.123565,-9104.533087,766.095498
537.143140,-444.123565,-9178.553681,536.266849
537.143468,-222.061783,-9178.553681,612.876398
537.143796,0.000000,-8882.471304,536.266849
537.144124,-296.082377,-9178.553681,459.657299
537.144451,-740.205942,-9252.574275,153.219100
537.144779,-1036.288319,-9326.594869,76.609550
537.145107,-1332.370696,-9474.636058,-383.047749
537.145435,-1850.514855,-9178.553681,0.000000
537.145762,-1036.288319,-8808.450710,0.000000
537.146090,-370.102971,-8956.491898,-306.438199
537.146418,-370.102971,-9030.512492,-229.828649
537.146746,-962.267725,-9326.594869,-689.485948
537.147074,-1480.411884,-9252.574275,-536.266849
537.147401,-962.267725,-9252.574275,-1378.971896
537.147729,-962.267725,-9104.533087,-1532.190996
537.148057,-666.185348,-9030.512492,-1302.362347
537.148385,-592.164754,-9400.615463,-1378.971896
537.148713,-148.041188,-9104.533087,-1072.533697
537.149040,370.102971,-9474.636058,-1225.752797
537.149368,0.000000,-8956.491898,-1378.971896
537.149696,0.000000,-9252.574275,-1608.800546
537.150024,-296.082377,-9326.594869,-1608.800546
537.150352,148.041188,-9326.594869,-1915.238745
537.150679,370.102971,-9030.512492,-1685.410096
537.151007,370.102971,-9104.533087,-1378.971896
537.151335,296.082377,-9030.512492,-1685.410096
537.151663,592.164754,-9548.656652,-1608.800546
537.151991,518.144159,-9474.636058,-1608.800546
537.152318,148.041188,-9178.553681,-1455.581446
537.152646,74.020594,-9178.553681,-1991.848295
537.152974,0.000000,-9252.574275,-1838.629195
537.153302,148.041188,-9252.574275,-1685.410096
537.153630,74.020594,-9400.615463,-1762.019645
537.153957,0.000000,-8956.491898,-1532.190996
537.154285,-444.123565,-9030.512492,-1608.800546
537.154613,-888.247130,-9178.553681,-1915.238745
537.154941,-1110.308913,-9252.574275,-2068.457845
537.155269,-1332.370696,-8956.491898,-2145.067394
537.155596,-1110.308913,-9178.553681,-2681.334243
537.155924,-1628.453072,-8512.368333,-2757.943793
537.156252,-2072.576638,-9104.533087,-2528.115143
537.156580,-2146.597232,-9178.553681,-2987.772442
537.156908,-2146.597232,-8956.491898,-3524.039291
537.157235,-2072.576638,-8808.450710,-3830.477490
537.157563,-1776.494261,-8660.409521,-3677.258390
537.157891,-2146.597232,-8734.430116,-4213.525239
537.158219,-1998.556043,-9030.512492,-4213.525239
537.158547,-1258.350101,-8956.491898,-3983.696590
537.158874,-740.205942,-8956.491898,-3983.696590
537.159202,0.000000,-8660.409521,-3524.039291
537.159530,962.267725,-9326.594869,-3447.429741
537.159858,1406.391290,-9178.553681,-2604.724693
537.160186,1776.494261,-9030.512492,-2604.724693
537.160513,2368.659014,-9030.512492,-2068.457845
537.160841,2072.576638,-9178.553681,-2145.067394
537.161169,1998.556043,-9918.759623,-2068.457845
537.161497,814.226536,-10140.821405,-2451.505594
537.161825,0.000000,-10362.883188,-2757.943793
537.162152,-740.205942,-10658.965565,-3217.601092
537.162480,-1406.391290,-10066.800811,-3830.477490
537.162808,-2072.576638,-10436.903782,-4903.011187
537.163136,-1628.453072,-9178.553681,-4903.011187
537.163464,-518.144159,-8512.368333,-4673.182538
537.163791,1036.288319,-7476.080014,-3907.087040
537.164119,2442.679609,-7105.977043,-3370.820191
537.164447,2812.782580,-6587.832884,-2451.505594
537.164775,2590.720797,-7624.121203,-2221.676944
537.165103,814.226536,-8586.388927,-2068.457845
537.165430,-814.226536,-9918.759623,-1991.848295
537.165758,-2738.761985,-10732.986159,-2298.286494
537.166086,-3997.112087,-11177.109724,-2451.505594
537.166414,-3997.112087,-10955.047942,-2911.162892
537.166742,-2516.700203,-10066.800811,-2451.505594
537.167069,-222.061783,-8734.430116,-2298.286494
537.167397,3256.906145,-7031.956449,-919.314598
537.167725,7698.141797,-5403.503377,842.705048
537.168053,10584.944971,-4885.359217,2834.553343
537.168381,10732.986159,-6217.729913,4290.134789
537.168708,6587.832884,-9104.533087,4213.525239
537.169036,-296.082377,-12287.418637,3064.381992
537.169364,-6883.915261,-14434.015869,1608.800546
537.169692,-10436.903782,-15322.262999,-383.047749
537.170020,-11547.212695,-14137.933492,-1915.238745
537.170347,-9326.594869,-11695.253884,-1532.190996
537.170675,-5181.441594,-9474.636058,-1608.800546
537.171003,-1036.288319,-6957.935855,0.000000
537.171331,-740.205942,-4737.318029,-2374.896044
537.171659,-740.205942,-5107.421000,-3064.381992
537.171986,-6735.874072,-6439.791695,-6588.421283
537.172314,-10362.883188,-7846.182985,-8580.269578
537.172642,-14285.974681,-9326.594869,-10418.898773
537.172970,-13101.645173,-8660.409521,-9729.412825
537.173298,-9400.615463,-7698.141797,-8350.440928
537.173625,-3552.988522,-6957.935855,-7354.516781
537.173953,2664.741391,-6661.853478,-4673.182538
537.174281,4515.256246,-7031.956449,-5286.058936
537.174609,5255.462188,-9252.574275,-4519.963438
537.174937,2368.659014,-9992.780217,-5975.544884
537.175264,2590.720797,-11843.295072,-6435.202183
537.175592,4071.132681,-10658.965565,-6358.592633
537.175920,9326.594869,-10362.883188,-4443.353888
537.176248,12139.377449,-9622.677246,-2451.505594
537.176576,12287.418637,-9474.636058,-1302.362347
537.176903,12361.439231,-10288.862594,-995.924147
537.177231,11251.130318,-9474.636058,-2221.676944
537.177559,11695.253884,-9844.739029,-1991.848295
537.177887,13027.624579,-11177.109724,0.000000
537.178215,9474.636058,-11399.171507,-2528.115143
537.178542,-518.144159,-13989.892304,-3447.429741
537.178870,-5921.647536,-14804.118840,-6511.811733
537.179198,-11103.089130,-12953.603985,-7584.345430
537.179526,-7994.224174,-8068.244768,-7507.735880
537.179854,-1406.391290,-3627.009116,-5209.449386
537.180181,2812.782580,-2738.761985,-2834.553343
537.180509,3330.926739,-2220.617826,-1991.848295
537.180837,1702.473667,-3034.844362,-766.095498
537.181165,-2368.659014,-4441.235652,-766.095498
537.181493,-4441.235652,-5255.462188,-1762.019645
537.181820,-5033.400406,-7105.977043,-995.924147
537.182148,-5773.606348,-9252.574275,0.000000
537.182476,-5773.606348,-9548.656652,1991.848295
537.182804,-4737.318029,-9696.697840,4060.306139
537.183132,-3775.050304,-8660.409521,4596.572988
537.183459,-1110.308913,-7846.182985,4519.963438
537.183787,-1554.432478,-9844.739029,2451.505594
537.184115,-4293.194464,-11399.171507,-153.219100
537.184443,-5995.668130,-11843.295072,-1302.362347
537.184771,-6365.771101,-11103.089130,-1378.971896
537.185098,-3478.967927,-8438.347739,-919.314598
537.185426,-740.205942,-8142.265362,0.000000
537.185754,592.164754,-8586.388927,0.000000
537.186082,-888.247130,-9474.636058,306.438199
537.186410,-3701.029710,-9104.533087,76.609550
537.186737,-3775.050304,-8956.491898,0.000000
537.187065,-2812.782580,-10436.903782,-842.705048
537.187393,-2294.638420,-11325.150913,-1225.752797
537.187721,-2738.761985,-11621.233289,-1685.410096
537.188049,-3330.926739,-10732.986159,-2528.115143
537.188376,-1628.453072,-7994.224174,-1149.143247
537.188704,0.000000,-6217.729913,-1762.019645
537.189032,1184.329507,-7254.018232,-2451.505594
537.189360,2368.659014,-7031.956449,-4596.572988
537.189688,5033.400406,-8068.244768,-3907.087040
537.190015,5995.668130,-7698.141797,-3600.648841
537.190343,6883.915261,-7254.018232,-3064.381992
537.190671,6365.771101,-11103.089130,-2221.676944
537.190999,5995.668130,-13767.830521,-1532.190996
537.191326,5033.400406,-13693.809927,-1762.019645
537.191654,3849.070898,-13693.809927,-1378.971896
537.191982,3034.844362,-12657.521608,-842.705048
537.192310,518.144159,-12583.501014,-1072.533697
537.192637,592.164754,-12139.377449,-766.095498
537.192965,2146.597232,-10807.006753,-153.219100
537.193293,888.247130,-9474.636058,-1302.362347
537.193621,518.144159,-8956.491898,-1072.533697
537.193948,-1332.370696,-7846.182985,-2834.553343
537.194276,-3627.009116,-7328.038826,-3677.258390
537.194604,-3034.844362,-6587.832884,-4213.525239
537.194932,-2664.741391,-6069.688724,-3600.648841
537.195259,-3478.967927,-5255.462188,-3064.381992
537.195587,-1998.556043,-4145.153275,-1685.410096
537.195915,-1184.329507,-5403.503377,-383.047749
537.196243,-2516.700203,-7105.977043,-536.266849
537.196570,-3775.050304,-9474.636058,-766.095498
537.196898,-4441.235652,-9696.697840,-1149.143247
537.197226,-3997.112087,-8660.409521,-383.047749
537.197553,-2590.720797,-8586.388927,0.000000
537.197881,-370.102971,-7846.182985,689.485948
537.198209,2368.659014,-7550.100608,1608.800546
537.198537,4293.194464,-7105.977043,2528.115143
537.198864,4219.173869,-8438.347739,3524.039291
537.199192,814.226536,-10288.862594,1762.019645
537.199520,-1184.329507,-11177.109724,919.314598
537.199848,-1110.308913,-11177.109724,306.438199
537.200175,444.123565,-10807.006753,536.266849
537.200503,1332.370696,-9252.574275,536.266849
537.200831,3108.864956,-8216.285956,2221.676944
537.201159,4367.215058,-7031.956449,2681.334243
537.201486,4219.173869,-6587.832884,3907.087040
537.201814,1554.432478,-7846.182985,2604.724693
537.202142,-2368.659014,-9178.553681,1225.752797
537.202470,-4515.256246,-9326.594869,229.828649
537.202797,-6439.791695,-9104.533087,0.000000
537.203125,-4885.359217,-8438.347739,536.266849
537.203453,-1776.494261,-7179.997637,919.314598
537.203781,1036.288319,-6809.894666,1685.410096
537.204108,2442.679609,-6735.874072,2221.676944
537.204436,888.247130,-7698.141797,1608.800546
537.204764,-3108.864956,-9622.677246,153.219100
537.205092,-6957.935855,-11621.233289,-1532.190996
537.205419,-6587.832884,-12213.398043,-2068.457845
537.205747,-4811.338623,-11473.192101,-1991.848295
537.206075,-2442.679609,-10955.047942,-1149.143247
537.206403,222.061783,-10140.821405,153.219100
537.206730,2886.803174,-8882.471304,1608.800546
537.207058,3182.885551,-8586.388927,2145.067394
537.207386,2220.617826,-9918.759623,2374.896044
537.207714,-592.164754,-10510.924376,-383.047749
537.208041,-1406.391290,-11177.109724,-536.266849
537.208369,-1480.411884,-10584.944971,0.000000
537.208697,962.267725,-9992.780217,1072.533697
537.209025,3552.988522,-9474.636058,2528.115143
537.209352,5995.668130,-8882.471304,3600.648841
537.209680,6587.832884,-7624.121203,4136.915689
537.210008,4441.235652,-8512.368333,3447.429741
537.210335,74.020594,-9918.759623,1072.533697
537.210663,-3182.885551,-10658.965565,-612.876398
537.210991,-2442.679609,-11177.109724,-1762.019645
537.211319,-2146.597232,-10955.047942,-383.047749
537.211646,-1036.288319,-9992.780217,306.438199
537.211974,814.226536,-9770.718434,1149.143247
537.212302,1924.535449,-8438.347739,1685.410096
537.212630,0.000000,-8364.327145,919.314598
537.212957,-1480.411884,-9474.636058,0.000000
537.213285,-5847.626942,-10436.903782,-2068.457845
537.213613,-6587.832884,-10066.800811,-2681.334243
537.213941,-5255.462188,-9992.780217,-1532.190996
537.214268,-3330.926739,-8438.347739,-612.876398
537.214596,-1036.288319,-7846.182985,459.657299
537.214924,1332.370696,-7698.141797,1149.143247
537.215252,1776.494261,-6143.709319,995.924147
537.215579,1776.494261,-6587.832884,689.485948
537.215907,-814.226536,-7920.203579,-689.485948
537.216235,-2368.659014,-7772.162391,-1991.848295
537.216563,-2072.576638,-8956.491898,-1608.800546
537.216890,0.000000,-9178.553681,-459.657299
537.217218,1480.411884,-8068.244768,612.876398
537.217546,3849.070898,-8364.327145,1608.800546
537.217874,6143.709319,-7920.203579,2145.067394
537.218201,5477.523971,-7254.018232,2068.457845
537.218529,3404.947333,-8660.409521,919.314598
537.218857,1036.288319,-10214.842000,153.219100
537.219185,-222.061783,-10066.800811,-153.219100
537.219512,148.041188,-9992.780217,612.876398
537.219840,74.020594,-9844.739029,1302.362347
537.220168,1184.329507,-9770.718434,2298.286494
537.220496,2738.761985,-8586.388927,3064.381992
537.220823,1628.453072,-8142.265362,2681.334243
537.221151,222.061783,-7846.182985,1991.848295
537.221479,-2590.720797,-9030.512492,612.876398
537.221807,-4885.359217,-9474.636058,0.000000
537.222134,-4663.297435,-8734.430116,-689.485948
537.222462,-3627.009116,-8808.450710,0.000000
537.222790,-2812.782580,-8290.306550,459.657299
537.223117,-1332.370696,-7254.018232,1149.143247
537.223445,0.000000,-6143.709319,1608.800546
537.223773,296.082377,-6069.688724,1225.752797
537.224101,-1406.391290,-7550.100608,536.266849
537.224428,-4145.153275,-9252.574275,-612.876398
537.224756,-4663.297435,-9696.697840,-919.314598
537.225084,-4737.318029,-9844.739029,-229.828649
537.225412,-3034.844362,-10140.821405,459.657299
537.225739,-1480.411884,-10732.986159,1149.143247
537.226067,592.164754,-10584.944971,1685.410096
537.226395,1924.535449,-8660.409521,2298.286494
537.226723,2664.741391,-9400.615463,2221.676944
537.227050,592.164754,-9918.759623,612.876398
537.227378,-296.082377,-10140.821405,-229.828649
537.227706,592.164754,-11103.089130,-306.438199
537.228034,1406.391290,-10436.903782,153.219100
537.228361,962.267725,-9548.656652,1149.143247
537.228689,2368.659014,-10140.821405,1608.800546
537.229017,3997.112087,-10066.800811,2757.943793
537.229345,2664.741391,-9030.512492,1915.238745
537.229672,2368.659014,-9770.718434,2068.457845
537.230000,-370.102971,-9770.718434,306.438199
537.230328,-2072.576638,-10214.842000,-459.657299
537.230656,-1776.494261,-10140.821405,-536.266849
537.230983,-1554.432478,-10214.842000,-153.219100
537.231311,-1332.370696,-9696.697840,0.000000
537.231639,1184.329507,-9326.594869,76.609550
537.231967,1554.432478,-8290.306550,689.485948
537.232294,888.247130,-8586.388927,612.876398
537.232622,-814.226536,-9252.574275,-459.657299
537.232950,-2368.659014,-9696.697840,-1302.362347
537.233278,-2368.659014,-9770.718434,-919.314598
537.233605,-1776.494261,-9844.739029,-919.314598
537.233933,-2072.576638,-9844.739029,0.000000
537.234261,-370.102971,-9474.636058,766.095498
537.234589,1110.308913,-8512.368333,1608.800546
537.234916,1110.308913,-8364.327145,2068.457845
537.235244,444.123565,-9178.553681,1072.533697
537.235572,-1776.494261,-9474.636058,-306.438199
537.235899,-2072.576638,-9474.636058,-153.219100
537.236227,-1480.411884,-9326.594869,-383.047749
537.236555,-518.144159,-9104.533087,153.219100
537.236883,888.247130,-8438.347739,1225.752797
537.237210,2886.803174,-8216.285956,1838.629195
537.237538,3330.926739,-7846.182985,2681.334243
537.237866,2220.617826,-8290.306550,2145.067394
537.238194,-592.164754,-9030.512492,383.047749
537.238521,-2294.638420,-9400.615463,153.219100
537.238849,-592.164754,-9474.636058,-229.828649
537.239177,-1628.453072,-9622.677246,0.000000
537.239505,0.000000,-8734.430116,842.705048
537.239832,1184.329507,-8290.306550,1608.800546
537.240160,2442.679609,-7994.224174,2528.115143
537.240488,1850.514855,-7994.224174,2451.505594
537.240816,-222.061783,-8660.409521,1608.800546
537.241143,-3478.967927,-9030.512492,0.000000
537.241471,-4589.276840,-8882.471304,-1225.752797
537.241799,-3478.967927,-8882.471304,-1225.752797
537.242127,-2516.700203,-8512.368333,-536.266849
537.242454,-1184.329507,-8290.306550,-459.657299
537.242782,814.226536,-7179.997637,766.095498
537.243110,2146.597232,-6587.832884,995.924147
537.243438,888.247130,-7550.100608,612.876398
537.243765,-1036.288319,-8660.409521,-306.438199
537.244093,-2146.597232,-9696.697840,-1302.362347
537.244421,-1924.535449,-9622.677246,-995.924147
537.244749,-1628.453072,-10066.800811,0.000000
537.245076,222.061783,-10140.821405,1149.143247
537.245404,2738.761985,-9548.656652,3064.381992
537.245732,4515.256246,-9474.636058,2987.772442
537.246060,3997.112087,-9770.718434,3217.601092
537.246387,1110.308913,-10584.944971,1608.800546
537.246715,-1628.453072,-10658.965565,383.047749
537.247043,-2368.659014,-10362.883188,-1378.971896
537.247371,-2220.617826,-9400.615463,-1149.143247
537.247698,0.000000,-8956.491898,-153.219100
537.248026,814.226536,-8882.471304,536.266849
537.248354,1998.556043,-7624.121203,1532.190996
537.248681,1850.514855,-7698.141797,1532.190996
537.249009,-296.082377,-8216.285956,1149.143247
537.249337,-3256.906145,-9326.594869,-919.314598
537.249665,-4589.276840,-9918.759623,-1915.238745
537.249992,-4663.297435,-9474.636058,-1608.800546
537.250320,-3108.864956,-9252.574275,-995.924147
537.250648,-1406.391290,-8660.409521,766.095498
537.250976,888.247130,-8290.306550,1532.190996
537.251303,2960.823768,-7624.121203,2834.553343
537.251631,2294.638420,-7772.162391,2221.676944
537.251959,-222.061783,-8882.471304,1149.143247
537.252287,-2664.741391,-9622.677246,76.609550
537.252614,-3256.906145,-10214.842000,-995.924147
537.252942,-2146.597232,-9696.697840,-536.266849
537.253270,-1332.370696,-10584.944971,0.000000
537.253598,740.205942,-10140.821405,766.095498
537.253925,2738.761985,-8956.491898,1762.019645
537.254253,3849.070898,-8068.244768,1991.848295
537.254581,2960.823768,-8660.409521,1532.190996
537.254909,296.082377,-10066.800811,229.828649
537.255236,-1036.288319,-10362.883188,-536.266849
537.255564,-1332.370696,-10436.903782,-459.657299
537.255892,-666.185348,-9844.739029,153.219100
537.256220,666.185348,-9252.574275,1532.190996
537.256547,2516.700203,-8882.471304,2298.286494
537.256875,3997.112087,-8216.285956,3600.648841
537.257203,2812.782580,-8216.285956,3447.429741
537.257531,222.061783,-9326.594869,2604.724693
537.257858,-3034.844362,-9844.739029,919.314598
537.258186,-3997.112087,-9622.677246,-612.876398
537.258514,-3775.050304,-10732.986159,-383.047749
537.258842,-2886.803174,-10140.821405,-153.219100
537.259169,-1702.473667,-9252.574275,-536.266849
537.259497,148.041188,-8290.306550,536.266849
537.259825,592.164754,-7179.997637,459.657299
537.260152,-222.061783,-8290.306550,153.219100
537.260480,-2738.761985,-8956.491898,-1378.971896
537.260808,-3330.926739,-8216.285956,-2374.896044
537.261136,-3182.885551,-8142.265362,-1072.533697
537.261463,-1924.535449,-8882.471304,-306.438199
537.261791,-666.185348,-8364.327145,306.438199
537.262119,2072.576638,-8364.327145,2451.505594
537.262447,3775.050304,-7698.141797,3447.429741
537.262774,3256.906145,-7105.977043,3524.039291
537.263102,1332.370696,-8734.430116,2681.334243
537.263430,-888.247130,-9844.739029,1455.581446
537.263758,-1702.473667,-9178.553681,689.485948
537.264085,-1924.535449,-9622.677246,306.438199
537.264413,-814.226536,-9474.636058,919.314598
537.264741,0.000000,-8734.430116,383.047749
537.265069,2294.638420,-7846.182985,1302.362347
537.265396,1702.473667,-6957.935855,689.485948
537.265724,1406.391290,-7624.121203,76.609550
537.266052,-1924.535449,-9030.512492,-1685.410096
537.266380,-3701.029710,-8734.430116,-2068.457845
537.266707,-3478.967927,-8660.409521,-2451.505594
537.267035,-2442.679609,-8512.368333,-1225.752797
537.267363,-1184.329507,-8364.327145,76.609550
537.267691,1406.391290,-8290.306550,1608.800546
537.268018,2072.576638,-7328.038826,2451.505594
537.268346,1628.453072,-8216.285956,2221.676944
537.268674,0.000000,-8734.430116,995.924147
537.269002,-2442.679609,-9474.636058,0.000000
537.269329,-3108.864956,-9548.656652,-919.314598
537.269657,-1776.494261,-9918.759623,-919.314598
537.269985,-518.144159,-9844.739029,-459.657299
537.270313,1036.288319,-8512.368333,306.438199
537.270640,3701.029710,-8660.409521,1225.752797
537.270968,3404.947333,-8956.491898,842.705048
537.271296,2220.617826,-9474.636058,76.609550
537.271624,-814.226536,-10658.965565,-919.314598
537.271951,-1480.411884,-11325.150913,-1685.410096
537.272279,-1998.556043,-10955.047942,-1838.629195
537.272607,-666.185348,-11473.192101,0.000000
537.272934,1258.350101,-11029.068536,1455.581446
537.273262,3108.864956,-10066.800811,2911.162892
537.273590,4367.215058,-9474.636058,3753.867940
537.273918,2664.741391,-10436.903782,3524.039291
537.274245,-370.102971,-11029.068536,2374.896044
537.274573,-2516.700203,-11103.089130,842.705048
537.274901,-2590.720797,-10066.800811,536.266849
537.275229,-2146.597232,-10140.821405,76.609550
537.275556,-1406.391290,-10066.800811,995.924147
537.275884,-592.164754,-9400.615463,2068.457845
537.276212,888.247130,-7920.203579,2221.676944
537.276540,1332.370696,-7994.224174,2374.896044
537.276867,-592.164754,-9474.636058,1302.362347
537.277195,-3997.112087,-10140.821405,-689.485948
537.277523,-4515.256246,-9918.759623,-919.314598
537.277851,-4071.132681,-9474.636058,-766.095498
537.278178,-2368.659014,-9400.615463,153.219100
537.278506,-888.247130,-9326.594869,1302.362347
537.278834,1554.432478,-8512.368333,2451.505594
537.279162,2294.638420,-7772.162391,2911.162892
537.279489,1480.411884,-8142.265362,2834.553343
537.279817,-666.185348,-8882.471304,1608.800546
537.280145,-2442.679609,-8882.471304,766.095498
537.280473,-1998.556043,-8956.491898,229.828649
537.280800,-1332.370696,-8290.306550,153.219100
537.281128,-222.061783,-8734.430116,689.485948
537.281456,1110.308913,-7994.224174,1149.143247
537.281784,3108.864956,-6809.894666,2221.676944
537.282111,2516.700203,-6883.915261,1378.971896
537.282439,666.185348,-7846.182985,459.657299
537.282767,-2146.597232,-8438.347739,-1762.019645
537.283095,-3478.967927,-8586.388927,-2451.505594
537.283422,-2590.720797,-8290.306550,-2681.334243
537.283750,-1184.329507,-7550.100608,-1149.143247
537.284078,444.123565,-7772.162391,-612.876398
537.284406,2368.659014,-7328.038826,689.485948
537.284733,3108.864956,-7254.018232,1532.190996
537.285061,1850.514855,-7772.162391,689.485948
537.285389,-370.102971,-8808.450710,689.485948
537.285716,-1924.535449,-9770.718434,-536.266849
537.286044,-1332.370696,-9918.759623,-1072.533697
537.286372,0.000000,-9474.636058,-459.657299
537.286700,1554.432478,-9474.636058,842.705048
537.287027,2738.761985,-8956.491898,1302.362347
537.287355,3182.885551,-8290.306550,1608.800546
537.287683,2442.679609,-8364.327145,842.705048
537.288011,74.020594,-8956.491898,-383.047749
537.288338,-2442.679609,-9474.636058,-1838.629195
537.288666,-3256.906145,-9548.656652,-1915.238745
537.288994,-2442.679609,-9326.594869,-2221.676944
537.289322,-296.082377,-9548.656652,-536.266849
537.289649,1184.329507,-9252.574275,919.314598
537.289977,2738.761985,-9178.553681,2451.505594
537.290305,3552.988522,-8438.347739,2757.943793
537.290633,2146.597232,-9548.656652,2987.772442
537.290960,-592.164754,-10658.965565,2068.457845
537.291288,-2368.659014,-10955.047942,842.705048
537.291616,-2294.638420,-11399.171507,995.924147
537.291943,-1924.535449,-10732.986159,1532.190996
537.292271,-962.267725,-10807.006753,2145.067394
537.292599,-444.123565,-10066.800811,2528.115143
537.292926,1110.308913,-9326.594869,2681.334243
537.293254,740.205942,-9252.574275,2145.067394
537.293581,-962.267725,-9696.697840,1072.533697
537.293909,-3701.029710,-10140.821405,-383.047749
537.294236,-4515.256246,-9622.677246,-1302.362347
537.294564,-4367.215058,-9326.594869,-1302.362347
537.294891,-2960.823768,-9178.553681,-459.657299
537.295219,-1924.535449,-9252.574275,459.657299
537.295547,666.185348,-8734.430116,1838.629195
537.295874,1480.411884,-8216.285956,2451.505594
537.296202,1258.350101,-8586.388927,2528.115143
537.296529,-296.082377,-9178.553681,1838.629195
537.296857,-1406.391290,-9622.677246,995.924147
537.297184,-1258.350101,-9474.636058,842.705048
537.297512,-962.267725,-9548.656652,1149.143247
537.297839,-296.082377,-9178.553681,1302.362347
537.298167,592.164754,-8808.450710,1225.752797
537.298495,2072.576638,-8142.265362,1762.019645
537.298822,1776.494261,-7994.224174,766.095498
537.299150,444.123565,-8586.388927,0.000000
537.299477,-2146.597232,-9030.512492,-1991.848295
537.299805,-2368.659014,-9030.512492,-2681.334243
537.300132,-1554.432478,-8956.491898,-2757.943793
537.300460,-222.061783,-8956.491898,-1378.971896
537.300787,888.247130,-8808.450710,-612.876398
537.301115,2590.720797,-8290.306550,1072.533697
537.301443,2960.823768,-8142.265362,1455.581446
537.301770,2220.617826,-8438.347739,1838.629195
537.302098,148.041188,-9178.553681,766.095498
537.302425,-962.267725,-8660.409521,459.657299
537.302753,-666.185348,-9252.574275,-536.266849
537.303080,-592.164754,-9030.512492,306.438199
537.303408,444.123565,-8734.430116,689.485948
537.303735,1332.370696,-8364.327145,1302.362347
537.304063,2664.741391,-7402.059420,2068.457845
537.304391,2072.576638,-7624.121203,1149.143247
537.304718,296.082377,-8956.491898,229.828649
537.305046,-2516.700203,-9178.553681,-1455.581446
537.305373,-2590.720797,-9252.574275,-2145.067394
537.305701,-2294.638420,-9104.533087,-1838.629195
537.306028,-1258.350101,-9030.512492,-1072.533697
537.306356,0.000000,-8808.450710,0.000000
537.306683,1776.494261,-8660.409521,1378.971896
537.307011,2220.617826,-8438.347739,2374.896044
537.307339,1480.411884,-8216.285956,2451.505594
537.307666,-592.164754,-9030.512492,1991.848295
537.307994,-2220.617826,-10140.821405,1072.533697
537.308321,-3034.844362,-9844.739029,689.485948
537.308649,-2738.761985,-9918.759623,766.095498
537.308976,-2442.679609,-9252.574275,766.095498
537.309304,-962.267725,-9400.615463,1532.190996
537.309632,1480.411884,-7920.203579,1532.190996
537.309959,1628.453072,-7550.100608,1378.971896
537.310287,222.061783,-8438.347739,76.609550
537.310614,-2146.597232,-9474.636058,-1072.533697
537.310942,-2738.761985,-9918.759623,-1685.410096
537.311269,-2664.741391,-9474.636058,-1991.848295
537.311597,-2368.659014,-9696.697840,-1378.971896
537.311924,-1110.308913,-9992.780217,-306.438199
537.312252,1110.308913,-9548.656652,1302.362347
537.312580,1850.514855,-9030.512492,2298.286494
537.312907,1480.411884,-8660.409521,2374.896044
537.313235,-296.082377,-10140.821405,995.924147
537.313562,-1110.308913,-10214.842000,459.657299
537.313890,-592.164754,-9918.759623,0.000000
537.314217,148.041188,-9548.656652,766.095498
537.314545,1258.350101,-9178.553681,1225.752797
537.314872,2738.761985,-9252.574275,2298.286494
537.315200,4219.173869,-8734.430116,2911.162892
537.315528,3256.906145,-8956.491898,2757.943793
537.315855,1036.288319,-9770.718434,1302.362347
537.316183,-2072.576638,-10807.006753,-995.924147
537.316510,-3034.844362,-10955.047942,-1378.971896
537.316838,-3034.844362,-10362.883188,-1762.019645
537.317165,-1554.432478,-9548.656652,-1149.143247
537.317493,-296.082377,-9104.533087,-229.828649
537.317820,2146.597232,-8512.368333,1532.190996
537.318148,1702.473667,-7846.182985,2451.505594
537.318476,1184.329507,-8438.347739,2298.286494
537.318803,-1332.370696,-8734.430116,689.485948
537.319131,-2886.803174,-9548.656652,153.219100
537.319458,-2886.803174,-9696.697840,919.314598
537.319786,-3108.864956,-10214.842000,766.095498
537.320113,-1628.453072,-9770.718434,1378.971896
537.320441,-370.102971,-9252.574275,2451.505594
537.320768,1776.494261,-8586.388927,3217.601092
537.321096,1776.494261,-7994.224174,2604.724693
537.321424,0.000000,-8660.409521,1608.800546
537.321751,-2812.782580,-9178.553681,-612.876398
537.322079,-3701.029710,-9030.512492,-1225.752797
537.322406,-3627.009116,-8290.306550,-2068.457845
537.322734,-2368.659014,-7772.162391,-1608.800546
537.323061,-296.082377,-7254.018232,-689.485948
537.323389,1036.288319,-6809.894666,459.657299
537.323716,2738.761985,-6439.791695,1302.362347
537.324044,2072.576638,-6883.915261,1608.800546
537.324372,74.020594,-7846.182985,612.876398
537.324699,-1110.308913,-9178.553681,-536.266849
537.325027,-1850.514855,-8882.471304,-1072.533697
537.325354,-1776.494261,-9474.636058,-153.219100
537.325682,-592.164754,-9474.636058,459.657299
537.326009,1258.350101,-8956.491898,1378.971896
537.326337,3404.947333,-7772.162391,2528.115143
537.326664,3330.926739,-8068.244768,1685.410096
537.326992,1036.288319,-9104.533087,0.000000
537.327320,-2072.576638,-8586.388927,-2145.067394
537.327647,-2220.617826,-9104.533087,-2604.724693
537.327975,-1702.473667,-8808.450710,-2681.334243
537.328302,0.000000,-9030.512492,-2068.457845
537.328630,1332.370696,-8660.409521,-306.438199
537.328957,3478.967927,-8216.285956,1149.143247
537.329285,4219.173869,-8068.244768,2221.676944
537.329612,2368.659014,-9030.512492,2298.286494
537.329940,-592.164754,-10140.821405,1455.581446
537.330268,-2072.576638,-10881.027347,229.828649
537.330595,-2886.803174,-11103.089130,0.000000
537.330923,-2146.597232,-10881.027347,612.876398
537.331250,0.000000,-9992.780217,1608.800546
537.331578,2072.576638,-9474.636058,2145.067394
537.331905,2960.823768,-8586.388927,3677.258390
537.332233,2220.617826,-8660.409521,2681.334243
537.332561,-740.205942,-9030.512492,689.485948
537.332888,-3775.050304,-9178.553681,-995.924147
537.333216,-3997.112087,-9474.636058,-2068.457845
537.333543,-3997.112087,-9400.615463,-1685.410096
537.333871,-2220.617826,-9696.697840,-306.438199
537.334198,-962.267725,-9474.636058,612.876398
537.334526,1258.350101,-9030.512492,2145.067394
537.334853,1406.391290,-9326.594869,2528.115143
537.335181,0.000000,-9622.677246,2374.896044
537.335509,-3034.844362,-11325.150913,919.314598
537.335836,-4515.256246,-11695.253884,0.000000
537.336164,-4071.132681,-10436.903782,-306.438199
537.336491,-2072.576638,-9622.677246,536.266849
537.336819,1110.308913,-9104.533087,2145.067394
537.337146,2738.761985,-8660.409521,3370.820191
537.337474,4145.153275,-8290.306550,3907.087040
537.337801,2738.761985,-8882.471304,2911.162892
537.338129,-962.267725,-9474.636058,1149.143247
537.338457,-3330.926739,-10362.883188,-612.876398
537.338784,-3182.885551,-10584.944971,-1532.190996
537.339112,-2368.659014,-9622.677246,-1378.971896
537.339439,-444.123565,-9252.574275,-306.438199
537.339767,1480.411884,-8438.347739,612.876398
537.340094,3108.864956,-8068.244768,2145.067394
537.340422,3627.009116,-7402.059420,1915.238745
537.340749,1776.494261,-8438.347739,1685.410096
537.341077,-1480.411884,-9104.533087,0.000000
537.341405,-3256.906145,-9696.697840,-995.924147
537.341732,-3108.864956,-9844.739029,-536.266849
537.342060,-1776.494261,-9252.574275,0.000000
537.342387,-74.020594,-8290.306550,919.314598
537.342715,2072.576638,-7846.182985,2068.457845
537.343042,3108.864956,-7254.018232,2145.067394
537.343370,1776.494261,-7476.080014,1378.971896
537.343697,-814.226536,-8364.327145,0.000000
537.344025,-2738.761985,-9178.553681,-1532.190996
537.344353,-2442.679609,-8808.450710,-2068.457845
537.344680,-1258.350101,-9104.533087,-1532.190996
537.345008,148.041188,-8882.471304,-995.924147
537.345335,1628.453072,-8290.306550,766.095498
537.345663,2738.761985,-8142.265362,1915.238745
537.345990,2738.761985,-8364.327145,1991.848295
537.346318,740.205942,-9400.615463,1455.581446
537.346645,-1554.432478,-10140.821405,76.609550
537.346973,-2886.803174,-9770.718434,-995.924147
537.347301,-2294.638420,-9474.636058,-612.876398
537.347628,-1628.453072,-8956.491898,0.000000
537.347956,444.123565,-8438.347739,995.924147
537.348283,2590.720797,-7402.059420,1991.848295
537.348611,3627.009116,-6883.915261,2298.286494
537.348938,2590.720797,-7698.141797,2145.067394
537.349266,-962.267725,-8734.430116,459.657299
537.349593,-3182.885551,-9178.553681,-1072.533697
537.349921,-3108.864956,-9474.636058,-1149.143247
537.350249,-2368.659014,-9696.697840,-689.485948
537.350576,-888.247130,-9474.636058,383.047749
537.350904,-666.185348,-9400.615463,919.314598
537.351231,1332.370696,-8808.450710,2451.505594
537.351559,1332.370696,-8142.265362,2068.457845
537.351886,296.082377,-8660.409521,1762.019645
537.352214,-2294.638420,-8956.491898,0.000000
537.352541,-3404.947333,-9178.553681,-1225.752797
537.352869,-3256.906145,-9474.636058,-919.314598
537.353197,-1924.535449,-8734.430116,0.000000
537.353524,74.020594,-8734.430116,842.705048
537.353852,2368.659014,-8808.450710,1915.238745
537.354179,3404.947333,-8586.388927,2987.772442
537.354507,1406.391290,-9252.574275,2451.505594
537.354834,-666.185348,-9622.677246,842.705048
537.355162,-2738.761985,-10140.821405,-306.438199
537.355489,-2368.659014,-10066.800811,-995.924147
537.355817,-1850.514855,-10288.862594,-459.657299
537.356145,-1036.288319,-10436.903782,-229.828649
537.356472,370.102971,-9770.718434,306.438199
537.356800,2220.617826,-8734.430116,1302.362347
537.357127,2368.659014,-8956.491898,1685.410096
537.357455,962.267725,-9326.594869,995.924147
537.357782,-1776.494261,-9844.739029,-689.485948
537.358110,-2146.597232,-10362.883188,-1072.533697
537.358438,-2146.597232,-10362.883188,-995.924147
537.358765,-1110.308913,-10288.862594,-306.438199
537.359093,222.061783,-10362.883188,612.876398
537.359420,2516.700203,-9474.636058,1378.971896
537.359748,3256.906145,-9178.553681,2757.943793
537.360075,1628.453072,-10066.800811,2068.457845
537.360403,-666.185348,-10732.986159,766.095498
537.360730,-1924.535449,-10362.883188,-383.047749
537.361058,-1702.473667,-9548.656652,-612.876398
537.361386,-370.102971,-9474.636058,0.000000
537.361713,814.226536,-9400.615463,459.657299
537.362041,1998.556043,-8734.430116,1762.019645
537.362368,3108.864956,-7698.141797,2987.772442
537.362696,2368.659014,-7994.224174,2987.772442
537.363023,0.000000,-9252.574275,1991.848295
537.363351,-3034.844362,-10436.903782,0.000000
537.363678,-4441.235652,-10584.944971,-383.047749
537.364006,-3923.091493,-9918.759623,-459.657299
537.364334,-2664.741391,-9178.553681,229.828649
537.364661,-148.041188,-9474.636058,1072.533697
537.364989,1332.370696,-8290.306550,2298.286494
537.365316,1184.329507,-7994.224174,2451.505594
537.365644,-222.061783,-8364.327145,1685.410096
537.365971,-2886.803174,-8808.450710,-383.047749
537.366299,-4293.194464,-8956.491898,-459.657299
537.366626,-3701.029710,-8216.285956,-1532.190996
537.366954,-2146.597232,-8216.285956,-842.705048
537.367282,-222.061783,-7698.141797,76.609550
537.367609,1110.308913,-7105.977043,1532.190996
537.367937,2812.782580,-6069.688724,2221.676944
537.368264,2294.638420,-7031.956449,2145.067394
537.368592,0.000000,-8956.491898,689.485948
537.368919,-2812.782580,-9696.697840,-612.876398
537.369247,-3182.885551,-9474.636058,-1455.581446
537.369574,-2072.576638,-8216.285956,-766.095498
537.369902,148.041188,-8364.327145,0.000000
537.370230,1850.514855,-8956.491898,1149.143247
537.370557,3552.988522,-7994.224174,1762.019645
537.370885,3997.112087,-7624.121203,2221.676944
537.371212,2146.597232,-8290.306550,1072.533697
537.371540,-592.164754,-8734.430116,0.000000
537.371867,-1850.514855,-9696.697840,-1608.800546
537.372195,-1406.391290,-9474.636058,-1302.362347
537.372522,-592.164754,-9178.553681,-306.438199
537.372850,296.082377,-8586.388927,536.266849
537.373178,2146.597232,-8216.285956,2374.896044
537.373505,2886.803174,-8216.285956,2451.505594
537.373833,1998.556043,-8216.285956,2221.676944
537.374160,0.000000,-9474.636058,1302.362347
537.374488,-2590.720797,-9992.780217,-229.828649
537.374815,-3552.988522,-9474.636058,-306.438199
537.375143,-2738.761985,-9030.512492,-995.924147
537.375470,-1702.473667,-8882.471304,0.000000
537.375798,-296.082377,-9030.512492,612.876398
537.376126,1036.288319,-8290.306550,1455.581446
537.376453,814.226536,-7402.059420,1378.971896
537.376781,888.247130,-8660.409521,1302.362347
537.377108,-1554.432478,-9474.636058,-229.828649
537.377436,-2738.761985,-9770.718434,-995.924147
537.377763,-2146.597232,-10066.800811,-1455.581446
537.378091,-1036.288319,-9696.697840,-383.047749
537.378418,296.082377,-9622.677246,919.314598
537.378746,1628.453072,-9474.636058,1762.019645
537.379074,2146.597232,-9252.574275,2374.896044
537.379401,2368.659014,-9844.739029,2528.115143
537.379729,740.205942,-10955.047942,1838.629195
537.380056,-2294.638420,-10807.006753,459.657299
537.380384,-3034.844362,-11325.150913,0.000000
537.380711,-2516.700203,-11473.192101,-383.047749
537.381039,-1406.391290,-10807.006753,0.000000
537.381367,-370.102971,-9548.656652,76.609550
537.381694,1258.350101,-8808.450710,919.314598
537.382022,1332.370696,-7920.203579,689.485948
537.382349,222.061783,-7994.224174,306.438199
537.382677,-1628.453072,-8586.388927,-919.314598
537.383004,-1998.556043,-9178.553681,-1225.752797
537.383332,-2590.720797,-9104.533087,-1225.752797
537.383659,-2294.638420,-9400.615463,-612.876398
537.383987,-1332.370696,-9696.697840,0.000000
537.384315,518.144159,-8956.491898,1302.362347
537.384642,2368.659014,-8068.244768,2298.286494
537.384970,2442.679609,-8364.327145,1685.410096
537.385297,1332.370696,-9400.615463,1532.190996
537.385625,-1406.391290,-10436.903782,766.095498
537.385952,-1998.556043,-10066.800811,0.000000
537.386280,-1628.453072,-9400.615463,0.000000
537.386607,-296.082377,-9770.718434,383.047749
537.386935,1036.288319,-9400.615463,995.924147
537.387263,2220.617826,-8586.388927,1532.190996
537.387590,2960.823768,-7402.059420,2298.286494
537.387918,1480.411884,-7698.141797,1532.190996
537.388245,592.164754,-9030.512492,919.314598
537.388573,-888.247130,-9030.512492,76.609550
537.388900,-1776.494261,-9252.574275,-306.438199
537.389228,-1850.514855,-9918.759623,0.000000
537.389555,-1554.432478,-9474.636058,536.266849
537.389883,222.061783,-9252.574275,2221.676944
537.390211,1850.514855,-7179.997637,2681.334243
537.390538,2516.700203,-7920.203579,3140.991542
537.390866,0.000000,-8956.491898,1991.848295
537.391193,-2516.700203,-9104.533087,766.095498
537.391521,-3701.029710,-8956.491898,-383.047749
537.391848,-3182.885551,-8660.409521,-766.095498
537.392176,-2590.720797,-8290.306550,-1072.533697
537.392503,-1332.370696,-8586.388927,-229.828649
537.392831,74.020594,-8216.285956,536.266849
537.393159,592.164754,-7772.162391,842.705048
537.393486,-222.061783,-8734.430116,612.876398
537.393814,-2146.597232,-9104.533087,-689.485948
537.394141,-3034.844362,-9992.780217,-1608.800546
537.394469,-2368.659014,-9844.739029,-1838.629195
537.394797,-1110.308913,-8956.491898,-1302.362347
537.395124,296.082377,-8586.388927,-229.828649
537.395452,3182.885551,-7994.224174,1991.848295
537.395780,5033.400406,-7254.018232,2604.724693
537.396107,4515.256246,-7994.224174,2604.724693
537.396435,1480.411884,-9252.574275,1838.629195
537.396762,-1406.391290,-10584.944971,766.095498
537.397090,-2886.803174,-10510.924376,0.000000
537.397418,-2368.659014,-9696.697840,-383.047749
537.397745,-518.144159,-9474.636058,153.219100
537.398073,666.185348,-9030.512492,383.047749
537.398400,2812.782580,-7920.203579,1302.362347
537.398728,2590.720797,-7105.977043,1225.752797
537.399056,1184.329507,-7402.059420,153.219100
537.399383,-1258.350101,-9104.533087,-995.924147
537.399711,-2886.803174,-9474.636058,-1991.848295
537.400039,-2738.761985,-9326.594869,-1685.410096
537.400366,-2294.638420,-9474.636058,-689.485948
537.400694,-740.205942,-9622.677246,1378.971896
537.401021,1332.370696,-9326.594869,2221.676944
537.401349,3182.885551,-9252.574275,3907.087040
537.401677,1998.556043,-9474.636058,3294.210641
537.402004,-592.164754,-10436.903782,2451.505594
537.402332,-3849.070898,-10807.006753,1072.533697
537.402660,-3997.112087,-10066.800811,0.000000
537.402987,-3108.864956,-9844.739029,0.000000
537.403315,-1480.411884,-9178.553681,76.609550
537.403642,666.185348,-8882.471304,1225.752797
537.403970,2146.597232,-8142.265362,1455.581446
537.404298,2442.679609,-7698.141797,2145.067394
537.404625,814.226536,-9030.512492,995.924147
537.404953,-2294.638420,-10140.821405,-459.657299
537.405281,-3404.947333,-10658.965565,-1072.533697
537.405608,-3034.844362,-10362.883188,-1378.971896
537.405936,-1998.556043,-10140.821405,76.609550
537.406263,-444.123565,-9770.718434,1455.581446
537.406591,1628.453072,-8956.491898,2528.115143
537.406919,3330.926739,-8142.265362,3370.820191
537.407246,2516.700203,-8734.430116,2911.162892
537.407574,148.041188,-9104.533087,1685.410096
537.407902,-1998.556043,-9622.677246,459.657299
537.408229,-2738.761985,-9474.636058,-842.705048
537.408557,-2146.597232,-9622.677246,-919.314598
537.408884,-222.061783,-8956.491898,-153.219100
537.409212,962.267725,-7920.203579,383.047749
537.409540,2294.638420,-7550.100608,1378.971896
537.409867,2442.679609,-7994.224174,1225.752797
537.410195,370.102971,-8586.388927,229.828649
537.410522,-2072.576638,-9770.718434,-1072.533697
537.410850,-2738.761985,-9770.718434,-1455.581446
537.411178,-2220.617826,-9030.512492,-2374.896044
537.411505,-1850.514855,-9030.512492,-919.314598
537.411833,296.082377,-7920.203579,306.438199
537.412161,2368.659014,-7624.121203,1225.752797
537.412488,3701.029710,-7550.100608,2451.505594
537.412816,2590.720797,-7550.100608,1838.629195
537.413143,0.000000,-9030.512492,1378.971896
537.413471,-1850.514855,-9548.656652,306.438199
537.413799,-2368.659014,-9992.780217,0.000000
537.414126,-2146.597232,-9992.780217,0.000000
537.414454,-370.102971,-8882.471304,383.047749
537.414782,666.185348,-7994.224174,1838.629195
537.415109,2072.576638,-7698.141797,1608.800546
537.415437,1480.411884,-7920.203579,1378.971896
537.415764,0.000000,-8512.368333,153.219100
537.416092,-2220.617826,-9030.512492,-1149.143247
537.416420,-3330.926739,-9030.512492,-1072.533697
537.416747,-3330.926739,-9474.636058,-1915.238745
537.417075,-2442.679609,-9474.636058,-612.876398
537.417403,-666.185348,-9326.594869,229.828649
537.417730,1554.432478,-8364.327145,1762.019645
537.418058,3108.864956,-7476.080014,2528.115143
537.418385,2516.700203,-8364.327145,2911.162892
537.418713,740.205942,-9474.636058,2221.676944
537.419041,-1850.514855,-10140.821405,766.095498
537.419368,-1998.556043,-10214.842000,306.438199
537.419696,-1110.308913,-10140.821405,229.828649
537.420024,-592.164754,-9992.780217,459.657299
537.420351,222.061783,-9400.615463,842.705048
537.420679,1554.432478,-8808.450710,1378.971896
537.421006,1702.473667,-8586.388927,842.705048
537.421334,370.102971,-9326.594869,0.000000
537.421662,-2516.700203,-9548.656652,-1838.629195
537.421989,-3034.844362,-10214.842000,-2374.896044
537.422317,-2812.782580,-9770.718434,-2374.896044
537.422644,-1184.329507,-9400.615463,-1378.971896
537.422972,592.164754,-9178.553681,306.438199
537.423300,2960.823768,-9030.512492,1915.238745
537.423627,3552.988522,-8882.471304,2987.772442
537.423955,2294.638420,-9622.677246,2834.553343
537.424283,-148.041188,-10510.924376,1762.019645
537.424610,-2072.576638,-10807.006753,842.705048
537.424938,-1702.473667,-10732.986159,459.657299
537.425265,-1258.350101,-10658.965565,612.876398
537.425593,222.061783,-10214.842000,1149.143247
537.425921,1258.350101,-9474.636058,1838.629195
537.426248,2368.659014,-8364.327145,2374.896044
537.426576,1850.514855,-7772.162391,1532.190996
537.426904,0.000000,-9474.636058,766.095498
537.427231,-2960.823768,-9696.697840,-612.876398
537.427559,-4071.132681,-9326.594869,-1532.190996
537.427886,-3404.947333,-9178.553681,-1302.362347
537.428214,-1850.514855,-8734.430116,-995.924147
537.428542,0.000000,-7772.162391,1225.752797
537.428869,1776.494261,-7550.100608,2528.115143
537.429197,2072.576638,-7550.100608,2911.162892
537.429525,370.102971,-8660.409521,2681.334243
537.429852,-2294.638420,-9030.512492,2145.067394
537.430180,-3256.906145,-9474.636058,842.705048
537.430507,-2738.761985,-9326.594869,229.828649
537.430835,-1850.514855,-8956.491898,306.438199
537.431163,-592.164754,-8512.368333,919.314598
537.431490,518.144159,-7772.162391,1302.362347
537.431818,2886.803174,-6883.915261,1608.800546
537.432146,1998.556043,-7402.059420,1225.752797
537.432473,740.205942,-8290.306550,229.828649
537.432801,-1702.473667,-8734.430116,-1302.362347
537.433128,-2294.638420,-9474.636058,-1915.238745
537.433456,-2072.576638,-9696.697840,-1225.752797
537.433784,-1258.350101,-9252.574275,-842.705048
537.434111,666.185348,-9030.512492,306.438199
537.434439,2590.720797,-8956.491898,1532.190996
537.434766,3478.967927,-8438.347739,2145.067394
537.435094,2146.597232,-9326.594869,1838.629195
537.435422,0.000000,-9104.533087,1072.533697
537.435749,-1480.411884,-9548.656652,0.000000
537.436077,-1480.411884,-9474.636058,0.000000
537.436405,-1036.288319,-9104.533087,-229.828649
537.436732,0.000000,-8586.388927,229.828649
537.437060,1184.329507,-8438.347739,612.876398
537.437387,1924.535449,-8290.306550,1072.533697
537.437715,1184.329507,-8216.285956,612.876398
537.438043,-518.144159,-9030.512492,-229.828649
537.438370,-3182.885551,-9622.677246,-1838.629195
537.438698,-3775.050304,-9844.739029,-2221.676944
537.439026,-4219.173869,-9326.594869,-2451.505594
537.439353,-2368.659014,-9178.553681,-1378.971896
537.439681,-148.041188,-8586.388927,-383.047749
537.440008,1332.370696,-8142.265362,842.705048
537.440336,2220.617826,-7550.100608,2374.896044
537.440664,2072.576638,-8068.244768,2068.457845
537.440991,0.000000,-9474.636058,1149.143247
537.441319,-1480.411884,-10288.862594,689.485948
537.441647,-1480.411884,-10510.924376,689.485948
537.441974,-1036.288319,-10807.006753,842.705048
537.442302,296.082377,-9844.739029,1302.362347
537.442629,1036.288319,-9918.759623,1838.629195
537.442957,2146.597232,-9252.574275,1991.848295
537.443285,1628.453072,-8882.471304,1532.190996
537.443612,518.144159,-9474.636058,76.609550
537.443940,-2072.576638,-9474.636058,-1149.143247
537.444268,-2442.679609,-9918.759623,-1991.848295
537.444595,-1850.514855,-9622.677246,-1608.800546
537.444923,-962.267725,-9696.697840,-766.095498
537.445250,592.164754,-9474.636058,689.485948
537.445578,2294.638420,-8512.368333,2298.286494
537.445906,3034.844362,-8734.430116,3294.210641
537.446233,1258.350101,-9622.677246,2757.943793
537.446561,-592.164754,-10510.924376,2298.286494
537.446888,-2368.659014,-10881.027347,1225.752797
537.447216,-2368.659014,-10066.800811,1149.143247
537.447544,-2146.597232,-10510.924376,536.266849
537.447871,-1184.329507,-10436.903782,1532.190996
537.448199,0.000000,-9474.636058,1762.019645
537.448527,2368.659014,-8586.388927,2451.505594
537.448854,1554.432478,-8290.306550,1915.238745
537.449182,-148.041188,-9474.636058,306.438199
537.449509,-2738.761985,-10362.883188,-995.924147
537.449837,-3775.050304,-10140.821405,-1608.800546
537.450165,-3256.906145,-9548.656652,-1685.410096
537.450492,-1924.535449,-9252.574275,-689.485948
537.450820,444.123565,-9252.574275,0.000000
537.451148,1776.494261,-7846.182985,1608.800546
537.451475,2516.700203,-7476.080014,2451.505594
537.451803,1332.370696,-8364.327145,2298.286494
537.452130,-592.164754,-9104.533087,1685.410096
537.452458,-1924.535449,-9474.636058,306.438199
537.452786,-1850.514855,-9252.574275,153.219100
537.453113,-666.185348,-9104.533087,689.485948
537.453441,888.247130,-8660.409521,1149.143247
537.453769,1998.556043,-7994.224174,1915.238745
537.454096,3701.029710,-7402.059420,2528.115143
537.454424,2738.761985,-7476.080014,2068.457845
537.454751,444.123565,-8808.450710,383.047749
537.455079,-2368.659014,-9178.553681,-1532.190996
537.455407,-2664.741391,-9104.533087,-2221.676944
537.455734,-2590.720797,-8142.265362,-2145.067394
537.456062,-666.185348,-8512.368333,-1302.362347
537.456390,74.020594,-8438.347739,-383.047749
537.456717,2072.576638,-7402.059420,1225.752797
537.457045,2368.659014,-6883.915261,1608.800546
537.457372,1332.370696,-7550.100608,1608.800546
537.457700,-1036.288319,-8734.430116,459.657299
537.458028,-2294.638420,-9326.594869,0.000000
537.458355,-2368.659014,-8734.430116,-459.657299
537.458683,-1554.432478,-8586.388927,0.000000
537.459010,-222.061783,-8364.327145,766.095498
537.459338,1776.494261,-7846.182985,1378.971896
537.459666,3108.864956,-7402.059420,2451.505594
537.459993,2664.741391,-7179.997637,1838.629195
537.460321,666.185348,-8882.471304,383.047749
537.460649,-2146.597232,-9474.636058,-919.314598
537.460976,-2812.782580,-9400.615463,-2068.457845
537.461304,-2664.741391,-9326.594869,-1455.581446
537.461631,-1776.494261,-9474.636058,-919.314598
537.461959,-592.164754,-9548.656652,0.000000
537.462287,1332.370696,-8882.471304,1608.800546
537.462614,1998.556043,-8586.388927,2911.162892
537.462942,1036.288319,-9326.594869,2451.505594
537.463270,-1258.350101,-10288.862594,1225.752797
537.463597,-2960.823768,-10807.006753,459.657299
537.463925,-2812.782580,-10584.944971,153.219100
537.464252,-2442.679609,-10288.862594,842.705048
537.464580,-962.267725,-9474.636058,842.705048
537.464908,1110.308913,-8586.388927,2145.067394
537.465235,2294.638420,-8364.327145,2451.505594
537.465563,1702.473667,-8364.327145,2221.676944
537.465891,-518.144159,-8660.409521,1149.143247
537.466218,-2738.761985,-9326.594869,76.609550
537.466546,-3034.844362,-10066.800811,-1302.362347
537.466873,-3330.926739,-10288.862594,-1149.143247
537.467201,-2738.761985,-10362.883188,-766.095498
537.467529,-444.123565,-9696.697840,306.438199
537.467856,2072.576638,-8882.471304,1915.238745
537.468184,3108.864956,-8216.285956,2374.896044
537.468511,1850.514855,-9548.656652,2374.896044
537.468839,-370.102971,-10584.944971,1149.143247
537.469167,-1850.514855,-10807.006753,383.047749
537.469494,-2072.576638,-10732.986159,0.000000
537.469822,-1628.453072,-10288.862594,612.876398
537.470150,148.041188,-10510.924376,1762.019645
537.470477,1184.329507,-9696.697840,2374.896044
537.470805,3182.885551,-8512.368333,3140.991542
537.471132,2368.659014,-8216.285956,2681.334243
537.471460,1110.308913,-9178.553681,1608.800546
537.471788,-2220.617826,-9696.697840,-229.828649
537.472115,-3330.926739,-9474.636058,-1302.362347
537.472443,-2738.761985,-9474.636058,-1608.800546
537.472771,-2368.659014,-8882.471304,-1072.533697
537.473098,-296.082377,-7994.224174,-229.828649
537.473426,1776.494261,-7328.038826,612.876398
537.473753,2664.741391,-7105.977043,1378.971896
537.474081,1406.391290,-7846.182985,1378.971896
537.474409,-1036.288319,-8882.471304,0.000000
537.474736,-2368.659014,-9474.636058,-383.047749
537.475064,-2146.597232,-9400.615463,-842.705048
537.475392,-1554.432478,-9326.594869,0.000000
537.475719,222.061783,-8882.471304,919.314598
537.476047,2072.576638,-8660.409521,1991.848295
537.476374,3627.009116,-7624.121203,2298.286494
537.476702,2368.659014,-7994.224174,1838.629195
537.477030,74.020594,-8882.471304,383.047749
537.477357,-2368.659014,-9474.636058,-1378.971896
537.477685,-2960.823768,-9696.697840,-2145.067394
537.478013,-2516.700203,-9474.636058,-2451.505594
537.478340,-1110.308913,-8438.347739,-1532.190996
537.478668,1110.308913,-8808.450710,-306.438199
537.478995,2960.823768,-8142.265362,1225.752797
537.479323,3256.906145,-7624.121203,1378.971896
537.479651,1554.432478,-9474.636058,1378.971896
537.479978,-1554.432478,-10214.842000,76.609550
537.480306,-3108.864956,-9696.697840,-919.314598
537.480633,-2516.700203,-9400.615463,-1072.533697
537.480961,-1110.308913,-9400.615463,-383.047749
537.481289,0.000000,-8364.327145,842.705048
537.481616,2368.659014,-8142.265362,2451.505594
537.481944,3627.009116,-7550.100608,2681.334243
537.482272,2368.659014,-8290.306550,1915.238745
537.482599,-222.061783,-9622.677246,536.266849
537.482927,-3034.844362,-10288.862594,-1072.533697
537.483254,-2590.720797,-9696.697840,-919.314598
537.483582,-1998.556043,-9252.574275,-1532.190996
537.483910,-888.247130,-9326.594869,-383.047749
537.484237,1036.288319,-8734.430116,995.924147
537.484565,2664.741391,-8142.265362,1991.848295
537.484893,2960.823768,-7994.224174,2451.505594
537.485220,666.185348,-8956.491898,1685.410096
537.485548,-1998.556043,-10214.842000,383.047749
537.485875,-2812.782580,-10140.821405,306.438199
537.486203,-3256.906145,-9992.780217,0.000000
537.486531,-2146.597232,-9992.780217,995.924147
537.486858,-1332.370696,-9696.697840,1915.238745
537.487186,1480.411884,-9252.574275,2451.505594
537.487514,2368.659014,-8068.244768,2911.162892
537.487841,1628.453072,-8512.368333,2451.505594
537.488169,-666.185348,-10214.842000,1455.581446
537.488496,-2738.761985,-9844.739029,229.828649
537.488824,-2812.782580,-8734.430116,-383.047749
537.489152,-1924.535449,-9178.553681,-689.485948
537.489479,-888.247130,-8808.450710,76.609550
537.489807,0.000000,-8734.430116,612.876398
537.490135,1924.535449,-8068.244768,2145.067394
537.490462,1480.411884,-7772.162391,2374.896044
537.490790,-148.041188,-9030.512492,1072.533697
537.491117,-2886.803174,-10732.986159,0.000000
537.491445,-3627.009116,-10362.883188,-536.266849
537.491773,-3330.926739,-9696.697840,-612.876398
537.492100,-1702.473667,-10066.800811,76.609550
537.492428,296.082377,-9622.677246,1455.581446
537.492755,2590.720797,-8364.327145,1991.848295
537.493083,3997.112087,-7179.997637,2221.676944
537.493411,2960.823768,-7920.203579,1762.019645
537.493738,-518.144159,-8660.409521,612.876398
537.494066,-2294.638420,-9622.677246,-1072.533697
537.494394,-2442.679609,-9400.615463,-1225.752797
537.494721,-1554.432478,-8956.491898,-1072.533697
537.495049,74.020594,-9252.574275,153.219100
537.495377,1628.453072,-8512.368333,1455.581446
537.495704,2812.782580,-7402.059420,1532.190996
537.496032,2368.659014,-7698.141797,2221.676944
537.496359,-222.061783,-9104.533087,1149.143247
537.496687,-3182.885551,-9622.677246,-612.876398
537.497015,-3256.906145,-9548.656652,-1225.752797
537.497342,-2738.761985,-8956.491898,-919.314598
537.497670,-1554.432478,-9252.574275,-229.828649
537.497998,444.123565,-8734.430116,383.047749
537.498325,1998.556043,-8068.244768,1685.410096
537.498653,2738.761985,-7476.080014,1991.848295
537.498981,1554.432478,-7920.203579,766.095498
537.499308,-592.164754,-9474.636058,306.438199
537.499636,-3034.844362,-9918.759623,-1072.533697
537.499964,-2220.617826,-9252.574275,-842.705048
537.500291,-1554.432478,-8882.471304,-919.314598
537.500619,666.185348,-8364.327145,306.438199
537.500947,1702.473667,-7846.182985,1302.362347
537.501274,2812.782580,-7698.141797,2221.676944
537.501602,1924.535449,-8068.244768,1762.019645
537.501930,0.000000,-9622.677246,1149.143247
537.502257,-2368.659014,-10658.965565,0.000000
537.502585,-3108.864956,-10362.883188,-995.924147
537.502913,-2516.700203,-9770.718434,-536.266849
537.503240,-962.267725,-9474.636058,306.438199
537.503568,74.020594,-9474.636058,919.314598
537.503896,2220.617826,-8512.368333,1991.848295
537.504223,2368.659014,-8290.306550,1838.629195
537.504551,1332.370696,-8290.306550,1302.362347
537.504879,-1110.308913,-9992.780217,306.438199
537.505206,-2886.803174,-10510.924376,-766.095498
537.505534,-2590.720797,-9918.759623,-689.485948
537.505862,-1628.453072,-10288.862594,-306.438199
537.506189,-370.102971,-10066.800811,306.438199
537.506517,296.082377,-9474.636058,1302.362347
537.506845,1776.494261,-8882.471304,2068.457845
537.507172,2072.576638,-8438.347739,2068.457845
537.507500,-370.102971,-9474.636058,1149.143247
537.507827,-1776.494261,-10140.821405,229.828649
537.508155,-2442.679609,-9918.759623,-306.438199
537.508483,-2072.576638,-9474.636058,-459.657299
537.508810,-1332.370696,-9252.574275,0.000000
537.509138,222.061783,-9252.574275,919.314598
537.509466,1332.370696,-8512.368333,1762.019645
537.509793,2072.576638,-8364.327145,2145.067394
537.510121,888.247130,-8808.450710,1532.190996
537.510449,-1036.288319,-10140.821405,919.314598
537.510776,-2368.659014,-10732.986159,0.000000
537.511104,-1628.453072,-9326.594869,-306.438199
537.511432,-1258.350101,-9844.739029,0.000000
537.511759,-592.164754,-9992.780217,612.876398
537.512087,666.185348,-9326.594869,1455.581446
537.512415,2294.638420,-7772.162391,2374.896044
537.512742,2590.720797,-7624.121203,2145.067394
537.513070,888.247130,-8882.471304,1225.752797
537.513398,-1332.370696,-9400.615463,0.000000
537.513725,-1776.494261,-9252.574275,0.000000
537.514053,-1850.514855,-8956.491898,-306.438199
537.514381,-962.267725,-9474.636058,383.047749
537.514708,-666.185348,-9474.636058,842.705048
537.515036,592.164754,-8586.388927,1455.581446
537.515364,1850.514855,-7846.182985,2068.457845
537.515691,962.267725,-8364.327145,1532.190996
537.516019,-814.226536,-9030.512492,919.314598
537.516347,-2072.576638,-9400.615463,-229.828649
537.516674,-2146.597232,-9030.512492,-612.876398
537.517002,-2146.597232,-9326.594869,-689.485948
537.517330,-1110.308913,-9474.636058,0.000000
537.517657,518.144159,-8808.450710,1072.533697
537.517985,2220.617826,-7698.141797,2451.505594
537.518312,2368.659014,-8068.244768,2221.676944
537.518640,740.205942,-8956.491898,1532.190996
537.518968,-1850.514855,-9326.594869,0.000000
537.519295,-1850.514855,-9326.594869,-383.047749
537.519623,-1850.514855,-9400.615463,-766.095498
537.519951,-1702.473667,-9474.636058,-459.657299
537.520278,-814.226536,-9770.718434,76.609550
537.520606,1036.288319,-8438.347739,842.705048
537.520934,2294.638420,-7772.162391,1378.971896
537.521261,1258.350101,-8734.430116,1302.362347
537.521589,-962.267725,-8734.430116,76.609550
537.521917,-1998.556043,-9326.594869,-459.657299
537.522244,-1702.473667,-9474.636058,-1072.533697
537.522572,-1628.453072,-9474.636058,-919.314598
537.522900,-888.247130,-9474.636058,-383.047749
537.523227,888.247130,-8882.471304,1302.362347
537.523555,2590.720797,-8068.244768,1685.410096
537.523883,2072.576638,-8068.244768,1608.800546
537.524210,296.082377,-9326.594869,995.924147
537.524538,-1924.535449,-9696.697840,0.000000
537.524866,-2664.741391,-9474.636058,-919.314598
537.525193,-2664.741391,-9104.533087,-1225.752797
537.525521,-1924.535449,-9622.677246,-766.095498
537.525849,-370.102971,-9474.636058,0.000000
537.526176,1480.411884,-8586.388927,1072.533697
537.526504,2960.823768,-7846.182985,1991.848295
537.526832,1554.432478,-8734.430116,919.314598
537.527159,-370.102971,-9992.780217,229.828649
537.527487,-2294.638420,-9992.780217,-612.876398
537.527815,-2294.638420,-9474.636058,-766.095498
537.528142,-1628.453072,-9474.636058,-536.266849
537.528470,-222.061783,-9252.574275,1455.581446
537.528797,2146.597232,-8808.450710,2068.457845
537.529125,3775.050304,-7698.141797,3140.991542
537.529453,3404.947333,-7994.224174,3294.210641
537.529780,1036.288319,-9474.636058,2374.896044
537.530108,-2294.638420,-9918.759623,689.485948
537.530436,-2812.782580,-10214.842000,0.000000
537.530763,-3182.885551,-10066.800811,-306.438199
537.531091,-2294.638420,-10140.821405,153.219100
537.531419,-1332.370696,-9696.697840,536.266849
537.531746,666.185348,-8438.347739,1455.581446
537.532074,1702.473667,-7920.203579,2068.457845
537.532402,0.000000,-8364.327145,1225.752797
537.532729,-2368.659014,-9474.636058,0.000000
537.533057,-3775.050304,-9400.615463,-1302.362347
537.533385,-3256.906145,-8734.430116,-1915.238745
537.533712,-2220.617826,-8438.347739,-766.095498
537.534040,-740.205942,-8586.388927,306.438199
537.534368,1406.391290,-8142.265362,1608.800546
537.534695,2960.823768,-7328.038826,3064.381992
537.535023,2516.700203,-8068.244768,3370.820191
537.535351,-148.041188,-9622.677246,1991.848295
537.535678,-2516.700203,-10066.800811,153.219100
537.536006,-2886.803174,-9918.759623,-842.705048
537.536334,-2294.638420,-9548.656652,-766.095498
537.536661,-666.185348,-9326.594869,76.609550
537.536989,962.267725,-8734.430116,1149.143247
537.537317,2812.782580,-7772.162391,1455.581446
537.537644,3478.967927,-7550.100608,1762.019645
537.537972,888.247130,-9400.615463,842.705048
537.538300,-1702.473667,-10436.903782,-689.485948
537.538627,-2442.679609,-10362.883188,-1225.752797
537.538955,-2294.638420,-9326.594869,-1532.190996
537.539283,-1036.288319,-9400.615463,-459.657299
537.539610,1036.288319,-9030.512492,1072.533697
537.539938,2886.803174,-8364.327145,2221.676944
537.540265,4737.318029,-7994.224174,3447.429741
537.540593,3256.906145,-7920.203579,2987.772442
537.540921,-296.082377,-9400.615463,1455.581446
537.541248,-2664.741391,-10214.842000,306.438199
537.541576,-3182.885551,-9696.697840,-536.266849
537.541904,-2664.741391,-9030.512492,-766.095498
537.542231,-1554.432478,-8882.471304,-383.047749
537.542559,0.000000,-8882.471304,306.438199
537.542887,1480.411884,-7624.121203,1302.362347
537.543214,1110.308913,-7402.059420,995.924147
537.543542,74.020594,-8512.368333,383.047749
537.543870,-2368.659014,-9844.739029,-1225.752797
537.544197,-4071.132681,-9992.780217,-1762.019645
537.544525,-3404.947333,-9770.718434,-1532.190996
537.544853,-2368.659014,-9474.636058,-689.485948
537.545180,-222.061783,-9326.594869,536.266849
537.545508,1924.535449,-8882.471304,1685.410096
537.545836,3108.864956,-8438.347739,2681.334243
537.546163,2294.638420,-8882.471304,2681.334243
537.546491,0.000000,-9696.697840,1762.019645
537.546819,-1628.453072,-10214.842000,459.657299
537.547146,-1554.432478,-10140.821405,-536.266849
537.547474,-1480.411884,-9844.739029,-153.219100
537.547802,-666.185348,-10214.842000,0.000000
537.548129,666.185348,-9770.718434,383.047749
537.548457,2368.659014,-8882.471304,1608.800546
537.548785,2664.741391,-8512.368333,1685.410096
537.549112,666.185348,-8882.471304,842.705048
537.549440,-1258.350101,-10584.944971,-766.095498
537.549768,-2516.700203,-10214.842000,-1762.019645
537.550095,-2146.597232,-9104.533087,-1762.019645
537.550423,-1110.308913,-9252.574275,-689.485948
537.550750,518.144159,-8364.327145,306.438199
537.551078,2294.638420,-8438.347739,1762.019645
537.551406,3256.906145,-7846.182985,2834.553343
537.551733,1850.514855,-8512.368333,2834.553343
537.552061,-518.144159,-9622.677246,2298.286494
537.552389,-2738.761985,-9918.759623,1072.533697
537.552716,-3108.864956,-10214.842000,0.000000
537.553044,-2886.803174,-9992.780217,0.000000
537.553372,-1998.556043,-9622.677246,153.219100
537.553699,-888.247130,-8808.450710,689.485948
537.554027,1258.350101,-7846.182985,2068.457845
537.554355,1850.514855,-7254.018232,1378.971896
537.554682,370.102971,-8216.285956,612.876398
537.555010,-2368.659014,-9252.574275,-612.876398
537.555338,-2960.823768,-9326.594869,-1762.019645
537.555665,-2960.823768,-8586.388927,-995.924147
537.555993,-1702.473667,-8364.327145,-689.485948
537.556321,-592.164754,-8882.471304,459.657299
537.556648,1554.432478,-8660.409521,2374.896044
537.556976,2886.803174,-7772.162391,3294.210641
537.557304,2516.700203,-8364.327145,3524.039291
537.557631,888.247130,-8956.491898,3064.381992
537.557959,-444.123565,-9104.533087,1532.190996
537.558287,0.000000,-8956.491898,1225.752797
537.558614,444.123565,-8586.388927,1608.800546
537.558942,1628.453072,-9030.512492,2068.457845
537.559270,2220.617826,-8438.347739,2528.115143
537.559597,3182.885551,-7402.059420,3677.258390
537.559925,3256.906145,-7698.141797,3524.039291
537.560253,962.267725,-8882.471304,2681.334243
537.560580,-1998.556043,-9918.759623,1302.362347
537.560908,-3182.885551,-9474.636058,459.657299
537.561235,-2960.823768,-8734.430116,229.828649
537.561563,-1850.514855,-8364.327145,919.314598
537.561891,-222.061783,-8216.285956,2145.067394
537.562218,444.123565,-8290.306550,3064.381992
537.562546,592.164754,-7698.141797,3447.429741
537.562874,-222.061783,-7698.141797,3677.258390
537.563201,-1850.514855,-8882.471304,2987.772442
537.563529,-4219.173869,-9992.780217,1838.629195
537.563857,-4441.235652,-10436.903782,1378.971896
537.564184,-3923.091493,-9400.615463,1072.533697
537.564512,-2368.659014,-8586.388927,2068.457845
537.564840,-1480.411884,-9030.512492,2374.896044
537.565167,-740.205942,-9178.553681,2298.286494
537.565495,-148.041188,-8586.388927,1915.238745
537.565823,0.000000,-8068.244768,1685.410096
537.566150,0.000000,-8586.388927,1762.019645
537.566478,-1480.411884,-9696.697840,536.266849
537.566806,-1776.494261,-10510.924376,383.047749
537.567133,-296.082377,-9992.780217,1378.971896
537.567461,1776.494261,-9474.636058,2528.115143
537.567789,3775.050304,-9622.677246,4060.306139
537.568116,4441.235652,-10881.027347,4903.011187
537.568444,4145.153275,-10732.986159,4979.620737
537.568772,3849.070898,-10362.883188,5669.106685
537.569099,3997.112087,-10436.903782,5439.278036
537.569427,3552.988522,-11029.068536,5515.887586
537.569755,1998.556043,-11399.171507,4519.963438
537.570082,962.267725,-10955.047942,4979.620737
537.570410,962.267725,-10140.821405,4979.620737
537.570738,814.226536,-9326.594869,5209.449386
537.571065,0.000000,-9770.718434,4826.401637
537.571393,-1776.494261,-9844.739029,4213.525239
537.571721,-3478.967927,-9474.636058,2757.943793
537.572048,-3701.029710,-8808.450710,1991.848295
537.572376,-2960.823768,-8364.327145,2451.505594
537.572703,-3330.926739,-8660.409521,2528.115143
537.573031,-4515.256246,-9252.574275,2451.505594
537.573359,-6513.812290,-9992.780217,1302.362347
537.573686,-7179.997637,-9474.636058,1378.971896
537.574014,-6217.729913,-7624.121203,1302.362347
537.574342,-3330.926739,-7624.121203,1915.238745
537.574669,-1776.494261,-7179.997637,2374.896044
537.574997,-666.185348,-7476.080014,2298.286494
537.575325,74.020594,-7772.162391,2911.162892
537.575652,1776.494261,-7105.977043,3600.648841
537.575980,4515.256246,-7624.121203,4903.011187
537.576308,5403.503377,-8882.471304,5439.278036
537.576635,5181.441594,-10658.965565,6281.983084
537.576963,3256.906145,-11473.192101,5669.106685
537.577291,2516.700203,-11103.089130,5286.058936
537.577618,3182.885551,-10066.800811,5439.278036
537.577946,4145.153275,-9548.656652,5515.887586
537.578274,5551.544565,-9992.780217,6128.763984
537.578601,3552.988522,-9770.718434,4673.182538
537.578929,-814.226536,-10436.903782,4290.134789
537.579257,-1628.453072,-9696.697840,2834.553343
537.579584,-2590.720797,-8512.368333,2757.943793
537.579912,-1332.370696,-7402.059420,2757.943793
537.580240,-444.123565,-7179.997637,2451.505594
537.580567,-2368.659014,-7772.162391,3064.381992
537.580895,-4515.256246,-7994.224174,2374.896044
537.581223,-6957.935855,-8068.244768,1532.190996
537.581550,-7772.162391,-7550.100608,229.828649
537.581878,-6365.771101,-7328.038826,-153.219100
537.582206,-2886.803174,-7105.977043,919.314598
537.582533,-1332.370696,-6439.791695,1991.848295
537.582861,0.000000,-6291.750507,2911.162892
537.583188,74.020594,-6809.894666,2757.943793
537.583516,-518.144159,-7402.059420,2221.676944
537.583844,-814.226536,-8586.388927,1072.533697
537.584171,222.061783,-9474.636058,1225.752797
537.584499,1998.556043,-9474.636058,2451.505594
537.584827,4737.318029,-9622.677246,4443.353888
537.585154,6291.750507,-10214.842000,5975.544884
537.585482,6217.729913,-11103.089130,6741.640382
537.585810,4589.276840,-12361.439231,5515.887586
537.586137,2072.576638,-12731.542202,4136.915689
537.586465,0.000000,-12065.356855,2911.162892
537.586793,-740.205942,-11177.109724,2221.676944
537.587120,296.082377,-10955.047942,3830.477490
537.587448,3701.029710,-9326.594869,4213.525239
537.587776,3923.091493,-9918.759623,5209.449386
537.588103,1554.432478,-8882.471304,4903.011187
537.588431,-2072.576638,-9252.574275,3907.087040
537.588759,-5107.421000,-8734.430116,1455.581446
537.589086,-6439.791695,-9104.533087,919.314598
537.589414,-4811.338623,-8364.327145,1608.800546
537.589742,-3256.906145,-7402.059420,2298.286494
537.590069,-370.102971,-6883.915261,3600.648841
537.590397,0.000000,-6587.832884,5669.106685
537.590725,-666.185348,-7179.997637,4903.011187
537.591052,-1924.535449,-8660.409521,4366.744339
537.591380,-3775.050304,-9400.615463,2834.553343
537.591708,-4737.318029,-10140.821405,1762.019645
537.592035,-4515.256246,-10510.924376,1915.238745
537.592363,-3034.844362,-9844.739029,1915.238745
537.592691,0.000000,-9474.636058,3370.820191
537.593018,2146.597232,-8808.450710,4290.134789
537.593346,3034.844362,-8660.409521,4366.744339
537.593674,3256.906145,-9326.594869,4596.572988
537.594001,1776.494261,-9992.780217,2834.553343
537.594329,888.247130,-10584.944971,2757.943793
537.594656,666.185348,-10732.986159,3064.381992
537.594984,1184.329507,-10732.986159,3753.867940
537.595311,1258.350101,-10066.800811,4213.525239
537.595639,1406.391290,-9030.512492,4903.011187
537.595966,1110.308913,-8808.450710,4290.134789
537.596294,-666.185348,-8660.409521,3524.039291
537.596621,814.226536,-8512.368333,3064.381992
537.596949,592.164754,-8216.285956,2374.896044
537.597276,222.061783,-7328.038826,3140.991542
537.597604,1332.370696,-7402.059420,2757.943793
537.597931,1258.350101,-7105.977043,3140.991542
537.598259,666.185348,-7772.162391,3217.601092
537.598587,1554.432478,-8142.265362,3830.477490
537.598914,74.020594,-8882.471304,3600.648841
537.599242,-888.247130,-9474.636058,3524.039291
537.599569,-1406.391290,-9770.718434,3447.429741
537.599897,-2516.700203,-10214.842000,3140.991542
537.600224,-1998.556043,-10288.862594,2987.772442
537.600552,-2072.576638,-9622.677246,2834.553343
537.600879,-1258.350101,-9474.636058,2604.724693
537.601207,-888.247130,-8956.491898,2528.115143
537.601534,-1258.350101,-8290.306550,2374.896044
537.601862,-888.247130,-7920.203579,2298.286494
537.602189,-592.164754,-7698.141797,2451.505594
537.602517,-814.226536,-7402.059420,2528.115143
537.602844,-518.144159,-8068.244768,2757.943793
537.603172,-370.102971,-8364.327145,3217.601092
537.603499,0.000000,-8808.450710,3370.820191
537.603827,740.205942,-9474.636058,3677.258390
537.604154,148.041188,-9400.615463,4136.915689
537.604482,0.000000,-10066.800811,4060.306139
537.604809,-444.123565,-10140.821405,3830.477490
537.605137,-296.082377,-9770.718434,3600.648841
537.605465,74.020594,-9622.677246,3677.258390
537.605792,0.000000,-9030.512492,3064.381992
537.606120,814.226536,-9474.636058,2834.553343
537.606447,1332.370696,-8660.409521,2604.724693
537.606775,296.082377,-9474.636058,2451.505594
537.607102,0.000000,-9548.656652,2451.505594
537.607430,-592.164754,-9474.636058,2068.457845
537.607757,-962.267725,-9326.594869,2221.676944
537.608085,-444.123565,-9992.780217,2068.457845
537.608412,-592.164754,-9844.739029,2221.676944
537.608740,-1110.308913,-9696.697840,1915.238745
537.609067,-1036.288319,-9548.656652,1762.019645
537.609395,-1776.494261,-9326.594869,1915.238745
537.609722,-1406.391290,-8956.491898,1378.971896
537.610050,-1184.329507,-8290.306550,1608.800546
537.610377,-518.144159,-7846.182985,1455.581446
537.610705,0.000000,-7698.141797,1302.362347
537.611032,222.061783,-7994.224174,1072.533697
537.611360,0.000000,-8216.285956,1072.533697
537.611687,0.000000,-8586.388927,1225.752797
537.612015,-444.123565,-9252.574275,1072.533697
537.612342,0.000000,-10066.800811,1532.190996
537.612670,0.000000,-10362.883188,2068.457845
537.612998,666.185348,-10584.944971,2145.067394
537.613325,1258.350101,-10732.986159,2145.067394
537.613653,1258.350101,-10288.862594,1991.848295
537.613980,1406.391290,-9992.780217,2374.896044
537.614308,1554.432478,-9918.759623,2451.505594
537.614635,0.000000,-9178.553681,1302.362347
537.614963,-370.102971,-9400.615463,1225.752797
537.615290,-222.061783,-8660.409521,995.924147
537.615618,-888.247130,-8512.368333,1225.752797
537.615945,-592.164754,-7994.224174,1072.533697
537.616273,-518.144159,-7772.162391,1072.533697
537.616600,-740.205942,-8068.244768,842.705048
537.616928,-740.205942,-7920.203579,689.485948
537.617255,-962.267725,-7846.182985,689.485948
537.617583,-740.205942,-7846.182985,383.047749
537.617910,-814.226536,-8068.244768,766.095498
537.618238,-592.164754,-8586.388927,689.485948
537.618565,-592.164754,-8956.491898,689.485948
537.618893,-740.205942,-8882.471304,995.924147
537.619220,-888.247130,-9104.533087,1149.143247
537.619548,-666.185348,-9178.553681,1225.752797
537.619876,-444.123565,-8882.471304,919.314598
537.620203,0.000000,-9326.594869,766.095498
537.620531,74.020594,-9400.615463,689.485948
537.620858,74.020594,-9400.615463,536.266849
537.621186,148.041188,-9474.636058,1225.752797
537.621513,0.000000,-9326.594869,919.314598
537.621841,-296.082377,-9844.739029,1149.143247
537.622168,-222.061783,-9622.677246,842.705048
537.622496,0.000000,-9400.615463,612.876398
537.622823,0.000000,-8956.491898,612.876398
537.623151,148.041188,-8808.450710,1378.971896
537.623478,0.000000,-8290.306550,459.657299
537.623806,-370.102971,-8734.430116,766.095498
537.624133,0.000000,-8586.388927,612.876398
537.624461,-592.164754,-8586.388927,689.485948
537.624788,-740.205942,-8216.285956,459.657299
537.625116,-814.226536,-8956.491898,536.266849
537.625443,-666.185348,-9252.574275,229.828649
537.625771,-518.144159,-9400.615463,306.438199
537.626098,-666.185348,-9326.594869,229.828649
537.626426,0.000000,-9326.594869,842.705048
537.626754,74.020594,-9622.677246,459.657299
537.627081,148.041188,-9696.697840,536.266849
537.627409,0.000000,-9622.677246,229.828649
537.627736,0.000000,-9548.656652,536.266849
537.628064,-148.041188,-9918.759623,459.657299
537.628391,-296.082377,-9696.697840,766.095498
537.628719,-296.082377,-9918.759623,459.657299
537.629046,-296.082377,-9622.677246,919.314598
537.629374,0.000000,-9622.677246,842.705048
537.629701,0.000000,-9400.615463,842.705048
537.630029,148.041188,-8734.430116,536.266849
537.630356,222.061783,-8808.450710,689.485948
537.630684,74.020594,-8808.450710,612.876398
537.631011,0.000000,-8882.471304,459.657299
537.631339,0.000000,-9178.553681,689.485948
537.631666,74.020594,-9326.594869,995.924147
537.631994,0.000000,-8882.471304,306.438199
537.632321,0.000000,-8882.471304,612.876398
537.632649,148.041188,-9030.512492,383.047749
537.632976,148.041188,-9178.553681,459.657299
537.633304,222.061783,-9178.553681,459.657299
537.633632,0.000000,-8438.347739,459.657299
537.633959,-592.164754,-8882.471304,306.438199
537.634287,-518.144159,-8956.491898,383.047749
537.634614,-814.226536,-9178.553681,536.266849
537.634942,-740.205942,-9400.615463,306.438199
537.635269,-814.226536,-8882.471304,229.828649
537.635597,-888.247130,-8734.430116,306.438199
537.635924,-666.185348,-8808.450710,459.657299
537.636252,-444.123565,-8438.347739,459.657299
537.636579,-592.164754,-8364.327145,536.266849
537.636907,0.000000,-8438.347739,919.314598
537.637234,-592.164754,-8512.368333,306.438199
537.637562,-740.205942,-8956.491898,766.095498
537.637889,-814.226536,-9400.615463,766.095498
537.638217,-740.205942,-9252.574275,842.705048
537.638544,-370.102971,-9400.615463,842.705048
537.638872,-370.102971,-8882.471304,689.485948
537.639199,-370.102971,-8956.491898,612.876398
537.639527,-148.041188,-8808.450710,459.657299
537.639854,0.000000,-8882.471304,612.876398
537.640182,74.020594,-9030.512492,689.485948
537.640510,-296.082377,-8808.450710,766.095498
537.640837,-296.082377,-9400.615463,689.485948
537.641165,-444.123565,-9548.656652,689.485948
537.641492,-296.082377,-9474.636058,612.876398
537.641820,0.000000,-9474.636058,459.657299
537.642147,-222.061783,-8882.471304,229.828649
537.642475,-370.102971,-9030.512492,229.828649
537.642802,-592.164754,-8956.491898,459.657299
537.643130,-666.185348,-8808.450710,612.876398
537.643457,-740.205942,-9104.533087,612.876398
537.643785,-592.164754,-9400.615463,689.485948
537.644112,-592.164754,-9178.553681,536.266849
537.644440,-444.123565,-8808.450710,306.438199
537.644767,-148.041188,-8956.491898,536.266849
537.645095,-296.082377,-8882.471304,383.047749
537.645422,0.000000,-9030.512492,76.609550
537.645750,-148.041188,-9252.574275,919.314598
537.646077,0.000000,-9400.615463,612.876398
537.646405,0.000000,-9696.697840,689.485948
537.646732,-296.082377,-9696.697840,612.876398
537.647060,0.000000,-9770.718434,1149.143247
537.647387,-740.205942,-9474.636058,766.095498
537.647715,0.000000,-9326.594869,766.095498
537.648043,-222.061783,-8808.450710,536.266849
537.648370,-592.164754,-8660.409521,306.438199
537.648698,-962.267725,-8660.409521,536.266849
537.649025,-1258.350101,-8068.244768,612.876398
537.649353,-1184.329507,-8660.409521,536.266849
537.649680,-962.267725,-8734.430116,766.095498
537.650008,-888.247130,-8586.388927,536.266849
537.650335,-148.041188,-8956.491898,612.876398
537.650663,296.082377,-8512.368333,536.266849
537.650990,74.020594,-8142.265362,459.657299
537.651318,222.061783,-8586.388927,536.266849
537.651645,0.000000,-9252.574275,459.657299
537.651973,-444.123565,-9622.677246,612.876398
537.652300,-296.082377,-10584.944971,1532.190996
537.652628,0.000000,-9770.718434,995.924147
537.652955,-444.123565,-10066.800811,1149.143247
537.653283,74.020594,-9474.636058,919.314598
537.653610,444.123565,-9178.553681,306.438199
537.653938,518.144159,-8142.265362,383.047749
537.654265,666.185348,-7994.224174,306.438199
537.654593,0.000000,-8216.285956,229.828649
537.654921,-444.123565,-8586.388927,306.438199
537.655248,-740.205942,-9326.594869,842.705048
537.655576,-666.185348,-9474.636058,995.924147
537.655903,-518.144159,-9104.533087,842.705048
537.656231,-148.041188,-9104.533087,612.876398
537.656558,74.020594,-8882.471304,612.876398
537.656886,296.082377,-8808.450710,306.438199
537.657213,222.061783,-8068.244768,76.609550
537.657541,518.144159,-8290.306550,536.266849
537.657868,-296.082377,-8364.327145,536.266849
537.658196,-296.082377,-9178.553681,612.876398
537.658523,-518.144159,-9474.636058,536.266849
537.658851,-518.144159,-9548.656652,306.438199
537.659178,-370.102971,-9474.636058,842.705048
537.659506,0.000000,-9474.636058,229.828649
537.659833,-296.082377,-9252.574275,153.219100
537.660161,74.020594,-8956.491898,0.000000
537.660488,296.082377,-8808.450710,153.219100
537.660816,74.020594,-8808.450710,536.266849
537.661143,222.061783,-9474.636058,306.438199
537.661471,0.000000,-9770.718434,766.095498
537.661799,-222.061783,-9622.677246,1072.533697
537.662126,-370.102971,-9548.656652,689.485948
537.662454,-518.144159,-9474.636058,766.095498
537.662781,-444.123565,-9178.553681,612.876398
537.663109,-666.185348,-8882.471304,383.047749
537.663436,-444.123565,-8882.471304,383.047749
537.663764,-518.144159,-9252.574275,612.876398
537.664091,-666.185348,-9326.594869,689.485948
537.664419,-444.123565,-9252.574275,842.705048
537.664746,-296.082377,-9400.615463,766.095498
537.665074,-296.082377,-9474.636058,842.705048
537.665401,-296.082377,-9326.594869,383.047749
537.665729,-370.102971,-9400.615463,383.047749
537.666056,148.041188,-9548.656652,536.266849
537.666384,-148.041188,-9548.656652,766.095498
537.666711,-222.061783,-9696.697840,689.485948
537.667039,-222.061783,-9696.697840,995.924147
537.667366,-222.061783,-9622.677246,842.705048
537.667694,-296.082377,-9400.615463,689.485948
537.668021,0.000000,-9178.553681,459.657299
537.668349,-370.102971,-9178.553681,612.876398
537.668677,-592.164754,-8956.491898,383.047749
537.669004,-592.164754,-8734.430116,383.047749
537.669332,-518.144159,-8882.471304,383.047749
537.669659,-444.123565,-8216.285956,229.828649
537.669987,-296.082377,-8660.409521,689.485948
537.670314,-444.123565,-8660.409521,536.266849
537.670642,-444.123565,-8438.347739,383.047749
537.670969,-370.102971,-8660.409521,536.266849
537.671297,-296.082377,-8882.471304,383.047749
537.671624,-444.123565,-8734.430116,76.609550
537.671952,-148.041188,-9030.512492,612.876398
537.672279,0.000000,-9030.512492,383.047749
537.672607,0.000000,-9474.636058,229.828649
537.672934,0.000000,-9252.574275,919.314598
537.673262,0.000000,-9252.574275,0.000000
537.673589,0.000000,-8882.471304,306.438199
537.673917,-74.020594,-8882.471304,383.047749
537.674244,-370.102971,-8808.450710,459.657299
537.674572,-370.102971,-8956.491898,536.266849
537.674899,74.020594,-8956.491898,1072.533697
537.675227,-370.102971,-8882.471304,536.266849
537.675555,-296.082377,-8660.409521,842.705048
537.675882,-370.102971,-8882.471304,612.876398
537.676210,0.000000,-8808.450710,689.485948
537.676537,-370.102971,-8290.306550,842.705048
537.676865,-518.144159,-8438.347739,383.047749
537.677192,-370.102971,-9178.553681,919.314598
537.677520,-148.041188,-9326.594869,766.095498
537.677847,-222.061783,-9252.574275,842.705048
537.678175,-666.185348,-8734.430116,1072.533697
537.678502,0.000000,-9474.636058,995.924147
537.678830,0.000000,-9252.574275,766.095498
537.679157,0.000000,-9252.574275,842.705048
537.679485,0.000000,-9030.512492,459.657299
537.679812,0.000000,-8734.430116,536.266849
537.680140,0.000000,-9400.615463,459.657299
537.680467,-518.144159,-9104.533087,919.314598
537.680795,-444.123565,-9474.636058,766.095498
537.681122,-296.082377,-9400.615463,689.485948
537.681450,-296.082377,-9326.594869,536.266849
537.681777,0.000000,-9030.512492,536.266849
537.682105,-148.041188,-9178.553681,229.828649
537.682432,0.000000,-8956.491898,536.266849
537.682760,0.000000,-9178.553681,306.438199
537.683088,0.000000,-9326.594869,383.047749
537.683415,0.000000,-9104.533087,459.657299
537.683743,222.061783,-9400.615463,153.219100
537.684070,0.000000,-9474.636058,153.219100
537.684398,148.041188,-9474.636058,689.485948
537.684725,222.061783,-9400.615463,306.438199
537.685053,-222.061783,-8956.491898,842.705048
537.685380,296.082377,-9400.615463,306.438199
537.685708,-148.041188,-9474.636058,459.657299
537.686035,-148.041188,-9474.636058,306.438199
537.686363,0.000000,-9326.594869,383.047749
537.686690,0.000000,-9326.594869,-306.438199
537.687018,0.000000,-9104.533087,459.657299
537.687345,0.000000,-9104.533087,612.876398
537.687673,-296.082377,-8956.491898,689.485948
537.688000,-370.102971,-8882.471304,383.047749
537.688328,-444.123565,-9178.553681,536.266849
537.688655,-296.082377,-8956.491898,842.705048
537.688983,-518.144159,-9326.594869,842.705048
537.689310,-370.102971,-9104.533087,689.485948
537.689638,0.000000,-9474.636058,689.485948
537.689966,-296.082377,-9030.512492,536.266849
537.690293,0.000000,-8734.430116,766.095498
537.690621,-296.082377,-8956.491898,536.266849
537.690948,-444.123565,-8882.471304,766.095498
537.691276,-296.082377,-9030.512492,689.485948
537.691603,-444.123565,-9104.533087,766.095498
537.691931,-592.164754,-8956.491898,919.314598
537.692258,-296.082377,-8956.491898,1149.143247
537.692586,-370.102971,-9178.553681,612.876398
537.692913,0.000000,-9104.533087,612.876398
537.693241,-296.082377,-9030.512492,536.266849
537.693568,0.000000,-9252.574275,919.314598
537.693896,-222.061783,-8882.471304,689.485948
537.694223,0.000000,-9252.574275,612.876398
537.694551,-148.041188,-9474.636058,766.095498
537.694878,-148.041188,-9474.636058,689.485948
537.695206,0.000000,-9400.615463,536.266849
537.695533,370.102971,-9548.656652,536.266849
537.695861,0.000000,-9326.594869,229.828649
537.696188,0.000000,-9178.553681,459.657299
537.696516,-370.102971,-8808.450710,306.438199
537.696844,-592.164754,-9104.533087,536.266849
537.697171,-666.185348,-9030.512492,689.485948
537.697499,-592.164754,-9104.533087,612.876398
537.697826,-518.144159,-9252.574275,229.828649
537.698154,-592.164754,-9252.574275,383.047749
537.698481,-518.144159,-9178.553681,459.657299
537.698809,-592.164754,-9030.512492,229.828649
537.699136,-962.267725,-8660.409521,842.705048
537.699464,-518.144159,-8882.471304,306.438199
537.699791,-666.185348,-9030.512492,459.657299
537.700119,-814.226536,-9400.615463,306.438199
537.700446,-888.247130,-9622.677246,842.705048
537.700774,-740.205942,-9030.512492,612.876398
537.701101,-666.185348,-9326.594869,689.485948
537.701429,-444.123565,-9104.533087,766.095498
537.701756,-296.082377,-8734.430116,459.657299
537.702084,-222.061783,-8808.450710,612.876398
537.702411,-444.123565,-8290.306550,842.705048
537.702739,-444.123565,-8808.450710,229.828649
537.703067,-444.123565,-9030.512492,689.485948
537.703394,-518.144159,-9252.574275,689.485948
537.703722,-666.185348,-9030.512492,842.705048
537.704049,-740.205942,-8808.450710,1072.533697
537.704377,0.000000,-8512.368333,383.047749
537.704704,-222.061783,-8956.491898,689.485948
537.705032,-222.061783,-8734.430116,459.657299
537.705359,-222.061783,-8808.450710,306.438199
537.705687,0.000000,-8808.450710,612.876398
537.706014,-222.061783,-8882.471304,766.095498
537.706342,-370.102971,-9104.533087,612.876398
537.706669,-296.082377,-9474.636058,536.266849
537.706997,-296.082377,-9104.533087,459.657299
537.707324,0.000000,-9178.553681,612.876398
537.707652,0.000000,-8956.491898,76.609550
537.707979,-444.123565,-8956.491898,459.657299
537.708307,-444.123565,-8808.450710,383.047749
537.708634,-370.102971,-8808.450710,459.657299
537.708962,-592.164754,-8882.471304,383.047749
537.709289,-444.123565,-9178.553681,383.047749
537.709617,-296.082377,-9104.533087,383.047749
537.709945,0.000000,-8956.491898,459.657299
537.710272,0.000000,-8808.450710,229.828649
537.710600,0.000000,-8808.450710,459.657299
537.710927,148.041188,-8734.430116,229.828649
537.711255,0.000000,-8808.450710,689.485948
537.711582,0.000000,-9178.553681,536.266849
537.711910,-148.041188,-9474.636058,689.485948
537.712237,0.000000,-9474.636058,689.485948
537.712565,0.000000,-9178.553681,919.314598
537.712892,-222.061783,-8956.491898,766.095498
537.713220,0.000000,-9252.574275,612.876398
537.713547,-222.061783,-9326.594869,459.657299
537.713875,-592.164754,-9104.533087,459.657299
537.714202,-370.102971,-9030.512492,536.266849
537.714530,-148.041188,-8956.491898,229.828649
537.714857,-148.041188,-9400.615463,612.876398
537.715185,0.000000,-9252.574275,766.095498
537.715512,-222.061783,-8956.491898,766.095498
537.715840,-222.061783,-9104.533087,766.095498
537.716168,-222.061783,-9104.533087,383.047749
537.716495,-444.123565,-9104.533087,842.705048
537.716823,-444.123565,-9104.533087,383.047749
537.717150,-148.041188,-9326.594869,766.095498
537.717478,0.000000,-9622.677246,612.876398
537.717805,148.041188,-9622.677246,919.314598
537.718133,0.000000,-9178.553681,766.095498
537.718460,0.000000,-9326.594869,612.876398
537.718788,-148.041188,-9252.574275,459.657299
537.719115,-370.102971,-9474.636058,459.657299
537.719443,-444.123565,-9030.512492,153.219100
537.719770,0.000000,-8956.491898,766.095498
537.720098,-370.102971,-9178.553681,612.876398
537.720425,-518.144159,-9178.553681,459.657299
537.720753,-370.102971,-9252.574275,383.047749
537.721080,-296.082377,-9104.533087,306.438199
537.721408,0.000000,-8956.491898,459.657299
537.721735,-148.041188,-9178.553681,76.609550
537.722063,0.000000,-9252.574275,459.657299
537.722390,0.000000,-9030.512492,536.266849
537.722718,0.000000,-9104.533087,229.828649
537.723046,222.061783,-9622.677246,0.000000
537.723373,-148.041188,-9252.574275,306.438199
537.723701,0.000000,-9326.594869,383.047749
537.724028,0.000000,-8882.471304,306.438199
537.724356,-222.061783,-8808.450710,612.876398
537.724683,-444.123565,-9104.533087,1072.533697
537.725011,-148.041188,-9178.553681,536.266849
537.725338,-518.144159,-8808.450710,536.266849
537.725666,-592.164754,-8808.450710,689.485948
537.725993,-666.185348,-9030.512492,536.266849
537.726321,-666.185348,-8808.450710,306.438199
537.726648,-444.123565,-8956.491898,459.657299
537.726976,-444.123565,-8512.368333,536.266849
537.727303,-518.144159,-8586.388927,306.438199
537.727631,-592.164754,-8808.450710,612.876398
537.727958,-592.164754,-8882.471304,612.876398
537.728286,-296.082377,-8512.368333,995.924147
537.728613,-666.185348,-8734.430116,612.876398
537.728941,-296.082377,-9252.574275,842.705048
537.729269,-518.144159,-9030.512492,689.485948
537.729596,-370.102971,-9030.512492,766.095498
537.729924,-370.102971,-8808.450710,995.924147
537.730251,-148.041188,-8956.491898,689.485948
537.730579,-444.123565,-8882.471304,612.876398
537.730906,-444.123565,-8808.450710,689.485948
537.731234,-518.144159,-8956.491898,536.266849
537.731561,-592.164754,-8586.388927,689.485948
537.731889,0.000000,-9030.512492,842.705048
537.732216,-592.164754,-8882.471304,612.876398
537.732544,-666.185348,-9030.512492,306.438199
537.732871,-444.123565,-8956.491898,612.876398
537.733199,-296.082377,-9104.533087,536.266849
537.733526,0.000000,-9030.512492,612.876398
537.733854,-296.082377,-8882.471304,612.876398
537.734181,0.000000,-9326.594869,689.485948
537.734509,0.000000,-9252.574275,612.876398
537.734836,-296.082377,-9474.636058,459.657299
537.735164,0.000000,-8808.450710,383.047749
537.735491,-148.041188,-9548.656652,766.095498
537.735819,-148.041188,-9474.636058,612.876398
537.736147,-296.082377,-9548.656652,766.095498
537.736474,-222.061783,-9400.615463,689.485948
537.736802,0.000000,-9400.615463,766.095498
537.737129,0.000000,-9400.615463,383.047749
537.737457,-222.061783,-9252.574275,459.657299
537.737784,-370.102971,-9104.533087,612.876398
537.738112,-222.061783,-9252.574275,536.266849
537.738439,0.000000,-9252.574275,766.095498
537.738767,0.000000,-9474.636058,76.609550
537.739094,-148.041188,-9400.615463,229.828649
537.739422,-222.061783,-9326.594869,536.266849
537.739749,0.000000,-9326.594869,536.266849
537.740077,0.000000,-9252.574275,536.266849
537.740404,296.082377,-9252.574275,995.924147
537.740732,-296.082377,-9252.574275,766.095498
537.741059,-296.082377,-9104.533087,536.266849
537.741387,-370.102971,-9252.574275,536.266849
537.741714,-222.061783,-9252.574275,689.485948
537.742042,-518.144159,-9030.512492,689.485948
537.742370,0.000000,-8956.491898,842.705048
537.742697,0.000000,-9178.553681,459.657299
537.743025,0.000000,-8808.450710,689.485948
537.743352,0.000000,-8956.491898,536.266849
537.743680,-296.082377,-8438.347739,689.485948
537.744007,0.000000,-8956.491898,306.438199
537.744335,0.000000,-9104.533087,459.657299
537.744662,-148.041188,-9400.615463,383.047749
537.744990,0.000000,-9030.512492,306.438199
537.745317,0.000000,-9252.574275,842.705048
537.745645,666.185348,-9104.533087,689.485948
537.745972,0.000000,-9104.533087,459.657299
537.746300,74.020594,-9104.533087,459.657299
537.746627,-222.061783,-9104.533087,612.876398
537.746955,0.000000,-9252.574275,383.047749
537.747282,0.000000,-9104.533087,1072.533697
537.747610,0.000000,-9104.533087,383.047749
537.747937,-222.061783,-9326.594869,612.876398
537.748265,0.000000,-9326.594869,459.657299
537.748593,0.000000,-9252.574275,306.438199
537.748920,-222.061783,-8956.491898,689.485948
537.749248,-518.144159,-9030.512492,383.047749
537.749575,-370.102971,-9252.574275,689.485948
537.749903,-370.102971,-9252.574275,536.266849
537.750230,-222.061783,-9104.533087,612.876398
537.750558,-444.123565,-8882.471304,842.705048
537.750885,0.000000,-9474.636058,536.266849
537.751213,-592.164754,-9400.615463,689.485948
537.751540,-296.082377,-9252.574275,612.876398
537.751868,-370.102971,-9178.553681,842.705048
537.752195,0.000000,-9474.636058,383.047749
537.752523,-592.164754,-9252.574275,383.047749
537.752850,-518.144159,-9178.553681,612.876398
537.753178,-444.123565,-9178.553681,689.485948
537.753505,-518.144159,-9030.512492,689.485948
537.753833,-592.164754,-9178.553681,612.876398
537.754160,-592.164754,-9030.512492,383.047749
537.754488,-444.123565,-9104.533087,383.047749
537.754815,-296.082377,-8882.471304,459.657299
537.755143,-444.123565,-8882.471304,76.609550
537.755471,-518.144159,-9326.594869,459.657299
537.755798,-222.061783,-9474.636058,383.047749
537.756126,-296.082377,-9178.553681,306.438199
537.756453,-222.061783,-9104.533087,689.485948
537.756781,-148.041188,-9104.533087,153.219100
537.757108,0.000000,-9252.574275,459.657299
537.757436,-148.041188,-8734.430116,612.876398
537.757763,0.000000,-8956.491898,153.219100
537.758091,-222.061783,-8734.430116,306.438199
537.758418,-518.144159,-9030.512492,306.438199
537.758746,-222.061783,-8956.491898,383.047749
537.759073,-592.164754,-9104.533087,1072.533697
537.759401,-222.061783,-8512.368333,689.485948
537.759728,-222.061783,-8808.450710,612.876398
537.760056,-740.205942,-8956.491898,536.266849
537.760383,-518.144159,-9030.512492,383.047749
537.760711,-518.144159,-8882.471304,536.266849
537.761038,0.000000,-9178.553681,306.438199
537.761366,0.000000,-8956.491898,306.438199
537.761694,-444.123565,-9104.533087,536.266849
537.762021,-296.082377,-9252.574275,612.876398
537.762349,-148.041188,-9030.512492,536.266849
537.762676,0.000000,-9030.512492,919.314598
537.763004,-444.123565,-8882.471304,459.657299
537.763331,-444.123565,-9030.512492,612.876398
537.763659,-518.144159,-9030.512492,383.047749
537.763986,-518.144159,-9104.533087,536.266849
537.764314,-148.041188,-9030.512492,306.438199
537.764641,-148.041188,-8734.430116,612.876398
537.764969,-296.082377,-9104.533087,459.657299
537.765296,-148.041188,-8808.450710,459.657299
537.765624,-222.061783,-8956.491898,689.485948
537.765951,-444.123565,-8586.388927,229.828649
537.766279,-370.102971,-8956.491898,1302.362347
537.766606,0.000000,-9178.553681,459.657299
537.766934,0.000000,-9178.553681,766.095498
537.767261,0.000000,-9252.574275,612.876398
537.767589,0.000000,-9474.636058,459.657299
537.767916,-444.123565,-9178.553681,919.314598
537.768244,0.000000,-9474.636058,536.266849
537.768572,0.000000,-9326.594869,459.657299
537.768899,0.000000,-9104.533087,612.876398
537.769227,-296.082377,-9400.615463,536.266849
537.769554,-148.041188,-9178.553681,1149.143247
537.769882,0.000000,-9178.553681,383.047749
537.770209,0.000000,-9178.553681,612.876398
537.770537,0.000000,-9252.574275,229.828649
537.770864,-296.082377,-9326.594869,612.876398
537.771192,74.020594,-9030.512492,689.485948
537.771519,0.000000,-8808.450710,1072.533697
537.771847,-444.123565,-9178.553681,689.485948
537.772174,-370.102971,-9400.615463,919.314598
537.772502,-222.061783,-9696.697840,766.095498
537.772829,-74.020594,-9474.636058,1072.533697
537.773157,0.000000,-9104.533087,842.705048
537.773484,-148.041188,-9326.594869,383.047749
537.773812,-444.123565,-9474.636058,459.657299
537.774139,-296.082377,-9474.636058,459.657299
537.774467,-370.102971,-9178.553681,306.438199
537.774795,-444.123565,-8956.491898,1149.143247
537.775122,-296.082377,-9474.636058,536.266849
537.775450,-222.061783,-9548.656652,383.047749
537.775777,-148.041188,-9252.574275,459.657299
537.776105,-296.082377,-9252.574275,536.266849
537.776432,0.000000,-9252.574275,153.219100
537.776760,-444.123565,-9104.533087,536.266849
537.777087,-370.102971,-9178.553681,459.657299
537.777415,-222.061783,-9178.553681,459.657299
537.777742,0.000000,-8956.491898,306.438199
537.778070,0.000000,-9252.574275,76.609550
537.778397,-444.123565,-9326.594869,689.485948
537.778725,0.000000,-9252.574275,536.266849
537.779052,0.000000,-8882.471304,306.438199
537.779380,0.000000,-8956.491898,306.438199
537.779707,-222.061783,-9474.636058,536.266849
537.780035,-148.041188,-8956.491898,612.876398
537.780362,-222.061783,-8956.491898,306.438199
537.780690,-148.041188,-9030.512492,459.657299
537.781017,-444.123565,-8882.471304,612.876398
537.781345,-518.144159,-8956.491898,536.266849
537.781673,-370.102971,-8808.450710,689.485948
537.782000,-370.102971,-8808.450710,459.657299
537.782328,-518.144159,-8882.471304,306.438199
537.782655,-444.123565,-8660.409521,383.047749
537.782983,-518.144159,-8734.430116,536.266849
537.783310,-444.123565,-8586.388927,842.705048
537.783638,-518.144159,-8660.409521,383.047749
537.783965,-370.102971,-8808.450710,689.485948
537.784293,-222.061783,-9178.553681,459.657299
537.784620,-296.082377,-8882.471304,689.485948
537.784948,-296.082377,-8586.388927,766.095498
537.785275,-296.082377,-8882.471304,612.876398
537.785603,-148.041188,-9104.533087,536.266849
537.785930,-666.185348,-8882.471304,612.876398
537.786258,-666.185348,-9030.512492,689.485948
537.786585,-666.185348,-8882.471304,766.095498
537.786913,-666.185348,-8586.388927,689.485948
537.787240,-370.102971,-8956.491898,842.705048
537.787568,-296.082377,-9030.512492,536.266849
537.787896,-740.205942,-8882.471304,612.876398
537.788223,-444.123565,-8882.471304,383.047749
537.788551,-666.185348,-8808.450710,689.485948
537.788878,-370.102971,-9178.553681,919.314598
537.789206,-592.164754,-9104.533087,766.095498
537.789533,-518.144159,-9252.574275,919.314598
537.789861,-592.164754,-9326.594869,766.095498
537.790188,-518.144159,-9326.594869,76.609550
537.790516,-370.102971,-9030.512492,1072.533697
537.790843,-296.082377,-9104.533087,612.876398
537.791171,-518.144159,-9104.533087,689.485948
537.791498,-592.164754,-9104.533087,459.657299
537.791826,-592.164754,-9178.553681,766.095498
537.792153,-222.061783,-9178.553681,459.657299
537.792481,-518.144159,-9178.553681,612.876398
537.792808,-518.144159,-9030.512492,689.485948
537.793136,-370.102971,-9178.553681,536.266849
537.793463,-370.102971,-8956.491898,459.657299
537.793791,-370.102971,-9030.512492,612.876398
537.794119,-592.164754,-9030.512492,689.485948
537.794446,-296.082377,-8882.471304,459.657299
537.794774,-222.061783,-9178.553681,766.095498
537.795101,0.000000,-9400.615463,459.657299
537.795429,74.020594,-9400.615463,229.828649
537.795756,0.000000,-9030.512492,1072.533697
537.796084,-296.082377,-9326.594869,612.876398
537.796411,-296.082377,-9030.512492,383.047749
537.796739,-148.041188,-9104.533087,306.438199
537.797066,-222.061783,-8956.491898,919.314598
537.797394,0.000000,-8808.450710,0.000000
537.797721,-222.061783,-8956.491898,306.438199
537.798049,-222.061783,-8956.491898,383.047749
537.798377,0.000000,-9178.553681,306.438199
537.798704,0.000000,-8808.450710,153.219100
537.799032,0.000000,-8512.368333,383.047749
537.799359,0.000000,-8882.471304,229.828649
537.799687,0.000000,-9030.512492,306.438199
537.800014,-222.061783,-9178.553681,306.438199
537.800342,0.000000,-9030.512492,383.047749
537.800669,370.102971,-8882.471304,383.047749
537.800997,74.020594,-8956.491898,459.657299
537.801325,0.000000,-9104.533087,229.828649
537.801652,-222.061783,-9030.512492,536.266849
537.801980,-148.041188,-9104.533087,536.266849
537.802307,0.000000,-9030.512492,689.485948
537.802635,0.000000,-8956.491898,383.047749
537.802962,-370.102971,-9104.533087,229.828649
537.803290,-148.041188,-9252.574275,459.657299
537.803617,-518.144159,-9178.553681,383.047749
537.803945,-148.041188,-8734.430116,153.219100
537.804273,0.000000,-8734.430116,1072.533697
537.804600,0.000000,-9474.636058,536.266849
537.804928,-370.102971,-9030.512492,766.095498
537.805255,-444.123565,-9252.574275,689.485948
537.805583,-370.102971,-9474.636058,842.705048
537.805910,-296.082377,-9252.574275,689.485948
537.806238,-296.082377,-9326.594869,842.705048
537.806565,0.000000,-9400.615463,689.485948
537.806893,0.000000,-9400.615463,919.314598
537.807220,-444.123565,-9326.594869,766.095498
537.807548,-592.164754,-9178.553681,612.876398
537.807876,-518.144159,-9178.553681,842.705048
537.808203,-444.123565,-9326.594869,842.705048
537.808531,-296.082377,-9104.533087,689.485948
537.808858,-444.123565,-9252.574275,689.485948
537.809186,-222.061783,-9104.533087,536.266849
537.809513,-444.123565,-8882.471304,689.485948
537.809841,-518.144159,-9030.512492,689.485948
537.810168,-444.123565,-8882.471304,766.095498
537.810496,-518.144159,-9104.533087,689.485948
537.810824,-666.185348,-9326.594869,919.314598
537.811151,0.000000,-9178.553681,1072.533697
537.811479,0.000000,-9252.574275,766.095498
537.811806,0.000000,-9400.615463,689.485948
537.812134,-222.061783,-9252.574275,766.095498
537.812461,-370.102971,-9252.574275,612.876398
537.812789,-370.102971,-9030.512492,1149.143247
537.813116,-518.144159,-9252.574275,612.876398
537.813444,-518.144159,-9252.574275,612.876398
537.813772,-518.144159,-9104.533087,689.485948
537.814099,-592.164754,-8956.491898,612.876398
537.814427,-444.123565,-8586.388927,306.438199
537.814754,-740.205942,-8586.388927,536.266849
537.815082,-592.164754,-8882.471304,536.266849
537.815409,-666.185348,-8586.388927,306.438199
537.815737,-518.144159,-8512.368333,306.438199
537.816064,0.000000,-8956.491898,536.266849
537.816392,0.000000,-8512.368333,383.047749
537.816720,-296.082377,-8882.471304,306.438199
537.817047,-222.061783,-8956.491898,229.828649
537.817375,0.000000,-9104.533087,689.485948
537.817702,0.000000,-9104.533087,612.876398
537.818030,296.082377,-9104.533087,689.485948
537.818357,0.000000,-9178.553681,536.266849
537.818685,-370.102971,-8808.450710,306.438199
537.819012,-222.061783,-9252.574275,306.438199
537.819340,-296.082377,-8956.491898,306.438199
537.819668,0.000000,-8734.430116,459.657299
537.819995,0.000000,-8808.450710,459.657299
537.820323,-74.020594,-9030.512492,459.657299
537.820650,-222.061783,-9030.512492,306.438199
537.820978,-370.102971,-8882.471304,153.219100
537.821305,0.000000,-8882.471304,459.657299
537.821633,-370.102971,-8808.450710,383.047749
537.821960,-370.102971,-9252.574275,689.485948
537.822288,-370.102971,-9252.574275,842.705048
537.822616,-370.102971,-9178.553681,536.266849
537.822943,-444.123565,-9252.574275,766.095498
537.823271,-370.102971,-9252.574275,766.095498
537.823598,-296.082377,-9400.615463,689.485948
537.823926,-296.082377,-9030.512492,689.485948
537.824253,-296.082377,-8956.491898,689.485948
537.824581,-296.082377,-8734.430116,306.438199
537.824908,-148.041188,-9400.615463,766.095498
537.825236,-296.082377,-9104.533087,612.876398
537.825564,-518.144159,-9104.533087,459.657299
537.825891,-444.123565,-9252.574275,842.705048
537.826219,-444.123565,-9104.533087,383.047749
537.826546,0.000000,-8956.491898,842.705048
537.826874,-518.144159,-9030.512492,766.095498
537.827201,-296.082377,-8956.491898,842.705048
537.827529,-148.041188,-9252.574275,536.266849
537.827856,0.000000,-9548.656652,536.266849
537.828184,0.000000,-9400.615463,995.924147
537.828512,74.020594,-9400.615463,459.657299
537.828839,0.000000,-9474.636058,383.047749
537.829167,0.000000,-9474.636058,536.266849
537.829494,0.000000,-9548.656652,306.438199
537.829822,74.020594,-9030.512492,536.266849
537.830149,222.061783,-9252.574275,383.047749
537.830477,0.000000,-9326.594869,383.047749
537.830804,-296.082377,-9326.594869,306.438199
537.831132,-222.061783,-9400.615463,459.657299
537.831460,0.000000,-9252.574275,536.266849
537.831787,-148.041188,-8956.491898,0.000000
537.832115,0.000000,-9030.512492,612.876398
537.832442,-222.061783,-9178.553681,766.095498
537.832770,-296.082377,-9178.553681,612.876398
537.833097,-370.102971,-9178.553681,766.095498
537.833425,-592.164754,-8364.327145,689.485948
537.833752,-370.102971,-9104.533087,689.485948
537.834080,-296.082377,-9104.533087,842.705048
537.834408,-222.061783,-9030.512492,995.924147
537.834735,-222.061783,-8882.471304,919.314598
537.835063,-222.061783,-8956.491898,995.924147
537.835390,-444.123565,-9030.512492,229.828649
537.835718,-592.164754,-9030.512492,842.705048
537.836045,-740.205942,-8956.491898,689.485948
537.836373,-666.185348,-8956.491898,612.876398
537.836700,-1110.308913,-8882.471304,995.924147
537.837028,-296.082377,-8882.471304,842.705048
537.837355,-518.144159,-8808.450710,689.485948
537.837683,-592.164754,-8808.450710,612.876398
537.838011,-666.185348,-8882.471304,536.266849
537.838338,-518.144159,-8660.409521,689.485948
537.838666,-222.061783,-8586.388927,229.828649
537.838993,-296.082377,-8660.409521,383.047749
537.839321,0.000000,-9030.512492,306.438199
537.839648,148.041188,-9178.553681,459.657299
537.839976,74.020594,-9178.553681,383.047749
537.840303,444.123565,-9252.574275,76.609550
537.840631,0.000000,-8956.491898,383.047749
537.840959,148.041188,-9178.553681,306.438199
537.841286,0.000000,-9178.553681,536.266849
537.841614,0.000000,-9104.533087,306.438199
537.841941,-148.041188,-8956.491898,612.876398
537.842269,74.020594,-8956.491898,153.219100
537.842596,-222.061783,-9030.512492,306.438199
537.842924,-296.082377,-8882.471304,229.828649
537.843251,-296.082377,-8956.491898,76.609550
537.843579,-296.082377,-8734.430116,536.266849
537.843907,-148.041188,-8660.409521,842.705048
537.844234,-370.102971,-9104.533087,536.266849
537.844562,-148.041188,-9252.574275,612.876398
537.844889,-148.041188,-9178.553681,536.266849
537.845217,-296.082377,-9326.594869,689.485948
537.845544,-222.061783,-9252.574275,689.485948
537.845872,-370.102971,-9326.594869,1072.533697
537.846199,-592.164754,-9252.574275,1072.533697
537.846527,-666.185348,-9252.574275,689.485948
537.846855,-814.226536,-9252.574275,766.095498
537.847182,-888.247130,-8808.450710,612.876398
537.847510,-814.226536,-9030.512492,919.314598
537.847837,-814.226536,-8808.450710,536.266849
537.848165,-740.205942,-8882.471304,842.705048
537.848492,-740.205942,-8808.450710,766.095498
537.848820,-370.102971,-9030.512492,689.485948
537.849147,-592.164754,-8586.388927,459.657299
537.849475,-592.164754,-9178.553681,766.095498
537.849803,-518.144159,-9252.574275,766.095498
537.850130,-518.144159,-9326.594869,919.314598
537.850458,0.000000,-9326.594869,842.705048
537.850785,-222.061783,-9400.615463,766.095498
537.851113,0.000000,-9474.636058,766.095498
537.851440,0.000000,-9400.615463,766.095498
537.851768,0.000000,-9252.574275,612.876398
537.852095,0.000000,-9252.574275,459.657299
537.852423,74.020594,-8956.491898,459.657299
537.852751,0.000000,-9400.615463,842.705048
537.853078,0.000000,-9326.594869,536.266849
537.853406,0.000000,-9252.574275,306.438199
537.853733,74.020594,-9252.574275,229.828649
537.854061,-370.102971,-8586.388927,383.047749
537.854388,296.082377,-9474.636058,153.219100
537.854716,-148.041188,-8956.491898,153.219100
537.855043,-222.061783,-9104.533087,153.219100
537.855371,-222.061783,-9326.594869,229.828649
537.855699,-222.061783,-9326.594869,919.314598
537.856026,0.000000,-9474.636058,459.657299
537.856354,0.000000,-9326.594869,383.047749
537.856681,0.000000,-9326.594869,536.266849
537.857009,0.000000,-9178.553681,153.219100
537.857336,0.000000,-9030.512492,306.438199
537.857664,0.000000,-8660.409521,689.485948
537.857991,-222.061783,-9030.512492,306.438199
537.858319,-370.102971,-9104.533087,459.657299
537.858647,-370.102971,-9326.594869,612.876398
537.858974,-296.082377,-9178.553681,536.266849
537.859302,-222.061783,-8586.388927,995.924147
537.859629,-222.061783,-8882.471304,612.876398
537.859957,0.000000,-8808.450710,612.876398
537.860284,0.000000,-8808.450710,842.705048
537.860612,-296.082377,-9030.512492,612.876398
537.860939,-222.061783,-9178.553681,995.924147
537.861267,-740.205942,-9178.553681,842.705048
537.861595,-222.061783,-9400.615463,842.705048
537.861922,0.000000,-9474.636058,766.095498
537.862250,0.000000,-9326.594869,766.095498
537.862577,0.000000,-9400.615463,612.876398
537.862905,-148.041188,-9326.594869,766.095498
537.863232,-444.123565,-9252.574275,383.047749
537.863560,-370.102971,-9178.553681,612.876398
537.863887,-370.102971,-9474.636058,536.266849
537.864215,0.000000,-9252.574275,536.266849
537.864542,-148.041188,-8956.491898,459.657299
537.864870,-370.102971,-9104.533087,612.876398
537.865198,-666.185348,-8808.450710,306.438199
537.865525,-148.041188,-8808.450710,383.047749
537.865853,-370.102971,-8808.450710,306.438199
537.866180,-74.020594,-8660.409521,0.000000
537.866508,-148.041188,-9030.512492,76.609550
537.866835,0.000000,-9104.533087,536.266849
537.867163,-222.061783,-9104.533087,842.705048
537.867490,-296.082377,-9326.594869,766.095498
537.867818,0.000000,-9030.512492,612.876398
537.868146,-370.102971,-9252.574275,766.095498
537.868473,-296.082377,-9104.533087,383.047749
537.868801,-444.123565,-9030.512492,612.876398
537.869128,-370.102971,-9178.553681,689.485948
537.869456,74.020594,-9474.636058,536.266849
537.869783,-296.082377,-9104.533087,766.095498
537.870111,-444.123565,-8956.491898,612.876398
537.870438,-888.247130,-9030.512492,612.876398
537.870766,-814.226536,-8956.491898,383.047749
537.871094,-666.185348,-8882.471304,766.095498
537.871421,-962.267725,-8808.450710,919.314598
537.871749,-592.164754,-8956.491898,536.266849
537.872076,-518.144159,-9178.553681,612.876398
537.872404,-592.164754,-8956.491898,536.266849
537.872731,-370.102971,-8734.430116,536.266849
537.873059,-296.082377,-8660.409521,612.876398
537.873386,0.000000,-8956.491898,766.095498
537.873714,-222.061783,-8956.491898,229.828649
537.874042,-296.082377,-8956.491898,536.266849
537.874369,-370.102971,-9030.512492,459.657299
537.874697,-370.102971,-8882.471304,1072.533697
537.875024,0.000000,-9326.594869,153.219100
537.875352,-148.041188,-9104.533087,612.876398
537.875679,-148.041188,-9252.574275,459.657299
537.876007,-296.082377,-9104.533087,229.828649
537.876334,74.020594,-9030.512492,536.266849
537.876662,74.020594,-9104.533087,536.266849
537.876990,-148.041188,-9030.512492,229.828649
537.877317,-370.102971,-9252.574275,229.828649
537.877645,-370.102971,-9474.636058,306.438199
537.877972,-222.061783,-9326.594869,383.047749
537.878300,0.000000,-8956.491898,536.266849
537.878627,0.000000,-9178.553681,766.095498
537.878955,0.000000,-9030.512492,689.485948
537.879282,0.000000,-9178.553681,459.657299
537.879610,-370.102971,-8956.491898,689.485948
537.879938,-740.205942,-8660.409521,459.657299
537.880265,-444.123565,-9252.574275,459.657299
537.880593,-518.144159,-9178.553681,536.266849
537.880920,-518.144159,-9030.512492,612.876398
537.881248,-444.123565,-8882.471304,612.876398
537.881575,0.000000,-8808.450710,766.095498
537.881903,-148.041188,-9030.512492,306.438199
537.882230,-444.123565,-9104.533087,612.876398
537.882558,-296.082377,-9030.512492,229.828649
537.882886,-444.123565,-9178.553681,459.657299
537.883213,148.041188,-9178.553681,459.657299
537.883541,0.000000,-9474.636058,842.705048
537.883868,74.020594,-9474.636058,919.314598
537.884196,148.041188,-9622.677246,842.705048
537.884523,74.020594,-9548.656652,766.095498
537.884851,-222.061783,-9474.636058,689.485948
537.885178,0.000000,-9252.574275,995.924147
537.885506,-370.102971,-9252.574275,459.657299
537.885834,-444.123565,-9326.594869,689.485948
537.886161,-296.082377,-9474.636058,459.657299
537.886489,-296.082377,-9252.574275,536.266849
537.886816,0.000000,-8956.491898,612.876398
537.887144,-666.185348,-9178.553681,459.657299
537.887471,-370.102971,-9104.533087,383.047749
537.887799,-518.144159,-8808.450710,536.266849
537.888126,-444.123565,-8808.450710,536.266849
537.888454,0.000000,-8956.491898,766.095498
537.888782,-296.082377,-9474.636058,536.266849
537.889109,-444.123565,-9400.615463,689.485948
537.889437,-296.082377,-9400.615463,919.314598
537.889764,-444.123565,-9252.574275,383.047749
537.890092,0.000000,-9326.594869,612.876398
537.890419,148.041188,-8808.450710,306.438199
537.890747,0.000000,-9030.512492,689.485948
537.891074,0.000000,-9104.533087,689.485948
537.891402,-370.102971,-9400.615463,612.876398
537.891730,-296.082377,-9326.594869,536.266849
537.892057,-370.102971,-8882.471304,919.314598
537.892385,-222.061783,-8956.491898,383.047749
537.892712,-370.102971,-8808.450710,689.485948
537.893040,-148.041188,-8882.471304,459.657299
537.893367,0.000000,-8512.368333,536.266849
537.893695,74.020594,-8290.306550,766.095498
537.894022,-222.061783,-8512.368333,76.609550
537.894350,-222.061783,-9104.533087,306.438199
537.894678,-296.082377,-9178.553681,383.047749
537.895005,-222.061783,-9178.553681,459.657299
537.895333,0.000000,-8956.491898,1072.533697
537.895660,-74.020594,-8660.409521,459.657299
537.895988,0.000000,-9178.553681,459.657299
537.896316,-222.061783,-8882.471304,459.657299
537.896643,0.000000,-8956.491898,229.828649
537.896971,-296.082377,-8882.471304,153.219100
537.897299,0.000000,-9178.553681,383.047749
537.897626,-370.102971,-8882.471304,459.657299
537.897954,-296.082377,-9178.553681,306.438199
537.898281,-296.082377,-8956.491898,842.705048
537.898609,-296.082377,-8956.491898,306.438199
537.898937,-296.082377,-8734.430116,766.095498
537.899264,0.000000,-9104.533087,536.266849
537.899592,-370.102971,-8956.491898,459.657299
537.899919,-296.082377,-9178.553681,536.266849
537.900247,-518.144159,-8734.430116,536.266849
537.900575,-296.082377,-8734.430116,689.485948
537.900902,-370.102971,-8956.491898,842.705048
537.901230,-370.102971,-9178.553681,689.485948
537.901558,-444.123565,-9178.553681,842.705048
537.901885,-296.082377,-9252.574275,612.876398
537.902213,-370.102971,-8882.471304,306.438199
537.902540,-666.185348,-9104.533087,842.705048
537.902868,-592.164754,-9178.553681,689.485948
537.903196,-296.082377,-9326.594869,612.876398
537.903523,-444.123565,-9178.553681,612.876398
537.903851,-370.102971,-9252.574275,536.266849
537.904179,-592.164754,-8882.471304,612.876398
537.904506,0.000000,-9178.553681,612.876398
537.904834,-592.164754,-9104.533087,383.047749
537.905161,-370.102971,-9104.533087,536.266849
537.905489,0.000000,-9474.636058,612.876398
537.905817,0.000000,-9474.636058,766.095498
537.906144,-222.061783,-9252.574275,995.924147
537.906472,0.000000,-9178.553681,766.095498
537.906800,0.000000,-9326.594869,766.095498
537.907127,0.000000,-9326.594869,689.485948
537.907455,296.082377,-9548.656652,689.485948
537.907782,-296.082377,-9252.574275,459.657299
537.908110,-296.082377,-9474.636058,459.657299
537.908438,-518.144159,-9474.636058,459.657299
537.908765,-296.082377,-9252.574275,459.657299
537.909093,-296.082377,-9252.574275,766.095498
537.909420,-296.082377,-8956.491898,766.095498
537.909748,0.000000,-9178.553681,459.657299
537.910076,-222.061783,-9104.533087,306.438199
537.910403,-370.102971,-8956.491898,229.828649
537.910731,-592.164754,-9030.512492,536.266849
537.911059,0.000000,-9696.697840,1149.143247
537.911386,-222.061783,-9400.615463,459.657299
537.911714,0.000000,-9178.553681,536.266849
537.912041,0.000000,-9030.512492,612.876398
537.912369,0.000000,-8956.491898,536.266849
537.912697,0.000000,-8734.430116,459.657299
537.913024,-222.061783,-8734.430116,536.266849
537.913352,-296.082377,-8956.491898,459.657299
537.913680,-148.041188,-8882.471304,612.876398
537.914007,-370.102971,-8808.450710,612.876398
537.914335,-518.144159,-8956.491898,689.485948
537.914662,-222.061783,-8956.491898,766.095498
537.914990,-148.041188,-9178.553681,766.095498
537.915318,-222.061783,-8808.450710,536.266849
537.915645,-370.102971,-9104.533087,612.876398
537.915973,-296.082377,-9030.512492,459.657299
537.916301,0.000000,-8808.450710,612.876398
537.916628,0.000000,-9252.574275,689.485948
537.916956,-444.123565,-9252.574275,766.095498
537.917283,-370.102971,-9548.656652,689.485948
537.917611,-296.082377,-9474.636058,459.657299
537.917939,74.020594,-9696.697840,536.266849
537.918266,-222.061783,-9178.553681,383.047749
537.918594,-296.082377,-8808.450710,306.438199
537.918922,-296.082377,-8956.491898,536.266849
537.919249,-370.102971,-9178.553681,536.266849
537.919577,-592.164754,-8586.388927,1149.143247
537.919904,-370.102971,-9252.574275,383.047749
537.920232,-222.061783,-9104.533087,612.876398
537.920560,-444.123565,-8956.491898,536.266849
537.920887,-296.082377,-9030.512492,459.657299
537.921215,-592.164754,-8734.430116,689.485948
537.921542,0.000000,-8512.368333,459.657299
537.921870,-518.144159,-8882.471304,612.876398
537.922198,-444.123565,-9178.553681,459.657299
537.922525,-518.144159,-9178.553681,689.485948
537.922853,-370.102971,-9474.636058,612.876398
537.923181,0.000000,-9104.533087,612.876398
537.923508,0.000000,-9252.574275,536.266849
537.923836,0.000000,-9030.512492,536.266849
537.924163,-370.102971,-8956.491898,229.828649
537.924491,-666.185348,-9030.512492,459.657299
537.924819,-592.164754,-9400.615463,842.705048
537.925146,-592.164754,-9104.533087,229.828649
537.925474,-666.185348,-8882.471304,306.438199
537.925802,-370.102971,-8808.450710,612.876398
537.926129,-222.061783,-9030.512492,612.876398
537.926457,-592.164754,-8586.388927,689.485948
537.926784,-222.061783,-8512.368333,766.095498
537.927112,-296.082377,-8882.471304,306.438199
537.927440,-518.144159,-8956.491898,536.266849
537.927767,-444.123565,-9178.553681,689.485948
537.928095,-518.144159,-8956.491898,0.000000
537.928423,-370.102971,-9030.512492,1072.533697
537.928750,0.000000,-9178.553681,612.876398
537.929078,0.000000,-9474.636058,842.705048
537.929405,-148.041188,-9178.553681,612.876398
537.929733,-148.041188,-8956.491898,612.876398
537.930061,-222.061783,-8808.450710,766.095498
537.930388,-444.123565,-9178.553681,536.266849
537.930716,-444.123565,-9252.574275,766.095498
537.931043,-444.123565,-9252.574275,536.266849
537.931371,-222.061783,-9252.574275,689.485948
537.931699,0.000000,-8882.471304,995.924147
537.932026,0.000000,-8882.471304,459.657299
537.932354,-370.102971,-8956.491898,383.047749
537.932682,-444.123565,-8882.471304,459.657299
537.933009,-518.144159,-9030.512492,459.657299
537.933337,0.000000,-8956.491898,689.485948
537.933664,74.020594,-9104.533087,1072.533697
537.933992,0.000000,-9400.615463,536.266849
537.934320,0.000000,-9252.574275,689.485948
537.934647,0.000000,-9474.636058,229.828649
537.934975,-222.061783,-9104.533087,306.438199
537.935303,74.020594,-8956.491898,-229.828649
537.935630,-148.041188,-9178.553681,76.609550
537.935958,0.000000,-9474.636058,306.438199
537.936285,-148.041188,-8956.491898,229.828649
537.936613,0.000000,-8956.491898,459.657299
537.936941,-370.102971,-8512.368333,306.438199
537.937268,-222.061783,-9178.553681,612.876398
537.937596,-370.102971,-9104.533087,459.657299
537.937924,-370.102971,-9104.533087,306.438199
537.938251,-296.082377,-9104.533087,459.657299
537.938579,-444.123565,-9178.553681,919.314598
537.938906,0.000000,-9326.594869,229.828649
537.939234,0.000000,-9252.574275,536.266849
537.939562,-148.041188,-9178.553681,383.047749
537.939889,0.000000,-9400.615463,612.876398
537.940217,-370.102971,-9030.512492,995.924147
537.940544,-296.082377,-8882.471304,0.000000
537.940872,-370.102971,-9030.512492,536.266849
537.941200,-370.102971,-9104.533087,536.266849
537.941527,-444.123565,-9326.594869,842.705048
537.941855,-666.185348,-9252.574275,766.095498
537.942183,-444.123565,-9326.594869,383.047749
537.942510,-370.102971,-9178.553681,612.876398
537.942838,-518.144159,-9178.553681,689.485948
537.943165,-444.123565,-9030.512492,612.876398
537.943493,-444.123565,-8956.491898,459.657299
537.943821,0.000000,-8882.471304,612.876398
537.944148,-370.102971,-9030.512492,459.657299
537.944476,-296.082377,-9178.553681,689.485948
537.944804,0.000000,-9326.594869,612.876398
537.945131,0.000000,-9400.615463,689.485948
537.945459,0.000000,-9252.574275,995.924147
537.945786,222.061783,-8956.491898,383.047749
537.946114,-222.061783,-9178.553681,536.266849
537.946442,-148.041188,-9252.574275,459.657299
537.946769,-296.082377,-9178.553681,459.657299
537.947097,0.000000,-8882.471304,612.876398
537.947425,-370.102971,-8808.450710,459.657299
537.947752,-222.061783,-9252.574275,536.266849
537.948080,-296.082377,-8956.491898,536.266849
537.948407,0.000000,-9178.553681,306.438199
537.948735,-222.061783,-8882.471304,766.095498
537.949063,-444.123565,-8586.388927,306.438199
537.949390,-222.061783,-8956.491898,612.876398
537.949718,-296.082377,-9178.553681,459.657299
537.950045,-296.082377,-9474.636058,536.266849
537.950373,-370.102971,-9400.615463,536.266849
537.950701,-444.123565,-9474.636058,995.924147
537.951028,-370.102971,-9400.615463,842.705048
537.951356,-296.082377,-9178.553681,766.095498
537.951684,-296.082377,-8956.491898,536.266849
537.952011,-296.082377,-9104.533087,612.876398
537.952339,-444.123565,-9252.574275,536.266849
537.952666,-518.144159,-8586.388927,536.266849
537.952994,-814.226536,-8956.491898,306.438199
537.953322,-592.164754,-8882.471304,459.657299
537.953649,-444.123565,-8808.450710,383.047749
537.953977,-444.123565,-8808.450710,842.705048
537.954305,0.000000,-8512.368333,229.828649
537.954632,-296.082377,-8882.471304,689.485948
537.954960,-296.082377,-8660.409521,536.266849
537.955287,-370.102971,-8956.491898,612.876398
537.955615,-370.102971,-9104.533087,689.485948
537.955943,0.000000,-9178.553681,383.047749
537.956270,0.000000,-9400.615463,612.876398
537.956598,-222.061783,-9252.574275,612.876398
537.956926,0.000000,-9326.594869,536.266849
537.957253,0.000000,-9030.512492,383.047749
537.957581,-444.123565,-8808.450710,536.266849
537.957908,-296.082377,-8956.491898,459.657299
537.958236,-370.102971,-8956.491898,383.047749
537.958564,-222.061783,-9178.553681,612.876398
537.958891,-222.061783,-9178.553681,229.828649
537.959219,-518.144159,-8956.491898,842.705048
537.959546,0.000000,-9104.533087,459.657299
537.959874,-296.082377,-9252.574275,459.657299
537.960202,-222.061783,-8882.471304,306.438199
537.960529,-222.061783,-9326.594869,383.047749
537.960857,0.000000,-9030.512492,612.876398
537.961185,0.000000,-9252.574275,766.095498
537.961512,-148.041188,-9252.574275,612.876398
537.961840,0.000000,-9326.594869,766.095498
537.962167,-148.041188,-9474.636058,919.314598
537.962495,-222.061783,-9474.636058,766.095498
537.962823,-296.082377,-8956.491898,383.047749
537.963150,-222.061783,-9104.533087,766.095498
537.963478,-370.102971,-9326.594869,842.705048
537.963806,-296.082377,-9104.533087,766.095498
537.964133,-518.144159,-9400.615463,536.266849
537.964461,-592.164754,-8808.450710,306.438199
537.964788,-740.205942,-9030.512492,612.876398
