#time,accel_x,accel_y,accel_z
396.769750,-370.102971,-9030.512492,459.657299
396.770078,0.000000,-9252.574275,612.876398
396.770406,-296.082377,-9252.574275,459.657299
396.770733,-222.061783,-9252.574275,153.219100
396.771061,-592.164754,-8660.409521,229.828649
396.771389,0.000000,-8956.491898,842.705048
396.771716,-296.082377,-9178.553681,383.047749
396.772044,-148.041188,-9104.533087,689.485948
396.772372,-296.082377,-9104.533087,536.266849
396.772699,-74.020594,-9030.512492,536.266849
396.773027,-222.061783,-9104.533087,536.266849
396.773355,-222.061783,-9030.512492,459.657299
396.773682,-222.061783,-9104.533087,612.876398
396.774010,0.000000,-9178.553681,306.438199
396.774338,-296.082377,-9252.574275,536.266849
396.774666,0.000000,-9252.574275,612.876398
396.774993,-222.061783,-9178.553681,459.657299
396.775321,-222.061783,-9104.533087,459.657299
396.775649,-222.061783,-9104.533087,612.876398
396.775976,-296.082377,-9178.553681,383.047749
396.776304,-370.102971,-8734.430116,612.876398
396.776632,-148.041188,-9474.636058,536.266849
396.776959,-296.082377,-9030.512492,612.876398
396.777287,-370.102971,-9252.574275,536.266849
396.777615,-296.082377,-9252.574275,459.657299
396.777942,148.041188,-9104.533087,612.876398
396.778270,0.000000,-9030.512492,459.657299
396.778598,-370.102971,-9030.512492,612.876398
396.778925,-592.164754,-9252.574275,306.438199
396.779253,-1258.350101,-9474.636058,229.828649
396.779581,-1554.432478,-9622.677246,-383.047749
396.779908,-962.267725,-9030.512492,-229.828649
396.780236,-740.205942,-8882.471304,-306.438199
396.780564,-592.164754,-8808.450710,-536.266849
396.780891,-518.144159,-9178.553681,-612.876398
396.781219,-814.226536,-9252.574275,-612.876398
396.781547,-1258.350101,-8512.368333,-459.657299
396.781875,-962.267725,-9030.512492,-1149.143247
396.782202,-814.226536,-9326.594869,-1302.362347
396.782530,-666.185348,-9400.615463,-1149.143247
396.782858,-518.144159,-9252.574275,-1378.971896
396.783185,-444.123565,-9030.512492,-1149.143247
396.783513,370.102971,-8882.471304,-1685.410096
396.783841,0.000000,-9474.636058,-1532.190996
396.784168,-222.061783,-9400.615463,-1532.190996
396.784496,0.000000,-9252.574275,-1762.019645
396.784824,444.123565,-9030.512492,-1455.581446
396.785151,592.164754,-9474.636058,-1455.581446
396.785479,370.102971,-9252.574275,-1762.019645
396.785807,518.144159,-9252.574275,-1608.800546
396.786134,370.102971,-9104.533087,-1685.410096
396.786462,222.061783,-9252.574275,-1915.238745
396.786790,0.000000,-9030.512492,-1532.190996
396.787117,296.082377,-9474.636058,-1991.848295
396.787445,222.061783,-9252.574275,-1608.800546
396.787773,0.000000,-9104.533087,-1532.190996
396.788100,0.000000,-9252.574275,-1455.581446
396.788428,0.000000,-9326.594869,-2451.505594
396.788756,-666.185348,-9178.553681,-1685.410096
396.789083,-740.205942,-9104.533087,-1991.848295
396.789411,-1184.329507,-9030.512492,-2221.676944
396.789739,-1184.329507,-9178.553681,-2374.896044
396.790067,-1406.391290,-9030.512492,-2451.505594
396.790394,-1924.535449,-9104.533087,-2221.676944
396.790722,-1776.494261,-8956.491898,-2604.724693
396.791050,-1924.535449,-8808.450710,-3064.381992
396.791377,-1924.535449,-8956.491898,-3294.210641
396.791705,-1998.556043,-9030.512492,-3447.429741
396.792033,-1924.535449,-8660.409521,-3370.820191
396.792360,-1850.514855,-8660.409521,-3983.696590
396.792688,-1924.535449,-8808.450710,-3677.258390
396.793016,-1332.370696,-8882.471304,-3753.867940
396.793343,-740.205942,-9178.553681,-3830.477490
396.793671,74.020594,-8660.409521,-3524.039291
396.793999,296.082377,-8660.409521,-3064.381992
396.794326,1110.308913,-8808.450710,-3064.381992
396.794654,1702.473667,-8882.471304,-2374.896044
396.794982,2368.659014,-8882.471304,-1838.629195
396.795309,2738.761985,-8956.491898,-2068.457845
396.795637,1998.556043,-9400.615463,-1762.019645
396.795965,1258.350101,-10214.842000,-1991.848295
396.796292,74.020594,-10436.903782,-2068.457845
396.796620,-444.123565,-10658.965565,-2911.162892
396.796948,-1184.329507,-10510.924376,-3447.429741
396.797275,-1998.556043,-9622.677246,-3983.696590
396.797603,-1110.308913,-9326.594869,-4060.306139
396.797931,-296.082377,-8364.327145,-3983.696590
396.798259,1184.329507,-7550.100608,-3370.820191
396.798586,2738.761985,-7031.956449,-2451.505594
396.798914,3256.906145,-7105.977043,-1915.238745
396.799242,2812.782580,-7476.080014,-995.924147
396.799569,1554.432478,-8438.347739,-612.876398
396.799897,0.000000,-9548.656652,-383.047749
396.800225,-1998.556043,-10436.903782,-766.095498
396.800552,-2960.823768,-11103.089130,-842.705048
396.800880,-3997.112087,-11325.150913,-1532.190996
396.801208,-3404.947333,-10214.842000,-1608.800546
396.801535,-1702.473667,-8956.491898,-1532.190996
396.801863,148.041188,-7920.203579,-1225.752797
396.802191,1776.494261,-6587.832884,-383.047749
396.802518,2738.761985,-6217.729913,-459.657299
396.802846,2886.803174,-6957.935855,-536.266849
396.803174,1554.432478,-7920.203579,-383.047749
396.803501,-814.226536,-9326.594869,-459.657299
396.803829,-2960.823768,-10807.006753,-1072.533697
396.804157,-4737.318029,-11399.171507,-995.924147
396.804484,-5107.421000,-11547.212695,-995.924147
396.804812,-3701.029710,-10955.047942,-536.266849
396.805140,-1258.350101,-9474.636058,0.000000
396.805467,1406.391290,-8068.244768,1302.362347
396.805795,4219.173869,-7402.059420,2068.457845
396.806123,4145.153275,-6957.935855,2298.286494
396.806451,2590.720797,-7402.059420,1608.800546
396.806778,296.082377,-8734.430116,612.876398
396.807106,-2590.720797,-9474.636058,-306.438199
396.807434,-3775.050304,-10066.800811,-612.876398
396.807761,-3997.112087,-9844.739029,-536.266849
396.808089,-1850.514855,-9474.636058,0.000000
396.808417,888.247130,-8512.368333,612.876398
396.808744,3256.906145,-7920.203579,1532.190996
396.809072,4219.173869,-8142.265362,2145.067394
396.809400,3478.967927,-8808.450710,1991.848295
396.809727,666.185348,-9918.759623,995.924147
396.810055,-2368.659014,-10955.047942,0.000000
396.810383,-4885.359217,-11325.150913,-766.095498
396.810710,-5921.647536,-11177.109724,-842.705048
396.811038,-3923.091493,-9770.718434,-383.047749
396.811366,-1554.432478,-7846.182985,0.000000
396.811693,2072.576638,-7031.956449,1378.971896
396.812021,4441.235652,-6217.729913,1991.848295
396.812349,4589.276840,-6439.791695,2145.067394
396.812676,3108.864956,-7402.059420,1378.971896
396.813004,444.123565,-9400.615463,1072.533697
396.813332,-2220.617826,-10362.883188,153.219100
396.813659,-3182.885551,-10510.924376,76.609550
396.813987,-3182.885551,-10362.883188,76.609550
396.814315,-1110.308913,-9400.615463,2451.505594
396.814643,1036.288319,-8882.471304,1991.848295
396.814970,2368.659014,-7920.203579,2528.115143
396.815298,2368.659014,-7772.162391,2145.067394
396.815626,2072.576638,-8512.368333,1378.971896
396.815953,0.000000,-9474.636058,612.876398
396.816281,-1554.432478,-9548.656652,-306.438199
396.816609,-2590.720797,-10140.821405,-612.876398
396.816936,-3034.844362,-10288.862594,-383.047749
396.817264,-2368.659014,-9030.512492,-306.438199
396.817592,-518.144159,-8438.347739,1378.971896
396.817919,814.226536,-8142.265362,1302.362347
396.818247,148.041188,-7476.080014,1072.533697
396.818575,666.185348,-8734.430116,1532.190996
396.818902,296.082377,-9178.553681,689.485948
396.819230,-962.267725,-9844.739029,0.000000
396.819558,-2368.659014,-9918.759623,0.000000
396.819885,-2738.761985,-9844.739029,-612.876398
396.820213,-3701.029710,-9400.615463,-1225.752797
396.820541,-1924.535449,-8512.368333,-766.095498
396.820868,-444.123565,-7920.203579,-766.095498
396.821196,592.164754,-7624.121203,0.000000
396.821524,2442.679609,-7402.059420,0.000000
396.821851,2738.761985,-8956.491898,0.000000
396.822179,2072.576638,-9770.718434,76.609550
396.822507,296.082377,-10140.821405,-459.657299
396.822835,-296.082377,-11325.150913,-459.657299
396.823162,-1628.453072,-11399.171507,-1378.971896
396.823490,-1406.391290,-10732.986159,-612.876398
396.823818,296.082377,-9326.594869,0.000000
396.824145,2812.782580,-8734.430116,1072.533697
396.824473,4663.297435,-7920.203579,2451.505594
396.824801,4515.256246,-7920.203579,2451.505594
396.825129,3478.967927,-8956.491898,2145.067394
396.825456,1850.514855,-9474.636058,1302.362347
396.825784,-1036.288319,-10584.944971,459.657299
396.826112,-2738.761985,-10066.800811,-229.828649
396.826440,-2368.659014,-9474.636058,0.000000
396.826768,-1332.370696,-9252.574275,229.828649
396.827096,-296.082377,-7772.162391,1378.971896
396.827424,1258.350101,-7846.182985,2068.457845
396.827751,1554.432478,-8142.265362,2298.286494
396.828079,-222.061783,-8734.430116,1149.143247
396.828407,-1776.494261,-9400.615463,919.314598
396.828735,-3404.947333,-10362.883188,0.000000
396.829063,-5773.606348,-10066.800811,-919.314598
396.829391,-5033.400406,-9770.718434,-383.047749
396.829719,-3627.009116,-8956.491898,-229.828649
396.830046,-2442.679609,-7105.977043,766.095498
396.830374,370.102971,-7772.162391,1838.629195
396.830702,1554.432478,-7328.038826,2145.067394
396.831030,666.185348,-7179.997637,1225.752797
396.831358,592.164754,-9178.553681,1455.581446
396.831686,-296.082377,-10288.862594,919.314598
396.832014,-2146.597232,-9696.697840,153.219100
396.832341,-1924.535449,-10658.965565,306.438199
396.832669,-2146.597232,-9844.739029,0.000000
396.832997,-814.226536,-9104.533087,766.095498
396.833325,740.205942,-7994.224174,1302.362347
396.833653,1258.350101,-7994.224174,995.924147
396.833981,2220.617826,-7772.162391,1378.971896
396.834309,2590.720797,-8290.306550,842.705048
396.834636,1406.391290,-9178.553681,306.438199
396.834964,370.102971,-9326.594869,383.047749
396.835292,-1406.391290,-10362.883188,-1072.533697
396.835620,-2516.700203,-10362.883188,-1225.752797
396.835948,-1776.494261,-9918.759623,-919.314598
396.836276,-592.164754,-8660.409521,-689.485948
396.836604,962.267725,-8290.306550,383.047749
396.836931,2590.720797,-7550.100608,1378.971896
396.837259,3034.844362,-7994.224174,1455.581446
396.837587,2590.720797,-8808.450710,1378.971896
396.837915,1332.370696,-9104.533087,766.095498
396.838243,-370.102971,-9696.697840,76.609550
396.838571,-1776.494261,-10140.821405,-536.266849
396.838899,-1850.514855,-9844.739029,-459.657299
396.839226,-1110.308913,-9178.553681,306.438199
396.839554,-148.041188,-7920.203579,306.438199
396.839882,1184.329507,-8216.285956,1532.190996
396.840210,2146.597232,-8364.327145,1455.581446
396.840538,814.226536,-8512.368333,919.314598
396.840866,296.082377,-9918.759623,1149.143247
396.841194,-962.267725,-10436.903782,0.000000
396.841521,-3256.906145,-10214.842000,-536.266849
396.841849,-3701.029710,-9992.780217,-76.609550
396.842177,-2516.700203,-9992.780217,-306.438199
396.842505,-1480.411884,-8142.265362,536.266849
396.842833,296.082377,-7994.224174,1225.752797
396.843161,814.226536,-7920.203579,1762.019645
396.843489,1332.370696,-7402.059420,2987.772442
396.843816,592.164754,-8216.285956,1608.800546
396.844144,-962.267725,-9400.615463,919.314598
396.844472,-2146.597232,-9770.718434,612.876398
396.844800,-3256.906145,-9844.739029,0.000000
396.845128,-3552.988522,-10214.842000,-306.438199
396.845456,-1776.494261,-9104.533087,229.828649
396.845784,-814.226536,-7846.182985,0.000000
396.846111,888.247130,-8216.285956,919.314598
396.846439,2220.617826,-7994.224174,1302.362347
396.846767,1554.432478,-8290.306550,1072.533697
396.847095,1036.288319,-9252.574275,612.876398
396.847423,222.061783,-10066.800811,153.219100
396.847751,-2294.638420,-10214.842000,-612.876398
396.848079,-2738.761985,-10807.006753,-612.876398
396.848406,-1924.535449,-9992.780217,-689.485948
396.848734,0.000000,-9252.574275,229.828649
396.849062,1480.411884,-7994.224174,842.705048
396.849390,3034.844362,-8290.306550,1991.848295
396.849718,3775.050304,-8216.285956,2528.115143
396.850046,2220.617826,-8734.430116,1838.629195
396.850374,1110.308913,-9622.677246,1532.190996
396.850701,-222.061783,-10214.842000,153.219100
396.851029,-2368.659014,-10140.821405,-306.438199
396.851357,-2368.659014,-9992.780217,0.000000
396.851685,-1110.308913,-9548.656652,459.657299
396.852013,-592.164754,-8068.244768,536.266849
396.852341,2072.576638,-8808.450710,2068.457845
396.852669,2072.576638,-7994.224174,1838.629195
396.852996,814.226536,-7994.224174,612.876398
396.853324,0.000000,-9622.677246,1072.533697
396.853652,-1628.453072,-10140.821405,229.828649
396.853980,-3404.947333,-9622.677246,-995.924147
396.854308,-3182.885551,-9770.718434,-383.047749
396.854636,-3182.885551,-9474.636058,-536.266849
396.854963,-1776.494261,-8438.347739,306.438199
396.855291,148.041188,-8290.306550,1455.581446
396.855619,370.102971,-8068.244768,1915.238745
396.855947,1628.453072,-7994.224174,2221.676944
396.856275,740.205942,-8882.471304,1225.752797
396.856603,-370.102971,-9548.656652,1149.143247
396.856931,-962.267725,-10214.842000,459.657299
396.857258,-2368.659014,-9992.780217,0.000000
396.857586,-2368.659014,-9548.656652,-229.828649
396.857914,-1554.432478,-9474.636058,0.000000
396.858242,-888.247130,-8364.327145,-459.657299
396.858570,962.267725,-8364.327145,459.657299
396.858898,1850.514855,-7624.121203,842.705048
396.859226,2368.659014,-7920.203579,612.876398
396.859553,888.247130,-9030.512492,689.485948
396.859881,148.041188,-9844.739029,0.000000
396.860209,-1406.391290,-9696.697840,-689.485948
396.860537,-2146.597232,-10214.842000,-842.705048
396.860865,-1702.473667,-9770.718434,-459.657299
396.861193,-222.061783,-9104.533087,-229.828649
396.861521,1480.411884,-8068.244768,536.266849
396.861848,3034.844362,-8068.244768,1608.800546
396.862176,3997.112087,-8216.285956,2145.067394
396.862504,3034.844362,-8586.388927,2145.067394
396.862832,1850.514855,-9474.636058,1915.238745
396.863160,222.061783,-9992.780217,536.266849
396.863488,-2220.617826,-10140.821405,0.000000
396.863816,-2442.679609,-10066.800811,0.000000
396.864143,-1628.453072,-9326.594869,-383.047749
396.864471,0.000000,-8364.327145,306.438199
396.864799,1332.370696,-8068.244768,1225.752797
396.865127,1776.494261,-7772.162391,1532.190996
396.865455,1480.411884,-7772.162391,1378.971896
396.865783,74.020594,-9178.553681,842.705048
396.866111,-1480.411884,-9548.656652,995.924147
396.866438,-3330.926739,-10140.821405,0.000000
396.866766,-4071.132681,-10140.821405,-306.438199
396.867094,-3849.070898,-9918.759623,-229.828649
396.867422,-1998.556043,-8734.430116,612.876398
396.867750,-592.164754,-7994.224174,612.876398
396.868078,666.185348,-8216.285956,1991.848295
396.868406,1776.494261,-7994.224174,2221.676944
396.868733,444.123565,-8290.306550,1302.362347
396.869061,0.000000,-9844.739029,1302.362347
396.869389,-962.267725,-9844.739029,612.876398
396.869717,-2368.659014,-9696.697840,-229.828649
396.870045,-2960.823768,-10066.800811,153.219100
396.870373,-1998.556043,-9770.718434,76.609550
396.870701,-1332.370696,-8512.368333,76.609550
396.871028,518.144159,-8290.306550,1455.581446
396.871356,2072.576638,-8290.306550,1149.143247
396.871684,1702.473667,-8290.306550,1302.362347
396.872012,1406.391290,-9474.636058,1149.143247
396.872340,0.000000,-10066.800811,459.657299
396.872668,-1258.350101,-9918.759623,0.000000
396.872996,-2146.597232,-10288.862594,-919.314598
396.873323,-2590.720797,-9770.718434,-536.266849
396.873651,-1110.308913,-9030.512492,0.000000
396.873979,370.102971,-7920.203579,383.047749
396.874307,1850.514855,-7920.203579,1302.362347
396.874635,3256.906145,-7772.162391,2068.457845
396.874963,2146.597232,-8068.244768,1685.410096
396.875291,1110.308913,-9474.636058,1378.971896
396.875618,74.020594,-10066.800811,536.266849
396.875946,-1776.494261,-9918.759623,0.000000
396.876274,-2220.617826,-10362.883188,-229.828649
396.876602,-1554.432478,-9622.677246,-383.047749
396.876930,-666.185348,-8808.450710,229.828649
396.877258,814.226536,-8142.265362,689.485948
396.877586,1628.453072,-8068.244768,919.314598
396.877913,1480.411884,-8512.368333,1302.362347
396.878241,666.185348,-8956.491898,766.095498
396.878569,-592.164754,-9548.656652,383.047749
396.878897,-1480.411884,-10362.883188,0.000000
396.879225,-3256.906145,-9770.718434,-842.705048
396.879553,-2886.803174,-9622.677246,-383.047749
396.879881,-1258.350101,-8956.491898,0.000000
396.880208,-518.144159,-7476.080014,153.219100
396.880536,1036.288319,-7772.162391,1225.752797
396.880864,2146.597232,-7624.121203,1378.971896
396.881192,1702.473667,-7846.182985,1532.190996
396.881520,740.205942,-8808.450710,1225.752797
396.881848,-370.102971,-9992.780217,842.705048
396.882176,-2294.638420,-9770.718434,76.609550
396.882503,-2960.823768,-10288.862594,-153.219100
396.882831,-2738.761985,-9844.739029,-536.266849
396.883159,-1480.411884,-8808.450710,0.000000
396.883487,0.000000,-7550.100608,612.876398
396.883815,1702.473667,-8068.244768,842.705048
396.884143,2886.803174,-8142.265362,1378.971896
396.884471,1702.473667,-8438.347739,766.095498
396.884798,740.205942,-9474.636058,919.314598
396.885126,-740.205942,-10362.883188,-306.438199
396.885454,-2886.803174,-10362.883188,-919.314598
396.885782,-3034.844362,-10362.883188,-842.705048
396.886110,-1332.370696,-9844.739029,-306.438199
396.886438,148.041188,-8586.388927,306.438199
396.886765,2072.576638,-7920.203579,995.924147
396.887093,3552.988522,-7698.141797,1991.848295
396.887421,3034.844362,-8068.244768,2145.067394
396.887749,1406.391290,-9030.512492,1532.190996
396.888077,-148.041188,-9992.780217,689.485948
396.888405,-1702.473667,-9474.636058,0.000000
396.888733,-2664.741391,-10288.862594,-153.219100
396.889060,-2664.741391,-10066.800811,-459.657299
396.889388,-962.267725,-9178.553681,306.438199
396.889716,0.000000,-8068.244768,459.657299
396.890044,1776.494261,-8290.306550,1532.190996
396.890372,2146.597232,-8068.244768,1608.800546
396.890700,814.226536,-8660.409521,766.095498
396.891028,-592.164754,-9918.759623,842.705048
396.891355,-1702.473667,-10658.965565,0.000000
396.891683,-3256.906145,-9844.739029,-459.657299
396.892011,-3256.906145,-9696.697840,-153.219100
396.892339,-1702.473667,-9178.553681,459.657299
396.892667,-888.247130,-7624.121203,383.047749
396.892995,1110.308913,-7994.224174,1915.238745
396.893323,2146.597232,-7920.203579,2221.676944
396.893650,1924.535449,-7994.224174,1685.410096
396.893978,1332.370696,-9030.512492,1762.019645
396.894306,-148.041188,-9992.780217,1149.143247
396.894634,-2368.659014,-10140.821405,76.609550
396.894962,-2664.741391,-10584.944971,0.000000
396.895290,-2738.761985,-9918.759623,0.000000
396.895618,-1628.453072,-9104.533087,0.000000
396.895945,222.061783,-8586.388927,459.657299
396.896273,1480.411884,-8364.327145,919.314598
396.896601,2368.659014,-7920.203579,1225.752797
396.896929,1628.453072,-7994.224174,766.095498
396.897257,222.061783,-9178.553681,459.657299
396.897585,-1110.308913,-10584.944971,0.000000
396.897913,-3034.844362,-10510.924376,-1225.752797
396.898240,-3627.009116,-10214.842000,-1302.362347
396.898568,-2368.659014,-9844.739029,-842.705048
396.898896,-518.144159,-8512.368333,-306.438199
396.899224,1332.370696,-8142.265362,995.924147
396.899552,3108.864956,-7772.162391,1378.971896
396.899880,3552.988522,-7550.100608,1762.019645
396.900208,2368.659014,-8586.388927,1302.362347
396.900535,962.267725,-9252.574275,612.876398
396.900863,-888.247130,-9992.780217,0.000000
396.901191,-2294.638420,-10436.903782,-842.705048
396.901519,-2368.659014,-10362.883188,-689.485948
396.901847,-592.164754,-9548.656652,0.000000
396.902175,518.144159,-7846.182985,383.047749
396.902503,1924.535449,-7920.203579,1608.800546
396.902830,2812.782580,-8364.327145,1915.238745
396.903158,1406.391290,-8882.471304,919.314598
396.903486,296.082377,-9622.677246,995.924147
396.903814,-888.247130,-10362.883188,0.000000
396.904142,-3478.967927,-9992.780217,-459.657299
396.904470,-3034.844362,-10214.842000,-153.219100
396.904798,-1924.535449,-9770.718434,229.828649
396.905125,-1110.308913,-7994.224174,612.876398
396.905453,962.267725,-7994.224174,2681.334243
396.905781,2294.638420,-8142.265362,1991.848295
396.906109,1406.391290,-7476.080014,2298.286494
396.906437,666.185348,-8808.450710,2068.457845
396.906765,-1110.308913,-9770.718434,1225.752797
396.907093,-2738.761985,-9474.636058,689.485948
396.907420,-3478.967927,-9992.780217,76.609550
396.907748,-3627.009116,-9400.615463,-153.219100
396.908076,-1924.535449,-8734.430116,689.485948
396.908404,-148.041188,-7772.162391,842.705048
396.908732,444.123565,-7698.141797,1302.362347
396.909060,1554.432478,-8068.244768,1685.410096
396.909388,1110.308913,-8734.430116,1225.752797
396.909715,-296.082377,-9474.636058,919.314598
396.910043,-1110.308913,-10436.903782,612.876398
396.910371,-3256.906145,-10584.944971,-612.876398
396.910699,-3108.864956,-10436.903782,-229.828649
396.911027,-1998.556043,-9474.636058,0.000000
396.911355,-962.267725,-8068.244768,76.609550
396.911683,1406.391290,-7698.141797,1149.143247
396.912010,2738.761985,-7772.162391,1762.019645
396.912338,3256.906145,-7328.038826,1915.238745
396.912666,2442.679609,-8808.450710,1762.019645
396.912994,962.267725,-9474.636058,842.705048
396.913322,-666.185348,-10362.883188,306.438199
396.913650,-1776.494261,-10436.903782,-306.438199
396.913978,-1850.514855,-10214.842000,-536.266849
396.914305,-222.061783,-9104.533087,0.000000
396.914633,592.164754,-8216.285956,766.095498
396.914961,1924.535449,-8660.409521,1378.971896
396.915289,2960.823768,-8512.368333,1455.581446
396.915617,1258.350101,-8438.347739,612.876398
396.915945,740.205942,-9622.677246,842.705048
396.916273,-814.226536,-10214.842000,-229.828649
396.916600,-3256.906145,-10436.903782,-1225.752797
396.916928,-3404.947333,-10732.986159,-1149.143247
396.917256,-3108.864956,-9696.697840,-1149.143247
396.917584,-1554.432478,-8142.265362,-383.047749
396.917912,222.061783,-7698.141797,306.438199
396.918240,1480.411884,-7920.203579,919.314598
396.918567,2072.576638,-7550.100608,1455.581446
396.918895,1258.350101,-8808.450710,919.314598
396.919223,0.000000,-9622.677246,919.314598
396.919551,-1036.288319,-10288.862594,153.219100
396.919879,-2886.803174,-10066.800811,0.000000
396.920207,-2738.761985,-9918.759623,0.000000
396.920535,-1184.329507,-9178.553681,459.657299
396.920862,-148.041188,-7698.141797,612.876398
396.921190,1924.535449,-8068.244768,1608.800546
396.921518,2664.741391,-8068.244768,2145.067394
396.921846,2072.576638,-8216.285956,1225.752797
396.922174,1184.329507,-9474.636058,1225.752797
396.922502,-370.102971,-10140.821405,383.047749
396.922830,-2220.617826,-10362.883188,76.609550
396.923157,-3478.967927,-10510.924376,0.000000
396.923485,-3034.844362,-10066.800811,-766.095498
396.923813,-1184.329507,-8808.450710,153.219100
396.924141,962.267725,-8068.244768,1072.533697
396.924469,2220.617826,-7772.162391,2145.067394
396.924797,2590.720797,-7624.121203,2681.334243
396.925125,1480.411884,-8438.347739,1685.410096
396.925452,0.000000,-9400.615463,1532.190996
396.925780,-1480.411884,-10140.821405,612.876398
396.926108,-3330.926739,-9844.739029,-306.438199
396.926436,-3256.906145,-9918.759623,-383.047749
396.926764,-1628.453072,-8808.450710,76.609550
396.927092,-814.226536,-7476.080014,153.219100
396.927419,1258.350101,-8142.265362,1608.800546
396.927747,2368.659014,-7846.182985,1762.019645
396.928075,1406.391290,-7846.182985,1072.533697
396.928403,740.205942,-9474.636058,766.095498
396.928730,-962.267725,-10584.944971,0.000000
396.929058,-2886.803174,-10288.862594,-919.314598
396.929386,-3108.864956,-10807.006753,-536.266849
396.929714,-3108.864956,-9770.718434,-842.705048
396.930042,-1110.308913,-8956.491898,0.000000
396.930369,740.205942,-8216.285956,766.095498
396.930697,1998.556043,-8216.285956,1455.581446
396.931025,2442.679609,-8142.265362,1532.190996
396.931353,2146.597232,-8956.491898,1455.581446
396.931680,1110.308913,-9992.780217,1608.800546
396.932008,0.000000,-10436.903782,306.438199
396.932336,-1480.411884,-10436.903782,-229.828649
396.932664,-1924.535449,-10214.842000,-306.438199
396.932991,-814.226536,-9474.636058,306.438199
396.933319,370.102971,-8068.244768,459.657299
396.933647,1480.411884,-8586.388927,1149.143247
396.933975,3034.844362,-8808.450710,1762.019645
396.934303,2368.659014,-8068.244768,995.924147
396.934630,1406.391290,-9474.636058,1072.533697
396.934958,0.000000,-10658.965565,306.438199
396.935286,-2368.659014,-9770.718434,-383.047749
396.935614,-3256.906145,-10658.965565,-536.266849
396.935941,-2590.720797,-9918.759623,-842.705048
396.936269,-1406.391290,-9030.512492,76.609550
396.936597,0.000000,-8142.265362,689.485948
396.936925,1776.494261,-7624.121203,1685.410096
396.937253,2146.597232,-8068.244768,1838.629195
396.937580,888.247130,-8364.327145,1149.143247
396.937908,0.000000,-9696.697840,1149.143247
396.938236,-1628.453072,-9992.780217,1225.752797
396.938564,-3182.885551,-9918.759623,-536.266849
396.938891,-3404.947333,-9622.677246,-153.219100
396.939219,-2294.638420,-9178.553681,0.000000
396.939547,-1184.329507,-7476.080014,229.828649
396.939875,666.185348,-7846.182985,1225.752797
396.940203,1924.535449,-7328.038826,1455.581446
396.940530,1628.453072,-7402.059420,1532.190996
396.940858,888.247130,-9104.533087,1149.143247
396.941186,-518.144159,-9918.759623,383.047749
396.941514,-1850.514855,-9548.656652,0.000000
396.941841,-2368.659014,-10066.800811,-536.266849
396.942169,-1776.494261,-10066.800811,-229.828649
396.942497,-740.205942,-9030.512492,459.657299
396.942825,666.185348,-8364.327145,995.924147
396.943153,2072.576638,-7920.203579,1915.238745
396.943480,2886.803174,-8290.306550,2451.505594
396.943808,2146.597232,-8438.347739,1455.581446
396.944136,814.226536,-9622.677246,1608.800546
396.944464,-592.164754,-9770.718434,919.314598
396.944791,-2664.741391,-9770.718434,0.000000
396.945119,-2738.761985,-9844.739029,0.000000
396.945447,-1702.473667,-8882.471304,-306.438199
396.945775,-962.267725,-8068.244768,0.000000
396.946103,666.185348,-7698.141797,766.095498
396.946430,1628.453072,-7920.203579,1072.533697
396.946758,1628.453072,-7624.121203,1302.362347
396.947086,666.185348,-8586.388927,995.924147
396.947414,-888.247130,-9696.697840,76.609550
396.947741,-2072.576638,-9992.780217,-306.438199
396.948069,-3330.926739,-10066.800811,-995.924147
396.948397,-3034.844362,-9918.759623,-919.314598
396.948725,-814.226536,-9030.512492,383.047749
396.949053,370.102971,-8142.265362,0.000000
396.949380,2294.638420,-8364.327145,1378.971896
396.949708,2960.823768,-8586.388927,1838.629195
396.950036,2220.617826,-8882.471304,1455.581446
396.950364,1258.350101,-9770.718434,1225.752797
396.950691,0.000000,-10732.986159,383.047749
396.951019,-2368.659014,-10510.924376,-229.828649
396.951347,-2146.597232,-10584.944971,0.000000
396.951675,-1480.411884,-10066.800811,-306.438199
396.952003,0.000000,-8956.491898,383.047749
396.952330,1110.308913,-8586.388927,1455.581446
396.952658,1628.453072,-8586.388927,1302.362347
396.952986,1776.494261,-8882.471304,1378.971896
396.953314,444.123565,-9474.636058,459.657299
396.953641,-888.247130,-10362.883188,153.219100
396.953969,-2072.576638,-9770.718434,0.000000
396.954297,-3182.885551,-10362.883188,-842.705048
396.954625,-3182.885551,-10214.842000,-766.095498
396.954953,-1554.432478,-9178.553681,0.000000
396.955280,-518.144159,-7920.203579,0.000000
396.955608,888.247130,-7772.162391,1302.362347
396.955936,2368.659014,-7550.100608,1378.971896
396.956264,1924.535449,-7994.224174,1455.581446
396.956591,1184.329507,-9474.636058,1685.410096
396.956919,148.041188,-9770.718434,1225.752797
396.957247,-2072.576638,-10066.800811,612.876398
396.957575,-2146.597232,-10436.903782,306.438199
396.957903,-1924.535449,-9918.759623,76.609550
396.958230,-592.164754,-9104.533087,459.657299
396.958558,1036.288319,-8290.306550,1225.752797
396.958886,2368.659014,-8142.265362,1915.238745
396.959214,2664.741391,-8142.265362,2681.334243
396.959541,1480.411884,-8512.368333,1378.971896
396.959869,0.000000,-9696.697840,1225.752797
396.960197,-1554.432478,-9770.718434,306.438199
396.960525,-3256.906145,-9918.759623,-383.047749
396.960853,-3108.864956,-9622.677246,76.609550
396.961180,-1332.370696,-8586.388927,229.828649
396.961508,0.000000,-7402.059420,1225.752797
396.961836,1702.473667,-7550.100608,2221.676944
396.962164,2368.659014,-7624.121203,2298.286494
396.962491,1776.494261,-7550.100608,2298.286494
396.962819,370.102971,-9178.553681,1532.190996
396.963147,-1110.308913,-9696.697840,842.705048
396.963475,-3108.864956,-9474.636058,0.000000
396.963803,-3256.906145,-9918.759623,-306.438199
396.964130,-2516.700203,-9252.574275,-459.657299
396.964458,-1036.288319,-8216.285956,0.000000
396.964786,0.000000,-7328.038826,306.438199
396.965114,518.144159,-7624.121203,536.266849
396.965441,1554.432478,-7772.162391,995.924147
396.965769,370.102971,-8512.368333,229.828649
396.966097,-444.123565,-9548.656652,-842.705048
396.966425,-1480.411884,-9696.697840,-306.438199
396.966753,-2590.720797,-10214.842000,-1225.752797
396.967080,-2960.823768,-10362.883188,-995.924147
396.967408,-1628.453072,-9474.636058,-536.266849
396.967736,-518.144159,-8290.306550,0.000000
396.968064,1332.370696,-8216.285956,612.876398
396.968391,3256.906145,-8290.306550,1072.533697
396.968719,2738.761985,-8290.306550,1149.143247
396.969047,2886.803174,-9326.594869,1302.362347
396.969375,1998.556043,-9918.759623,459.657299
396.969703,-370.102971,-9770.718434,383.047749
396.970030,-1480.411884,-10436.903782,-612.876398
396.970358,-1702.473667,-10510.924376,-459.657299
396.970686,-740.205942,-9400.615463,0.000000
396.971014,666.185348,-8586.388927,459.657299
396.971341,2442.679609,-8512.368333,1378.971896
396.971669,2960.823768,-8586.388927,1378.971896
396.971997,2220.617826,-8956.491898,1225.752797
396.972325,1110.308913,-10066.800811,919.314598
396.972653,-888.247130,-10584.944971,0.000000
396.972980,-3256.906145,-10436.903782,-842.705048
396.973308,-4145.153275,-10732.986159,-919.314598
396.973636,-2886.803174,-9474.636058,-536.266849
396.973964,-1110.308913,-8438.347739,536.266849
396.974291,1036.288319,-7476.080014,1532.190996
396.974619,2590.720797,-7254.018232,1991.848295
396.974947,2368.659014,-7624.121203,2681.334243
396.975275,518.144159,-8956.491898,1915.238745
396.975603,-1110.308913,-9696.697840,995.924147
396.975930,-2664.741391,-10584.944971,536.266849
396.976258,-4219.173869,-10140.821405,-153.219100
396.976586,-3923.091493,-10214.842000,0.000000
396.976914,-1628.453072,-9326.594869,842.705048
396.977241,-518.144159,-8068.244768,995.924147
396.977569,1406.391290,-8216.285956,1915.238745
396.977897,2220.617826,-8216.285956,2068.457845
396.978225,666.185348,-8142.265362,383.047749
396.978553,-592.164754,-9992.780217,842.705048
396.978880,-1406.391290,-10881.027347,383.047749
396.979208,-3330.926739,-9844.739029,-919.314598
396.979536,-2960.823768,-10214.842000,-383.047749
396.979864,-1110.308913,-10066.800811,383.047749
396.980191,-1184.329507,-7476.080014,153.219100
396.980519,1332.370696,-8290.306550,1762.019645
396.980847,2738.761985,-7698.141797,1838.629195
396.981175,2368.659014,-7550.100608,1685.410096
396.981503,1998.556043,-9474.636058,1991.848295
396.981830,740.205942,-9770.718434,842.705048
396.982158,-1406.391290,-9844.739029,0.000000
396.982486,-1998.556043,-10362.883188,0.000000
396.982814,-2368.659014,-9918.759623,-612.876398
396.983141,-1036.288319,-8660.409521,229.828649
396.983469,1332.370696,-7994.224174,842.705048
396.983797,1776.494261,-8068.244768,995.924147
396.984125,2738.761985,-8142.265362,1455.581446
396.984453,2146.597232,-8660.409521,842.705048
396.984780,444.123565,-9474.636058,459.657299
396.985108,-962.267725,-10214.842000,0.000000
396.985436,-2516.700203,-10658.965565,-689.485948
396.985764,-2886.803174,-10214.842000,-383.047749
396.986091,-1628.453072,-9474.636058,0.000000
396.986419,-370.102971,-7920.203579,612.876398
396.986747,1406.391290,-7846.182985,1915.238745
396.987075,2220.617826,-7846.182985,2068.457845
396.987403,1850.514855,-7550.100608,2145.067394
396.987730,666.185348,-9030.512492,1532.190996
396.988058,-814.226536,-9918.759623,689.485948
396.988386,-1850.514855,-10140.821405,153.219100
396.988714,-2812.782580,-9770.718434,-383.047749
396.989041,-3404.947333,-9548.656652,-612.876398
396.989369,-1850.514855,-8956.491898,76.609550
396.989697,-888.247130,-7550.100608,153.219100
396.990025,0.000000,-7550.100608,689.485948
396.990353,888.247130,-7846.182985,1225.752797
396.990680,0.000000,-8216.285956,0.000000
396.991008,-296.082377,-9252.574275,0.000000
396.991336,-814.226536,-9770.718434,-306.438199
396.991664,-3034.844362,-10214.842000,-1225.752797
396.991991,-3404.947333,-10140.821405,-995.924147
396.992319,-2146.597232,-9918.759623,-995.924147
396.992647,-1332.370696,-8290.306550,-689.485948
396.992975,962.267725,-7994.224174,229.828649
396.993303,2516.700203,-7698.141797,995.924147
396.993630,3330.926739,-7772.162391,1225.752797
396.993958,2960.823768,-8808.450710,1225.752797
396.994286,2072.576638,-9252.574275,919.314598
396.994614,296.082377,-9992.780217,383.047749
396.994941,-1332.370696,-10510.924376,-306.438199
396.995269,-1850.514855,-10288.862594,-459.657299
396.995597,-222.061783,-9474.636058,-306.438199
396.995925,370.102971,-8290.306550,0.000000
396.996253,2516.700203,-8216.285956,1302.362347
396.996580,3330.926739,-8216.285956,1608.800546
396.996908,2886.803174,-8512.368333,1608.800546
396.997236,1776.494261,-9400.615463,1225.752797
396.997564,-148.041188,-10288.862594,536.266849
396.997891,-2368.659014,-10214.842000,0.000000
396.998219,-2960.823768,-10362.883188,0.000000
396.998547,-2294.638420,-9474.636058,-229.828649
396.998875,0.000000,-8586.388927,842.705048
396.999203,962.267725,-7402.059420,1991.848295
396.999530,1998.556043,-7624.121203,2604.724693
396.999858,1924.535449,-8142.265362,3140.991542
397.000186,-222.061783,-8512.368333,2298.286494
397.000514,-1554.432478,-9400.615463,1838.629195
397.000841,-2516.700203,-9918.759623,689.485948
397.001169,-4515.256246,-9770.718434,0.000000
397.001497,-3923.091493,-9696.697840,612.876398
397.001825,-2442.679609,-8956.491898,1072.533697
397.002153,-1776.494261,-7698.141797,153.219100
397.002480,0.000000,-8142.265362,2451.505594
397.002808,222.061783,-8216.285956,1838.629195
397.003136,-814.226536,-7994.224174,1072.533697
397.003464,-1184.329507,-9696.697840,919.314598
397.003791,-1998.556043,-9918.759623,612.876398
397.004119,-3330.926739,-9696.697840,-612.876398
397.004447,-3404.947333,-10288.862594,-229.828649
397.004775,-2590.720797,-9844.739029,-612.876398
397.005103,-1258.350101,-8734.430116,0.000000
397.005430,370.102971,-8216.285956,612.876398
397.005758,1924.535449,-8068.244768,689.485948
397.006086,2590.720797,-7772.162391,1378.971896
397.006414,2738.761985,-8660.409521,1072.533697
397.006741,1628.453072,-9104.533087,766.095498
397.007069,888.247130,-9622.677246,153.219100
397.007397,-74.020594,-10140.821405,-459.657299
397.007725,-1184.329507,-9696.697840,-536.266849
397.008053,-444.123565,-9844.739029,-536.266849
397.008380,222.061783,-8586.388927,-689.485948
397.008708,1480.411884,-8586.388927,76.609550
397.009036,3256.906145,-8808.450710,1072.533697
397.009364,3182.885551,-8290.306550,766.095498
397.009691,2146.597232,-9400.615463,612.876398
397.010019,666.185348,-9770.718434,229.828649
397.010347,-1406.391290,-10288.862594,-612.876398
397.010675,-2812.782580,-10214.842000,-1225.752797
397.011003,-2664.741391,-9992.780217,-1532.190996
397.011330,-1702.473667,-8586.388927,-536.266849
397.011658,74.020594,-7772.162391,0.000000
397.011986,1554.432478,-7846.182985,995.924147
397.012314,2664.741391,-7402.059420,1685.410096
397.012641,1332.370696,-7550.100608,1302.362347
397.012969,222.061783,-8956.491898,1455.581446
397.013297,-962.267725,-9622.677246,536.266849
397.013625,-3330.926739,-9770.718434,0.000000
397.013952,-3034.844362,-10362.883188,0.000000
397.014280,-2812.782580,-9178.553681,0.000000
397.014608,-740.205942,-8364.327145,689.485948
397.014936,592.164754,-8438.347739,995.924147
397.015264,1036.288319,-8586.388927,1455.581446
397.015591,1110.308913,-8586.388927,2298.286494
397.015919,74.020594,-9770.718434,1072.533697
397.016247,-1406.391290,-10807.006753,612.876398
397.016575,-2738.761985,-10658.965565,-383.047749
397.016902,-3627.009116,-11029.068536,-995.924147
397.017230,-3923.091493,-10288.862594,-1149.143247
397.017558,-1554.432478,-9474.636058,0.000000
397.017886,0.000000,-7994.224174,0.000000
397.018214,1554.432478,-8142.265362,1149.143247
397.018541,2812.782580,-8142.265362,1915.238745
397.018869,2294.638420,-8438.347739,1455.581446
397.019197,814.226536,-9844.739029,1378.971896
397.019525,0.000000,-10436.903782,1072.533697
397.019852,-2220.617826,-10362.883188,-306.438199
397.020180,-2220.617826,-10807.006753,0.000000
397.020508,-962.267725,-10066.800811,0.000000
397.020836,74.020594,-8438.347739,229.828649
397.021164,1924.535449,-8586.388927,1915.238745
397.021491,3330.926739,-8438.347739,1455.581446
397.021819,2960.823768,-7994.224174,1685.410096
397.022147,1776.494261,-9252.574275,1302.362347
397.022475,0.000000,-10436.903782,612.876398
397.022802,-1776.494261,-10362.883188,76.609550
397.023130,-2590.720797,-10658.965565,-536.266849
397.023458,-2886.803174,-10066.800811,-383.047749
397.023786,-962.267725,-9474.636058,459.657299
397.024114,148.041188,-7994.224174,1072.533697
397.024441,1406.391290,-8068.244768,2298.286494
397.024769,1776.494261,-7772.162391,2987.772442
397.025097,1110.308913,-8438.347739,1991.848295
397.025424,-444.123565,-9622.677246,1991.848295
397.025752,-1628.453072,-10066.800811,1149.143247
397.026079,-3478.967927,-9548.656652,76.609550
397.026407,-3256.906145,-9252.574275,383.047749
397.026735,-2294.638420,-8882.471304,459.657299
397.027062,-1036.288319,-7328.038826,766.095498
397.027390,740.205942,-7476.080014,1762.019645
397.027717,1110.308913,-7772.162391,1915.238745
397.028045,888.247130,-7476.080014,1915.238745
397.028372,296.082377,-8956.491898,1225.752797
397.028700,-1332.370696,-10214.842000,689.485948
397.029028,-2442.679609,-9844.739029,0.000000
397.029355,-3108.864956,-10436.903782,-459.657299
397.029683,-3108.864956,-10288.862594,-383.047749
397.030010,-1776.494261,-9104.533087,76.609550
397.030338,-592.164754,-8290.306550,-153.219100
397.030666,1036.288319,-7920.203579,383.047749
397.030993,1850.514855,-7846.182985,1072.533697
397.031321,1776.494261,-7920.203579,459.657299
397.031648,1036.288319,-9030.512492,153.219100
397.031976,74.020594,-9548.656652,0.000000
397.032304,-1776.494261,-9918.759623,-766.095498
397.032631,-2368.659014,-9992.780217,-1225.752797
397.032959,-1924.535449,-9622.677246,-1378.971896
397.033286,-740.205942,-8882.471304,-766.095498
397.033614,1406.391290,-7994.224174,-229.828649
397.033942,2960.823768,-7698.141797,383.047749
397.034269,4071.132681,-7624.121203,1225.752797
397.034597,3256.906145,-8586.388927,766.095498
397.034924,2072.576638,-9326.594869,689.485948
397.035252,444.123565,-10140.821405,0.000000
397.035579,-1628.453072,-10288.862594,-689.485948
397.035907,-1776.494261,-10066.800811,-766.095498
397.036235,-222.061783,-9844.739029,0.000000
397.036562,592.164754,-8364.327145,459.657299
397.036890,2664.741391,-7624.121203,2374.896044
397.037217,3923.091493,-8364.327145,2374.896044
397.037545,2738.761985,-8512.368333,2451.505594
397.037873,1036.288319,-9548.656652,1838.629195
397.038200,-814.226536,-10436.903782,689.485948
397.038528,-2960.823768,-10214.842000,229.828649
397.038855,-3775.050304,-10066.800811,-229.828649
397.039183,-3478.967927,-9474.636058,-229.828649
397.039511,-1628.453072,-8364.327145,766.095498
397.039838,-370.102971,-7402.059420,1072.533697
397.040166,148.041188,-7254.018232,2068.457845
397.040493,814.226536,-7772.162391,1991.848295
397.040821,-1332.370696,-8438.347739,1072.533697
397.041149,-2664.741391,-9622.677246,689.485948
397.041476,-3552.988522,-10214.842000,76.609550
397.041804,-4515.256246,-9474.636058,-689.485948
397.042131,-4367.215058,-9770.718434,0.000000
397.042459,-2368.659014,-8956.491898,459.657299
397.042786,-1332.370696,-7698.141797,459.657299
397.043114,888.247130,-8068.244768,1608.800546
397.043442,2220.617826,-8142.265362,1915.238745
397.043769,1702.473667,-7550.100608,1225.752797
397.044097,1110.308913,-9474.636058,1455.581446
397.044424,296.082377,-10214.842000,995.924147
397.044752,-1554.432478,-10362.883188,-306.438199
397.045080,-2072.576638,-10658.965565,-229.828649
397.045407,-1628.453072,-9992.780217,-153.219100
397.045735,-666.185348,-9104.533087,-842.705048
397.046062,740.205942,-8512.368333,0.000000
397.046390,2590.720797,-8068.244768,536.266849
397.046718,3330.926739,-7846.182985,1149.143247
397.047045,2886.803174,-8364.327145,1532.190996
397.047373,2072.576638,-9622.677246,229.828649
397.047700,148.041188,-10214.842000,153.219100
397.048028,-1554.432478,-10066.800811,-536.266849
397.048356,-1924.535449,-9622.677246,-536.266849
397.048683,-592.164754,-9104.533087,-383.047749
397.049011,888.247130,-8216.285956,536.266849
397.049338,1850.514855,-8142.265362,1762.019645
397.049666,2664.741391,-8290.306550,2298.286494
397.049993,2368.659014,-8290.306550,2068.457845
397.050321,814.226536,-9474.636058,1608.800546
397.050649,-148.041188,-10214.842000,842.705048
397.050976,-2220.617826,-10288.862594,306.438199
397.051304,-3404.947333,-10140.821405,-229.828649
397.051631,-3108.864956,-9770.718434,-459.657299
397.051959,-1480.411884,-8808.450710,383.047749
397.052287,0.000000,-7402.059420,689.485948
397.052614,740.205942,-7624.121203,1378.971896
397.052942,740.205942,-8142.265362,1608.800546
397.053269,-666.185348,-8734.430116,919.314598
397.053597,-1554.432478,-9548.656652,842.705048
397.053925,-2368.659014,-9696.697840,459.657299
397.054252,-3923.091493,-9696.697840,-536.266849
397.054580,-3775.050304,-9770.718434,-383.047749
397.054907,-2146.597232,-9178.553681,-153.219100
397.055235,-1332.370696,-7698.141797,0.000000
397.055563,1184.329507,-8068.244768,1072.533697
397.055890,2368.659014,-7920.203579,1378.971896
397.056218,2146.597232,-7698.141797,1149.143247
397.056545,1702.473667,-9474.636058,1072.533697
397.056873,740.205942,-10436.903782,383.047749
397.057200,-1258.350101,-10362.883188,0.000000
397.057528,-1776.494261,-11103.089130,-459.657299
397.057856,-2368.659014,-10732.986159,-1072.533697
397.058183,-962.267725,-9844.739029,-612.876398
397.058511,518.144159,-8956.491898,-383.047749
397.058838,1998.556043,-8438.347739,536.266849
397.059166,3330.926739,-7994.224174,1455.581446
397.059494,2738.761985,-8364.327145,766.095498
397.059821,2072.576638,-9696.697840,766.095498
397.060149,740.205942,-10066.800811,153.219100
397.060476,-1628.453072,-10214.842000,-766.095498
397.060804,-1850.514855,-10140.821405,-842.705048
397.061132,-1332.370696,-8956.491898,0.000000
397.061459,296.082377,-8364.327145,536.266849
397.061787,2146.597232,-7698.141797,1838.629195
397.062114,3108.864956,-7920.203579,2528.115143
397.062442,3108.864956,-8142.265362,3447.429741
397.062770,814.226536,-8660.409521,2757.943793
397.063097,-518.144159,-9770.718434,1455.581446
397.063425,-2146.597232,-10140.821405,689.485948
397.063752,-3034.844362,-9844.739029,229.828649
397.064080,-2664.741391,-9474.636058,612.876398
397.064408,-888.247130,-8956.491898,1302.362347
397.064735,-666.185348,-7624.121203,1838.629195
397.065063,296.082377,-8216.285956,2145.067394
397.065390,296.082377,-8438.347739,2451.505594
397.065718,-1628.453072,-8586.388927,1302.362347
397.066045,-2368.659014,-9696.697840,1685.410096
397.066373,-3034.844362,-10140.821405,536.266849
397.066701,-4663.297435,-9474.636058,-536.266849
397.067028,-3997.112087,-9548.656652,0.000000
397.067356,-3256.906145,-8882.471304,-153.219100
397.067683,-1924.535449,-7328.038826,229.828649
397.068011,0.000000,-7031.956449,612.876398
397.068339,592.164754,-7328.038826,766.095498
397.068666,1110.308913,-7105.977043,1149.143247
397.068994,1110.308913,-8734.430116,1072.533697
397.069321,148.041188,-9844.739029,689.485948
397.069649,-888.247130,-9474.636058,229.828649
397.069977,-1554.432478,-10362.883188,-766.095498
397.070304,-2294.638420,-10732.986159,-919.314598
397.070632,-888.247130,-9844.739029,-766.095498
397.070959,444.123565,-8512.368333,-459.657299
397.071287,2072.576638,-7920.203579,536.266849
397.071615,4367.215058,-8290.306550,1072.533697
397.071942,3923.091493,-8512.368333,995.924147
397.072270,3256.906145,-9252.574275,459.657299
397.072597,1406.391290,-10140.821405,0.000000
397.072925,-888.247130,-10214.842000,0.000000
397.073252,-1702.473667,-10807.006753,-1302.362347
397.073580,-1776.494261,-10362.883188,-1149.143247
397.073908,-296.082377,-9326.594869,0.000000
397.074235,1554.432478,-7846.182985,612.876398
397.074563,3256.906145,-7920.203579,2298.286494
397.074890,3478.967927,-7846.182985,1915.238745
397.075218,1702.473667,-8438.347739,1685.410096
397.075546,222.061783,-9400.615463,1225.752797
397.075873,-1332.370696,-9696.697840,459.657299
397.076201,-3330.926739,-9326.594869,-459.657299
397.076528,-2516.700203,-9252.574275,76.609550
397.076856,-1554.432478,-8808.450710,383.047749
397.077184,-814.226536,-7402.059420,842.705048
397.077511,814.226536,-8068.244768,2068.457845
397.077839,666.185348,-8068.244768,1991.848295
397.078166,-222.061783,-8216.285956,1532.190996
397.078494,-1258.350101,-10140.821405,1378.971896
397.078822,-2442.679609,-10214.842000,229.828649
397.079149,-4367.215058,-9696.697840,-306.438199
397.079477,-4293.194464,-10214.842000,-306.438199
397.079804,-3701.029710,-9474.636058,-229.828649
397.080132,-1702.473667,-8364.327145,76.609550
397.080459,0.000000,-7698.141797,766.095498
397.080787,1036.288319,-7550.100608,842.705048
397.081115,2220.617826,-7772.162391,1608.800546
397.081442,1924.535449,-8290.306550,842.705048
397.081770,148.041188,-9622.677246,689.485948
397.082097,-740.205942,-10066.800811,536.266849
397.082425,-1924.535449,-10140.821405,-459.657299
397.082753,-2738.761985,-10584.944971,-842.705048
397.083080,-1110.308913,-10436.903782,-153.219100
397.083408,296.082377,-8956.491898,-919.314598
397.083735,1480.411884,-8808.450710,842.705048
397.084063,3404.947333,-8290.306550,1455.581446
397.084391,3404.947333,-8586.388927,1072.533697
397.084718,2590.720797,-9622.677246,1072.533697
397.085046,1480.411884,-10584.944971,383.047749
397.085373,-1332.370696,-10436.903782,-536.266849
397.085701,-2368.659014,-10881.027347,-1072.533697
397.086029,-2442.679609,-10584.944971,-1225.752797
397.086356,-1110.308913,-9548.656652,0.000000
397.086684,592.164754,-8142.265362,0.000000
397.087011,2442.679609,-7846.182985,1838.629195
397.087339,3256.906145,-7994.224174,2221.676944
397.087666,2072.576638,-8290.306550,1685.410096
397.087994,592.164754,-9474.636058,1608.800546
397.088322,-888.247130,-9918.759623,306.438199
397.088649,-2738.761985,-9770.718434,0.000000
397.088977,-2886.803174,-9622.677246,153.219100
397.089304,-1702.473667,-9030.512492,459.657299
397.089632,-740.205942,-7772.162391,1302.362347
397.089960,962.267725,-8216.285956,2451.505594
397.090287,1406.391290,-7772.162391,2221.676944
397.090615,888.247130,-8364.327145,1991.848295
397.090942,-222.061783,-9770.718434,1685.410096
397.091270,-1924.535449,-10584.944971,842.705048
397.091598,-3552.988522,-9992.780217,153.219100
397.091925,-3627.009116,-10214.842000,0.000000
397.092253,-3478.967927,-10066.800811,-612.876398
397.092580,-1776.494261,-8882.471304,536.266849
397.092908,-444.123565,-7920.203579,919.314598
397.093236,592.164754,-7772.162391,1149.143247
397.093563,1184.329507,-7550.100608,1838.629195
397.093891,666.185348,-8364.327145,1149.143247
397.094218,-592.164754,-9326.594869,1072.533697
397.094546,-1258.350101,-9844.739029,459.657299
397.094873,-2590.720797,-9844.739029,-612.876398
397.095201,-3182.885551,-9918.759623,-842.705048
397.095529,-1850.514855,-9474.636058,-536.266849
397.095856,-1110.308913,-7920.203579,-919.314598
397.096184,1184.329507,-7846.182985,0.000000
397.096511,2516.700203,-7698.141797,459.657299
397.096839,3108.864956,-7254.018232,612.876398
397.097167,2812.782580,-8512.368333,766.095498
397.097494,1406.391290,-9844.739029,0.000000
397.097822,-444.123565,-10066.800811,-842.705048
397.098149,-1628.453072,-10510.924376,-1072.533697
397.098477,-1332.370696,-10288.862594,-1302.362347
397.098805,74.020594,-9400.615463,-229.828649
397.099132,1924.535449,-8216.285956,459.657299
397.099460,3256.906145,-8290.306550,1915.238745
397.099787,3997.112087,-8364.327145,2451.505594
397.100115,3034.844362,-8882.471304,1915.238745
397.100443,1554.432478,-9548.656652,1915.238745
397.100770,222.061783,-9992.780217,919.314598
397.101098,-2146.597232,-9770.718434,0.000000
397.101425,-1998.556043,-9622.677246,306.438199
397.101753,-1702.473667,-8734.430116,229.828649
397.102081,-518.144159,-7698.141797,1149.143247
397.102408,814.226536,-7920.203579,2145.067394
397.102736,370.102971,-7994.224174,1838.629195
397.103063,0.000000,-7772.162391,1455.581446
397.103391,-1406.391290,-9178.553681,1302.362347
397.103718,-2960.823768,-9622.677246,306.438199
397.104046,-3775.050304,-9844.739029,-153.219100
397.104374,-4737.318029,-9474.636058,-536.266849
397.104701,-4515.256246,-9474.636058,-536.266849
397.105029,-2516.700203,-8586.388927,306.438199
397.105356,-2146.597232,-7550.100608,459.657299
397.105684,-592.164754,-7994.224174,689.485948
397.106012,814.226536,-8290.306550,1991.848295
397.106339,0.000000,-8216.285956,1072.533697
397.106667,-296.082377,-9474.636058,1225.752797
397.106994,-518.144159,-9918.759623,536.266849
397.107322,-1998.556043,-10214.842000,0.000000
397.107650,-2442.679609,-10362.883188,-153.219100
397.107977,-1554.432478,-9696.697840,-689.485948
397.108305,-370.102971,-8956.491898,-536.266849
397.108632,1406.391290,-8512.368333,153.219100
397.108960,2960.823768,-8438.347739,689.485948
397.109288,3404.947333,-7994.224174,1149.143247
397.109615,3182.885551,-9178.553681,842.705048
397.109943,2220.617826,-10510.924376,842.705048
397.110270,444.123565,-10658.965565,0.000000
397.110598,-1480.411884,-11029.068536,-842.705048
397.110925,-1776.494261,-10140.821405,-842.705048
397.111253,0.000000,-9918.759623,-536.266849
397.111581,1110.308913,-9030.512492,306.438199
397.111908,2738.761985,-8364.327145,1532.190996
397.112236,3701.029710,-8438.347739,1991.848295
397.112563,3182.885551,-8660.409521,2298.286494
397.112891,1406.391290,-9548.656652,1762.019645
397.113219,-444.123565,-10140.821405,689.485948
397.113546,-2072.576638,-9918.759623,76.609550
397.113874,-3182.885551,-9622.677246,-153.219100
397.114201,-2442.679609,-9474.636058,229.828649
397.114529,-666.185348,-8438.347739,1149.143247
397.114857,-296.082377,-7772.162391,1149.143247
397.115184,0.000000,-7698.141797,1838.629195
397.115512,74.020594,-8438.347739,1838.629195
397.115839,-1628.453072,-9178.553681,919.314598
397.116167,-2368.659014,-9918.759623,1455.581446
397.116495,-3256.906145,-10140.821405,229.828649
397.116822,-4663.297435,-9474.636058,-689.485948
397.117150,-3923.091493,-9770.718434,-306.438199
397.117477,-2220.617826,-9030.512492,153.219100
397.117805,-1110.308913,-7550.100608,536.266849
397.118132,888.247130,-8142.265362,1225.752797
397.118460,1628.453072,-8068.244768,1838.629195
397.118788,1184.329507,-8142.265362,1455.581446
397.119115,1258.350101,-9622.677246,1532.190996
397.119443,296.082377,-9918.759623,842.705048
397.119770,-1480.411884,-9622.677246,0.000000
397.120098,-2072.576638,-10584.944971,0.000000
397.120426,-1998.556043,-10066.800811,-766.095498
397.120753,-888.247130,-9104.533087,-383.047749
397.121081,1480.411884,-8586.388927,0.000000
397.121408,2664.741391,-8438.347739,76.609550
397.121736,3256.906145,-8216.285956,842.705048
397.122064,2812.782580,-8586.388927,612.876398
397.122391,1850.514855,-9548.656652,383.047749
397.122719,444.123565,-9992.780217,-306.438199
397.123046,-1332.370696,-10066.800811,-1378.971896
397.123374,-2220.617826,-9992.780217,-1225.752797
397.123702,-1184.329507,-9474.636058,-842.705048
397.124029,296.082377,-8586.388927,0.000000
397.124357,2072.576638,-7846.182985,766.095498
397.124684,3478.967927,-7698.141797,1378.971896
397.125012,3923.091493,-7698.141797,2374.896044
397.125339,1998.556043,-8660.409521,1532.190996
397.125667,222.061783,-9918.759623,919.314598
397.125995,-1332.370696,-9696.697840,306.438199
397.126322,-2516.700203,-9474.636058,229.828649
397.126650,-1628.453072,-9326.594869,0.000000
397.126978,-666.185348,-8586.388927,995.924147
397.127305,-296.082377,-7624.121203,1378.971896
397.127633,962.267725,-8142.265362,2374.896044
397.127960,1184.329507,-8142.265362,2221.676944
397.128288,-370.102971,-8364.327145,1225.752797
397.128616,-1554.432478,-9770.718434,1685.410096
397.128943,-2960.823768,-10066.800811,612.876398
397.129271,-4885.359217,-9474.636058,-229.828649
397.129599,-4515.256246,-9696.697840,0.000000
397.129926,-3034.844362,-8364.327145,153.219100
397.130254,-1924.535449,-7105.977043,612.876398
397.130582,74.020594,-7328.038826,1762.019645
397.130909,1258.350101,-7698.141797,1991.848295
397.131237,1184.329507,-7476.080014,2221.676944
397.131564,518.144159,-8734.430116,2068.457845
397.131892,-592.164754,-10214.842000,1762.019645
397.132220,-2072.576638,-9844.739029,612.876398
397.132547,-2590.720797,-10510.924376,0.000000
397.132875,-2812.782580,-10288.862594,-383.047749
397.133203,-1332.370696,-9326.594869,153.219100
397.133530,0.000000,-8586.388927,383.047749
397.133858,1850.514855,-8216.285956,689.485948
397.134186,3108.864956,-8364.327145,919.314598
397.134513,2368.659014,-8586.388927,0.000000
397.134841,1332.370696,-9696.697840,229.828649
397.135168,148.041188,-10436.903782,0.000000
397.135496,-1998.556043,-10436.903782,-1532.190996
397.135824,-2886.803174,-10732.986159,-1838.629195
397.136151,-2146.597232,-10140.821405,-1532.190996
397.136479,-444.123565,-9178.553681,-1149.143247
397.136807,1850.514855,-7994.224174,76.609550
397.137134,3404.947333,-7476.080014,1072.533697
397.137462,4145.153275,-7772.162391,1608.800546
397.137790,2812.782580,-8734.430116,919.314598
397.138117,1406.391290,-9622.677246,766.095498
397.138445,-74.020594,-10214.842000,0.000000
397.138772,-1628.453072,-9844.739029,0.000000
397.139100,-1998.556043,-10288.862594,-383.047749
397.139428,-444.123565,-9548.656652,306.438199
397.139755,74.020594,-8290.306550,536.266849
397.140083,1776.494261,-8586.388927,2068.457845
397.140411,2590.720797,-7920.203579,2528.115143
397.140738,888.247130,-8586.388927,1149.143247
397.141066,0.000000,-9992.780217,1378.971896
397.141394,-1554.432478,-10362.883188,229.828649
397.141721,-3923.091493,-10140.821405,-612.876398
397.142049,-3849.070898,-10214.842000,0.000000
397.142376,-2812.782580,-9474.636058,-383.047749
397.142704,-1924.535449,-8068.244768,612.876398
397.143032,74.020594,-7772.162391,1685.410096
397.143359,888.247130,-7994.224174,1915.238745
397.143687,740.205942,-7920.203579,1685.410096
397.144015,0.000000,-8586.388927,1378.971896
397.144342,-1480.411884,-9474.636058,842.705048
397.144670,-2368.659014,-9770.718434,153.219100
397.144998,-3330.926739,-9548.656652,-536.266849
397.145325,-3775.050304,-9548.656652,-842.705048
397.145653,-1554.432478,-8734.430116,459.657299
397.145980,-666.185348,-7402.059420,-383.047749
397.146308,1110.308913,-7476.080014,766.095498
397.146636,2664.741391,-7624.121203,1072.533697
397.146963,1998.556043,-8142.265362,612.876398
397.147291,1332.370696,-9400.615463,1149.143247
397.147619,222.061783,-10066.800811,459.657299
397.147946,-1776.494261,-10362.883188,-842.705048
397.148274,-2220.617826,-10584.944971,-689.485948
397.148602,-1036.288319,-9992.780217,-229.828649
397.148929,74.020594,-8364.327145,383.047749
397.149257,2368.659014,-7846.182985,1149.143247
397.149584,3775.050304,-7920.203579,2298.286494
397.149912,4219.173869,-8068.244768,2834.553343
397.150240,2368.659014,-8734.430116,1915.238745
397.150567,1406.391290,-9622.677246,1532.190996
397.150895,74.020594,-10214.842000,842.705048
397.151223,-2072.576638,-10066.800811,153.219100
397.151550,-2442.679609,-9992.780217,153.219100
397.151878,-1258.350101,-9252.574275,612.876398
397.152206,-592.164754,-7920.203579,919.314598
397.152533,592.164754,-7994.224174,2298.286494
397.152861,814.226536,-8290.306550,1991.848295
397.153188,-518.144159,-8364.327145,1225.752797
397.153516,-1036.288319,-9474.636058,1149.143247
397.153844,-2368.659014,-10140.821405,306.438199
397.154171,-4071.132681,-9622.677246,-153.219100
397.154499,-3775.050304,-9844.739029,-229.828649
397.154827,-3034.844362,-9400.615463,-306.438199
397.155154,-1776.494261,-8438.347739,612.876398
397.155482,0.000000,-7994.224174,1378.971896
397.155810,666.185348,-7624.121203,1685.410096
397.156137,1036.288319,-8216.285956,1608.800546
397.156465,296.082377,-9104.533087,1532.190996
397.156792,-296.082377,-10066.800811,1072.533697
397.157120,-666.185348,-10584.944971,766.095498
397.157448,-2072.576638,-10362.883188,-689.485948
397.157775,-2590.720797,-10288.862594,-842.705048
397.158103,-1184.329507,-9844.739029,-153.219100
397.158431,-444.123565,-8290.306550,-766.095498
397.158758,1480.411884,-8586.388927,383.047749
397.159086,2886.803174,-8364.327145,919.314598
397.159414,2516.700203,-8734.430116,306.438199
397.159741,2072.576638,-9992.780217,689.485948
397.160069,370.102971,-10584.944971,76.609550
397.160396,-1776.494261,-10658.965565,-919.314598
397.160724,-2368.659014,-10881.027347,-1225.752797
397.161052,-2146.597232,-10362.883188,0.000000
397.161379,-1184.329507,-9030.512492,-766.095498
397.161707,740.205942,-7920.203579,76.609550
397.162035,3108.864956,-8142.265362,1302.362347
397.162362,3775.050304,-7846.182985,1991.848295
397.162690,2960.823768,-8142.265362,1608.800546
397.163018,1924.535449,-9696.697840,919.314598
397.163345,0.000000,-9992.780217,612.876398
397.163673,-2220.617826,-9844.739029,0.000000
397.164000,-2146.597232,-10140.821405,76.609550
397.164328,-1628.453072,-9178.553681,0.000000
397.164656,-148.041188,-8290.306550,1225.752797
397.164983,1258.350101,-8142.265362,1838.629195
397.165311,1184.329507,-8068.244768,2145.067394
397.165639,1036.288319,-7920.203579,2298.286494
397.165966,-222.061783,-9178.553681,1302.362347
397.166294,-1554.432478,-9696.697840,842.705048
397.166622,-3330.926739,-9696.697840,76.609550
397.166949,-3627.009116,-9474.636058,-306.438199
397.167277,-3701.029710,-8956.491898,-153.219100
397.167604,-1406.391290,-8290.306550,842.705048
397.167932,-518.144159,-7328.038826,1455.581446
397.168260,222.061783,-7402.059420,2068.457845
397.168587,1332.370696,-7994.224174,2451.505594
397.168915,-148.041188,-8364.327145,1378.971896
397.169243,-814.226536,-9326.594869,1378.971896
397.169570,-1110.308913,-9918.759623,612.876398
397.169898,-2738.761985,-9326.594869,0.000000
397.170226,-3182.885551,-9474.636058,-383.047749
397.170553,-1850.514855,-9252.574275,-153.219100
397.170881,-1110.308913,-7846.182985,-153.219100
397.171208,148.041188,-7846.182985,536.266849
397.171536,2294.638420,-8068.244768,1455.581446
397.171864,1998.556043,-7994.224174,459.657299
397.172191,1480.411884,-9326.594869,536.266849
397.172519,148.041188,-10362.883188,0.000000
397.172847,-1258.350101,-10362.883188,-459.657299
397.173174,-2294.638420,-10510.924376,-1149.143247
397.173502,-1924.535449,-10436.903782,-1685.410096
397.173830,-740.205942,-9474.636058,-766.095498
397.174157,888.247130,-8438.347739,0.000000
397.174485,2738.761985,-8438.347739,919.314598
397.174812,3775.050304,-7846.182985,1532.190996
397.175140,3627.009116,-8290.306550,1149.143247
397.175468,2442.679609,-9696.697840,1149.143247
397.175795,1036.288319,-10288.862594,459.657299
397.176123,-1332.370696,-10214.842000,-153.219100
397.176451,-1480.411884,-10140.821405,-229.828649
397.176778,-1184.329507,-9400.615463,-536.266849
397.177106,74.020594,-9104.533087,459.657299
397.177434,1036.288319,-8438.347739,1302.362347
397.177761,1850.514855,-8734.430116,1838.629195
397.178089,1924.535449,-8438.347739,2145.067394
397.178416,444.123565,-9326.594869,1838.629195
397.178744,-1332.370696,-10362.883188,306.438199
397.179072,-2368.659014,-10510.924376,0.000000
397.179399,-3701.029710,-9992.780217,-689.485948
397.179727,-4145.153275,-9918.759623,-689.485948
397.180055,-2146.597232,-9326.594869,995.924147
397.180382,-1480.411884,-7846.182985,76.609550
397.180710,518.144159,-8142.265362,1685.410096
397.181038,962.267725,-8290.306550,1915.238745
397.181365,370.102971,-8364.327145,1455.581446
397.181693,148.041188,-9400.615463,1532.190996
397.182020,-1036.288319,-9696.697840,536.266849
397.182348,-3108.864956,-9474.636058,-306.438199
397.182676,-2960.823768,-9844.739029,0.000000
397.183003,-2072.576638,-9400.615463,-153.219100
397.183331,-666.185348,-8364.327145,153.219100
397.183659,962.267725,-8068.244768,1149.143247
397.183986,1924.535449,-8216.285956,1302.362347
397.184314,2442.679609,-8068.244768,1915.238745
397.184642,1850.514855,-9326.594869,1378.971896
397.184969,444.123565,-9844.739029,536.266849
397.185297,-222.061783,-10584.944971,689.485948
397.185624,-2220.617826,-10436.903782,-842.705048
397.185952,-2738.761985,-10288.862594,-995.924147
397.186280,-1036.288319,-9696.697840,-536.266849
397.186607,148.041188,-7920.203579,0.000000
397.186935,2516.700203,-7920.203579,1302.362347
397.187263,3478.967927,-7550.100608,2068.457845
397.187590,2664.741391,-7994.224174,2068.457845
397.187918,1406.391290,-9326.594869,1455.581446
397.188245,-222.061783,-9844.739029,842.705048
397.188573,-2368.659014,-9252.574275,153.219100
397.188901,-2738.761985,-9622.677246,-306.438199
397.189228,-2738.761985,-9178.553681,-229.828649
397.189556,-1184.329507,-8290.306550,612.876398
397.189884,222.061783,-7476.080014,766.095498
397.190211,1110.308913,-7476.080014,1302.362347
397.190539,1554.432478,-7550.100608,1762.019645
397.190867,0.000000,-8142.265362,612.876398
397.191194,-1184.329507,-9326.594869,459.657299
397.191522,-2146.597232,-10140.821405,306.438199
397.191849,-3478.967927,-9992.780217,-612.876398
397.192177,-3330.926739,-9474.636058,-536.266849
397.192505,-1628.453072,-9400.615463,153.219100
397.192832,-740.205942,-7994.224174,536.266849
397.193160,1258.350101,-8290.306550,1762.019645
397.193488,1850.514855,-8290.306550,2145.067394
397.193815,1924.535449,-8216.285956,1685.410096
397.194143,1036.288319,-9548.656652,2068.457845
397.194471,74.020594,-10140.821405,995.924147
397.194798,-1998.556043,-9474.636058,0.000000
397.195126,-2146.597232,-10066.800811,0.000000
397.195453,-2368.659014,-9252.574275,0.000000
397.195781,-962.267725,-8660.409521,153.219100
397.196109,740.205942,-7846.182985,766.095498
397.196436,1850.514855,-8364.327145,1302.362347
397.196764,2368.659014,-8364.327145,1455.581446
397.197092,1628.453072,-9104.533087,1225.752797
397.197419,518.144159,-9696.697840,1149.143247
397.197747,-962.267725,-10288.862594,76.609550
397.198075,-2886.803174,-10584.944971,-919.314598
397.198402,-2960.823768,-10436.903782,-842.705048
397.198730,-1850.514855,-9770.718434,-612.876398
397.199057,0.000000,-8364.327145,459.657299
397.199385,1406.391290,-8290.306550,1149.143247
397.199713,2294.638420,-8142.265362,1378.971896
397.200040,2368.659014,-8586.388927,1685.410096
397.200368,1036.288319,-9030.512492,919.314598
397.200696,148.041188,-9770.718434,1302.362347
397.201023,-1258.350101,-9844.739029,-153.219100
397.201351,-2738.761985,-9770.718434,-459.657299
397.201679,-2590.720797,-9622.677246,-612.876398
397.202006,-1332.370696,-8660.409521,0.000000
397.202334,222.061783,-7698.141797,-229.828649
397.202661,1332.370696,-7772.162391,1302.362347
397.202989,1998.556043,-7846.182985,1532.190996
397.203317,814.226536,-8364.327145,689.485948
397.203644,444.123565,-9474.636058,919.314598
397.203972,-592.164754,-9622.677246,229.828649
397.204300,-2368.659014,-9696.697840,76.609550
397.204627,-2738.761985,-9474.636058,-229.828649
397.204955,-1776.494261,-9252.574275,0.000000
397.205283,-814.226536,-8216.285956,536.266849
397.205610,888.247130,-8216.285956,1532.190996
397.205938,1776.494261,-8216.285956,1685.410096
397.206265,1998.556043,-8290.306550,1838.629195
397.206593,1036.288319,-9252.574275,1608.800546
397.206921,-370.102971,-9474.636058,766.095498
397.207248,-1406.391290,-10066.800811,229.828649
397.207576,-2738.761985,-9474.636058,-76.609550
397.207904,-2590.720797,-9548.656652,-383.047749
397.208231,-1554.432478,-8586.388927,-383.047749
397.208559,-740.205942,-7772.162391,-229.828649
397.208887,1110.308913,-7920.203579,766.095498
397.209214,1924.535449,-7550.100608,1072.533697
397.209542,1628.453072,-8364.327145,842.705048
397.209869,296.082377,-9844.739029,766.095498
397.210197,-1332.370696,-10510.924376,76.609550
397.210525,-3256.906145,-10436.903782,-842.705048
397.210852,-3182.885551,-10584.944971,-1302.362347
397.211180,-2146.597232,-9548.656652,-459.657299
397.211508,-296.082377,-8882.471304,-229.828649
397.211835,1480.411884,-8364.327145,612.876398
397.212163,3108.864956,-8512.368333,1455.581446
397.212491,3552.988522,-8438.347739,1762.019645
397.212818,2146.597232,-9252.574275,1455.581446
397.213146,666.185348,-10362.883188,229.828649
397.213473,-296.082377,-11103.089130,229.828649
397.213801,-1850.514855,-10510.924376,-459.657299
397.214129,-1998.556043,-10658.965565,-229.828649
397.214456,-148.041188,-9992.780217,995.924147
397.214784,222.061783,-8808.450710,612.876398
397.215112,1554.432478,-9030.512492,1762.019645
397.215439,2072.576638,-8808.450710,1991.848295
397.215767,518.144159,-9104.533087,1455.581446
397.216095,0.000000,-10288.862594,995.924147
397.216422,-962.267725,-10362.883188,612.876398
397.216750,-2960.823768,-9844.739029,-459.657299
397.217077,-3034.844362,-9918.759623,0.000000
397.217405,-2368.659014,-9770.718434,-153.219100
397.217733,-1332.370696,-8290.306550,383.047749
397.218060,740.205942,-7920.203579,1991.848295
397.218388,888.247130,-8290.306550,2221.676944
397.218716,1258.350101,-8068.244768,2451.505594
397.219043,296.082377,-9474.636058,1915.238745
397.219371,-814.226536,-10140.821405,1378.971896
397.219699,-1924.535449,-9844.739029,383.047749
397.220026,-2294.638420,-10066.800811,0.000000
397.220354,-2738.761985,-9696.697840,229.828649
397.220681,-1258.350101,-8956.491898,612.876398
397.221009,0.000000,-7772.162391,995.924147
397.221337,1332.370696,-7179.997637,1915.238745
397.221664,2664.741391,-7994.224174,2374.896044
397.221992,1924.535449,-8438.347739,1608.800546
397.222320,592.164754,-9548.656652,1762.019645
397.222647,-666.185348,-10140.821405,383.047749
397.222975,-2368.659014,-9474.636058,-383.047749
397.223303,-2516.700203,-9992.780217,-842.705048
397.223630,-2146.597232,-9104.533087,-536.266849
397.223958,0.000000,-8068.244768,383.047749
397.224285,1332.370696,-7254.018232,919.314598
397.224613,2368.659014,-7476.080014,1608.800546
397.224941,2590.720797,-7698.141797,1532.190996
397.225268,1258.350101,-8512.368333,995.924147
397.225596,-296.082377,-9474.636058,536.266849
397.225924,-1554.432478,-9992.780217,0.000000
397.226251,-3182.885551,-9696.697840,-995.924147
397.226579,-3108.864956,-9474.636058,-689.485948
397.226907,-1628.453072,-8882.471304,-459.657299
397.227234,-962.267725,-7328.038826,-612.876398
397.227562,1036.288319,-7846.182985,612.876398
397.227889,2146.597232,-7772.162391,689.485948
397.228217,1184.329507,-7550.100608,536.266849
397.228545,1036.288319,-9178.553681,229.828649
397.228872,-444.123565,-9622.677246,-306.438199
397.229200,-2368.659014,-9474.636058,-1072.533697
397.229527,-2368.659014,-9770.718434,-766.095498
397.229855,-1850.514855,-9622.677246,-766.095498
397.230183,-666.185348,-8586.388927,-229.828649
397.230510,592.164754,-7920.203579,689.485948
397.230838,2368.659014,-8142.265362,1302.362347
397.231165,2738.761985,-8290.306550,2298.286494
397.231493,1998.556043,-8956.491898,1532.190996
397.231821,222.061783,-10066.800811,1302.362347
397.232148,-518.144159,-10362.883188,459.657299
397.232476,-2220.617826,-10436.903782,-536.266849
397.232803,-2664.741391,-9992.780217,-306.438199
397.233131,-1702.473667,-9548.656652,-229.828649
397.233459,-1036.288319,-7920.203579,76.609550
397.233786,1332.370696,-8364.327145,1072.533697
397.234114,1998.556043,-8290.306550,1455.581446
397.234441,1850.514855,-8216.285956,1608.800546
397.234769,666.185348,-9696.697840,1302.362347
397.235097,-370.102971,-10510.924376,919.314598
397.235424,-3034.844362,-9918.759623,-459.657299
397.235752,-3775.050304,-10288.862594,-766.095498
397.236079,-3330.926739,-9770.718434,-766.095498
397.236407,-1628.453072,-8956.491898,229.828649
397.236735,148.041188,-7476.080014,689.485948
397.237062,2294.638420,-7846.182985,2374.896044
397.237390,3034.844362,-7994.224174,2451.505594
397.237717,1480.411884,-8660.409521,1608.800546
397.238045,-148.041188,-10066.800811,1532.190996
397.238373,-1332.370696,-10658.965565,689.485948
397.238700,-3182.885551,-10362.883188,0.000000
397.239028,-3182.885551,-10658.965565,-383.047749
397.239355,-1776.494261,-9844.739029,0.000000
397.239683,-444.123565,-8364.327145,459.657299
397.240011,1702.473667,-8660.409521,1838.629195
397.240338,2664.741391,-8290.306550,2298.286494
397.240666,1776.494261,-8068.244768,1378.971896
397.240993,1258.350101,-9918.759623,1072.533697
397.241321,-592.164754,-10658.965565,536.266849
397.241649,-2442.679609,-9770.718434,-383.047749
397.241976,-2146.597232,-10214.842000,-766.095498
397.242304,-1924.535449,-9252.574275,-612.876398
397.242631,-888.247130,-8364.327145,459.657299
397.242959,962.267725,-8142.265362,1225.752797
397.243287,1406.391290,-7920.203579,1838.629195
397.243614,1702.473667,-7624.121203,2528.115143
397.243942,1258.350101,-8142.265362,2145.067394
397.244269,0.000000,-9178.553681,919.314598
397.244597,-1110.308913,-9844.739029,459.657299
397.244925,-2146.597232,-9474.636058,-306.438199
397.245252,-2812.782580,-9326.594869,-306.438199
397.245580,-1628.453072,-8734.430116,0.000000
397.245907,-370.102971,-7624.121203,0.000000
397.246235,740.205942,-7624.121203,1378.971896
397.246563,1924.535449,-7698.141797,1532.190996
397.246890,1480.411884,-8068.244768,1149.143247
397.247218,666.185348,-8956.491898,1302.362347
397.247545,-222.061783,-10214.842000,612.876398
397.247873,-2442.679609,-9696.697840,-383.047749
397.248201,-3108.864956,-10066.800811,-842.705048
397.248528,-2368.659014,-9548.656652,-689.485948
397.248856,-1110.308913,-7994.224174,0.000000
397.249183,666.185348,-7105.977043,459.657299
397.249511,2220.617826,-7550.100608,1532.190996
397.249839,2812.782580,-7624.121203,1762.019645
397.250166,1776.494261,-8068.244768,1302.362347
397.250494,888.247130,-9474.636058,1378.971896
397.250821,-296.082377,-9844.739029,919.314598
397.251149,-2442.679609,-10066.800811,-536.266849
397.251477,-2738.761985,-10140.821405,-689.485948
397.251804,-1776.494261,-9622.677246,-459.657299
397.252132,-814.226536,-8142.265362,-306.438199
397.252459,1184.329507,-8512.368333,1225.752797
397.252787,1628.453072,-8142.265362,1072.533697
397.253115,1480.411884,-7920.203579,1072.533697
397.253442,1110.308913,-9548.656652,842.705048
397.253770,-222.061783,-10288.862594,76.609550
397.254097,-1850.514855,-9770.718434,-459.657299
397.254425,-2368.659014,-10584.944971,-689.485948
397.254753,-2442.679609,-9918.759623,-459.657299
397.255080,-1258.350101,-9104.533087,76.609550
397.255408,0.000000,-8438.347739,459.657299
397.255735,1554.432478,-8290.306550,1302.362347
397.256063,2516.700203,-8438.347739,1685.410096
397.256391,1332.370696,-8586.388927,1532.190996
397.256718,814.226536,-9770.718434,1378.971896
397.257046,-148.041188,-9918.759623,766.095498
397.257373,-2294.638420,-10066.800811,-383.047749
397.257701,-2220.617826,-9992.780217,0.000000
397.258029,-1850.514855,-9474.636058,-306.438199
397.258356,-666.185348,-8734.430116,306.438199
397.258684,518.144159,-8364.327145,1149.143247
397.259011,1554.432478,-8586.388927,1762.019645
397.259339,1924.535449,-8438.347739,2604.724693
397.259667,740.205942,-9326.594869,1608.800546
397.259994,-592.164754,-10362.883188,766.095498
397.260322,-2146.597232,-10436.903782,76.609550
397.260649,-3108.864956,-10436.903782,-383.047749
397.260977,-2812.782580,-9770.718434,0.000000
397.261305,-1184.329507,-8586.388927,229.828649
397.261632,0.000000,-7476.080014,1072.533697
397.261960,2146.597232,-7920.203579,2221.676944
397.262287,2442.679609,-7698.141797,2451.505594
397.262615,1998.556043,-8364.327145,2068.457845
397.262943,888.247130,-9696.697840,1608.800546
397.263270,-444.123565,-10214.842000,1072.533697
397.263598,-2442.679609,-9844.739029,229.828649
397.263925,-2738.761985,-10140.821405,0.000000
397.264253,-2368.659014,-9326.594869,76.609550
397.264581,-518.144159,-8290.306550,1072.533697
397.264908,0.000000,-8068.244768,1455.581446
397.265236,666.185348,-8290.306550,1225.752797
397.265563,814.226536,-8364.327145,1378.971896
397.265891,0.000000,-8808.450710,612.876398
397.266219,-1480.411884,-9844.739029,-383.047749
397.266546,-1998.556043,-9474.636058,-383.047749
397.266874,-2960.823768,-9770.718434,-1149.143247
397.267201,-3182.885551,-9696.697840,-1149.143247
397.267529,-1554.432478,-8882.471304,-383.047749
397.267857,-1332.370696,-7105.977043,-689.485948
397.268184,666.185348,-8216.285956,383.047749
397.268512,1998.556043,-7920.203579,1072.533697
397.268839,1406.391290,-8068.244768,536.266849
397.269167,1554.432478,-9400.615463,536.266849
397.269495,666.185348,-9400.615463,919.314598
397.269822,-592.164754,-9326.594869,-229.828649
397.270150,-1554.432478,-10140.821405,-919.314598
397.270477,-1184.329507,-9178.553681,-1149.143247
397.270805,-296.082377,-8586.388927,-612.876398
397.271133,1258.350101,-8364.327145,-229.828649
397.271460,2886.803174,-8290.306550,459.657299
397.271788,3330.926739,-8438.347739,1072.533697
397.272115,2960.823768,-9474.636058,842.705048
397.272443,1554.432478,-9992.780217,766.095498
397.272771,0.000000,-10510.924376,0.000000
397.273098,-2294.638420,-10510.924376,-1225.752797
397.273426,-2590.720797,-10510.924376,-459.657299
397.273753,-1628.453072,-9548.656652,-459.657299
397.274081,0.000000,-9104.533087,383.047749
397.274409,1998.556043,-8068.244768,1608.800546
397.274736,2886.803174,-7846.182985,2298.286494
397.275064,2812.782580,-8364.327145,2834.553343
397.275391,370.102971,-9326.594869,1838.629195
397.275719,-1406.391290,-10214.842000,995.924147
397.276047,-3034.844362,-10140.821405,229.828649
397.276374,-3478.967927,-9992.780217,-229.828649
397.276702,-3330.926739,-9696.697840,-229.828649
397.277029,-888.247130,-9178.553681,995.924147
397.277357,-296.082377,-8142.265362,1378.971896
397.277685,888.247130,-8512.368333,2374.896044
397.278012,1332.370696,-8660.409521,2298.286494
397.278340,-148.041188,-9030.512492,1149.143247
397.278668,-1110.308913,-10584.944971,1072.533697
397.278995,-2368.659014,-10584.944971,306.438199
397.279323,-3923.091493,-10140.821405,-459.657299
397.279650,-3478.967927,-10288.862594,-383.047749
397.279978,-1554.432478,-10066.800811,-229.828649
397.280306,-1036.288319,-7846.182985,229.828649
397.280633,1332.370696,-8586.388927,1532.190996
397.280961,2368.659014,-8512.368333,1762.019645
397.281288,1998.556043,-7994.224174,1455.581446
397.281616,1850.514855,-9770.718434,2145.067394
397.281944,740.205942,-9918.759623,1302.362347
397.282271,-1480.411884,-9918.759623,76.609550
397.282599,-1110.308913,-10436.903782,306.438199
397.282926,-1110.308913,-9770.718434,0.000000
397.283254,296.082377,-8512.368333,842.705048
397.283582,2072.576638,-7994.224174,1225.752797
397.283909,2368.659014,-8512.368333,1608.800546
397.284237,2886.803174,-8290.306550,2221.676944
397.284564,1924.535449,-8808.450710,1378.971896
397.284892,518.144159,-9548.656652,842.705048
397.285220,-814.226536,-9918.759623,76.609550
397.285547,-2738.761985,-10214.842000,-919.314598
397.285875,-3330.926739,-10214.842000,-995.924147
397.286202,-2368.659014,-9326.594869,-766.095498
397.286530,-1110.308913,-7920.203579,-383.047749
397.286858,962.267725,-7476.080014,1072.533697
397.287185,2072.576638,-7624.121203,1762.019645
397.287513,2146.597232,-7328.038826,1838.629195
397.287840,740.205942,-8660.409521,1302.362347
397.288168,-592.164754,-9548.656652,536.266849
397.288496,-2516.700203,-9326.594869,0.000000
397.288823,-3404.947333,-9178.553681,-536.266849
397.289151,-3182.885551,-9326.594869,-766.095498
397.289478,-1110.308913,-8660.409521,459.657299
397.289806,0.000000,-7476.080014,536.266849
397.290134,1554.432478,-7476.080014,1378.971896
397.290461,2294.638420,-7846.182985,2068.457845
397.290789,1332.370696,-8068.244768,459.657299
397.291116,296.082377,-9622.677246,689.485948
397.291444,-962.267725,-10140.821405,0.000000
397.291772,-2812.782580,-9918.759623,-1072.533697
397.292099,-2738.761985,-9992.780217,-1455.581446
397.292427,-1776.494261,-9548.656652,-919.314598
397.292754,-888.247130,-8290.306550,-306.438199
397.293082,962.267725,-8660.409521,459.657299
397.293410,2220.617826,-8512.368333,1149.143247
397.293737,2294.638420,-7772.162391,1532.190996
397.294065,1924.535449,-9326.594869,1072.533697
397.294392,740.205942,-10288.862594,689.485948
397.294720,-1184.329507,-9770.718434,0.000000
397.295048,-2072.576638,-9918.759623,-842.705048
397.295375,-2220.617826,-9474.636058,-612.876398
397.295703,-1184.329507,-8660.409521,-229.828649
397.296030,0.000000,-7994.224174,76.609550
397.296358,1628.453072,-8068.244768,919.314598
397.296686,2738.761985,-7994.224174,1608.800546
397.297013,1998.556043,-8586.388927,1302.362347
397.297341,518.144159,-9474.636058,1455.581446
397.297668,-444.123565,-10214.842000,383.047749
397.297996,-2516.700203,-10214.842000,-612.876398
397.298324,-2812.782580,-10362.883188,-612.876398
397.298651,-1776.494261,-9400.615463,0.000000
397.298979,74.020594,-8586.388927,919.314598
397.299306,1702.473667,-7846.182985,1915.238745
397.299634,2294.638420,-7920.203579,2451.505594
397.299962,2368.659014,-8512.368333,2987.772442
397.300289,370.102971,-9400.615463,2145.067394
397.300617,-1110.308913,-9918.759623,1685.410096
397.300944,-2220.617826,-10436.903782,306.438199
397.301272,-3552.988522,-9844.739029,0.000000
397.301600,-3478.967927,-9918.759623,153.219100
397.301927,-1110.308913,-8956.491898,1149.143247
397.302255,-1332.370696,-7476.080014,1149.143247
397.302582,814.226536,-7994.224174,2298.286494
397.302910,1332.370696,-8142.265362,1915.238745
397.303238,-370.102971,-8364.327145,842.705048
397.303565,-962.267725,-9622.677246,842.705048
397.303893,-1850.514855,-10066.800811,76.609550
397.304220,-2960.823768,-9474.636058,-612.876398
397.304548,-3034.844362,-10066.800811,-766.095498
397.304876,-2072.576638,-10066.800811,-536.266849
397.305203,-1184.329507,-8734.430116,-459.657299
397.305531,370.102971,-8438.347739,536.266849
397.305858,1702.473667,-8364.327145,995.924147
397.306186,1850.514855,-8290.306550,995.924147
397.306514,1924.535449,-9252.574275,919.314598
397.306841,1258.350101,-9992.780217,229.828649
397.307169,0.000000,-9770.718434,0.000000
397.307496,-518.144159,-10140.821405,-459.657299
397.307824,-1332.370696,-10362.883188,-1378.971896
397.308152,-518.144159,-9474.636058,-536.266849
397.308479,666.185348,-8586.388927,-459.657299
397.308807,1998.556043,-8808.450710,536.266849
397.309134,3108.864956,-8438.347739,1608.800546
397.309462,3108.864956,-9104.533087,995.924147
397.309790,1998.556043,-9770.718434,842.705048
397.310117,666.185348,-10436.903782,383.047749
397.310445,-1480.411884,-10436.903782,-612.876398
397.310772,-2368.659014,-10436.903782,-842.705048
397.311100,-1702.473667,-9992.780217,-919.314598
397.311428,-666.185348,-8364.327145,153.219100
397.311755,962.267725,-7772.162391,1302.362347
397.312083,2442.679609,-8142.265362,2451.505594
397.312410,2590.720797,-7994.224174,2681.334243
397.312738,1184.329507,-8660.409521,2374.896044
397.313066,-370.102971,-9770.718434,2145.067394
397.313393,-1924.535449,-9918.759623,919.314598
397.313721,-3849.070898,-9622.677246,306.438199
397.314048,-3108.864956,-9696.697840,536.266849
397.314376,-2368.659014,-8216.285956,1378.971896
397.314704,-1850.514855,-7031.956449,1455.581446
397.315031,0.000000,-7698.141797,2374.896044
397.315359,444.123565,-7846.182985,1685.410096
397.315686,-370.102971,-7624.121203,1685.410096
397.316014,-1036.288319,-9400.615463,459.657299
397.316342,-2294.638420,-9992.780217,229.828649
397.316669,-3849.070898,-9474.636058,-229.828649
397.316997,-3627.009116,-9992.780217,-766.095498
397.317324,-3108.864956,-9474.636058,-612.876398
397.317652,-1628.453072,-8512.368333,-459.657299
397.317980,222.061783,-8660.409521,536.266849
397.318307,1554.432478,-7994.224174,383.047749
397.318635,2368.659014,-8364.327145,1225.752797
397.318962,1998.556043,-8808.450710,919.314598
397.319290,1110.308913,-9622.677246,459.657299
397.319618,592.164754,-9548.656652,0.000000
397.319945,-888.247130,-10066.800811,-766.095498
397.320273,-1332.370696,-10066.800811,-1072.533697
397.320600,-296.082377,-9770.718434,-919.314598
397.320928,666.185348,-8586.388927,-612.876398
397.321256,2738.761985,-8586.388927,842.705048
397.321583,3627.009116,-7920.203579,1838.629195
397.321911,3849.070898,-8290.306550,1149.143247
397.322238,2664.741391,-9326.594869,1072.533697
397.322566,1036.288319,-10510.924376,306.438199
397.322894,-1036.288319,-10362.883188,0.000000
397.323221,-1924.535449,-10807.006753,-995.924147
397.323549,-2516.700203,-10140.821405,-612.876398
397.323876,-962.267725,-9104.533087,153.219100
397.324204,0.000000,-7994.224174,842.705048
397.324532,1998.556043,-8068.244768,2145.067394
397.324859,2664.741391,-7994.224174,3217.601092
397.325187,1110.308913,-8660.409521,1838.629195
397.325514,-370.102971,-9696.697840,1762.019645
397.325842,-1998.556043,-10066.800811,766.095498
397.326170,-4219.173869,-9844.739029,-229.828649
397.326497,-4071.132681,-9548.656652,459.657299
397.326825,-3108.864956,-8882.471304,459.657299
397.327152,-1850.514855,-8068.244768,995.924147
397.327480,-148.041188,-8216.285956,1762.019645
397.327808,0.000000,-8438.347739,1455.581446
397.328135,0.000000,-8068.244768,1838.629195
397.328463,-370.102971,-9326.594869,1225.752797
397.328790,-2220.617826,-10288.862594,383.047749
397.329118,-3108.864956,-9992.780217,-306.438199
397.329446,-3330.926739,-10362.883188,-459.657299
397.329773,-3108.864956,-9844.739029,-995.924147
397.330101,-1110.308913,-9178.553681,0.000000
397.330428,222.061783,-8290.306550,76.609550
397.330756,1554.432478,-8068.244768,919.314598
397.331083,2886.803174,-8068.244768,1685.410096
397.331411,2294.638420,-8660.409521,995.924147
397.331738,1480.411884,-9474.636058,1532.190996
397.332066,814.226536,-10436.903782,383.047749
397.332394,-888.247130,-10288.862594,-536.266849
397.332721,-1628.453072,-10436.903782,-536.266849
397.333049,-370.102971,-9992.780217,-306.438199
397.333376,74.020594,-8290.306550,-229.828649
397.333704,2220.617826,-8734.430116,689.485948
397.334031,2812.782580,-8290.306550,1378.971896
397.334359,3034.844362,-8216.285956,1455.581446
397.334686,2072.576638,-8956.491898,842.705048
397.335014,666.185348,-9104.533087,229.828649
397.335342,-814.226536,-9696.697840,-383.047749
397.335669,-2442.679609,-9696.697840,-612.876398
397.335997,-2590.720797,-9474.636058,-689.485948
397.336324,-1258.350101,-8734.430116,0.000000
397.336652,-222.061783,-7624.121203,766.095498
397.336979,1406.391290,-7550.100608,2298.286494
397.337307,1702.473667,-7772.162391,2528.115143
397.337635,592.164754,-8216.285956,2068.457845
397.337962,0.000000,-9770.718434,1915.238745
397.338290,-1924.535449,-10066.800811,995.924147
397.338617,-3404.947333,-9622.677246,842.705048
397.338945,-3330.926739,-9844.739029,383.047749
397.339272,-3108.864956,-8882.471304,0.000000
397.339600,-1628.453072,-7698.141797,612.876398
397.339927,296.082377,-7402.059420,1302.362347
397.340255,740.205942,-7179.997637,1608.800546
397.340583,1332.370696,-7402.059420,1915.238745
397.340910,74.020594,-8956.491898,1149.143247
397.341238,-1332.370696,-9918.759623,459.657299
397.341565,-2294.638420,-10066.800811,0.000000
397.341893,-2738.761985,-10214.842000,-306.438199
397.342220,-2664.741391,-9770.718434,-612.876398
397.342548,-1332.370696,-9104.533087,229.828649
397.342875,-296.082377,-8068.244768,0.000000
397.343203,1406.391290,-8142.265362,1225.752797
397.343531,2738.761985,-7994.224174,1455.581446
397.343858,1924.535449,-8216.285956,1532.190996
397.344186,1628.453072,-9400.615463,1225.752797
397.344513,888.247130,-9770.718434,459.657299
397.344841,-1480.411884,-9770.718434,-766.095498
397.345168,-1998.556043,-10362.883188,-766.095498
397.345496,-1702.473667,-9844.739029,-995.924147
397.345823,-740.205942,-9400.615463,-1149.143247
397.346151,1036.288319,-8364.327145,0.000000
397.346479,2146.597232,-8660.409521,612.876398
397.346806,2960.823768,-8512.368333,919.314598
397.347134,1924.535449,-9030.512492,1072.533697
397.347461,962.267725,-9474.636058,766.095498
397.347789,-370.102971,-10214.842000,153.219100
397.348116,-2146.597232,-10214.842000,-842.705048
397.348444,-2294.638420,-9844.739029,-689.485948
397.348772,-1036.288319,-9400.615463,0.000000
397.349099,518.144159,-8438.347739,842.705048
397.349427,1924.535449,-8364.327145,2145.067394
397.349754,2368.659014,-8290.306550,2681.334243
397.350082,1924.535449,-8512.368333,2528.115143
397.350409,370.102971,-9770.718434,2068.457845
397.350737,-888.247130,-10214.842000,1838.629195
397.351064,-2738.761985,-9696.697840,536.266849
397.351392,-3256.906145,-9992.780217,76.609550
397.351720,-2886.803174,-9474.636058,153.219100
397.352047,-1332.370696,-8660.409521,919.314598
397.352375,0.000000,-7772.162391,1532.190996
397.352702,296.082377,-7772.162391,1762.019645
397.353030,814.226536,-8216.285956,2221.676944
397.353357,-666.185348,-8808.450710,1225.752797
397.353685,-1776.494261,-9918.759623,1072.533697
397.354012,-2368.659014,-10362.883188,383.047749
397.354340,-3997.112087,-9474.636058,-536.266849
397.354668,-3627.009116,-9770.718434,-612.876398
397.354995,-1924.535449,-9104.533087,0.000000
397.355323,-1332.370696,-7772.162391,0.000000
397.355650,888.247130,-8068.244768,919.314598
397.355978,2368.659014,-7846.182985,1378.971896
397.356305,1776.494261,-7846.182985,689.485948
397.356633,1332.370696,-9252.574275,689.485948
397.356960,444.123565,-9622.677246,306.438199
397.357288,-1184.329507,-9474.636058,-995.924147
397.357616,-1184.329507,-10214.842000,-229.828649
397.357943,-1924.535449,-9622.677246,-1608.800546
397.358271,-740.205942,-9178.553681,-842.705048
397.358598,1258.350101,-8660.409521,-536.266849
397.358926,2368.659014,-8734.430116,383.047749
397.359253,3404.947333,-8734.430116,919.314598
397.359581,2294.638420,-8734.430116,689.485948
397.359908,1258.350101,-9474.636058,459.657299
397.360236,148.041188,-10214.842000,-229.828649
397.360564,-1776.494261,-9992.780217,-1072.533697
397.360891,-1628.453072,-9696.697840,-689.485948
397.361219,0.000000,-9252.574275,-689.485948
397.361546,592.164754,-8364.327145,306.438199
397.361874,2146.597232,-8216.285956,1532.190996
397.362201,2886.803174,-8290.306550,2374.896044
397.362529,2516.700203,-8290.306550,2681.334243
397.362857,1036.288319,-9548.656652,1991.848295
397.363184,-888.247130,-10214.842000,1455.581446
397.363512,-2146.597232,-10140.821405,842.705048
397.363839,-2886.803174,-9844.739029,229.828649
397.364167,-2738.761985,-9326.594869,306.438199
397.364494,-740.205942,-8882.471304,1532.190996
397.364822,-518.144159,-7624.121203,1685.410096
397.365149,518.144159,-7920.203579,2451.505594
397.365477,592.164754,-8364.327145,2374.896044
397.365805,-1110.308913,-9178.553681,1302.362347
397.366132,-2072.576638,-10140.821405,1915.238745
397.366460,-2664.741391,-10140.821405,919.314598
397.366787,-4663.297435,-9918.759623,-383.047749
397.367115,-4071.132681,-10288.862594,0.000000
397.367442,-2738.761985,-9474.636058,0.000000
397.367770,-1924.535449,-7402.059420,229.828649
397.368097,370.102971,-7846.182985,1225.752797
397.368425,1036.288319,-8068.244768,1378.971896
397.368753,1184.329507,-7698.141797,1072.533697
397.369080,1258.350101,-8956.491898,919.314598
397.369408,740.205942,-9992.780217,383.047749
397.369735,-888.247130,-9252.574275,-383.047749
397.370063,-1406.391290,-10214.842000,-689.485948
397.370390,-1776.494261,-10140.821405,-995.924147
397.370718,-666.185348,-9622.677246,-459.657299
397.371045,222.061783,-8882.471304,-459.657299
397.371373,2812.782580,-8586.388927,306.438199
397.371701,3552.988522,-8364.327145,919.314598
397.372028,3034.844362,-8734.430116,919.314598
397.372356,2368.659014,-9474.636058,689.485948
397.372683,888.247130,-9622.677246,0.000000
397.373011,-592.164754,-9770.718434,-689.485948
397.373338,-1702.473667,-9474.636058,-919.314598
397.373666,-1184.329507,-9474.636058,-919.314598
397.373994,-222.061783,-8512.368333,0.000000
397.374321,1480.411884,-7920.203579,1072.533697
397.374649,2590.720797,-7846.182985,2068.457845
397.374976,2294.638420,-7920.203579,2528.115143
397.375304,888.247130,-8882.471304,1915.238745
397.375631,-592.164754,-9622.677246,1378.971896
397.375959,-2368.659014,-9844.739029,766.095498
397.376286,-3849.070898,-9548.656652,0.000000
397.376614,-3256.906145,-8808.450710,459.657299
397.376942,-1628.453072,-8660.409521,612.876398
397.377269,-666.185348,-7254.018232,995.924147
397.377597,962.267725,-8068.244768,2145.067394
397.377924,888.247130,-7994.224174,2221.676944
397.378252,0.000000,-8068.244768,2068.457845
397.378579,-1036.288319,-9696.697840,1378.971896
397.378907,-2368.659014,-10436.903782,459.657299
397.379234,-4219.173869,-9844.739029,-306.438199
397.379562,-3701.029710,-10362.883188,-536.266849
397.379890,-3330.926739,-9918.759623,-306.438199
397.380217,-1184.329507,-8660.409521,536.266849
397.380545,296.082377,-8438.347739,766.095498
397.380872,1702.473667,-8290.306550,842.705048
397.381200,1998.556043,-8068.244768,1149.143247
397.381527,1998.556043,-9030.512492,995.924147
397.381855,518.144159,-9696.697840,76.609550
397.382182,-592.164754,-9696.697840,0.000000
397.382510,-1480.411884,-10362.883188,-1072.533697
397.382838,-2294.638420,-10436.903782,-1149.143247
397.383165,-814.226536,-9770.718434,-842.705048
397.383493,444.123565,-8660.409521,-612.876398
397.383820,1776.494261,-8660.409521,459.657299
397.384148,2960.823768,-8660.409521,919.314598
397.384475,2960.823768,-8882.471304,689.485948
397.384803,2220.617826,-9696.697840,766.095498
397.385131,1258.350101,-10288.862594,229.828649
397.385458,-962.267725,-9770.718434,-459.657299
397.385786,-1924.535449,-10510.924376,-995.924147
397.386113,-1480.411884,-9844.739029,-766.095498
397.386441,0.000000,-8882.471304,0.000000
397.386768,1776.494261,-7846.182985,1072.533697
397.387096,3034.844362,-7994.224174,2451.505594
397.387423,3330.926739,-8216.285956,2987.772442
397.387751,1628.453072,-8438.347739,2221.676944
397.388079,0.000000,-9696.697840,1915.238745
397.388406,-1998.556043,-10140.821405,1149.143247
397.388734,-3923.091493,-9178.553681,842.705048
397.389061,-3404.947333,-9400.615463,536.266849
397.389389,-1998.556043,-8512.368333,995.924147
397.389716,-1332.370696,-7105.977043,1149.143247
397.390044,518.144159,-7402.059420,2528.115143
397.390371,1110.308913,-7698.141797,2145.067394
397.390699,-962.267725,-7031.956449,1685.410096
397.391027,-1258.350101,-9178.553681,1378.971896
397.391354,-2590.720797,-9844.739029,536.266849
397.391682,-4367.215058,-9326.594869,-689.485948
397.392009,-3997.112087,-9844.739029,-689.485948
397.392337,-3478.967927,-9548.656652,-306.438199
397.392664,-1998.556043,-8068.244768,76.609550
397.392992,0.000000,-7846.182985,842.705048
397.393319,1258.350101,-7994.224174,1302.362347
397.393647,1776.494261,-8068.244768,1762.019645
397.393975,1628.453072,-9030.512492,689.485948
397.394302,592.164754,-9770.718434,153.219100
397.394630,-148.041188,-9918.759623,-153.219100
397.394957,-962.267725,-10140.821405,-995.924147
397.395285,-1628.453072,-10214.842000,-1532.190996
397.395612,-592.164754,-9252.574275,-1302.362347
397.395940,148.041188,-8364.327145,-919.314598
397.396268,2368.659014,-8364.327145,-383.047749
397.396595,3627.009116,-8660.409521,229.828649
397.396923,3330.926739,-8586.388927,153.219100
397.397250,2812.782580,-9474.636058,0.000000
397.397578,1406.391290,-10732.986159,153.219100
397.397905,-1036.288319,-10288.862594,-919.314598
397.398233,-1850.514855,-10955.047942,-1302.362347
397.398560,-1702.473667,-10436.903782,-1225.752797
397.398888,-666.185348,-9400.615463,306.438199
397.399216,740.205942,-8734.430116,536.266849
397.399543,2368.659014,-8364.327145,1838.629195
397.399871,2812.782580,-8068.244768,2221.676944
397.400198,1554.432478,-8586.388927,1915.238745
397.400526,592.164754,-9770.718434,1915.238745
397.400853,-962.267725,-10214.842000,1225.752797
397.401181,-3182.885551,-9474.636058,0.000000
397.401508,-3034.844362,-9770.718434,76.609550
397.401836,-2368.659014,-8882.471304,459.657299
397.402164,-1110.308913,-7846.182985,1302.362347
397.402491,148.041188,-7772.162391,2528.115143
397.402819,740.205942,-8068.244768,2451.505594
397.403146,0.000000,-8290.306550,2374.896044
397.403474,-888.247130,-9770.718434,1838.629195
397.403801,-2368.659014,-10658.965565,995.924147
397.404129,-2960.823768,-9918.759623,229.828649
397.404456,-3997.112087,-9844.739029,-306.438199
397.404784,-3330.926739,-9474.636058,-383.047749
397.405112,-1628.453072,-8586.388927,459.657299
397.405439,-592.164754,-7698.141797,536.266849
397.405767,1628.453072,-7920.203579,1762.019645
397.406094,1628.453072,-7920.203579,1455.581446
397.406422,740.205942,-8734.430116,1072.533697
397.406749,222.061783,-9918.759623,1149.143247
397.407077,-222.061783,-10214.842000,306.438199
397.407404,-1998.556043,-10140.821405,-612.876398
397.407732,-2072.576638,-10214.842000,-612.876398
397.408060,-1110.308913,-9844.739029,-689.485948
397.408387,-296.082377,-8364.327145,-689.485948
397.408715,1628.453072,-8512.368333,383.047749
397.409042,2516.700203,-8364.327145,689.485948
397.409370,3034.844362,-8364.327145,842.705048
397.409697,2294.638420,-9252.574275,536.266849
397.410025,814.226536,-9918.759623,0.000000
397.410353,-888.247130,-10140.821405,-766.095498
397.410680,-1702.473667,-10288.862594,-919.314598
397.411008,-1702.473667,-9918.759623,-1378.971896
397.411335,-296.082377,-8808.450710,0.000000
397.411663,962.267725,-8438.347739,612.876398
397.411990,2516.700203,-8364.327145,1991.848295
397.412318,3034.844362,-8586.388927,2681.334243
397.412645,2294.638420,-8290.306550,2221.676944
397.412973,1110.308913,-9992.780217,2298.286494
397.413301,-518.144159,-10288.862594,995.924147
397.413628,-2442.679609,-9918.759623,229.828649
397.413956,-2664.741391,-9992.780217,229.828649
397.414283,-2072.576638,-8956.491898,306.438199
397.414611,-518.144159,-8290.306550,1838.629195
397.414938,592.164754,-8068.244768,1762.019645
397.415266,666.185348,-8290.306550,2298.286494
397.415593,370.102971,-8586.388927,2145.067394
397.415921,-1036.288319,-9400.615463,1378.971896
397.416249,-2368.659014,-9844.739029,995.924147
397.416576,-3108.864956,-10214.842000,306.438199
397.416904,-4071.132681,-9770.718434,-612.876398
397.417231,-3849.070898,-9326.594869,-383.047749
397.417559,-1702.473667,-8734.430116,229.828649
397.417886,-1184.329507,-7550.100608,536.266849
397.418214,814.226536,-8142.265362,1072.533697
397.418541,1184.329507,-8438.347739,1532.190996
397.418869,592.164754,-8438.347739,536.266849
397.419197,370.102971,-9844.739029,995.924147
397.419524,0.000000,-9770.718434,76.609550
397.419852,-1406.391290,-9474.636058,-306.438199
397.420179,-1924.535449,-9992.780217,-612.876398
397.420507,-1036.288319,-9844.739029,-1149.143247
397.420834,0.000000,-8586.388927,-766.095498
397.421162,1628.453072,-8364.327145,-153.219100
397.421490,3330.926739,-8512.368333,76.609550
397.421817,3552.988522,-8142.265362,919.314598
397.422145,2738.761985,-8882.471304,459.657299
397.422472,1628.453072,-9622.677246,0.000000
397.422800,444.123565,-10214.842000,-459.657299
397.423127,-1258.350101,-9622.677246,-1072.533697
397.423455,-1554.432478,-9992.780217,-1149.143247
397.423782,-592.164754,-9252.574275,-612.876398
397.424110,518.144159,-8216.285956,153.219100
397.424438,2442.679609,-7772.162391,1378.971896
397.424765,3330.926739,-7772.162391,2528.115143
397.425093,3182.885551,-8438.347739,2451.505594
397.425420,814.226536,-9400.615463,1991.848295
397.425748,-666.185348,-9622.677246,995.924147
397.426075,-2442.679609,-9622.677246,229.828649
397.426403,-2738.761985,-9548.656652,153.219100
397.426730,-2738.761985,-8808.450710,766.095498
397.427058,-1036.288319,-8364.327145,995.924147
397.427386,-740.205942,-7698.141797,1608.800546
397.427713,518.144159,-8068.244768,2451.505594
397.428041,370.102971,-8216.285956,2145.067394
397.428368,-814.226536,-8808.450710,1455.581446
397.428695,-2442.679609,-9918.759623,1225.752797
397.429023,-3330.926739,-9992.780217,383.047749
397.429350,-4959.379811,-9400.615463,-536.266849
397.429678,-4145.153275,-9474.636058,-229.828649
397.430005,-2220.617826,-8586.388927,153.219100
397.430333,-1184.329507,-7105.977043,76.609550
397.430660,1110.308913,-7772.162391,1915.238745
397.430988,1554.432478,-7846.182985,1608.800546
397.431315,1332.370696,-8216.285956,1532.190996
397.431643,962.267725,-9548.656652,1685.410096
397.431970,0.000000,-9992.780217,842.705048
397.432298,-1850.514855,-9696.697840,0.000000
397.432625,-1850.514855,-10436.903782,-306.438199
397.432953,-1628.453072,-10288.862594,-766.095498
397.433280,-370.102971,-8956.491898,76.609550
397.433608,1998.556043,-8438.347739,383.047749
397.433935,2220.617826,-8734.430116,459.657299
397.434263,2738.761985,-8290.306550,689.485948
397.434590,2442.679609,-9326.594869,689.485948
397.434918,888.247130,-9770.718434,0.000000
397.435245,-148.041188,-10066.800811,-536.266849
397.435573,-1702.473667,-9992.780217,-1302.362347
397.435900,-3108.864956,-10362.883188,-1532.190996
397.436227,-1998.556043,-9696.697840,-1072.533697
397.436555,-592.164754,-8586.388927,-229.828649
397.436882,1406.391290,-7846.182985,689.485948
397.437210,2516.700203,-7772.162391,1991.848295
397.437537,2886.803174,-8068.244768,1838.629195
397.437865,1480.411884,-8956.491898,1455.581446
397.438192,0.000000,-9770.718434,919.314598
397.438520,-1480.411884,-9918.759623,536.266849
397.438847,-2886.803174,-9326.594869,383.047749
397.439175,-2146.597232,-9474.636058,0.000000
397.439502,-370.102971,-8586.388927,842.705048
397.439830,148.041188,-7846.182985,1378.971896
397.440157,1850.514855,-8290.306550,2298.286494
397.440485,1850.514855,-8438.347739,2298.286494
397.440812,444.123565,-8882.471304,1608.800546
397.441140,-888.247130,-10066.800811,1378.971896
397.441467,-2146.597232,-10584.944971,612.876398
397.441795,-4071.132681,-10066.800811,-229.828649
397.442122,-3182.885551,-9844.739029,229.828649
397.442450,-2516.700203,-8586.388927,76.609550
397.442777,-1184.329507,-7476.080014,612.876398
397.443105,814.226536,-7846.182985,1762.019645
397.443432,1406.391290,-7772.162391,1838.629195
397.443759,1036.288319,-7624.121203,2145.067394
397.444087,518.144159,-8956.491898,1532.190996
397.444414,-888.247130,-9770.718434,766.095498
397.444742,-2442.679609,-9400.615463,0.000000
397.445069,-2738.761985,-10140.821405,-383.047749
397.445397,-2590.720797,-9548.656652,-1225.752797
397.445724,-1554.432478,-8808.450710,-229.828649
397.446052,222.061783,-8290.306550,0.000000
397.446379,888.247130,-8216.285956,459.657299
397.446707,2368.659014,-7994.224174,919.314598
397.447034,1924.535449,-8734.430116,229.828649
397.447362,814.226536,-9178.553681,-306.438199
397.447689,0.000000,-10066.800811,-383.047749
397.448017,-1258.350101,-9992.780217,-995.924147
397.448344,-2146.597232,-9918.759623,-1149.143247
397.448672,-888.247130,-9770.718434,-612.876398
397.448999,444.123565,-8808.450710,229.828649
397.449327,1924.535449,-8660.409521,995.924147
397.449654,2664.741391,-8734.430116,1838.629195
397.449982,3034.844362,-8586.388927,2221.676944
397.450309,1628.453072,-9400.615463,1608.800546
397.450636,814.226536,-9844.739029,1302.362347
397.450964,-814.226536,-9770.718434,842.705048
397.451291,-2146.597232,-9622.677246,0.000000
397.451619,-2516.700203,-9400.615463,0.000000
397.451946,-1110.308913,-8808.450710,536.266849
397.452274,-592.164754,-7624.121203,995.924147
397.452601,962.267725,-7994.224174,1838.629195
397.452929,1480.411884,-8290.306550,1915.238745
397.453256,74.020594,-8438.347739,1378.971896
397.453584,-962.267725,-9770.718434,1072.533697
397.453911,-2146.597232,-10214.842000,612.876398
397.454239,-3701.029710,-9622.677246,0.000000
397.454566,-3775.050304,-9918.759623,0.000000
397.454894,-2516.700203,-9104.533087,76.609550
397.455221,-1332.370696,-8216.285956,689.485948
397.455549,0.000000,-7772.162391,1532.190996
397.455876,1332.370696,-7846.182985,2374.896044
397.456204,1332.370696,-8438.347739,2221.676944
397.456531,74.020594,-8956.491898,1378.971896
397.456859,-1036.288319,-9918.759623,919.314598
397.457186,-1850.514855,-10362.883188,383.047749
397.457514,-2590.720797,-9696.697840,-536.266849
397.457841,-2516.700203,-9400.615463,-612.876398
397.458168,-1036.288319,-9030.512492,-536.266849
397.458496,-370.102971,-7994.224174,-536.266849
397.458823,1850.514855,-8734.430116,459.657299
397.459151,2442.679609,-8364.327145,306.438199
397.459478,1924.535449,-8512.368333,459.657299
397.459806,1628.453072,-10066.800811,306.438199
397.460133,148.041188,-10584.944971,-229.828649
397.460461,-1850.514855,-9992.780217,-919.314598
397.460788,-1776.494261,-10584.944971,-995.924147
397.461116,-1036.288319,-9474.636058,-1532.190996
397.461443,444.123565,-8808.450710,-383.047749
397.461771,2220.617826,-8438.347739,383.047749
397.462098,3256.906145,-8364.327145,1378.971896
397.462426,3701.029710,-8512.368333,2145.067394
397.462753,2442.679609,-9178.553681,1991.848295
397.463081,888.247130,-9548.656652,1225.752797
397.463408,-444.123565,-10140.821405,306.438199
397.463736,-2220.617826,-9844.739029,0.000000
397.464063,-2368.659014,-9918.759623,0.000000
397.464391,-1258.350101,-9252.574275,536.266849
397.464718,-222.061783,-7846.182985,1149.143247
397.465046,518.144159,-8364.327145,1762.019645
397.465373,740.205942,-8216.285956,1608.800546
397.465700,74.020594,-8290.306550,1532.190996
397.466028,-814.226536,-9622.677246,995.924147
397.466355,-1998.556043,-9622.677246,536.266849
397.466683,-3923.091493,-9400.615463,-229.828649
397.467010,-3923.091493,-9326.594869,0.000000
397.467338,-3256.906145,-9030.512492,153.219100
397.467665,-1332.370696,-8068.244768,995.924147
397.467993,0.000000,-7476.080014,1685.410096
397.468320,1110.308913,-7920.203579,2145.067394
397.468648,1332.370696,-8142.265362,2451.505594
397.468975,296.082377,-8882.471304,1455.581446
397.469303,-962.267725,-9474.636058,1455.581446
397.469630,-1332.370696,-9992.780217,536.266849
397.469958,-2886.803174,-9844.739029,-383.047749
397.470285,-2960.823768,-9770.718434,-459.657299
397.470613,-1406.391290,-9400.615463,0.000000
397.470940,-518.144159,-8216.285956,-229.828649
397.471268,1702.473667,-8586.388927,536.266849
397.471595,2590.720797,-8290.306550,995.924147
397.471923,2368.659014,-8142.265362,612.876398
397.472250,1554.432478,-9770.718434,689.485948
397.472578,222.061783,-10362.883188,0.000000
397.472905,-1776.494261,-9696.697840,-1225.752797
397.473232,-2146.597232,-10362.883188,-612.876398
397.473560,-1480.411884,-9696.697840,-1455.581446
397.473887,-444.123565,-8956.491898,-612.876398
397.474215,1554.432478,-8512.368333,306.438199
397.474542,3034.844362,-8438.347739,1225.752797
397.474870,3701.029710,-8438.347739,1915.238745
397.475197,2664.741391,-9104.533087,1378.971896
397.475525,1184.329507,-9770.718434,1072.533697
397.475852,0.000000,-10066.800811,229.828649
397.476180,-1628.453072,-9918.759623,-689.485948
397.476507,-1924.535449,-9696.697840,-536.266849
397.476835,-1036.288319,-9252.574275,0.000000
397.477162,0.000000,-8364.327145,306.438199
397.477490,1258.350101,-8586.388927,1532.190996
397.477817,1628.453072,-8882.471304,1608.800546
397.478145,1480.411884,-8734.430116,1915.238745
397.478472,0.000000,-9770.718434,1608.800546
397.478800,-1406.391290,-10436.903782,766.095498
397.479127,-3108.864956,-9770.718434,0.000000
397.479455,-3627.009116,-9844.739029,0.000000
397.479782,-3330.926739,-9326.594869,0.000000
397.480110,-1332.370696,-8216.285956,919.314598
397.480437,0.000000,-7550.100608,1378.971896
397.480764,962.267725,-7846.182985,2298.286494
397.481092,1406.391290,-7994.224174,2374.896044
397.481419,148.041188,-8290.306550,1762.019645
397.481747,-592.164754,-9474.636058,1762.019645
397.482074,-1406.391290,-9844.739029,919.314598
397.482402,-3256.906145,-9844.739029,-153.219100
397.482729,-3256.906145,-9844.739029,-306.438199
397.483057,-2368.659014,-9474.636058,0.000000
397.483384,-1480.411884,-7772.162391,153.219100
397.483712,592.164754,-8142.265362,766.095498
397.484039,1406.391290,-8290.306550,1225.752797
397.484367,1480.411884,-7994.224174,1149.143247
397.484694,888.247130,-9400.615463,612.876398
397.485022,74.020594,-10214.842000,0.000000
397.485349,-1702.473667,-9770.718434,-766.095498
397.485677,-2220.617826,-10214.842000,-1225.752797
397.486004,-2294.638420,-10140.821405,-1455.581446
397.486332,-666.185348,-8956.491898,-459.657299
397.486659,1036.288319,-8142.265362,229.828649
397.486987,2664.741391,-8512.368333,1762.019645
397.487314,3849.070898,-8142.265362,1991.848295
397.487641,2738.761985,-8586.388927,1532.190996
397.487969,1776.494261,-9770.718434,1302.362347
397.488296,296.082377,-9918.759623,306.438199
397.488624,-1554.432478,-9696.697840,-689.485948
397.488951,-1998.556043,-9918.759623,0.000000
397.489279,-1110.308913,-9400.615463,-383.047749
397.489606,148.041188,-8142.265362,229.828649
397.489934,1628.453072,-8438.347739,1608.800546
397.490261,1924.535449,-8364.327145,1838.629195
397.490589,2368.659014,-8734.430116,1685.410096
397.490916,444.123565,-9326.594869,995.924147
397.491244,-962.267725,-10140.821405,612.876398
397.491571,-2516.700203,-9844.739029,0.000000
397.491899,-3182.885551,-9844.739029,-383.047749
397.492226,-3404.947333,-8808.450710,-306.438199
397.492554,-1776.494261,-8364.327145,766.095498
397.492881,-740.205942,-7624.121203,995.924147
397.493209,592.164754,-7698.141797,2068.457845
397.493536,1258.350101,-8364.327145,2298.286494
397.493864,0.000000,-8512.368333,1532.190996
397.494191,-962.267725,-9770.718434,1685.410096
397.494519,-1406.391290,-10140.821405,766.095498
397.494846,-3108.864956,-9770.718434,-383.047749
397.495173,-3182.885551,-9770.718434,-153.219100
397.495501,-2442.679609,-9178.553681,153.219100
397.495828,-962.267725,-8142.265362,-306.438199
397.496156,740.205942,-8068.244768,689.485948
397.496483,1406.391290,-8438.347739,1072.533697
397.496811,1702.473667,-8142.265362,919.314598
397.497138,1480.411884,-9474.636058,1302.362347
397.497466,296.082377,-9918.759623,536.266849
397.497793,-888.247130,-10066.800811,-459.657299
397.498121,-1628.453072,-10362.883188,-536.266849
397.498448,-1850.514855,-10066.800811,-612.876398
397.498776,-222.061783,-9326.594869,306.438199
397.499103,1184.329507,-7772.162391,536.266849
397.499431,2664.741391,-8512.368333,1608.800546
397.499758,3330.926739,-8438.347739,2068.457845
397.500086,2516.700203,-8660.409521,1532.190996
397.500413,1480.411884,-9622.677246,1455.581446
397.500741,444.123565,-9770.718434,919.314598
397.501068,-1628.453072,-9696.697840,-383.047749
397.501396,-2220.617826,-9992.780217,-459.657299
397.501723,-1776.494261,-9474.636058,-612.876398
397.502051,-740.205942,-8660.409521,306.438199
397.502378,1036.288319,-8290.306550,1149.143247
397.502705,962.267725,-8290.306550,1225.752797
397.503033,1258.350101,-8956.491898,1532.190996
397.503360,-222.061783,-9326.594869,995.924147
397.503688,-1406.391290,-9992.780217,536.266849
397.504015,-2442.679609,-10066.800811,229.828649
397.504343,-3182.885551,-9178.553681,-229.828649
397.504670,-3256.906145,-9252.574275,0.000000
397.504998,-1776.494261,-8586.388927,383.047749
397.505325,-666.185348,-7328.038826,536.266849
397.505653,1036.288319,-7846.182985,1838.629195
397.505980,1850.514855,-7698.141797,2145.067394
397.506308,1036.288319,-8438.347739,1762.019645
397.506635,222.061783,-9622.677246,1455.581446
397.506963,-370.102971,-10066.800811,766.095498
397.507290,-1998.556043,-9918.759623,229.828649
397.507618,-1998.556043,-9770.718434,306.438199
397.507945,-1628.453072,-9474.636058,536.266849
397.508273,-296.082377,-9104.533087,229.828649
397.508600,740.205942,-8586.388927,383.047749
397.508928,2072.576638,-8512.368333,1072.533697
397.509255,2072.576638,-8364.327145,1608.800546
397.509583,1184.329507,-9178.553681,689.485948
397.509910,0.000000,-9844.739029,383.047749
397.510237,-1036.288319,-10066.800811,-459.657299
397.510565,-2368.659014,-9844.739029,-995.924147
397.510892,-2220.617826,-9548.656652,-612.876398
397.511220,-1036.288319,-9252.574275,-383.047749
397.511547,0.000000,-8364.327145,0.000000
397.511875,1480.411884,-8290.306550,842.705048
397.512202,2220.617826,-8290.306550,1302.362347
397.512530,1998.556043,-8438.347739,1378.971896
397.512857,666.185348,-8956.491898,919.314598
397.513185,-296.082377,-9918.759623,459.657299
397.513512,-1628.453072,-9770.718434,-306.438199
397.513840,-2442.679609,-9844.739029,-689.485948
397.514167,-2220.617826,-9474.636058,-306.438199
397.514495,-888.247130,-8512.368333,0.000000
397.514822,-370.102971,-7994.224174,383.047749
397.515150,1406.391290,-8734.430116,1378.971896
397.515477,1924.535449,-8660.409521,1302.362347
397.515805,1036.288319,-9104.533087,995.924147
397.516132,148.041188,-10140.821405,1072.533697
397.516460,-1036.288319,-10288.862594,153.219100
397.516787,-2516.700203,-9918.759623,0.000000
397.517114,-2664.741391,-9992.780217,76.609550
397.517442,-1628.453072,-9252.574275,306.438199
397.517769,0.000000,-8290.306550,612.876398
397.518097,1258.350101,-7920.203579,1838.629195
397.518424,2220.617826,-8512.368333,2145.067394
397.518752,1998.556043,-8512.368333,2451.505594
397.519079,444.123565,-9104.533087,1532.190996
397.519407,-666.185348,-9474.636058,1072.533697
397.519734,-1554.432478,-9474.636058,536.266849
397.520062,-2812.782580,-9104.533087,-383.047749
397.520389,-2590.720797,-9252.574275,0.000000
397.520717,-1332.370696,-8808.450710,76.609550
397.521044,-296.082377,-7994.224174,536.266849
397.521372,1554.432478,-7846.182985,1302.362347
397.521699,1628.453072,-8512.368333,1455.581446
397.522027,1036.288319,-8956.491898,1149.143247
397.522354,-370.102971,-10214.842000,536.266849
397.522682,-1924.535449,-10584.944971,0.000000
397.523009,-2738.761985,-9696.697840,-306.438199
397.523337,-3256.906145,-9696.697840,-1378.971896
397.523664,-2294.638420,-9178.553681,-612.876398
397.523992,-444.123565,-8068.244768,153.219100
397.524319,1036.288319,-7698.141797,689.485948
397.524646,2516.700203,-7772.162391,1685.410096
397.524974,2738.761985,-7698.141797,1378.971896
397.525301,1480.411884,-8660.409521,919.314598
397.525629,0.000000,-9770.718434,842.705048
397.525956,-1110.308913,-10140.821405,153.219100
397.526284,-2368.659014,-9992.780217,-766.095498
397.526611,-1998.556043,-9844.739029,0.000000
397.526939,-814.226536,-9400.615463,0.000000
397.527266,296.082377,-8364.327145,383.047749
397.527594,1628.453072,-8660.409521,1378.971896
397.527921,2072.576638,-8586.388927,1532.190996
397.528249,1406.391290,-8290.306550,1072.533697
397.528576,666.185348,-9474.636058,612.876398
397.528904,-1184.329507,-10140.821405,0.000000
397.529226,-2664.741391,-9474.636058,-536.266849
397.529554,-2664.741391,-9770.718434,-536.266849
397.529881,-2220.617826,-9474.636058,-459.657299
397.530209,-888.247130,-7772.162391,0.000000
397.530536,740.205942,-8438.347739,1072.533697
397.530864,1332.370696,-8216.285956,1838.629195
397.531191,1702.473667,-8142.265362,1991.848295
397.531519,1258.350101,-9548.656652,2221.676944
397.531847,-148.041188,-10140.821405,766.095498
397.532174,-1850.514855,-9474.636058,153.219100
397.532502,-2516.700203,-10066.800811,-76.609550
397.532829,-3256.906145,-9622.677246,-459.657299
397.533157,-1702.473667,-8956.491898,153.219100
397.533484,74.020594,-7698.141797,459.657299
397.533812,1184.329507,-7920.203579,1225.752797
397.534140,2368.659014,-8290.306550,1532.190996
397.534467,1554.432478,-8660.409521,1072.533697
397.534795,370.102971,-9474.636058,842.705048
397.535122,-592.164754,-9992.780217,0.000000
397.535450,-2738.761985,-10362.883188,-689.485948
397.535777,-3256.906145,-10362.883188,-689.485948
397.536105,-2442.679609,-9622.677246,-536.266849
397.536433,-666.185348,-8734.430116,76.609550
397.536760,1184.329507,-7698.141797,1608.800546
397.537088,2442.679609,-7994.224174,1838.629195
397.537415,2960.823768,-8216.285956,1915.238745
397.537743,1850.514855,-8808.450710,1532.190996
397.538071,444.123565,-9844.739029,995.924147
397.538398,-1406.391290,-10066.800811,536.266849
397.538726,-2368.659014,-10140.821405,-842.705048
397.539053,-2738.761985,-9992.780217,-689.485948
397.539381,-1480.411884,-9474.636058,0.000000
397.539708,-370.102971,-8216.285956,306.438199
397.540036,1702.473667,-8364.327145,1455.581446
397.540364,2590.720797,-8216.285956,1685.410096
397.540691,1554.432478,-8216.285956,1378.971896
397.541019,444.123565,-9474.636058,1225.752797
397.541346,-814.226536,-9992.780217,459.657299
397.541674,-3034.844362,-9696.697840,-536.266849
397.542001,-2368.659014,-9622.677246,-766.095498
397.542329,-2368.659014,-9474.636058,-229.828649
397.542657,-1110.308913,-8142.265362,306.438199
397.542984,666.185348,-7846.182985,1378.971896
397.543312,1480.411884,-7846.182985,1532.190996
397.543639,1850.514855,-7846.182985,1915.238745
397.543967,888.247130,-8660.409521,1302.362347
397.544295,-592.164754,-9918.759623,612.876398
397.544622,-1776.494261,-9770.718434,229.828649
397.544950,-2442.679609,-9918.759623,-383.047749
397.545277,-2960.823768,-9622.677246,-766.095498
397.545605,-1702.473667,-9104.533087,153.219100
397.545932,-370.102971,-8216.285956,76.609550
397.546260,1258.350101,-8216.285956,1225.752797
397.546588,2368.659014,-8142.265362,1455.581446
397.546915,1406.391290,-8216.285956,1072.533697
397.547243,1258.350101,-9844.739029,1685.410096
397.547570,0.000000,-10214.842000,306.438199
397.547898,-2146.597232,-10140.821405,-383.047749
397.548225,-2368.659014,-10288.862594,-459.657299
397.548553,-1702.473667,-9770.718434,-536.266849
397.548881,-148.041188,-8956.491898,153.219100
397.549208,962.267725,-7402.059420,1455.581446
397.549536,2442.679609,-8290.306550,1838.629195
397.549863,2516.700203,-8290.306550,2145.067394
397.550191,1036.288319,-8882.471304,1302.362347
397.550519,0.000000,-9696.697840,766.095498
397.550846,-1110.308913,-10214.842000,842.705048
397.551174,-2738.761985,-10066.800811,-536.266849
397.551501,-2960.823768,-9770.718434,-995.924147
397.551829,-1702.473667,-9252.574275,-383.047749
397.552156,-888.247130,-7846.182985,0.000000
397.552484,1332.370696,-8438.347739,1762.019645
397.552812,1480.411884,-7846.182985,1302.362347
397.553139,740.205942,-8142.265362,842.705048
397.553467,0.000000,-9696.697840,536.266849
397.553794,-1036.288319,-10288.862594,0.000000
397.554122,-2590.720797,-9696.697840,-229.828649
397.554449,-2442.679609,-10362.883188,-766.095498
397.554777,-2220.617826,-9474.636058,-536.266849
397.555105,-666.185348,-8734.430116,229.828649
397.555432,740.205942,-8142.265362,1072.533697
397.555760,2368.659014,-8586.388927,1378.971896
397.556087,2516.700203,-8142.265362,2374.896044
397.556415,1554.432478,-8882.471304,1455.581446
397.556743,370.102971,-9696.697840,1302.362347
397.557070,-296.082377,-10436.903782,612.876398
397.557398,-1998.556043,-9474.636058,0.000000
397.557725,-1850.514855,-9918.759623,76.609550
397.558053,-814.226536,-9622.677246,76.609550
397.558380,-296.082377,-8216.285956,306.438199
397.558708,962.267725,-8438.347739,1532.190996
397.559036,1702.473667,-8290.306550,1532.190996
397.559363,1332.370696,-8364.327145,1302.362347
397.559691,370.102971,-9770.718434,1072.533697
397.560018,-888.247130,-10288.862594,536.266849
397.560346,-2664.741391,-9622.677246,-459.657299
397.560673,-3108.864956,-9844.739029,-612.876398
397.561001,-2664.741391,-9400.615463,-919.314598
397.561329,-1554.432478,-8290.306550,153.219100
397.561656,0.000000,-7476.080014,612.876398
397.561984,1628.453072,-7846.182985,1762.019645
397.562311,1998.556043,-7994.224174,1991.848295
397.562639,888.247130,-8364.327145,1915.238745
397.562967,0.000000,-9474.636058,1455.581446
397.563294,-1110.308913,-9992.780217,306.438199
397.563622,-2368.659014,-9770.718434,-536.266849
397.563949,-2738.761985,-9696.697840,-306.438199
397.564277,-1110.308913,-9474.636058,-306.438199
397.564604,-370.102971,-8142.265362,536.266849
397.564932,1258.350101,-7994.224174,842.705048
397.565260,1406.391290,-8660.409521,919.314598
397.565587,1776.494261,-8586.388927,1302.362347
397.565915,444.123565,-9622.677246,766.095498
397.566242,-814.226536,-9770.718434,153.219100
397.566570,-1406.391290,-9992.780217,-153.219100
397.566897,-2442.679609,-9696.697840,-689.485948
397.567225,-2294.638420,-9548.656652,-383.047749
397.567553,-962.267725,-9030.512492,229.828649
397.567880,0.000000,-8142.265362,919.314598
397.568208,1776.494261,-8290.306550,1532.190996
397.568535,2368.659014,-8290.306550,1838.629195
397.568863,1406.391290,-8512.368333,1149.143247
397.569191,666.185348,-9474.636058,1302.362347
397.569518,222.061783,-9622.677246,536.266849
397.569846,-2072.576638,-8882.471304,0.000000
397.570173,-2220.617826,-9622.677246,-306.438199
397.570501,-1850.514855,-9474.636058,-383.047749
397.570828,-518.144159,-8512.368333,76.609550
397.571156,888.247130,-8068.244768,919.314598
397.571484,1850.514855,-8142.265362,1685.410096
397.571811,1924.535449,-8660.409521,1915.238745
397.572139,666.185348,-9400.615463,919.314598
397.572466,-592.164754,-10214.842000,612.876398
397.572794,-1850.514855,-10140.821405,153.219100
397.573121,-2812.782580,-9844.739029,-306.438199
397.573449,-2516.700203,-9696.697840,-306.438199
397.573777,-1110.308913,-9178.553681,76.609550
397.574104,0.000000,-7698.141797,995.924147
397.574432,1998.556043,-8142.265362,1991.848295
397.574759,2886.803174,-7772.162391,2145.067394
397.575087,1924.535449,-8290.306550,1762.019645
397.575415,518.144159,-9474.636058,1149.143247
397.575742,-814.226536,-10066.800811,842.705048
397.576070,-2368.659014,-9474.636058,0.000000
397.576397,-2590.720797,-9770.718434,0.000000
397.576725,-2072.576638,-9030.512492,-842.705048
397.577052,-518.144159,-8586.388927,536.266849
397.577380,296.082377,-8142.265362,612.876398
397.577708,1184.329507,-8216.285956,1378.971896
397.578035,1406.391290,-8216.285956,1532.190996
397.578363,444.123565,-8808.450710,842.705048
397.578690,-962.267725,-9992.780217,459.657299
397.579018,-1776.494261,-9918.759623,0.000000
397.579345,-2664.741391,-9548.656652,-919.314598
397.579673,-2886.803174,-9474.636058,-842.705048
397.580001,-888.247130,-9030.512492,0.000000
397.580328,-740.205942,-7920.203579,0.000000
397.580656,1554.432478,-8068.244768,1378.971896
397.580983,2368.659014,-8216.285956,1455.581446
397.581311,1924.535449,-8364.327145,1225.752797
397.581639,1184.329507,-9400.615463,1685.410096
397.581966,444.123565,-9992.780217,919.314598
397.582294,-1776.494261,-9770.718434,-306.438199
397.582621,-1998.556043,-10140.821405,-229.828649
397.582949,-1628.453072,-9992.780217,-459.657299
397.583276,-666.185348,-9104.533087,0.000000
397.583604,1332.370696,-8512.368333,689.485948
397.583932,1924.535449,-8660.409521,1072.533697
397.584259,2368.659014,-8438.347739,1685.410096
397.584587,1628.453072,-8882.471304,1149.143247
397.584914,148.041188,-9622.677246,766.095498
397.585242,-962.267725,-9992.780217,76.609550
397.585569,-2516.700203,-9992.780217,-995.924147
397.585897,-3256.906145,-9474.636058,-842.705048
397.586225,-1776.494261,-9326.594869,-383.047749
397.586552,-518.144159,-8290.306550,612.876398
397.586880,1776.494261,-7994.224174,1762.019645
397.587207,2220.617826,-7994.224174,2145.067394
397.587535,2220.617826,-8290.306550,2298.286494
397.587863,518.144159,-9326.594869,1455.581446
397.588190,-888.247130,-10362.883188,919.314598
397.588518,-2368.659014,-10140.821405,0.000000
397.588845,-3108.864956,-9992.780217,0.000000
397.589173,-2812.782580,-9696.697840,-153.219100
397.589500,-962.267725,-8808.450710,536.266849
397.589828,0.000000,-8216.285956,536.266849
397.590156,1332.370696,-7920.203579,1685.410096
397.590483,2590.720797,-8216.285956,2068.457845
397.590811,888.247130,-8586.388927,766.095498
397.591138,-222.061783,-9696.697840,689.485948
397.591466,-1332.370696,-10214.842000,0.000000
397.591793,-2812.782580,-9770.718434,-995.924147
397.592121,-2590.720797,-9992.780217,-536.266849
397.592449,-1554.432478,-9474.636058,0.000000
397.592776,-740.205942,-8290.306550,229.828649
397.593104,1184.329507,-8512.368333,1532.190996
