#time,accel_x,accel_y,accel_z
528.603960,-296.082377,-9178.553681,383.047749
528.604288,-148.041188,-9104.533087,383.047749
528.604616,-148.041188,-9104.533087,842.705048
528.604943,-370.102971,-9252.574275,536.266849
528.605271,-296.082377,-9178.553681,459.657299
528.605599,-370.102971,-9030.512492,383.047749
528.605926,-222.061783,-9104.533087,536.266849
528.606254,0.000000,-9104.533087,153.219100
528.606582,0.000000,-9030.512492,995.924147
528.606910,-444.123565,-9030.512492,689.485948
528.607237,-296.082377,-9104.533087,689.485948
528.607565,-370.102971,-9252.574275,459.657299
528.607893,-148.041188,-9104.533087,612.876398
528.608221,-296.082377,-8364.327145,536.266849
528.608548,0.000000,-9178.553681,766.095498
528.608876,-296.082377,-9178.553681,459.657299
528.609204,-370.102971,-9030.512492,383.047749
528.609531,-370.102971,-9104.533087,459.657299
528.609859,-592.164754,-8438.347739,1149.143247
528.610187,-222.061783,-9178.553681,306.438199
528.610515,-222.061783,-9104.533087,612.876398
528.610842,-222.061783,-9104.533087,612.876398
528.611170,-296.082377,-9030.512492,536.266849
528.611498,-444.123565,-9104.533087,536.266849
528.611826,-222.061783,-9326.594869,919.314598
528.612153,-222.061783,-8956.491898,383.047749
528.612481,0.000000,-9326.594869,383.047749
528.612809,0.000000,-9474.636058,536.266849
528.613136,-222.061783,-9252.574275,536.266849
528.613464,0.000000,-9030.512492,1072.533697
528.613792,-296.082377,-9104.533087,536.266849
528.614120,-370.102971,-9252.574275,689.485948
528.614447,-814.226536,-9326.594869,0.000000
528.614775,-1332.370696,-9474.636058,-153.219100
528.615103,-1554.432478,-9104.533087,0.000000
528.615430,-518.144159,-8882.471304,-383.047749
528.615758,-592.164754,-8956.491898,-383.047749
528.616086,-592.164754,-9104.533087,-612.876398
528.616414,-888.247130,-9178.553681,-689.485948
528.616741,-1258.350101,-8734.430116,-689.485948
528.617069,-1110.308913,-9400.615463,-995.924147
528.617397,-1036.288319,-9030.512492,-1302.362347
528.617725,-888.247130,-9400.615463,-1378.971896
528.618052,-592.164754,-9326.594869,-1378.971896
528.618380,0.000000,-9178.553681,-995.924147
528.618708,148.041188,-9326.594869,-1302.362347
528.619035,0.000000,-9030.512492,-1532.190996
528.619363,0.000000,-9252.574275,-1608.800546
528.619691,-148.041188,-9326.594869,-1762.019645
528.620019,74.020594,-9252.574275,-1915.238745
528.620346,370.102971,-9030.512492,-2145.067394
528.620674,296.082377,-9104.533087,-1838.629195
528.621002,444.123565,-9474.636058,-1608.800546
528.621330,518.144159,-9104.533087,-1378.971896
528.621657,444.123565,-9030.512492,-1685.410096
528.621985,222.061783,-9104.533087,-1532.190996
528.622313,222.061783,-9252.574275,-2068.457845
528.622640,0.000000,-9252.574275,-1838.629195
528.622968,222.061783,-9178.553681,-1838.629195
528.623296,0.000000,-9178.553681,-1838.629195
528.623624,0.000000,-8882.471304,-1685.410096
528.623951,0.000000,-9178.553681,-2145.067394
528.624279,-592.164754,-9104.533087,-1838.629195
528.624607,-592.164754,-9252.574275,-2221.676944
528.624935,-888.247130,-9030.512492,-2298.286494
528.625262,-1332.370696,-9252.574275,-2911.162892
528.625590,-1554.432478,-8956.491898,-3217.601092
528.625918,-1924.535449,-9104.533087,-2834.553343
528.626245,-2146.597232,-8956.491898,-3064.381992
528.626573,-1998.556043,-8956.491898,-3370.820191
528.626901,-1998.556043,-9030.512492,-3600.648841
528.627229,-1258.350101,-9030.512492,-3600.648841
528.627556,-1702.473667,-8734.430116,-4136.915689
528.627884,-1628.453072,-9030.512492,-3753.867940
528.628212,-1332.370696,-8808.450710,-4136.915689
528.628539,-962.267725,-9104.533087,-3907.087040
528.628867,-518.144159,-9104.533087,-3600.648841
528.629195,0.000000,-9104.533087,-3447.429741
528.629523,1110.308913,-8956.491898,-2834.553343
528.629850,1776.494261,-8808.450710,-2681.334243
528.630178,1924.535449,-8956.491898,-2145.067394
528.630506,2590.720797,-9474.636058,-2221.676944
528.630834,2220.617826,-9622.677246,-2145.067394
528.631161,1332.370696,-9992.780217,-2374.896044
528.631489,222.061783,-10214.842000,-2528.115143
528.631817,-888.247130,-10584.944971,-3217.601092
528.632144,-1924.535449,-10510.924376,-3830.477490
528.632472,-2072.576638,-9918.759623,-4290.134789
528.632800,-1702.473667,-9104.533087,-4673.182538
528.633128,-1184.329507,-8660.409521,-4749.792088
528.633455,296.082377,-7846.182985,-4366.744339
528.633783,1924.535449,-7328.038826,-3524.039291
528.634111,2664.741391,-7031.956449,-2834.553343
528.634439,2738.761985,-7179.997637,-2145.067394
528.634766,1480.411884,-8364.327145,-1685.410096
528.635094,-296.082377,-9696.697840,-2068.457845
528.635422,-2368.659014,-10658.965565,-1991.848295
528.635749,-3701.029710,-10732.986159,-2145.067394
528.636077,-3997.112087,-10955.047942,-2834.553343
528.636405,-2886.803174,-10362.883188,-2757.943793
528.636733,-888.247130,-9178.553681,-2298.286494
528.637060,2294.638420,-7698.141797,-1302.362347
528.637388,6587.832884,-5551.544565,383.047749
528.637716,10140.821405,-4293.194464,3294.210641
528.638043,11325.150913,-5625.565159,4519.963438
528.638371,7994.224174,-8216.285956,4366.744339
528.638699,1332.370696,-11843.295072,3524.039291
528.639027,-5329.482782,-13841.851115,1838.629195
528.639354,-9474.636058,-15100.201217,-306.438199
528.639682,-12139.377449,-14434.015869,-1608.800546
528.640010,-9992.780217,-12509.480420,-2145.067394
528.640338,-7179.997637,-10288.862594,-2068.457845
528.640665,-1036.288319,-7105.977043,-306.438199
528.640993,-1332.370696,-5033.400406,-1991.848295
528.641321,-740.205942,-4293.194464,-2757.943793
528.641648,-5181.441594,-6143.709319,-5592.497135
528.641976,-9400.615463,-7550.100608,-7814.174080
528.642304,-13989.892304,-8882.471304,-10572.117872
528.642632,-13397.727550,-8734.430116,-10801.946522
528.642959,-10140.821405,-7624.121203,-9806.022374
528.643287,-5403.503377,-7105.977043,-7890.783629
528.643615,1924.535449,-6661.853478,-5132.839837
528.643943,4071.132681,-7031.956449,-5132.839837
528.644270,6069.688724,-8364.327145,-4366.744339
528.644598,3627.009116,-10658.965565,-6052.154434
528.644926,2886.803174,-11103.089130,-6588.421283
528.645253,4071.132681,-10807.006753,-6894.859482
528.645581,8290.306550,-10807.006753,-4903.011187
528.645909,11769.274478,-9622.677246,-2681.334243
528.646237,12805.562797,-10066.800811,-1915.238745
528.646564,12879.583391,-10436.903782,-536.266849
528.646892,11843.295072,-9474.636058,-1608.800546
528.647220,12361.439231,-9548.656652,-1225.752797
528.647548,13175.665768,-10881.027347,-612.876398
528.647875,9474.636058,-10807.006753,-2911.162892
528.648203,2368.659014,-13841.851115,-2604.724693
528.648531,-4663.297435,-13471.748144,-5439.278036
528.648858,-11769.274478,-13989.892304,-7431.126331
528.649186,-8734.430116,-9252.574275,-7507.735880
528.649514,-2738.761985,-5107.421000,-5898.935335
528.649842,1628.453072,-2812.782580,-3294.210641
528.650169,4219.173869,-2220.617826,-2298.286494
528.650497,1702.473667,-2738.761985,-995.924147
528.650825,-1776.494261,-3627.009116,-919.314598
528.651152,-3404.947333,-4737.318029,-842.705048
528.651480,-5921.647536,-6735.874072,-1378.971896
528.651808,-5773.606348,-8216.285956,-919.314598
528.652136,-5403.503377,-9548.656652,1685.410096
528.652463,-5625.565159,-10214.842000,3294.210641
528.652791,-4219.173869,-9104.533087,4443.353888
528.653119,-1480.411884,-7550.100608,3983.696590
528.653447,-518.144159,-8734.430116,2911.162892
528.653774,-2960.823768,-11251.130318,842.705048
528.654102,-5625.565159,-11843.295072,-1225.752797
528.654430,-6217.729913,-11177.109724,-1532.190996
528.654757,-3849.070898,-9252.574275,-536.266849
528.655085,-814.226536,-8142.265362,766.095498
528.655413,962.267725,-8586.388927,766.095498
528.655741,296.082377,-9178.553681,766.095498
528.656068,-2220.617826,-9474.636058,1072.533697
528.656396,-3701.029710,-9252.574275,919.314598
528.656724,-3478.967927,-9474.636058,612.876398
528.657052,-2812.782580,-11473.192101,0.000000
528.657379,-3256.906145,-12435.459826,-842.705048
528.657707,-3701.029710,-11177.109724,-1991.848295
528.658035,-2664.741391,-8660.409521,-383.047749
528.658362,592.164754,-5107.421000,-1149.143247
528.658690,1628.453072,-5921.647536,-612.876398
528.659018,2220.617826,-6883.915261,-2911.162892
528.659346,4145.153275,-7550.100608,-3677.258390
528.659673,5033.400406,-7179.997637,-2757.943793
528.660001,5847.626942,-7698.141797,-2221.676944
528.660329,4219.173869,-10436.903782,-1762.019645
528.660656,3182.885551,-14211.954086,-1455.581446
528.660984,2516.700203,-14656.077652,-1915.238745
528.661312,1628.453072,-13545.768739,-1991.848295
528.661640,1776.494261,-12509.480420,-1532.190996
528.661967,296.082377,-11917.315666,-1762.019645
528.662295,0.000000,-11695.253884,-1762.019645
528.662623,1924.535449,-10436.903782,-995.924147
528.662951,1924.535449,-8734.430116,-1225.752797
528.663278,1776.494261,-9030.512492,-1378.971896
528.663606,-1036.288319,-7920.203579,-2451.505594
528.663934,-2442.679609,-7624.121203,-3677.258390
528.664262,-2146.597232,-7328.038826,-3370.820191
528.664589,-962.267725,-6217.729913,-2528.115143
528.664917,-888.247130,-5477.523971,-2451.505594
528.665245,74.020594,-5477.523971,0.000000
528.665573,962.267725,-5847.626942,1072.533697
528.665900,740.205942,-7031.956449,1608.800546
528.666228,0.000000,-8808.450710,1378.971896
528.666556,-1850.514855,-10214.842000,689.485948
528.666884,-2220.617826,-10807.006753,536.266849
528.667211,-3034.844362,-9770.718434,842.705048
528.667539,-2146.597232,-8364.327145,1225.752797
528.667867,-814.226536,-8142.265362,1149.143247
528.668195,444.123565,-8142.265362,1991.848295
528.668522,1480.411884,-8290.306550,2451.505594
528.668850,74.020594,-8660.409521,2298.286494
528.669178,-1480.411884,-9548.656652,689.485948
528.669506,-2886.803174,-10584.944971,0.000000
528.669833,-3701.029710,-10658.965565,-842.705048
528.670161,-3108.864956,-9400.615463,-919.314598
528.670489,-1924.535449,-8142.265362,306.438199
528.670817,-1924.535449,-7179.997637,0.000000
528.671144,-814.226536,-6513.812290,459.657299
528.671472,1036.288319,-6883.915261,1378.971896
528.671800,592.164754,-6661.853478,1302.362347
528.672128,-592.164754,-7402.059420,536.266849
528.672455,-1924.535449,-8290.306550,536.266849
528.672783,-1998.556043,-8290.306550,536.266849
528.673111,0.000000,-8660.409521,1072.533697
528.673439,1776.494261,-8660.409521,1455.581446
528.673766,3182.885551,-9178.553681,1225.752797
528.674094,4071.132681,-9326.594869,2528.115143
528.674422,3478.967927,-9474.636058,2911.162892
528.674750,2220.617826,-11029.068536,2604.724693
528.675077,74.020594,-12657.521608,2145.067394
528.675405,-1924.535449,-12879.583391,306.438199
528.675733,-1850.514855,-12435.459826,536.266849
528.676061,-370.102971,-10732.986159,306.438199
528.676388,-666.185348,-10584.944971,459.657299
528.676716,-740.205942,-10140.821405,842.705048
528.677044,0.000000,-9178.553681,1455.581446
528.677372,-222.061783,-7994.224174,1225.752797
528.677699,-1258.350101,-7994.224174,1072.533697
528.678027,-3478.967927,-9104.533087,229.828649
528.678355,-4293.194464,-9918.759623,-459.657299
528.678683,-4219.173869,-9770.718434,-153.219100
528.679010,-2442.679609,-8216.285956,383.047749
528.679338,-1036.288319,-7550.100608,919.314598
528.679666,370.102971,-7254.018232,1608.800546
528.679994,1110.308913,-7254.018232,1608.800546
528.680321,1332.370696,-7772.162391,1455.581446
528.680649,518.144159,-8660.409521,1532.190996
528.680977,-1776.494261,-9844.739029,0.000000
528.681305,-2368.659014,-11547.212695,-536.266849
528.681632,-2368.659014,-11621.233289,-766.095498
528.681960,-740.205942,-11325.150913,0.000000
528.682288,962.267725,-10436.903782,536.266849
528.682616,1776.494261,-9844.739029,306.438199
528.682943,2590.720797,-9548.656652,1149.143247
528.683271,2812.782580,-9696.697840,919.314598
528.683599,1776.494261,-9696.697840,383.047749
528.683927,-444.123565,-10584.944971,-229.828649
528.684254,-1850.514855,-10584.944971,-459.657299
528.684582,-1036.288319,-9696.697840,-536.266849
528.684910,222.061783,-8438.347739,306.438199
528.685238,888.247130,-7031.956449,612.876398
528.685565,2220.617826,-7105.977043,919.314598
528.685893,3182.885551,-6291.750507,1225.752797
528.686221,2368.659014,-5995.668130,536.266849
528.686549,666.185348,-7105.977043,153.219100
528.686876,-1110.308913,-8586.388927,-229.828649
528.687204,-2442.679609,-9326.594869,-919.314598
528.687532,-1332.370696,-9252.574275,-995.924147
528.687860,-814.226536,-8512.368333,153.219100
528.688187,-370.102971,-8956.491898,-153.219100
528.688515,0.000000,-8956.491898,76.609550
528.688843,814.226536,-7994.224174,612.876398
528.689171,962.267725,-8660.409521,0.000000
528.689498,-148.041188,-8512.368333,229.828649
528.689826,-1258.350101,-9770.718434,-536.266849
528.690154,-1850.514855,-10214.842000,-536.266849
528.690482,-1332.370696,-9770.718434,153.219100
528.690809,-222.061783,-9104.533087,1378.971896
528.691137,-148.041188,-8660.409521,1685.410096
528.691465,592.164754,-8512.368333,2145.067394
528.691793,1036.288319,-7698.141797,2374.896044
528.692120,962.267725,-7476.080014,2298.286494
528.692448,0.000000,-8142.265362,1838.629195
528.692776,-1850.514855,-8882.471304,1378.971896
528.693104,-1110.308913,-9104.533087,919.314598
528.693431,-740.205942,-9252.574275,995.924147
528.693759,-962.267725,-9104.533087,1225.752797
528.694087,-222.061783,-8290.306550,1225.752797
528.694415,444.123565,-8142.265362,1532.190996
528.694742,1406.391290,-7624.121203,1532.190996
528.695070,962.267725,-7920.203579,1072.533697
528.695398,-888.247130,-9918.759623,842.705048
528.695726,-2738.761985,-11177.109724,153.219100
528.696053,-3775.050304,-11177.109724,76.609550
528.696381,-3034.844362,-11029.068536,459.657299
528.696709,-2960.823768,-10510.924376,306.438199
528.697037,-2442.679609,-10732.986159,612.876398
528.697364,-888.247130,-9548.656652,995.924147
528.697692,74.020594,-7920.203579,919.314598
528.698020,592.164754,-7698.141797,1302.362347
528.698348,-888.247130,-8142.265362,0.000000
528.698675,-1776.494261,-9474.636058,-842.705048
528.699003,-1554.432478,-9252.574275,-536.266849
528.699331,-740.205942,-8956.491898,0.000000
528.699659,-222.061783,-8438.347739,536.266849
528.699986,814.226536,-8882.471304,766.095498
528.700314,2220.617826,-9326.594869,1455.581446
528.700642,2886.803174,-8956.491898,1915.238745
528.700970,2442.679609,-9696.697840,2068.457845
528.701297,666.185348,-10658.965565,1302.362347
528.701625,-592.164754,-11251.130318,612.876398
528.701953,-592.164754,-11547.212695,153.219100
528.702281,-296.082377,-10955.047942,229.828649
528.702608,0.000000,-10140.821405,76.609550
528.702936,1332.370696,-9400.615463,306.438199
528.703264,2146.597232,-8512.368333,536.266849
528.703592,2368.659014,-7920.203579,842.705048
528.703919,888.247130,-8734.430116,383.047749
528.704247,-1036.288319,-9622.677246,-612.876398
528.704575,-2072.576638,-9844.739029,-995.924147
528.704903,-2294.638420,-10066.800811,229.828649
528.705230,-1924.535449,-9622.677246,0.000000
528.705558,-1184.329507,-9030.512492,612.876398
528.705886,74.020594,-8364.327145,919.314598
528.706214,1480.411884,-7402.059420,1455.581446
528.706541,1554.432478,-6809.894666,1685.410096
528.706869,0.000000,-7994.224174,689.485948
528.707197,-2368.659014,-8808.450710,-689.485948
528.707525,-2294.638420,-9400.615463,-919.314598
528.707852,-1776.494261,-9326.594869,-306.438199
528.708180,-148.041188,-8808.450710,766.095498
528.708508,740.205942,-8882.471304,536.266849
528.708836,1924.535449,-9030.512492,1378.971896
528.709163,1998.556043,-8882.471304,1685.410096
528.709491,1036.288319,-8882.471304,1455.581446
528.709819,-592.164754,-9474.636058,1149.143247
528.710147,-2368.659014,-10881.027347,229.828649
528.710474,-2442.679609,-10584.944971,-383.047749
528.710802,-2072.576638,-9992.780217,76.609550
528.711130,-518.144159,-8882.471304,766.095498
528.711458,296.082377,-7994.224174,1685.410096
528.711785,1776.494261,-7179.997637,1302.362347
528.712113,1628.453072,-6883.915261,1762.019645
528.712441,592.164754,-7624.121203,1302.362347
528.712769,-1998.556043,-8216.285956,153.219100
528.713096,-3627.009116,-8882.471304,-766.095498
528.713424,-3330.926739,-9696.697840,-536.266849
528.713752,-2590.720797,-9474.636058,76.609550
528.714080,-888.247130,-9252.574275,536.266849
528.714407,0.000000,-8734.430116,842.705048
528.714735,1184.329507,-8142.265362,995.924147
528.715063,1628.453072,-7476.080014,1302.362347
528.715391,1776.494261,-8586.388927,383.047749
528.715718,-148.041188,-9548.656652,-459.657299
528.716046,-1554.432478,-10584.944971,-612.876398
528.716374,-1036.288319,-10881.027347,0.000000
528.716702,-962.267725,-10807.006753,766.095498
528.717029,888.247130,-10214.842000,1608.800546
528.717357,1702.473667,-9622.677246,1762.019645
528.717685,3034.844362,-9178.553681,2221.676944
528.718013,2664.741391,-8882.471304,2298.286494
528.718340,1332.370696,-9030.512492,1762.019645
528.718668,-1184.329507,-9474.636058,689.485948
528.718996,-2294.638420,-9696.697840,0.000000
528.719324,-2368.659014,-9622.677246,0.000000
528.719651,-1628.453072,-9474.636058,153.219100
528.719979,-1258.350101,-8734.430116,153.219100
528.720307,-962.267725,-7402.059420,0.000000
528.720635,148.041188,-7105.977043,459.657299
528.720962,296.082377,-7179.997637,459.657299
528.721290,0.000000,-7994.224174,-153.219100
528.721618,-1998.556043,-9030.512492,-689.485948
528.721946,-2516.700203,-10214.842000,-612.876398
528.722273,-2664.741391,-9844.739029,-229.828649
528.722601,-2146.597232,-10288.862594,229.828649
528.722929,-1332.370696,-10140.821405,766.095498
528.723257,-444.123565,-9548.656652,995.924147
528.723584,1184.329507,-8438.347739,1991.848295
528.723912,1628.453072,-7846.182985,1915.238745
528.724240,1554.432478,-7846.182985,689.485948
528.724568,0.000000,-9252.574275,229.828649
528.724895,-962.267725,-9992.780217,-153.219100
528.725223,-740.205942,-9770.718434,0.000000
528.725551,-518.144159,-8734.430116,229.828649
528.725879,0.000000,-9030.512492,0.000000
528.726206,666.185348,-8586.388927,459.657299
528.726534,2442.679609,-7624.121203,1149.143247
528.726862,2812.782580,-7328.038826,1225.752797
528.727190,1850.514855,-8216.285956,995.924147
528.727517,0.000000,-9474.636058,383.047749
528.727845,-1110.308913,-10807.006753,383.047749
528.728173,-1776.494261,-10732.986159,459.657299
528.728501,-1332.370696,-10584.944971,995.924147
528.728828,-518.144159,-9474.636058,1685.410096
528.729156,1110.308913,-8808.450710,2068.457845
528.729484,2220.617826,-8216.285956,2374.896044
528.729812,1776.494261,-8216.285956,2298.286494
528.730139,-296.082377,-9326.594869,1302.362347
528.730467,-2220.617826,-10584.944971,1149.143247
528.730795,-3404.947333,-10584.944971,-383.047749
528.731123,-3849.070898,-11177.109724,0.000000
528.731450,-3034.844362,-10510.924376,0.000000
528.731778,-2368.659014,-9622.677246,-229.828649
528.732106,-1184.329507,-8512.368333,0.000000
528.732434,444.123565,-7476.080014,459.657299
528.732761,0.000000,-7476.080014,229.828649
528.733089,-1850.514855,-7846.182985,-766.095498
528.733417,-3108.864956,-8586.388927,-1378.971896
528.733745,-2960.823768,-9104.533087,-1608.800546
528.734072,-1480.411884,-8660.409521,-766.095498
528.734400,74.020594,-8364.327145,536.266849
528.734728,1776.494261,-8068.244768,1302.362347
528.735056,3627.009116,-7254.018232,2221.676944
528.735383,4441.235652,-7402.059420,3064.381992
528.735711,3182.885551,-8068.244768,2757.943793
528.736039,1036.288319,-9104.533087,1455.581446
528.736367,-592.164754,-10436.903782,842.705048
528.736694,-1332.370696,-10584.944971,229.828649
528.737022,-592.164754,-10658.965565,689.485948
528.737350,444.123565,-10214.842000,1072.533697
528.737678,740.205942,-9178.553681,766.095498
528.738005,2072.576638,-8142.265362,842.705048
528.738333,1628.453072,-7772.162391,1072.533697
528.738661,296.082377,-7550.100608,0.000000
528.738989,-2220.617826,-8586.388927,-1302.362347
528.739316,-4071.132681,-9178.553681,-1225.752797
528.739644,-4219.173869,-9474.636058,-1302.362347
528.739972,-2664.741391,-8290.306550,-766.095498
528.740300,-962.267725,-7624.121203,383.047749
528.740627,74.020594,-7105.977043,1149.143247
528.740955,444.123565,-6883.915261,2145.067394
528.741283,1850.514855,-6883.915261,1915.238745
528.741611,-296.082377,-6883.915261,536.266849
528.741938,-2146.597232,-8438.347739,0.000000
528.742266,-2738.761985,-10140.821405,-612.876398
528.742594,-2590.720797,-10658.965565,0.000000
528.742922,0.000000,-9696.697840,995.924147
528.743249,-592.164754,-9030.512492,153.219100
528.743577,1776.494261,-10807.006753,1225.752797
528.743905,1998.556043,-9104.533087,612.876398
528.744233,2220.617826,-9252.574275,229.828649
528.744560,1406.391290,-9992.780217,-229.828649
528.744888,-814.226536,-11473.192101,-842.705048
528.745216,-1924.535449,-11991.336260,-689.485948
528.745544,-1406.391290,-11695.253884,-459.657299
528.745872,370.102971,-10658.965565,766.095498
528.746199,1258.350101,-10436.903782,2145.067394
528.746527,2368.659014,-9548.656652,1915.238745
528.746855,2664.741391,-9326.594869,2528.115143
528.747183,2072.576638,-8808.450710,2757.943793
528.747510,814.226536,-9178.553681,1991.848295
528.747838,-592.164754,-10066.800811,995.924147
528.748166,-1332.370696,-10288.862594,1072.533697
528.748494,-1628.453072,-10436.903782,995.924147
528.748821,-1776.494261,-10214.842000,1302.362347
528.749149,-1850.514855,-9622.677246,842.705048
528.749477,-740.205942,-9104.533087,1225.752797
528.749805,148.041188,-8512.368333,766.095498
528.750132,0.000000,-8660.409521,306.438199
528.750460,-1998.556043,-9252.574275,-229.828649
528.750788,-3627.009116,-10140.821405,-1149.143247
528.751116,-3923.091493,-10955.047942,-919.314598
528.751443,-2590.720797,-10362.883188,-306.438199
528.751771,-1998.556043,-9844.739029,153.219100
528.752099,-740.205942,-9400.615463,612.876398
528.752427,1184.329507,-8364.327145,1378.971896
528.752754,2072.576638,-7402.059420,1838.629195
528.753082,2368.659014,-7031.956449,1915.238745
528.753410,1480.411884,-7624.121203,1838.629195
528.753738,370.102971,-8808.450710,1225.752797
528.754065,0.000000,-8808.450710,1149.143247
528.754393,-296.082377,-8438.347739,1225.752797
528.754721,370.102971,-8364.327145,689.485948
528.755049,0.000000,-7624.121203,1072.533697
528.755376,888.247130,-7402.059420,1072.533697
528.755704,1628.453072,-6661.853478,612.876398
528.756032,814.226536,-7179.997637,-153.219100
528.756360,-1332.370696,-8216.285956,-1455.581446
528.756687,-3108.864956,-9104.533087,-1532.190996
528.757015,-2738.761985,-9252.574275,-1685.410096
528.757343,-1776.494261,-8586.388927,-1532.190996
528.757671,0.000000,-8068.244768,-153.219100
528.757998,592.164754,-7772.162391,153.219100
528.758326,1628.453072,-7624.121203,1225.752797
528.758654,1554.432478,-7105.977043,1225.752797
528.758982,666.185348,-8068.244768,1149.143247
528.759309,-1258.350101,-9252.574275,612.876398
528.759637,-1998.556043,-9992.780217,229.828649
528.759965,-1480.411884,-9770.718434,383.047749
528.760293,0.000000,-9104.533087,1072.533697
528.760620,592.164754,-8586.388927,919.314598
528.760948,1332.370696,-8512.368333,1225.752797
528.761276,1924.535449,-7772.162391,919.314598
528.761603,1998.556043,-7254.018232,842.705048
528.761931,518.144159,-7920.203579,-153.219100
528.762259,-1998.556043,-9400.615463,-1149.143247
528.762586,-2442.679609,-10955.047942,-1225.752797
528.762914,-2072.576638,-10955.047942,-919.314598
528.763241,-814.226536,-10807.006753,76.609550
528.763569,740.205942,-10214.842000,1072.533697
528.763896,1258.350101,-10214.842000,1455.581446
528.764224,1850.514855,-9992.780217,2145.067394
528.764552,1924.535449,-9548.656652,2528.115143
528.764879,666.185348,-9992.780217,1762.019645
528.765207,0.000000,-10881.027347,1149.143247
528.765534,-1036.288319,-11473.192101,1685.410096
528.765862,-1702.473667,-11177.109724,1608.800546
528.766190,-1332.370696,-10881.027347,1532.190996
528.766517,-1258.350101,-10288.862594,1455.581446
528.766845,-148.041188,-9326.594869,1608.800546
528.767172,1036.288319,-8216.285956,1225.752797
528.767500,666.185348,-8216.285956,995.924147
528.767827,-740.205942,-8808.450710,229.828649
528.768155,-2442.679609,-9474.636058,-689.485948
528.768483,-3182.885551,-9474.636058,-995.924147
528.768810,-3330.926739,-9252.574275,-689.485948
528.769138,-2590.720797,-9548.656652,-306.438199
528.769465,-2294.638420,-9622.677246,306.438199
528.769793,-1258.350101,-9104.533087,1072.533697
528.770121,222.061783,-8216.285956,1915.238745
528.770448,1036.288319,-7550.100608,2451.505594
528.770776,74.020594,-8808.450710,1378.971896
528.771103,-740.205942,-9770.718434,919.314598
528.771431,-592.164754,-9548.656652,536.266849
528.771758,-222.061783,-9104.533087,842.705048
528.772086,222.061783,-8512.368333,1532.190996
528.772414,740.205942,-8586.388927,612.876398
528.772741,1480.411884,-7772.162391,995.924147
528.773069,2220.617826,-6957.935855,842.705048
528.773396,1554.432478,-7105.977043,612.876398
528.773724,-222.061783,-8216.285956,-306.438199
528.774052,-1480.411884,-9178.553681,-766.095498
528.774379,-2590.720797,-9326.594869,-1762.019645
528.774707,-2072.576638,-9622.677246,-842.705048
528.775034,-962.267725,-9104.533087,-919.314598
528.775362,-814.226536,-8882.471304,-306.438199
528.775689,1258.350101,-7846.182985,383.047749
528.776017,2072.576638,-7105.977043,612.876398
528.776345,2590.720797,-7105.977043,689.485948
528.776672,1554.432478,-7772.162391,153.219100
528.777000,222.061783,-8734.430116,-229.828649
528.777327,74.020594,-9474.636058,-306.438199
528.777655,148.041188,-9474.636058,612.876398
528.777983,592.164754,-9474.636058,995.924147
528.778310,1184.329507,-9326.594869,1225.752797
528.778638,1924.535449,-8660.409521,1302.362347
528.778965,1924.535449,-8364.327145,1608.800546
528.779293,518.144159,-8734.430116,1072.533697
528.779620,-1776.494261,-9918.759623,-536.266849
528.779948,-2516.700203,-10362.883188,-842.705048
528.780276,-2664.741391,-9844.739029,-1225.752797
528.780603,-1332.370696,-9474.636058,-612.876398
528.780931,-296.082377,-8734.430116,76.609550
528.781258,888.247130,-8364.327145,766.095498
528.781586,1850.514855,-7920.203579,1532.190996
528.781913,1776.494261,-7698.141797,1991.848295
528.782241,592.164754,-8364.327145,1532.190996
528.782569,-1850.514855,-10066.800811,1302.362347
528.782896,-2590.720797,-10436.903782,612.876398
528.783224,-3108.864956,-10732.986159,919.314598
528.783551,-2294.638420,-10214.842000,1532.190996
528.783879,-1702.473667,-9696.697840,1455.581446
528.784207,0.000000,-9252.574275,1225.752797
528.784534,962.267725,-8438.347739,1685.410096
528.784862,518.144159,-7476.080014,1072.533697
528.785189,-740.205942,-8586.388927,229.828649
528.785517,-3034.844362,-9696.697840,-1072.533697
528.785844,-3923.091493,-10288.862594,-536.266849
528.786172,-3404.947333,-9992.780217,-1302.362347
528.786500,-2072.576638,-9918.759623,-459.657299
528.786827,-592.164754,-9770.718434,0.000000
528.787155,666.185348,-9400.615463,1072.533697
528.787482,1628.453072,-8438.347739,1685.410096
528.787810,2294.638420,-8956.491898,1608.800546
528.788138,888.247130,-8956.491898,1378.971896
528.788465,-518.144159,-10288.862594,1072.533697
528.788793,-592.164754,-10362.883188,842.705048
528.789120,-814.226536,-10288.862594,1302.362347
528.789448,0.000000,-9918.759623,1608.800546
528.789775,592.164754,-10214.842000,1608.800546
528.790103,1998.556043,-9030.512492,1532.190996
528.790431,2960.823768,-8068.244768,1455.581446
528.790758,3256.906145,-8364.327145,1149.143247
528.791086,1554.432478,-9104.533087,76.609550
528.791413,-1776.494261,-10584.944971,-536.266849
528.791741,-2368.659014,-10732.986159,-1225.752797
528.792069,-2294.638420,-10510.924376,-919.314598
528.792396,-1628.453072,-10288.862594,-536.266849
528.792724,-888.247130,-9918.759623,-229.828649
528.793051,518.144159,-9030.512492,766.095498
528.793379,1036.288319,-7328.038826,766.095498
528.793706,1628.453072,-7105.977043,1072.533697
528.794034,74.020594,-7920.203579,153.219100
528.794362,-1258.350101,-9030.512492,0.000000
528.794689,-1332.370696,-9030.512492,0.000000
528.795017,-1258.350101,-9400.615463,689.485948
528.795344,-740.205942,-9178.553681,995.924147
528.795672,74.020594,-8808.450710,1378.971896
528.796000,1850.514855,-8586.388927,2451.505594
528.796327,2294.638420,-7476.080014,3140.991542
528.796655,1406.391290,-7772.162391,1225.752797
528.796982,-1036.288319,-9178.553681,153.219100
528.797310,-3182.885551,-9770.718434,-612.876398
528.797637,-3552.988522,-9770.718434,-766.095498
528.797965,-3478.967927,-8808.450710,-842.705048
528.798293,-1924.535449,-8216.285956,-612.876398
528.798620,-1036.288319,-7920.203579,-306.438199
528.798948,296.082377,-6957.935855,306.438199
528.799275,1258.350101,-5773.606348,689.485948
528.799603,1406.391290,-6143.709319,995.924147
528.799931,-74.020594,-7328.038826,0.000000
528.800258,-1850.514855,-9178.553681,-229.828649
528.800586,-1998.556043,-9622.677246,76.609550
528.800913,-1628.453072,-9474.636058,612.876398
528.801241,-518.144159,-9178.553681,1455.581446
528.801568,1036.288319,-8956.491898,1685.410096
528.801896,2368.659014,-8216.285956,2298.286494
528.802224,2368.659014,-7920.203579,1762.019645
528.802551,1036.288319,-8290.306550,383.047749
528.802879,-1406.391290,-9252.574275,-995.924147
528.803206,-2220.617826,-10066.800811,-766.095498
528.803534,-1332.370696,-9918.759623,-1838.629195
528.803862,-740.205942,-10066.800811,-1072.533697
528.804189,148.041188,-10288.862594,-306.438199
528.804517,1702.473667,-9400.615463,612.876398
528.804844,2738.761985,-8882.471304,766.095498
528.805172,2738.761985,-8956.491898,1762.019645
528.805499,1184.329507,-9770.718434,995.924147
528.805827,-888.247130,-11695.253884,306.438199
528.806155,-2146.597232,-11917.315666,536.266849
528.806482,-2220.617826,-11399.171507,766.095498
528.806810,-814.226536,-11177.109724,2221.676944
528.807137,370.102971,-10066.800811,2145.067394
528.807465,1998.556043,-9030.512492,2221.676944
528.807793,2368.659014,-7994.224174,2374.896044
528.808120,1776.494261,-7772.162391,1762.019645
528.808448,-1258.350101,-7994.224174,383.047749
528.808775,-2516.700203,-9178.553681,-1072.533697
528.809103,-2812.782580,-9992.780217,-1378.971896
528.809430,-3034.844362,-9918.759623,-689.485948
528.809758,-2146.597232,-10140.821405,-229.828649
528.810086,-1998.556043,-9400.615463,153.219100
528.810413,222.061783,-9252.574275,842.705048
528.810741,444.123565,-8734.430116,1225.752797
528.811068,814.226536,-8734.430116,1532.190996
528.811396,-962.267725,-9622.677246,689.485948
528.811724,-2590.720797,-11103.089130,536.266849
528.812051,-3034.844362,-10214.842000,229.828649
528.812379,-2590.720797,-10140.821405,536.266849
528.812706,-1036.288319,-9548.656652,1149.143247
528.813034,518.144159,-9252.574275,1838.629195
528.813361,1924.535449,-8364.327145,2068.457845
528.813689,2368.659014,-6809.894666,2528.115143
528.814017,1776.494261,-7105.977043,1762.019645
528.814344,-222.061783,-8364.327145,153.219100
528.814672,-2072.576638,-9844.739029,-459.657299
528.814999,-1924.535449,-9770.718434,-919.314598
528.815327,-1850.514855,-9474.636058,153.219100
528.815655,-888.247130,-9104.533087,0.000000
528.815982,-296.082377,-8660.409521,306.438199
528.816310,1332.370696,-8216.285956,995.924147
528.816637,2368.659014,-7031.956449,1072.533697
528.816965,2442.679609,-6365.771101,1072.533697
528.817292,148.041188,-8290.306550,0.000000
528.817620,-1850.514855,-9474.636058,-536.266849
528.817948,-2072.576638,-9696.697840,-306.438199
528.818275,-1406.391290,-9474.636058,0.000000
528.818603,-370.102971,-9104.533087,536.266849
528.818930,666.185348,-8438.347739,919.314598
528.819258,2072.576638,-7698.141797,1149.143247
528.819586,1850.514855,-7105.977043,766.095498
528.819913,518.144159,-7550.100608,0.000000
528.820241,-1480.411884,-8956.491898,-1149.143247
528.820568,-1702.473667,-9992.780217,-1608.800546
528.820896,-1258.350101,-9474.636058,-1225.752797
528.821223,-444.123565,-9622.677246,-612.876398
528.821551,740.205942,-9400.615463,153.219100
528.821879,1702.473667,-9326.594869,995.924147
528.822206,2664.741391,-8734.430116,1225.752797
528.822534,1924.535449,-8364.327145,1225.752797
528.822861,296.082377,-8956.491898,1072.533697
528.823189,-1702.473667,-10140.821405,0.000000
528.823517,-2368.659014,-10658.965565,-383.047749
528.823844,-1850.514855,-10510.924376,229.828649
528.824172,-444.123565,-9696.697840,995.924147
528.824499,888.247130,-8808.450710,1762.019645
528.824827,2220.617826,-7994.224174,2145.067394
528.825154,2664.741391,-7624.121203,1915.238745
528.825482,1924.535449,-7772.162391,1838.629195
528.825810,0.000000,-8438.347739,842.705048
528.826137,-2960.823768,-9474.636058,-459.657299
528.826465,-3108.864956,-10140.821405,-306.438199
528.826792,-2664.741391,-10658.965565,383.047749
528.827120,-1998.556043,-10510.924376,1225.752797
528.827447,-1702.473667,-9622.677246,1838.629195
528.827775,-444.123565,-8882.471304,1915.238745
528.828103,222.061783,-7772.162391,1455.581446
528.828430,296.082377,-7550.100608,1378.971896
528.828758,-814.226536,-8290.306550,536.266849
528.829085,-1850.514855,-9104.533087,0.000000
528.829413,-3256.906145,-9474.636058,-306.438199
528.829741,-2590.720797,-9622.677246,459.657299
528.830068,-1036.288319,-9104.533087,842.705048
528.830396,74.020594,-9178.553681,1378.971896
528.830723,1406.391290,-8734.430116,1608.800546
528.831051,1628.453072,-8438.347739,2145.067394
528.831378,1110.308913,-8438.347739,1455.581446
528.831706,-370.102971,-8808.450710,229.828649
528.832034,-2072.576638,-10214.842000,0.000000
528.832361,-1554.432478,-10362.883188,153.219100
528.832689,-1258.350101,-10362.883188,306.438199
528.833016,-222.061783,-10066.800811,536.266849
528.833344,-296.082377,-9474.636058,306.438199
528.833672,888.247130,-8882.471304,689.485948
528.833999,1332.370696,-8364.327145,459.657299
528.834327,1554.432478,-8512.368333,766.095498
528.834654,-148.041188,-9326.594869,-689.485948
528.834982,-1332.370696,-10140.821405,-919.314598
528.835309,-1628.453072,-10436.903782,-1149.143247
528.835637,-592.164754,-10658.965565,0.000000
528.835965,222.061783,-10214.842000,0.000000
528.836292,1184.329507,-9548.656652,612.876398
528.836620,2442.679609,-8882.471304,612.876398
528.836947,2368.659014,-8660.409521,1149.143247
528.837275,1406.391290,-9178.553681,612.876398
528.837603,0.000000,-9696.697840,536.266849
528.837930,-370.102971,-10214.842000,153.219100
528.838258,-296.082377,-10436.903782,0.000000
528.838585,-296.082377,-10214.842000,459.657299
528.838913,-222.061783,-10140.821405,612.876398
528.839240,666.185348,-8882.471304,1149.143247
528.839568,1924.535449,-7772.162391,1225.752797
528.839896,2072.576638,-7772.162391,1455.581446
528.840223,814.226536,-8808.450710,842.705048
528.840551,-1850.514855,-9918.759623,229.828649
528.840878,-3256.906145,-10510.924376,0.000000
528.841206,-2368.659014,-10584.944971,612.876398
528.841534,-2146.597232,-9548.656652,766.095498
528.841861,-1258.350101,-9104.533087,919.314598
528.842189,148.041188,-8586.388927,1685.410096
528.842516,444.123565,-7698.141797,1762.019645
528.842844,0.000000,-7624.121203,1455.581446
528.843171,-1184.329507,-7550.100608,689.485948
528.843499,-2960.823768,-8364.327145,0.000000
528.843827,-3108.864956,-8882.471304,-689.485948
528.844154,-2442.679609,-8956.491898,0.000000
528.844482,-1628.453072,-8290.306550,612.876398
528.844809,-370.102971,-7920.203579,1072.533697
528.845137,1110.308913,-7550.100608,1455.581446
528.845465,1924.535449,-6809.894666,1455.581446
528.845792,1998.556043,-7698.141797,1072.533697
528.846120,-222.061783,-8586.388927,612.876398
528.846447,-2146.597232,-9548.656652,0.000000
528.846775,-2368.659014,-10066.800811,-306.438199
528.847102,-1332.370696,-9992.780217,306.438199
528.847430,74.020594,-9474.636058,919.314598
528.847758,518.144159,-9474.636058,919.314598
528.848085,1776.494261,-8660.409521,1455.581446
528.848413,2368.659014,-7698.141797,1302.362347
528.848740,1924.535449,-7772.162391,1149.143247
528.849068,74.020594,-7920.203579,0.000000
528.849396,-518.144159,-9474.636058,-383.047749
528.849723,-740.205942,-9844.739029,-459.657299
528.850051,-1036.288319,-9326.594869,306.438199
528.850378,-518.144159,-9178.553681,536.266849
528.850706,0.000000,-9326.594869,995.924147
528.851033,1258.350101,-8734.430116,1455.581446
528.851361,1776.494261,-8068.244768,1685.410096
528.851689,1036.288319,-7698.141797,1532.190996
528.852016,-296.082377,-8808.450710,459.657299
528.852344,-1924.535449,-9622.677246,0.000000
528.852671,-2590.720797,-9844.739029,0.000000
528.852999,-1702.473667,-9622.677246,153.219100
528.853327,-592.164754,-9474.636058,0.000000
528.853654,-296.082377,-9030.512492,689.485948
528.853982,592.164754,-8438.347739,766.095498
528.854309,444.123565,-7994.224174,995.924147
528.854637,740.205942,-8290.306550,612.876398
528.854964,-962.267725,-8956.491898,76.609550
528.855292,-2220.617826,-9844.739029,-689.485948
528.855620,-1850.514855,-10288.862594,-153.219100
528.855947,-1554.432478,-9992.780217,0.000000
528.856275,-444.123565,-9474.636058,383.047749
528.856602,0.000000,-9326.594869,1149.143247
528.856930,1924.535449,-8586.388927,1378.971896
528.857258,2368.659014,-8512.368333,1608.800546
528.857585,1554.432478,-9178.553681,1455.581446
528.857913,-518.144159,-10436.903782,689.485948
528.858240,-2442.679609,-11029.068536,229.828649
528.858568,-2886.803174,-11029.068536,383.047749
528.858895,-1850.514855,-10584.944971,383.047749
528.859223,-962.267725,-9474.636058,306.438199
528.859551,74.020594,-9178.553681,612.876398
528.859878,370.102971,-8364.327145,536.266849
528.860206,740.205942,-7476.080014,536.266849
528.860533,-148.041188,-7846.182985,-229.828649
528.860861,-1702.473667,-8660.409521,-1532.190996
528.861189,-2294.638420,-9400.615463,-1685.410096
528.861516,-2516.700203,-9918.759623,-1072.533697
528.861844,-1554.432478,-10066.800811,-229.828649
528.862171,-1184.329507,-9030.512492,0.000000
528.862499,1258.350101,-8882.471304,1225.752797
528.862826,2220.617826,-7698.141797,1685.410096
528.863154,2516.700203,-8290.306550,1915.238745
528.863481,888.247130,-9252.574275,1455.581446
528.863809,-1554.432478,-10362.883188,229.828649
528.864137,-1850.514855,-10288.862594,383.047749
528.864464,-962.267725,-10288.862594,383.047749
528.864792,444.123565,-9696.697840,766.095498
528.865119,1702.473667,-9104.533087,766.095498
528.865447,2294.638420,-8512.368333,1225.752797
528.865774,3256.906145,-7846.182985,1991.848295
528.866102,1998.556043,-7698.141797,1302.362347
528.866429,814.226536,-9178.553681,689.485948
528.866757,-1110.308913,-9844.739029,383.047749
528.867084,-518.144159,-10066.800811,1072.533697
528.867412,-1184.329507,-10362.883188,842.705048
528.867739,-370.102971,-10140.821405,1762.019645
528.868067,0.000000,-9474.636058,1991.848295
528.868394,1110.308913,-9030.512492,2681.334243
528.868722,1554.432478,-7994.224174,2298.286494
528.869049,666.185348,-8068.244768,2068.457845
528.869377,-2294.638420,-9104.533087,689.485948
528.869704,-4219.173869,-9548.656652,-153.219100
528.870032,-4441.235652,-8956.491898,-919.314598
528.870359,-3256.906145,-8068.244768,-306.438199
528.870687,-1184.329507,-8290.306550,76.609550
528.871014,-888.247130,-8068.244768,153.219100
528.871342,0.000000,-7772.162391,306.438199
528.871669,74.020594,-7328.038826,612.876398
528.871997,-962.267725,-8068.244768,459.657299
528.872324,-2072.576638,-9252.574275,-919.314598
528.872652,-3108.864956,-10807.006753,-1072.533697
528.872979,-2442.679609,-10732.986159,-842.705048
528.873307,-1332.370696,-9696.697840,0.000000
528.873635,518.144159,-8808.450710,536.266849
528.873962,2442.679609,-8216.285956,995.924147
528.874290,4293.194464,-7179.997637,1915.238745
528.874617,4219.173869,-7105.977043,1838.629195
528.874945,2738.761985,-7994.224174,1608.800546
528.875272,370.102971,-9178.553681,766.095498
528.875600,-888.247130,-10658.965565,306.438199
528.875927,-1332.370696,-10658.965565,689.485948
528.876255,-518.144159,-10436.903782,612.876398
528.876582,0.000000,-9992.780217,766.095498
528.876910,444.123565,-9030.512492,229.828649
528.877237,1258.350101,-7476.080014,1149.143247
528.877565,1332.370696,-7031.956449,612.876398
528.877892,592.164754,-7254.018232,-306.438199
528.878220,-814.226536,-8734.430116,-1225.752797
528.878547,-2442.679609,-9326.594869,-1532.190996
528.878875,-2516.700203,-9326.594869,-842.705048
528.879202,-2812.782580,-9400.615463,-383.047749
528.879530,-1554.432478,-9474.636058,153.219100
528.879857,-592.164754,-9326.594869,919.314598
528.880185,1702.473667,-9030.512492,2221.676944
528.880512,1628.453072,-7994.224174,2221.676944
528.880840,1480.411884,-9252.574275,2145.067394
528.881167,-962.267725,-10140.821405,995.924147
528.881495,-1998.556043,-10510.924376,689.485948
528.881822,-1850.514855,-10436.903782,306.438199
528.882150,-1258.350101,-10066.800811,459.657299
528.882477,-740.205942,-10288.862594,153.219100
528.882805,-444.123565,-9474.636058,459.657299
528.883133,740.205942,-8586.388927,689.485948
528.883460,1184.329507,-8216.285956,459.657299
528.883788,370.102971,-8882.471304,0.000000
528.884115,-1924.535449,-9992.780217,-383.047749
528.884443,-2294.638420,-9770.718434,-153.219100
528.884770,-2294.638420,-10066.800811,-229.828649
528.885098,-1480.411884,-10066.800811,229.828649
528.885425,-666.185348,-9548.656652,766.095498
528.885753,1110.308913,-8808.450710,2298.286494
528.886080,2368.659014,-7550.100608,2681.334243
528.886408,2368.659014,-7846.182985,2221.676944
528.886735,592.164754,-8660.409521,1378.971896
528.887063,-1406.391290,-9770.718434,536.266849
528.887390,-1702.473667,-9844.739029,76.609550
528.887718,-1184.329507,-9696.697840,0.000000
528.888045,-740.205942,-9252.574275,0.000000
528.888373,0.000000,-8660.409521,229.828649
528.888700,1406.391290,-7846.182985,612.876398
528.889028,1628.453072,-7476.080014,536.266849
528.889355,1036.288319,-7920.203579,306.438199
528.889683,-740.205942,-8660.409521,-459.657299
528.890010,-2442.679609,-9622.677246,-1302.362347
528.890338,-2368.659014,-9770.718434,-1072.533697
528.890665,-1702.473667,-9770.718434,-153.219100
528.890993,0.000000,-8734.430116,919.314598
528.891320,1110.308913,-7846.182985,1608.800546
528.891648,2368.659014,-7846.182985,2298.286494
528.891975,2294.638420,-7550.100608,2374.896044
528.892303,1332.370696,-8290.306550,2068.457845
528.892631,-962.267725,-9104.533087,995.924147
528.892958,-2368.659014,-9918.759623,536.266849
528.893286,-2220.617826,-10510.924376,229.828649
528.893613,-1850.514855,-9918.759623,536.266849
528.893941,-518.144159,-8808.450710,995.924147
528.894268,444.123565,-8512.368333,1225.752797
528.894596,1776.494261,-7328.038826,1455.581446
528.894923,814.226536,-7105.977043,229.828649
528.895251,-222.061783,-7476.080014,-306.438199
528.895578,-2294.638420,-9104.533087,-1225.752797
528.895906,-3256.906145,-9844.739029,-1302.362347
528.896233,-3034.844362,-10066.800811,-766.095498
528.896561,-2220.617826,-9622.677246,0.000000
528.896888,0.000000,-9252.574275,842.705048
528.897216,962.267725,-8956.491898,1685.410096
528.897543,2220.617826,-8216.285956,2145.067394
528.897871,2146.597232,-8438.347739,2298.286494
528.898198,1258.350101,-8290.306550,1302.362347
528.898526,-1184.329507,-9696.697840,842.705048
528.898853,-1480.411884,-9992.780217,76.609550
528.899181,-814.226536,-10140.821405,536.266849
528.899508,444.123565,-9622.677246,1149.143247
528.899836,740.205942,-9400.615463,1225.752797
528.900163,1258.350101,-9252.574275,1225.752797
528.900491,1332.370696,-8364.327145,536.266849
528.900818,740.205942,-8660.409521,306.438199
528.901146,-592.164754,-9104.533087,-689.485948
528.901473,-2368.659014,-10066.800811,-1378.971896
528.901801,-3108.864956,-10807.006753,-1302.362347
528.902129,-2516.700203,-10658.965565,-842.705048
528.902456,-1702.473667,-9696.697840,-229.828649
528.902784,-666.185348,-9400.615463,459.657299
528.903111,1036.288319,-8956.491898,1532.190996
528.903439,2072.576638,-8512.368333,1455.581446
528.903766,1332.370696,-8438.347739,1608.800546
528.904094,666.185348,-9030.512492,842.705048
528.904421,-814.226536,-9696.697840,459.657299
528.904749,-444.123565,-9770.718434,612.876398
528.905076,-222.061783,-10584.944971,766.095498
528.905404,74.020594,-10362.883188,1225.752797
528.905731,-222.061783,-10066.800811,1302.362347
528.906059,296.082377,-9474.636058,1302.362347
528.906386,740.205942,-8586.388927,689.485948
528.906714,1184.329507,-8290.306550,612.876398
528.907041,0.000000,-8956.491898,0.000000
528.907369,-1776.494261,-9474.636058,-689.485948
528.907696,-2368.659014,-9622.677246,-995.924147
528.908024,-2146.597232,-9622.677246,0.000000
528.908351,-1036.288319,-8956.491898,0.000000
528.908679,-148.041188,-8290.306550,766.095498
528.909006,1258.350101,-7698.141797,1455.581446
528.909334,1406.391290,-7402.059420,1838.629195
528.909661,1258.350101,-7772.162391,2298.286494
528.909989,0.000000,-7772.162391,2145.067394
528.910316,-814.226536,-8512.368333,1532.190996
528.910644,-1036.288319,-9326.594869,1302.362347
528.910971,-1258.350101,-9474.636058,1455.581446
528.911299,-814.226536,-8956.491898,1302.362347
528.911627,-888.247130,-8068.244768,1072.533697
528.911954,740.205942,-7328.038826,1225.752797
528.912282,370.102971,-7254.018232,153.219100
528.912609,370.102971,-7254.018232,0.000000
528.912937,-1332.370696,-7920.203579,-1149.143247
528.913264,-3108.864956,-8808.450710,-2068.457845
528.913592,-2368.659014,-9474.636058,-1608.800546
528.913919,-2146.597232,-9474.636058,-1225.752797
528.914247,0.000000,-8586.388927,-459.657299
528.914574,1110.308913,-8364.327145,229.828649
528.914902,2664.741391,-8068.244768,1685.410096
528.915229,2590.720797,-8364.327145,1532.190996
528.915557,1850.514855,-8512.368333,2145.067394
528.915884,-518.144159,-9252.574275,842.705048
528.916212,-1184.329507,-10288.862594,919.314598
528.916539,-1036.288319,-9770.718434,459.657299
528.916867,0.000000,-9622.677246,1378.971896
528.917194,1110.308913,-9326.594869,1149.143247
528.917522,1480.411884,-9104.533087,1455.581446
528.917849,2294.638420,-8438.347739,1455.581446
528.918177,1480.411884,-8142.265362,766.095498
528.918504,148.041188,-8808.450710,0.000000
528.918832,-3034.844362,-10214.842000,-1762.019645
528.919159,-3997.112087,-10436.903782,-1915.238745
528.919487,-3849.070898,-10436.903782,-1608.800546
528.919814,-2294.638420,-9844.739029,-689.485948
528.920142,-888.247130,-9178.553681,76.609550
528.920469,888.247130,-8364.327145,1225.752797
528.920797,1628.453072,-8290.306550,1225.752797
528.921125,814.226536,-7994.224174,1455.581446
528.921452,0.000000,-9104.533087,1072.533697
528.921780,-2072.576638,-10140.821405,76.609550
528.922107,-1998.556043,-10140.821405,-76.609550
528.922435,-1628.453072,-10288.862594,536.266849
528.922762,0.000000,-10066.800811,1302.362347
528.923090,888.247130,-9400.615463,1378.971896
528.923417,2146.597232,-9400.615463,1685.410096
528.923745,1998.556043,-8216.285956,1225.752797
528.924072,1776.494261,-8660.409521,919.314598
528.924400,-666.185348,-9770.718434,-459.657299
528.924727,-2960.823768,-10584.944971,-1378.971896
528.925055,-2590.720797,-11103.089130,-612.876398
528.925382,-1554.432478,-10214.842000,-153.219100
528.925710,0.000000,-9770.718434,842.705048
528.926037,1110.308913,-9770.718434,1225.752797
528.926365,1776.494261,-9030.512492,1762.019645
528.926692,1924.535449,-8734.430116,2145.067394
528.927020,1184.329507,-9030.512492,1838.629195
528.927347,-518.144159,-9844.739029,1608.800546
528.927675,-1924.535449,-10584.944971,919.314598
528.928002,-1628.453072,-10510.924376,1225.752797
528.928330,-1850.514855,-9918.759623,1225.752797
528.928657,-518.144159,-9622.677246,1762.019645
528.928985,-148.041188,-9252.574275,919.314598
528.929312,1628.453072,-8512.368333,1915.238745
528.929640,888.247130,-7846.182985,1532.190996
528.929967,444.123565,-8438.347739,612.876398
528.930295,-1628.453072,-9548.656652,-153.219100
528.930623,-2738.761985,-10066.800811,0.000000
528.930950,-2812.782580,-9992.780217,-689.485948
528.931278,-2368.659014,-9622.677246,-459.657299
528.931605,-1258.350101,-8956.491898,-153.219100
528.931933,0.000000,-8586.388927,459.657299
528.932260,1036.288319,-7698.141797,766.095498
528.932588,2220.617826,-7031.956449,1762.019645
528.932915,1850.514855,-7624.121203,1302.362347
528.933243,296.082377,-8882.471304,995.924147
528.933570,-370.102971,-9770.718434,766.095498
528.933898,-740.205942,-9622.677246,919.314598
528.934225,-370.102971,-9548.656652,536.266849
528.934553,74.020594,-9178.553681,1072.533697
528.934880,666.185348,-8512.368333,995.924147
528.935208,1998.556043,-7920.203579,1072.533697
528.935535,2294.638420,-7476.080014,842.705048
528.935863,444.123565,-7105.977043,-153.219100
528.936190,-1406.391290,-9548.656652,-1072.533697
528.936518,-2146.597232,-9178.553681,-1991.848295
528.936845,-1998.556043,-8290.306550,-1991.848295
528.937173,-814.226536,-8438.347739,-1149.143247
528.937500,0.000000,-8290.306550,76.609550
528.937828,148.041188,-7846.182985,383.047749
528.938155,1406.391290,-7476.080014,612.876398
528.938483,1628.453072,-7328.038826,1149.143247
528.938810,296.082377,-8142.265362,612.876398
528.939138,-1258.350101,-9844.739029,459.657299
528.939465,-1850.514855,-9696.697840,0.000000
528.939793,-1332.370696,-9474.636058,459.657299
528.940121,148.041188,-9252.574275,1072.533697
528.940448,814.226536,-8586.388927,1378.971896
528.940776,1850.514855,-8438.347739,1608.800546
528.941103,3182.885551,-7402.059420,2528.115143
528.941431,2072.576638,-7624.121203,1455.581446
528.941758,-740.205942,-9400.615463,383.047749
528.942086,-3256.906145,-9918.759623,-1225.752797
528.942413,-3108.864956,-10362.883188,-995.924147
528.942741,-3034.844362,-10214.842000,-383.047749
528.943068,-1850.514855,-9770.718434,76.609550
528.943396,-740.205942,-9622.677246,919.314598
528.943723,0.000000,-9030.512492,1378.971896
528.944051,888.247130,-8142.265362,1915.238745
528.944378,1110.308913,-8068.244768,1838.629195
528.944706,-518.144159,-9400.615463,1455.581446
528.945033,-2442.679609,-10362.883188,842.705048
528.945361,-2368.659014,-10955.047942,689.485948
528.945688,-2442.679609,-10436.903782,919.314598
528.946016,-1036.288319,-9104.533087,1762.019645
528.946343,740.205942,-9178.553681,1762.019645
528.946671,1628.453072,-8142.265362,1991.848295
528.946998,1850.514855,-7624.121203,1915.238745
528.947326,1110.308913,-8068.244768,1225.752797
528.947653,-888.247130,-9252.574275,76.609550
528.947981,-2664.741391,-10214.842000,-1149.143247
528.948308,-2664.741391,-10955.047942,-842.705048
528.948636,-2886.803174,-10881.027347,-766.095498
528.948963,-1554.432478,-10288.862594,0.000000
528.949291,-296.082377,-9844.739029,383.047749
528.949619,1110.308913,-8438.347739,1149.143247
528.949946,2368.659014,-7846.182985,1608.800546
528.950274,2368.659014,-8808.450710,1378.971896
528.950601,0.000000,-9326.594869,229.828649
528.950929,-666.185348,-10140.821405,459.657299
528.951256,-740.205942,-10214.842000,842.705048
528.951584,-888.247130,-9992.780217,919.314598
528.951911,0.000000,-9918.759623,1532.190996
528.952239,666.185348,-9474.636058,1455.581446
528.952566,1924.535449,-8586.388927,1991.848295
528.952894,1924.535449,-7772.162391,1532.190996
528.953221,1036.288319,-8290.306550,766.095498
528.953549,-1258.350101,-9548.656652,-306.438199
528.953876,-2960.823768,-9844.739029,-1225.752797
528.954204,-2146.597232,-9400.615463,-1378.971896
528.954531,-1480.411884,-9030.512492,-919.314598
528.954859,-666.185348,-8216.285956,-536.266849
528.955186,592.164754,-7846.182985,229.828649
528.955514,2368.659014,-7031.956449,766.095498
528.955841,1998.556043,-7105.977043,842.705048
528.956169,666.185348,-8290.306550,766.095498
528.956496,-1110.308913,-9622.677246,0.000000
528.956824,-2368.659014,-10214.842000,0.000000
528.957151,-1554.432478,-10214.842000,766.095498
528.957479,-370.102971,-9104.533087,689.485948
528.957806,666.185348,-8660.409521,1072.533697
528.958134,1924.535449,-8438.347739,1685.410096
528.958461,2738.761985,-7254.018232,1838.629195
528.958789,2294.638420,-7402.059420,1378.971896
528.959117,296.082377,-8290.306550,153.219100
528.959444,-2072.576638,-9622.677246,-919.314598
528.959772,-2886.803174,-10288.862594,-1378.971896
528.960099,-2294.638420,-9992.780217,-842.705048
528.960427,-1776.494261,-9992.780217,-459.657299
528.960754,-592.164754,-9474.636058,-153.219100
528.961082,518.144159,-8956.491898,689.485948
528.961409,1258.350101,-8216.285956,1072.533697
528.961737,1628.453072,-8808.450710,1608.800546
528.962064,-222.061783,-9474.636058,76.609550
528.962392,-2368.659014,-9992.780217,0.000000
528.962719,-1998.556043,-9696.697840,-306.438199
528.963047,-1628.453072,-9400.615463,0.000000
528.963374,-222.061783,-9030.512492,1302.362347
528.963702,814.226536,-8290.306550,766.095498
528.964029,2220.617826,-7994.224174,1915.238745
528.964357,2738.761985,-7476.080014,2068.457845
528.964684,1924.535449,-8068.244768,1302.362347
528.965012,370.102971,-9474.636058,1072.533697
528.965340,-1554.432478,-10066.800811,0.000000
528.965667,-1554.432478,-10436.903782,-153.219100
528.965995,-1702.473667,-10436.903782,0.000000
528.966322,-1554.432478,-10510.924376,459.657299
528.966650,-814.226536,-9918.759623,689.485948
528.966978,1258.350101,-8290.306550,1532.190996
528.967305,1554.432478,-7624.121203,1378.971896
528.967633,888.247130,-8364.327145,1225.752797
528.967961,-666.185348,-9326.594869,306.438199
528.968288,-1850.514855,-9992.780217,0.000000
528.968616,-1406.391290,-9474.636058,1072.533697
528.968943,-1480.411884,-9844.739029,1072.533697
528.969271,-1110.308913,-10140.821405,1378.971896
528.969599,-222.061783,-9696.697840,1915.238745
528.969926,740.205942,-8586.388927,2145.067394
528.970254,1258.350101,-7402.059420,1991.848295
528.970581,888.247130,-8364.327145,2068.457845
528.970909,-1332.370696,-9770.718434,459.657299
528.971237,-2368.659014,-9548.656652,76.609550
528.971564,-1850.514855,-9400.615463,0.000000
528.971892,-1480.411884,-9030.512492,153.219100
528.972220,-962.267725,-9252.574275,229.828649
528.972547,-518.144159,-8956.491898,459.657299
528.972875,814.226536,-7105.977043,689.485948
528.973202,1184.329507,-7179.997637,766.095498
528.973530,592.164754,-8364.327145,459.657299
528.973858,-1554.432478,-10066.800811,-536.266849
528.974185,-2516.700203,-9696.697840,0.000000
528.974513,-2146.597232,-10066.800811,0.000000
528.974840,-1332.370696,-10658.965565,766.095498
528.975168,-740.205942,-9992.780217,919.314598
528.975496,1036.288319,-9252.574275,1608.800546
528.975823,2294.638420,-7179.997637,1762.019645
528.976151,1998.556043,-7328.038826,1378.971896
528.976479,962.267725,-8216.285956,612.876398
528.976806,-1850.514855,-9030.512492,-766.095498
528.977134,-1776.494261,-8808.450710,-995.924147
528.977461,-1184.329507,-8290.306550,76.609550
528.977789,-370.102971,-9178.553681,306.438199
528.978117,0.000000,-9104.533087,459.657299
528.978444,1110.308913,-8660.409521,1225.752797
528.978772,1998.556043,-7550.100608,1762.019645
528.979100,1332.370696,-7994.224174,1378.971896
528.979427,-370.102971,-9178.553681,153.219100
528.979755,-2294.638420,-9992.780217,-919.314598
528.980082,-2590.720797,-10140.821405,-459.657299
528.980410,-1702.473667,-9548.656652,-383.047749
528.980738,-740.205942,-9030.512492,383.047749
528.981065,148.041188,-9474.636058,689.485948
528.981393,1406.391290,-8364.327145,1455.581446
528.981720,1702.473667,-7179.997637,1072.533697
528.982048,1036.288319,-7772.162391,842.705048
528.982376,-444.123565,-8512.368333,0.000000
528.982703,-2220.617826,-9474.636058,-383.047749
528.983031,-1554.432478,-9326.594869,-306.438199
528.983359,-1036.288319,-9252.574275,76.609550
528.983686,0.000000,-9622.677246,766.095498
528.984014,0.000000,-9252.574275,612.876398
528.984341,888.247130,-8438.347739,1915.238745
528.984669,1998.556043,-7846.182985,1455.581446
528.984997,1480.411884,-8808.450710,1532.190996
528.985324,-296.082377,-10066.800811,383.047749
528.985652,-2146.597232,-10881.027347,0.000000
528.985979,-2146.597232,-10140.821405,689.485948
528.986307,-1554.432478,-10214.842000,459.657299
528.986635,-1110.308913,-10214.842000,536.266849
528.986962,-148.041188,-9992.780217,1072.533697
528.987290,1110.308913,-8512.368333,1302.362347
528.987618,1628.453072,-7328.038826,1532.190996
528.987945,518.144159,-7994.224174,766.095498
528.988273,-1110.308913,-9548.656652,76.609550
528.988600,-2442.679609,-9770.718434,-383.047749
528.988928,-1776.494261,-9696.697840,0.000000
528.989256,-1554.432478,-10436.903782,536.266849
528.989583,-888.247130,-10140.821405,1149.143247
528.989911,-666.185348,-9992.780217,1149.143247
528.990238,1036.288319,-8586.388927,1685.410096
528.990566,1554.432478,-7846.182985,1455.581446
528.990894,888.247130,-8808.450710,1225.752797
528.991221,-740.205942,-9104.533087,76.609550
528.991549,-1850.514855,-9844.739029,-306.438199
528.991877,-1258.350101,-9622.677246,0.000000
528.992204,-740.205942,-9622.677246,306.438199
528.992532,-444.123565,-9696.697840,612.876398
528.992859,962.267725,-9474.636058,919.314598
528.993187,1184.329507,-8290.306550,1455.581446
528.993515,1480.411884,-8216.285956,1532.190996
528.993842,666.185348,-9104.533087,995.924147
528.994170,-888.247130,-9992.780217,383.047749
528.994497,-1554.432478,-10214.842000,0.000000
528.994825,-1406.391290,-10066.800811,306.438199
528.995153,-1480.411884,-9918.759623,306.438199
528.995480,-814.226536,-9770.718434,919.314598
528.995808,0.000000,-9030.512492,1225.752797
528.996136,1628.453072,-7179.997637,2145.067394
528.996463,1998.556043,-6883.915261,1149.143247
528.996791,1036.288319,-7846.182985,612.876398
528.997118,-1332.370696,-9030.512492,0.000000
528.997446,-1480.411884,-9030.512492,229.828649
528.997774,-1332.370696,-8956.491898,0.000000
528.998101,-1406.391290,-9622.677246,612.876398
528.998429,-1480.411884,-9696.697840,306.438199
528.998756,-592.164754,-9104.533087,919.314598
528.999084,740.205942,-7402.059420,1149.143247
528.999412,1110.308913,-7624.121203,766.095498
528.999739,0.000000,-8068.244768,383.047749
529.000067,-1480.411884,-9400.615463,-383.047749
529.000395,-1850.514855,-9252.574275,-306.438199
529.000722,-1184.329507,-9326.594869,-383.047749
529.001050,-1258.350101,-9474.636058,306.438199
529.001377,222.061783,-9622.677246,612.876398
529.001705,1554.432478,-8512.368333,1455.581446
529.002033,2516.700203,-7698.141797,1532.190996
529.002360,1776.494261,-8438.347739,1762.019645
529.002688,-222.061783,-9474.636058,842.705048
529.003015,-2294.638420,-9770.718434,-459.657299
529.003343,-1554.432478,-9474.636058,-153.219100
529.003671,-1332.370696,-9770.718434,0.000000
529.003998,-296.082377,-9474.636058,76.609550
529.004326,518.144159,-9178.553681,766.095498
529.004654,2072.576638,-7698.141797,1608.800546
529.004981,1998.556043,-7550.100608,1532.190996
529.005309,814.226536,-8438.347739,842.705048
529.005636,-1702.473667,-9844.739029,-306.438199
529.005964,-3330.926739,-10288.862594,-842.705048
529.006292,-2442.679609,-9844.739029,-612.876398
529.006619,-2220.617826,-9770.718434,0.000000
529.006947,-962.267725,-9622.677246,306.438199
529.007274,444.123565,-9326.594869,995.924147
529.007602,1702.473667,-7846.182985,1608.800546
529.007930,1998.556043,-7105.977043,1149.143247
529.008257,370.102971,-8734.430116,536.266849
529.008585,-1258.350101,-9622.677246,-306.438199
529.008913,-2516.700203,-10214.842000,-842.705048
529.009240,-2294.638420,-9844.739029,-459.657299
529.009568,-1702.473667,-9918.759623,76.609550
529.009895,-666.185348,-10362.883188,1072.533697
529.010223,296.082377,-9474.636058,842.705048
529.010551,1850.514855,-8808.450710,1302.362347
529.010878,1924.535449,-8216.285956,1072.533697
529.011206,740.205942,-8660.409521,229.828649
529.011533,-888.247130,-9992.780217,0.000000
529.011861,-1480.411884,-10214.842000,-229.828649
529.012189,-1332.370696,-9992.780217,0.000000
529.012516,0.000000,-9918.759623,919.314598
529.012844,1036.288319,-9400.615463,1455.581446
529.013172,2442.679609,-9030.512492,2298.286494
529.013499,3478.967927,-7624.121203,2757.943793
529.013827,2664.741391,-7920.203579,2221.676944
529.014154,518.144159,-9178.553681,1608.800546
529.014482,-2294.638420,-9992.780217,536.266849
529.014810,-3108.864956,-10140.821405,0.000000
529.015137,-2738.761985,-10066.800811,0.000000
529.015465,-2220.617826,-10140.821405,383.047749
529.015792,-1628.453072,-9622.677246,1072.533697
529.016120,-666.185348,-9030.512492,1072.533697
529.016448,296.082377,-7476.080014,1149.143247
529.016775,0.000000,-7328.038826,612.876398
529.017103,-2072.576638,-8438.347739,0.000000
529.017431,-3627.009116,-9400.615463,-1378.971896
529.017758,-3552.988522,-8808.450710,-1685.410096
529.018086,-2294.638420,-8586.388927,-459.657299
529.018413,-518.144159,-9104.533087,612.876398
529.018741,666.185348,-8364.327145,1608.800546
529.019069,1850.514855,-8290.306550,2221.676944
529.019396,2664.741391,-7772.162391,2528.115143
529.019724,1924.535449,-8512.368333,2068.457845
529.020051,518.144159,-9474.636058,1072.533697
529.020379,-1184.329507,-9844.739029,689.485948
529.020707,-444.123565,-9992.780217,459.657299
529.021034,-148.041188,-9918.759623,229.828649
529.021362,74.020594,-9770.718434,689.485948
529.021690,148.041188,-9400.615463,306.438199
529.022017,1184.329507,-8216.285956,995.924147
529.022345,2516.700203,-7105.977043,0.000000
529.022672,1554.432478,-7920.203579,0.000000
529.023000,-148.041188,-9474.636058,-689.485948
529.023328,-1850.514855,-9770.718434,-1149.143247
529.023655,-1628.453072,-9474.636058,-229.828649
529.023983,-1628.453072,-9770.718434,153.219100
529.024310,-1184.329507,-9326.594869,306.438199
529.024638,-296.082377,-9178.553681,919.314598
529.024966,1110.308913,-7920.203579,1302.362347
529.025293,1998.556043,-7031.956449,1838.629195
529.025621,1702.473667,-7624.121203,1378.971896
529.025949,-296.082377,-9252.574275,842.705048
529.026276,-1554.432478,-9474.636058,0.000000
529.026604,-1406.391290,-9548.656652,0.000000
529.026931,-1258.350101,-9252.574275,76.609550
529.027259,-888.247130,-9252.574275,689.485948
529.027587,0.000000,-9474.636058,306.438199
529.027914,962.267725,-8216.285956,536.266849
529.028242,1554.432478,-7846.182985,612.876398
529.028570,518.144159,-8660.409521,229.828649
529.028897,-1480.411884,-9548.656652,-306.438199
529.029225,-2886.803174,-10510.924376,-919.314598
529.029552,-2590.720797,-10362.883188,-689.485948
529.029880,-2220.617826,-10362.883188,229.828649
529.030208,-1036.288319,-9696.697840,459.657299
529.030535,0.000000,-9178.553681,1378.971896
529.030863,2220.617826,-7994.224174,1762.019645
529.031190,2590.720797,-7550.100608,2221.676944
529.031518,2146.597232,-8364.327145,2145.067394
529.031846,0.000000,-9252.574275,1302.362347
529.032173,-740.205942,-9918.759623,689.485948
529.032501,-1110.308913,-9992.780217,1378.971896
529.032829,-1480.411884,-11103.089130,1072.533697
529.033156,-1036.288319,-10881.027347,1149.143247
529.033484,-592.164754,-10288.862594,995.924147
529.033811,962.267725,-9030.512492,1149.143247
529.034139,814.226536,-8660.409521,536.266849
529.034467,-222.061783,-9400.615463,-306.438199
529.034794,-2368.659014,-10140.821405,-995.924147
529.035122,-2368.659014,-9844.739029,-1149.143247
529.035449,-2146.597232,-9178.553681,-995.924147
529.035777,-1332.370696,-9326.594869,-459.657299
529.036105,-666.185348,-8216.285956,383.047749
529.036432,1184.329507,-8216.285956,1378.971896
529.036760,2368.659014,-7031.956449,2221.676944
529.037088,1924.535449,-7772.162391,2374.896044
529.037415,0.000000,-9178.553681,1838.629195
529.037743,-2146.597232,-10510.924376,1225.752797
529.038070,-2516.700203,-10584.944971,536.266849
529.038398,-2368.659014,-9992.780217,459.657299
529.038726,-814.226536,-9770.718434,995.924147
529.039053,148.041188,-9400.615463,995.924147
529.039381,1332.370696,-7920.203579,1378.971896
529.039708,2590.720797,-7031.956449,919.314598
529.040036,1184.329507,-7698.141797,383.047749
529.040364,-1036.288319,-8734.430116,-766.095498
529.040691,-3256.906145,-9844.739029,-1762.019645
529.041019,-2516.700203,-9326.594869,-1838.629195
529.041347,-1628.453072,-9030.512492,-766.095498
529.041674,0.000000,-9252.574275,306.438199
529.042002,1036.288319,-8808.450710,1455.581446
529.042329,1924.535449,-7994.224174,2451.505594
529.042657,2294.638420,-7105.977043,2757.943793
529.042985,888.247130,-7698.141797,1915.238745
529.043312,-1184.329507,-9178.553681,995.924147
529.043640,-2294.638420,-9918.759623,76.609550
529.043967,-1628.453072,-9326.594869,229.828649
529.044295,-666.185348,-8586.388927,459.657299
529.044623,444.123565,-8068.244768,1685.410096
529.044950,666.185348,-8068.244768,1302.362347
529.045278,1776.494261,-7105.977043,1378.971896
529.045606,2294.638420,-6809.894666,1225.752797
529.045933,1036.288319,-7698.141797,306.438199
529.046261,-740.205942,-8734.430116,306.438199
529.046588,-1850.514855,-9918.759623,0.000000
529.046916,-1480.411884,-9622.677246,306.438199
529.047244,-666.185348,-9474.636058,1225.752797
529.047571,666.185348,-9474.636058,2068.457845
529.047899,888.247130,-9252.574275,2221.676944
529.048226,1702.473667,-8068.244768,3294.210641
529.048554,1998.556043,-7476.080014,3370.820191
529.048882,1406.391290,-8438.347739,3217.601092
529.049209,-222.061783,-9548.656652,2528.115143
529.049537,-1628.453072,-10140.821405,2528.115143
529.049865,-1332.370696,-9918.759623,2834.553343
529.050192,-1406.391290,-9326.594869,3064.381992
529.050520,-1258.350101,-9474.636058,2757.943793
529.050847,-1554.432478,-9400.615463,2528.115143
529.051175,-1258.350101,-8808.450710,2374.896044
529.051503,-1332.370696,-8290.306550,2068.457845
529.051830,-1332.370696,-7846.182985,1225.752797
529.052158,-2368.659014,-9104.533087,612.876398
529.052485,-3849.070898,-10584.944971,76.609550
529.052813,-3849.070898,-10807.006753,306.438199
529.053141,-2886.803174,-9770.718434,842.705048
529.053468,-1480.411884,-9474.636058,1149.143247
529.053796,0.000000,-9696.697840,2068.457845
529.054124,1036.288319,-9696.697840,2757.943793
529.054451,2516.700203,-8882.471304,3370.820191
529.054779,3997.112087,-8290.306550,4060.306139
529.055106,4367.215058,-8956.491898,4979.620737
529.055434,3552.988522,-10955.047942,5132.839837
529.055762,2368.659014,-11769.274478,4903.011187
529.056089,1480.411884,-11029.068536,5056.230287
529.056417,1998.556043,-10732.986159,5975.544884
529.056744,2516.700203,-10288.862594,5056.230287
529.057072,1850.514855,-10658.965565,4903.011187
529.057400,888.247130,-10510.924376,4443.353888
529.057727,0.000000,-9474.636058,4060.306139
529.058055,518.144159,-8734.430116,4136.915689
529.058383,296.082377,-9030.512492,4443.353888
529.058710,-1258.350101,-10732.986159,3830.477490
529.059038,-4219.173869,-11325.150913,2681.334243
529.059365,-6513.812290,-11103.089130,1991.848295
529.059693,-6365.771101,-9178.553681,1762.019645
529.060021,-4219.173869,-7179.997637,2145.067394
529.060348,-2960.823768,-7105.977043,2528.115143
529.060676,-2590.720797,-7105.977043,2221.676944
529.061003,-3478.967927,-7846.182985,1915.238745
529.061331,-3701.029710,-7105.977043,1762.019645
529.061659,-1924.535449,-6883.915261,2451.505594
529.061986,888.247130,-7402.059420,3983.696590
529.062314,2368.659014,-7698.141797,4213.525239
529.062642,2368.659014,-9104.533087,4749.792088
529.062969,1480.411884,-9400.615463,4596.572988
529.063297,1110.308913,-8882.471304,5132.839837
529.063624,2886.803174,-8660.409521,4673.182538
529.063952,4367.215058,-9474.636058,4826.401637
529.064279,4219.173869,-10881.027347,4673.182538
529.064607,2664.741391,-11769.274478,4290.134789
529.064934,962.267725,-11251.130318,4596.572988
529.065262,592.164754,-10214.842000,4596.572988
529.065590,1554.432478,-8734.430116,3524.039291
529.065917,2368.659014,-8660.409521,3753.867940
529.066245,2368.659014,-7994.224174,3677.258390
529.066572,-444.123565,-8956.491898,3524.039291
529.066900,-4145.153275,-8290.306550,2451.505594
529.067227,-5921.647536,-8586.388927,1378.971896
529.067555,-6587.832884,-8956.491898,689.485948
529.067883,-3997.112087,-8290.306550,536.266849
529.068210,-1850.514855,-7254.018232,1608.800546
529.068538,-740.205942,-5995.668130,2298.286494
529.068865,-666.185348,-5551.544565,2911.162892
529.069193,-1702.473667,-6661.853478,2604.724693
529.069520,-2516.700203,-7105.977043,1149.143247
529.069848,-2368.659014,-7846.182985,689.485948
529.070175,-1036.288319,-8512.368333,1302.362347
529.070503,962.267725,-8142.265362,2298.286494
529.070831,3478.967927,-8512.368333,4979.620737
529.071158,4885.359217,-9622.677246,6128.763984
529.071486,4367.215058,-10732.986159,5592.497135
529.071813,2812.782580,-11991.336260,4749.792088
529.072141,592.164754,-12435.459826,4213.525239
529.072468,-1258.350101,-12139.377449,2911.162892
529.072796,-444.123565,-11769.274478,3524.039291
529.073124,1924.535449,-10881.027347,4903.011187
529.073451,4219.173869,-9918.759623,5209.449386
529.073779,3849.070898,-9770.718434,6588.421283
529.074106,2072.576638,-9252.574275,5362.668486
529.074434,-2368.659014,-9622.677246,3600.648841
529.074761,-5329.482782,-9474.636058,2221.676944
529.075089,-5551.544565,-9622.677246,1149.143247
529.075416,-3775.050304,-8364.327145,1762.019645
529.075744,-1554.432478,-7031.956449,3294.210641
529.076072,1184.329507,-6513.812290,4979.620737
529.076399,740.205942,-6957.935855,5898.935335
529.076727,-370.102971,-7476.080014,5209.449386
529.077054,-2516.700203,-8660.409521,4060.306139
529.077382,-4515.256246,-9918.759623,2451.505594
529.077709,-4885.359217,-10362.883188,1302.362347
529.078037,-4737.318029,-10362.883188,1455.581446
529.078365,-2072.576638,-9992.780217,2451.505594
529.078692,592.164754,-9178.553681,3753.867940
529.079020,2960.823768,-8438.347739,4749.792088
529.079347,3330.926739,-8660.409521,3907.087040
529.079675,2146.597232,-9474.636058,3524.039291
529.080002,518.144159,-10362.883188,2451.505594
529.080330,-222.061783,-10732.986159,2145.067394
529.080658,74.020594,-10436.903782,2681.334243
529.080985,1036.288319,-10066.800811,2987.772442
529.081313,1184.329507,-10066.800811,4060.306139
529.081640,1332.370696,-9178.553681,4596.572988
529.081968,814.226536,-9030.512492,4213.525239
529.082295,518.144159,-8364.327145,3907.087040
529.082623,518.144159,-8068.244768,2681.334243
529.082950,0.000000,-8142.265362,2604.724693
529.083278,1184.329507,-6883.915261,2451.505594
529.083606,1406.391290,-7476.080014,3217.601092
529.083933,1554.432478,-7031.956449,3677.258390
529.084261,2442.679609,-7772.162391,3677.258390
529.084588,1406.391290,-8512.368333,3830.477490
529.084916,370.102971,-9474.636058,3677.258390
529.085243,-1184.329507,-9622.677246,3370.820191
529.085571,-1850.514855,-10214.842000,3140.991542
529.085899,-1998.556043,-9844.739029,3524.039291
529.086226,-1628.453072,-9918.759623,3064.381992
529.086554,-962.267725,-9844.739029,3217.601092
529.086881,-370.102971,-9252.574275,3294.210641
529.087209,-1036.288319,-8438.347739,2604.724693
529.087536,-814.226536,-7772.162391,2604.724693
529.087864,-962.267725,-7846.182985,2451.505594
529.088191,-1776.494261,-7772.162391,2374.896044
529.088519,-1554.432478,-7846.182985,2528.115143
529.088847,-1110.308913,-7994.224174,2604.724693
529.089174,-518.144159,-7920.203579,3370.820191
529.089502,222.061783,-8290.306550,3524.039291
529.089829,444.123565,-8882.471304,3753.867940
529.090157,296.082377,-9474.636058,3983.696590
529.090484,-370.102971,-9844.739029,3600.648841
529.090812,-666.185348,-9918.759623,3830.477490
529.091140,-370.102971,-9844.739029,3370.820191
529.091467,518.144159,-9326.594869,3217.601092
529.091795,1554.432478,-9474.636058,3447.429741
529.092122,1258.350101,-9622.677246,2911.162892
529.092450,962.267725,-9992.780217,2911.162892
529.092777,370.102971,-9030.512492,2987.772442
529.093105,0.000000,-10436.903782,2451.505594
529.093432,-296.082377,-10288.862594,2221.676944
529.093760,-444.123565,-10362.883188,2068.457845
529.094088,-666.185348,-10140.821405,2374.896044
529.094415,0.000000,-9474.636058,1991.848295
529.094743,-1036.288319,-9474.636058,2145.067394
529.095070,-1184.329507,-9696.697840,2298.286494
529.095398,-1702.473667,-9400.615463,1685.410096
529.095725,-1998.556043,-9252.574275,1532.190996
529.096053,-1258.350101,-8438.347739,1608.800546
529.096381,-962.267725,-8142.265362,1149.143247
529.096708,0.000000,-7476.080014,1149.143247
529.097036,518.144159,-7772.162391,1225.752797
529.097363,222.061783,-7920.203579,1072.533697
529.097691,0.000000,-8586.388927,1302.362347
529.098018,-518.144159,-8734.430116,1762.019645
529.098346,0.000000,-9992.780217,1378.971896
529.098673,0.000000,-10510.924376,1378.971896
529.099001,444.123565,-10807.006753,1608.800546
529.099329,1110.308913,-10732.986159,1915.238745
529.099656,2146.597232,-10436.903782,2145.067394
529.099984,962.267725,-9918.759623,1991.848295
529.100311,518.144159,-9918.759623,1608.800546
529.100639,0.000000,-9844.739029,1455.581446
529.100966,0.000000,-9326.594869,842.705048
529.101294,-740.205942,-9326.594869,995.924147
529.101622,-222.061783,-8438.347739,995.924147
529.101949,-370.102971,-8216.285956,1225.752797
529.102277,-444.123565,-8068.244768,919.314598
529.102604,-370.102971,-7846.182985,689.485948
529.102932,-666.185348,-7624.121203,689.485948
529.103259,-518.144159,-7550.100608,919.314598
529.103587,-666.185348,-7624.121203,536.266849
529.103914,-740.205942,-8142.265362,536.266849
529.104242,-814.226536,-8364.327145,995.924147
529.104570,-444.123565,-8734.430116,842.705048
529.104897,-518.144159,-8956.491898,1149.143247
529.105225,-296.082377,-8882.471304,1455.581446
529.105552,-222.061783,-9252.574275,919.314598
529.105880,-370.102971,-8956.491898,842.705048
529.106207,0.000000,-8956.491898,536.266849
529.106535,148.041188,-9178.553681,76.609550
529.106863,0.000000,-9178.553681,459.657299
529.107190,-296.082377,-9400.615463,766.095498
529.107518,0.000000,-9474.636058,1072.533697
529.107845,-296.082377,-9770.718434,919.314598
529.108173,-222.061783,-9622.677246,536.266849
529.108500,-370.102971,-9030.512492,1149.143247
529.108828,-444.123565,-8808.450710,306.438199
529.109155,-296.082377,-8734.430116,689.485948
529.109483,-148.041188,-8660.409521,612.876398
529.109811,-370.102971,-8586.388927,842.705048
529.110138,-296.082377,-8512.368333,995.924147
529.110466,-296.082377,-8512.368333,689.485948
529.110793,-740.205942,-8660.409521,536.266849
529.111121,-962.267725,-8956.491898,459.657299
529.111448,-666.185348,-9178.553681,459.657299
529.111776,-518.144159,-8882.471304,1149.143247
529.112104,-148.041188,-9104.533087,459.657299
529.112431,0.000000,-9400.615463,536.266849
529.112759,0.000000,-9548.656652,612.876398
529.113086,0.000000,-9622.677246,459.657299
529.113414,518.144159,-9622.677246,612.876398
529.113741,0.000000,-9696.697840,383.047749
529.114069,-518.144159,-9992.780217,383.047749
529.114396,-592.164754,-10214.842000,842.705048
529.114724,-296.082377,-9844.739029,689.485948
529.115052,-370.102971,-9696.697840,689.485948
529.115379,74.020594,-9474.636058,919.314598
529.115707,74.020594,-9326.594869,689.485948
529.116034,74.020594,-8808.450710,536.266849
529.116362,0.000000,-8956.491898,689.485948
529.116689,0.000000,-8808.450710,689.485948
529.117017,0.000000,-9030.512492,1455.581446
529.117345,0.000000,-9030.512492,536.266849
529.117672,0.000000,-9104.533087,612.876398
529.118000,74.020594,-9326.594869,766.095498
529.118327,222.061783,-9474.636058,689.485948
529.118655,222.061783,-9178.553681,689.485948
529.118982,370.102971,-9178.553681,229.828649
529.119310,222.061783,-8734.430116,383.047749
529.119637,-296.082377,-9104.533087,383.047749
529.119965,-444.123565,-9104.533087,229.828649
529.120293,-592.164754,-9104.533087,-229.828649
529.120620,-296.082377,-9030.512492,229.828649
529.120948,-740.205942,-9104.533087,229.828649
529.121275,-740.205942,-8808.450710,153.219100
529.121603,-888.247130,-8660.409521,459.657299
529.121930,-444.123565,-8364.327145,306.438199
529.122258,-222.061783,-8142.265362,612.876398
529.122586,-444.123565,-8142.265362,459.657299
529.122913,-518.144159,-8512.368333,306.438199
529.123241,-814.226536,-8882.471304,612.876398
529.123568,-814.226536,-8956.491898,612.876398
529.123896,-888.247130,-9326.594869,995.924147
529.124223,-888.247130,-9178.553681,919.314598
529.124551,-592.164754,-9252.574275,689.485948
529.124878,-370.102971,-8956.491898,689.485948
529.125206,0.000000,-8882.471304,536.266849
529.125534,148.041188,-8660.409521,306.438199
529.125861,0.000000,-8734.430116,689.485948
529.126189,-222.061783,-9104.533087,536.266849
529.126516,-370.102971,-9400.615463,842.705048
529.126844,-518.144159,-9622.677246,1072.533697
529.127171,-444.123565,-9326.594869,919.314598
529.127499,-222.061783,-9104.533087,995.924147
529.127827,-296.082377,-9178.553681,536.266849
529.128154,-148.041188,-8956.491898,536.266849
529.128482,-296.082377,-8808.450710,229.828649
529.128809,-296.082377,-8956.491898,536.266849
529.129137,-666.185348,-8290.306550,306.438199
529.129464,-370.102971,-9252.574275,612.876398
529.129792,-666.185348,-9030.512492,536.266849
529.130119,-444.123565,-9104.533087,459.657299
529.130447,-222.061783,-9030.512492,306.438199
529.130775,-148.041188,-8882.471304,76.609550
529.131102,-370.102971,-8808.450710,536.266849
529.131430,-370.102971,-9030.512492,306.438199
529.131757,-296.082377,-9400.615463,306.438199
529.132085,-296.082377,-9400.615463,306.438199
529.132412,-222.061783,-9548.656652,842.705048
529.132740,-296.082377,-9844.739029,919.314598
529.133068,-222.061783,-9696.697840,536.266849
529.133395,0.000000,-9696.697840,766.095498
529.133723,-296.082377,-9178.553681,306.438199
529.134050,-222.061783,-8808.450710,842.705048
529.134378,-1036.288319,-8956.491898,689.485948
529.134705,-1184.329507,-8808.450710,306.438199
529.135033,-1184.329507,-8956.491898,766.095498
529.135360,-1184.329507,-9030.512492,689.485948
529.135688,-962.267725,-9030.512492,766.095498
529.136016,-370.102971,-8956.491898,689.485948
529.136343,0.000000,-8660.409521,766.095498
529.136671,296.082377,-8364.327145,612.876398
529.136998,370.102971,-8512.368333,459.657299
529.137326,0.000000,-8660.409521,766.095498
529.137653,148.041188,-9622.677246,689.485948
529.137981,-370.102971,-9548.656652,995.924147
529.138309,-592.164754,-9918.759623,919.314598
529.138636,-370.102971,-10214.842000,1149.143247
529.138964,0.000000,-9770.718434,1302.362347
529.139291,370.102971,-8882.471304,919.314598
529.139619,962.267725,-8512.368333,383.047749
529.139946,444.123565,-8068.244768,229.828649
529.140274,222.061783,-8142.265362,229.828649
529.140601,0.000000,-8216.285956,459.657299
529.140929,-740.205942,-8290.306550,383.047749
529.141257,-740.205942,-9178.553681,1072.533697
529.141584,-740.205942,-9252.574275,842.705048
529.141912,-296.082377,-9252.574275,919.314598
529.142239,0.000000,-9104.533087,536.266849
529.142567,296.082377,-8586.388927,459.657299
529.142894,518.144159,-8364.327145,0.000000
529.143222,518.144159,-8290.306550,76.609550
529.143550,222.061783,-8438.347739,229.828649
529.143877,0.000000,-8808.450710,76.609550
529.144205,-444.123565,-9030.512492,306.438199
529.144532,-444.123565,-9770.718434,459.657299
529.144860,-814.226536,-9474.636058,383.047749
529.145187,-592.164754,-9326.594869,306.438199
529.145515,-296.082377,-8956.491898,229.828649
529.145842,-222.061783,-8808.450710,229.828649
529.146170,296.082377,-8438.347739,0.000000
529.146498,222.061783,-8438.347739,919.314598
529.146825,222.061783,-9400.615463,306.438199
529.147153,0.000000,-9770.718434,612.876398
529.147480,-222.061783,-9696.697840,842.705048
529.147808,0.000000,-10066.800811,612.876398
529.148135,-222.061783,-9696.697840,1149.143247
529.148463,-148.041188,-9474.636058,229.828649
529.148791,-296.082377,-9326.594869,459.657299
529.149118,-370.102971,-9104.533087,459.657299
529.149446,-370.102971,-9104.533087,612.876398
529.149773,-518.144159,-8734.430116,919.314598
529.150101,-592.164754,-9326.594869,842.705048
529.150428,-666.185348,-9548.656652,842.705048
529.150756,-592.164754,-9474.636058,689.485948
529.151083,-370.102971,-9400.615463,612.876398
529.151411,-518.144159,-8882.471304,536.266849
529.151739,-296.082377,-9104.533087,383.047749
529.152066,-444.123565,-9326.594869,536.266849
529.152394,-666.185348,-9474.636058,689.485948
529.152721,-666.185348,-9474.636058,919.314598
529.153049,-518.144159,-9622.677246,1149.143247
529.153376,-444.123565,-9622.677246,1072.533697
529.153704,-518.144159,-9548.656652,919.314598
529.154032,-444.123565,-9252.574275,919.314598
529.154359,-444.123565,-9178.553681,536.266849
529.154687,-666.185348,-8808.450710,919.314598
529.155014,-592.164754,-8882.471304,766.095498
529.155342,-666.185348,-8882.471304,536.266849
529.155669,-444.123565,-8882.471304,536.266849
529.155997,-518.144159,-8956.491898,536.266849
529.156324,-296.082377,-8882.471304,612.876398
529.156652,0.000000,-8660.409521,919.314598
529.156980,0.000000,-8364.327145,229.828649
529.157307,-370.102971,-8364.327145,0.000000
529.157635,-296.082377,-8734.430116,153.219100
529.157962,-296.082377,-8734.430116,229.828649
529.158290,-444.123565,-8734.430116,383.047749
529.158617,-148.041188,-9252.574275,689.485948
529.158945,-148.041188,-9326.594869,842.705048
529.159273,-148.041188,-9030.512492,612.876398
529.159600,0.000000,-9030.512492,306.438199
529.159928,0.000000,-8586.388927,153.219100
529.160255,222.061783,-8364.327145,612.876398
529.160583,0.000000,-9030.512492,612.876398
529.160910,-370.102971,-9030.512492,383.047749
529.161238,0.000000,-9326.594869,612.876398
529.161565,-296.082377,-9252.574275,995.924147
529.161893,-74.020594,-8956.491898,766.095498
529.162221,0.000000,-8882.471304,459.657299
529.162548,0.000000,-8660.409521,536.266849
529.162876,0.000000,-8586.388927,383.047749
529.163203,0.000000,-8438.347739,306.438199
529.163531,-740.205942,-8512.368333,612.876398
529.163858,-296.082377,-8956.491898,536.266849
529.164186,-666.185348,-9400.615463,842.705048
529.164514,-518.144159,-9474.636058,842.705048
529.164841,-370.102971,-9178.553681,919.314598
529.165169,222.061783,-8808.450710,536.266849
529.165496,74.020594,-9104.533087,229.828649
529.165824,-148.041188,-9178.553681,383.047749
529.166152,0.000000,-9030.512492,459.657299
529.166479,-222.061783,-9326.594869,766.095498
529.166807,-296.082377,-9252.574275,995.924147
529.167134,-222.061783,-9770.718434,1072.533697
529.167462,-296.082377,-9696.697840,766.095498
529.167790,-222.061783,-9474.636058,612.876398
529.168117,-148.041188,-9400.615463,536.266849
529.168445,0.000000,-9104.533087,459.657299
529.168772,-296.082377,-8660.409521,536.266849
529.169100,0.000000,-8882.471304,229.828649
529.169428,-222.061783,-9178.553681,383.047749
529.169755,0.000000,-9622.677246,459.657299
529.170083,0.000000,-9696.697840,612.876398
529.170410,-370.102971,-9474.636058,1149.143247
529.170738,222.061783,-9252.574275,842.705048
529.171066,74.020594,-9474.636058,306.438199
529.171393,0.000000,-9252.574275,383.047749
529.171721,0.000000,-9252.574275,76.609550
529.172048,0.000000,-8956.491898,459.657299
529.172376,74.020594,-9474.636058,383.047749
529.172703,-296.082377,-9474.636058,306.438199
529.173031,-518.144159,-9474.636058,459.657299
529.173359,-222.061783,-9400.615463,919.314598
529.173686,-148.041188,-9252.574275,536.266849
529.174014,0.000000,-8882.471304,459.657299
529.174341,-296.082377,-8956.491898,689.485948
529.174669,-592.164754,-9030.512492,459.657299
529.174997,-518.144159,-8956.491898,306.438199
529.175324,-370.102971,-9178.553681,383.047749
529.175652,-518.144159,-8956.491898,1072.533697
529.175979,-222.061783,-9178.553681,766.095498
529.176307,-222.061783,-9104.533087,689.485948
529.176635,-296.082377,-8882.471304,919.314598
529.176962,-370.102971,-8734.430116,612.876398
529.177290,0.000000,-8512.368333,689.485948
529.177617,-296.082377,-8734.430116,459.657299
529.177945,-444.123565,-8956.491898,536.266849
529.178273,-518.144159,-9474.636058,689.485948
529.178600,-518.144159,-9252.574275,842.705048
529.178928,-296.082377,-9104.533087,689.485948
529.179255,0.000000,-9104.533087,306.438199
529.179583,-222.061783,-9104.533087,766.095498
529.179911,-370.102971,-8882.471304,383.047749
529.180238,-222.061783,-8882.471304,383.047749
529.180566,-222.061783,-8956.491898,536.266849
529.180893,0.000000,-8882.471304,536.266849
529.181221,-296.082377,-9178.553681,536.266849
529.181549,-296.082377,-9400.615463,689.485948
529.181876,-148.041188,-9548.656652,536.266849
529.182204,0.000000,-9326.594869,612.876398
529.182531,296.082377,-9622.677246,536.266849
529.182859,74.020594,-8734.430116,536.266849
529.183187,74.020594,-9178.553681,383.047749
529.183514,0.000000,-9104.533087,459.657299
529.183842,-444.123565,-9178.553681,459.657299
529.184169,-592.164754,-9178.553681,689.485948
529.184497,-444.123565,-9326.594869,689.485948
529.184825,-740.205942,-9326.594869,612.876398
529.185152,-962.267725,-9030.512492,612.876398
529.185480,-666.185348,-8882.471304,459.657299
529.185807,-518.144159,-8660.409521,536.266849
529.186135,-592.164754,-9178.553681,153.219100
529.186463,-962.267725,-8808.450710,383.047749
529.186790,-814.226536,-9104.533087,459.657299
529.187118,-888.247130,-9104.533087,536.266849
529.187445,-592.164754,-9474.636058,689.485948
529.187773,-592.164754,-9252.574275,919.314598
529.188101,-518.144159,-9104.533087,536.266849
529.188428,-444.123565,-9252.574275,612.876398
529.188756,-296.082377,-9030.512492,459.657299
529.189083,-222.061783,-8808.450710,536.266849
529.189411,0.000000,-8734.430116,306.438199
529.189739,-148.041188,-8586.388927,1072.533697
529.190066,-370.102971,-9178.553681,689.485948
529.190394,-296.082377,-9178.553681,919.314598
529.190721,-592.164754,-9104.533087,689.485948
529.191049,-518.144159,-8808.450710,459.657299
529.191377,0.000000,-8882.471304,459.657299
529.191704,-592.164754,-8660.409521,306.438199
529.192032,-296.082377,-8808.450710,0.000000
529.192359,-370.102971,-8808.450710,229.828649
529.192687,-518.144159,-8586.388927,459.657299
529.193015,-592.164754,-8290.306550,153.219100
529.193342,-592.164754,-8956.491898,612.876398
529.193670,-444.123565,-9104.533087,766.095498
529.193997,-370.102971,-9030.512492,383.047749
529.194325,-222.061783,-8882.471304,459.657299
529.194652,-444.123565,-8956.491898,536.266849
529.194980,0.000000,-8734.430116,459.657299
529.195308,0.000000,-8956.491898,306.438199
529.195635,0.000000,-9030.512492,383.047749
529.195963,-444.123565,-9030.512492,612.876398
529.196290,-296.082377,-8956.491898,1225.752797
529.196618,0.000000,-9252.574275,536.266849
529.196946,0.000000,-8956.491898,536.266849
529.197273,0.000000,-8956.491898,689.485948
529.197601,0.000000,-8808.450710,306.438199
529.197928,0.000000,-8808.450710,383.047749
529.198256,148.041188,-8734.430116,383.047749
529.198584,-74.020594,-8882.471304,612.876398
529.198911,0.000000,-9326.594869,689.485948
529.199239,0.000000,-9548.656652,612.876398
529.199566,0.000000,-9622.677246,842.705048
529.199894,0.000000,-8808.450710,766.095498
529.200222,0.000000,-9326.594869,689.485948
529.200549,0.000000,-9474.636058,612.876398
529.200877,0.000000,-9400.615463,536.266849
529.201204,0.000000,-9252.574275,536.266849
529.201532,-222.061783,-9252.574275,612.876398
529.201860,-296.082377,-9474.636058,919.314598
529.202187,-296.082377,-9548.656652,766.095498
529.202515,-370.102971,-9400.615463,536.266849
529.202842,-296.082377,-9252.574275,919.314598
529.203170,-148.041188,-8956.491898,612.876398
529.203498,-444.123565,-8882.471304,459.657299
529.203825,-370.102971,-9030.512492,383.047749
529.204153,-296.082377,-9326.594869,536.266849
529.204480,-222.061783,-9326.594869,689.485948
529.204808,-296.082377,-9696.697840,612.876398
529.205136,148.041188,-9770.718434,919.314598
529.205463,-296.082377,-9474.636058,612.876398
529.205791,0.000000,-9696.697840,766.095498
529.206118,0.000000,-9548.656652,612.876398
529.206446,0.000000,-9252.574275,383.047749
529.206774,0.000000,-9326.594869,459.657299
529.207101,0.000000,-9400.615463,766.095498
529.207429,-370.102971,-9548.656652,536.266849
529.207756,-370.102971,-9474.636058,536.266849
529.208084,-222.061783,-9474.636058,383.047749
529.208412,-444.123565,-9178.553681,689.485948
529.208739,-592.164754,-8808.450710,766.095498
529.209067,-518.144159,-8882.471304,229.828649
529.209394,-296.082377,-8734.430116,459.657299
529.209722,-592.164754,-8660.409521,306.438199
529.210050,-740.205942,-8586.388927,842.705048
529.210377,0.000000,-8956.491898,612.876398
529.210705,-148.041188,-8808.450710,459.657299
529.211032,-296.082377,-9030.512492,536.266849
529.211360,-222.061783,-9178.553681,536.266849
529.211688,0.000000,-8660.409521,459.657299
529.212015,0.000000,-8808.450710,995.924147
529.212343,-222.061783,-8882.471304,536.266849
529.212670,-370.102971,-8956.491898,459.657299
529.212998,-444.123565,-8882.471304,306.438199
529.213326,-370.102971,-8956.491898,536.266849
529.213653,-370.102971,-8734.430116,919.314598
529.213981,-592.164754,-9178.553681,612.876398
529.214308,-444.123565,-8734.430116,612.876398
529.214636,-444.123565,-8660.409521,689.485948
529.214963,-444.123565,-8290.306550,383.047749
529.215291,-148.041188,-8068.244768,689.485948
529.215619,-444.123565,-8734.430116,383.047749
529.215946,-666.185348,-8808.450710,459.657299
529.216274,-666.185348,-8808.450710,612.876398
529.216601,-666.185348,-8956.491898,612.876398
529.216929,-296.082377,-8882.471304,919.314598
529.217257,-518.144159,-8586.388927,612.876398
529.217584,-444.123565,-8734.430116,766.095498
529.217912,-222.061783,-8512.368333,612.876398
529.218239,-296.082377,-8660.409521,766.095498
529.218567,-222.061783,-9030.512492,153.219100
529.218895,-222.061783,-9474.636058,383.047749
529.219222,-592.164754,-9474.636058,689.485948
529.219550,-518.144159,-9474.636058,612.876398
529.219877,-592.164754,-9548.656652,689.485948
529.220205,0.000000,-9400.615463,536.266849
529.220533,444.123565,-9326.594869,383.047749
529.220860,74.020594,-8808.450710,306.438199
529.221188,0.000000,-9030.512492,306.438199
529.221515,-296.082377,-9252.574275,306.438199
529.221843,-296.082377,-9474.636058,229.828649
529.222171,-296.082377,-9104.533087,383.047749
529.222498,-296.082377,-9622.677246,306.438199
529.222826,0.000000,-9770.718434,536.266849
529.223153,0.000000,-9400.615463,689.485948
529.223481,0.000000,-9326.594869,536.266849
529.223809,222.061783,-8808.450710,536.266849
529.224136,0.000000,-9030.512492,383.047749
529.224464,0.000000,-9178.553681,536.266849
529.224791,-148.041188,-9400.615463,459.657299
529.225119,-222.061783,-9696.697840,536.266849
529.225447,-296.082377,-9474.636058,766.095498
529.225774,-222.061783,-9400.615463,919.314598
529.226102,0.000000,-9474.636058,842.705048
529.226429,0.000000,-9252.574275,919.314598
529.226757,-222.061783,-8956.491898,229.828649
529.227085,0.000000,-8956.491898,459.657299
529.227412,0.000000,-8956.491898,153.219100
529.227740,-296.082377,-9326.594869,536.266849
529.228067,-444.123565,-9474.636058,689.485948
529.228395,-296.082377,-9474.636058,612.876398
529.228723,-222.061783,-9474.636058,919.314598
529.229050,0.000000,-8586.388927,459.657299
529.229378,-222.061783,-9030.512492,536.266849
529.229705,-222.061783,-8956.491898,612.876398
529.230033,0.000000,-8808.450710,306.438199
529.230361,-222.061783,-8734.430116,383.047749
529.230688,0.000000,-9030.512492,689.485948
529.231016,-222.061783,-9178.553681,995.924147
529.231343,-592.164754,-9326.594869,766.095498
529.231671,-370.102971,-9252.574275,383.047749
529.231999,-222.061783,-9104.533087,306.438199
529.232326,0.000000,-8956.491898,0.000000
529.232654,-148.041188,-8734.430116,306.438199
529.232981,0.000000,-8956.491898,229.828649
529.233309,0.000000,-8956.491898,229.828649
529.233637,-370.102971,-8956.491898,383.047749
529.233964,0.000000,-9400.615463,459.657299
529.234292,0.000000,-9178.553681,0.000000
529.234619,148.041188,-9400.615463,383.047749
529.234947,0.000000,-9178.553681,612.876398
529.235275,0.000000,-9252.574275,229.828649
529.235602,0.000000,-9104.533087,383.047749
529.235930,-148.041188,-8956.491898,459.657299
529.236257,-370.102971,-8882.471304,612.876398
529.236585,-370.102971,-9252.574275,459.657299
529.236912,-148.041188,-9252.574275,612.876398
529.237240,-444.123565,-9326.594869,459.657299
529.237568,-518.144159,-9178.553681,919.314598
529.237895,-296.082377,-8660.409521,766.095498
529.238223,-370.102971,-9030.512492,383.047749
529.238550,-370.102971,-8956.491898,612.876398
529.238878,-666.185348,-9104.533087,536.266849
529.239206,-444.123565,-9030.512492,459.657299
529.239533,-444.123565,-8660.409521,689.485948
529.239861,-666.185348,-9400.615463,842.705048
529.240188,-370.102971,-9474.636058,842.705048
529.240516,-296.082377,-9178.553681,536.266849
529.240844,-222.061783,-9104.533087,689.485948
529.241171,-222.061783,-9104.533087,995.924147
529.241499,-222.061783,-9178.553681,536.266849
529.241826,-444.123565,-9104.533087,689.485948
529.242154,-518.144159,-9104.533087,536.266849
529.242482,-296.082377,-9326.594869,995.924147
529.242809,-296.082377,-9252.574275,689.485948
529.243137,-666.185348,-9104.533087,383.047749
529.243464,-222.061783,-9030.512492,612.876398
529.243792,-222.061783,-8882.471304,383.047749
529.244120,-296.082377,-8660.409521,306.438199
529.244447,0.000000,-8734.430116,612.876398
529.244775,0.000000,-8882.471304,229.828649
529.245102,-296.082377,-9252.574275,536.266849
529.245430,-444.123565,-9178.553681,459.657299
529.245758,-370.102971,-9178.553681,612.876398
529.246085,-148.041188,-9252.574275,459.657299
529.246413,0.000000,-8956.491898,536.266849
529.246740,0.000000,-9104.533087,229.828649
529.247068,0.000000,-9030.512492,229.828649
529.247396,0.000000,-9030.512492,383.047749
529.247723,-222.061783,-8808.450710,306.438199
529.248051,-222.061783,-8956.491898,306.438199
529.248378,-296.082377,-9104.533087,689.485948
529.248706,-370.102971,-9326.594869,612.876398
529.249034,-444.123565,-8956.491898,459.657299
529.249361,-444.123565,-8660.409521,536.266849
529.249689,-1036.288319,-8364.327145,766.095498
529.250016,0.000000,-8660.409521,612.876398
529.250344,-666.185348,-8586.388927,612.876398
529.250672,-740.205942,-8808.450710,766.095498
529.250999,-740.205942,-8808.450710,689.485948
529.251327,-296.082377,-8808.450710,995.924147
529.251654,-592.164754,-9326.594869,1072.533697
529.251982,-518.144159,-9252.574275,842.705048
529.252310,-370.102971,-9030.512492,842.705048
529.252637,-370.102971,-8882.471304,689.485948
529.252965,-148.041188,-8956.491898,689.485948
529.253292,0.000000,-8956.491898,689.485948
529.253620,-296.082377,-9474.636058,689.485948
529.253948,-148.041188,-9474.636058,689.485948
529.254275,-370.102971,-9474.636058,689.485948
529.254603,-592.164754,-9178.553681,612.876398
529.254930,0.000000,-9178.553681,229.828649
529.255258,-370.102971,-9104.533087,612.876398
529.255586,0.000000,-9104.533087,229.828649
529.255913,0.000000,-8808.450710,536.266849
529.256241,0.000000,-8882.471304,536.266849
529.256568,-666.185348,-8660.409521,383.047749
529.256896,74.020594,-9326.594869,153.219100
529.257223,0.000000,-9474.636058,229.828649
529.257551,0.000000,-9474.636058,306.438199
529.257879,0.000000,-9474.636058,459.657299
529.258206,0.000000,-9178.553681,306.438199
529.258534,0.000000,-9178.553681,153.219100
529.258861,0.000000,-9252.574275,383.047749
529.259189,74.020594,-9326.594869,536.266849
529.259517,-296.082377,-9548.656652,612.876398
529.259844,-370.102971,-9548.656652,536.266849
529.260172,-296.082377,-9474.636058,1149.143247
529.260499,-222.061783,-9474.636058,689.485948
529.260827,0.000000,-9474.636058,766.095498
529.261155,0.000000,-9400.615463,536.266849
529.261482,-148.041188,-9178.553681,383.047749
529.261810,-222.061783,-9030.512492,1225.752797
529.262137,0.000000,-9104.533087,383.047749
529.262465,-370.102971,-8956.491898,766.095498
529.262793,-444.123565,-9178.553681,459.657299
529.263120,-518.144159,-9326.594869,842.705048
529.263448,-222.061783,-9326.594869,766.095498
529.263775,-592.164754,-9030.512492,306.438199
529.264103,-444.123565,-9178.553681,689.485948
529.264431,-222.061783,-8956.491898,383.047749
529.264758,0.000000,-8882.471304,459.657299
529.265086,-222.061783,-9178.553681,536.266849
529.265413,-296.082377,-8512.368333,612.876398
529.265741,-296.082377,-9104.533087,689.485948
529.266069,-370.102971,-9104.533087,536.266849
529.266396,-444.123565,-9178.553681,383.047749
529.266724,0.000000,-9326.594869,383.047749
529.267051,0.000000,-8660.409521,229.828649
529.267379,0.000000,-8586.388927,459.657299
529.267707,0.000000,-8882.471304,76.609550
529.268034,-148.041188,-8808.450710,229.828649
529.268362,-370.102971,-8882.471304,459.657299
529.268689,-148.041188,-8808.450710,766.095498
529.269017,-148.041188,-9030.512492,383.047749
529.269345,-296.082377,-9104.533087,459.657299
529.269672,-518.144159,-9030.512492,612.876398
529.270000,0.000000,-8808.450710,689.485948
529.270327,0.000000,-8586.388927,536.266849
529.270655,0.000000,-8586.388927,536.266849
529.270983,-370.102971,-8734.430116,229.828649
529.271310,-518.144159,-8808.450710,536.266849
529.271638,-518.144159,-9178.553681,536.266849
529.271965,-666.185348,-8956.491898,842.705048
529.272293,-592.164754,-8586.388927,306.438199
529.272620,-370.102971,-9030.512492,536.266849
529.272948,-666.185348,-8808.450710,689.485948
529.273276,-740.205942,-8882.471304,612.876398
529.273603,-740.205942,-8660.409521,536.266849
529.273931,-444.123565,-8734.430116,689.485948
529.274258,-592.164754,-8734.430116,459.657299
529.274586,-592.164754,-9252.574275,766.095498
529.274914,-518.144159,-9252.574275,842.705048
529.275241,-444.123565,-9252.574275,766.095498
529.275569,0.000000,-8882.471304,1149.143247
529.275896,74.020594,-9030.512492,536.266849
529.276224,0.000000,-8956.491898,612.876398
529.276552,-296.082377,-9030.512492,612.876398
529.276879,-370.102971,-9178.553681,536.266849
529.277207,-592.164754,-8956.491898,842.705048
529.277534,-666.185348,-9474.636058,1072.533697
529.277862,-296.082377,-9474.636058,689.485948
529.278190,-444.123565,-9400.615463,689.485948
529.278517,-222.061783,-9326.594869,536.266849
529.278845,-148.041188,-9178.553681,306.438199
529.279172,0.000000,-8882.471304,229.828649
529.279500,-296.082377,-8808.450710,306.438199
529.279828,-370.102971,-8956.491898,383.047749
529.280155,-518.144159,-9400.615463,383.047749
529.280483,-444.123565,-9548.656652,612.876398
529.280810,-444.123565,-9622.677246,536.266849
529.281138,-296.082377,-9474.636058,612.876398
529.281465,-296.082377,-9178.553681,689.485948
529.281793,0.000000,-9252.574275,536.266849
529.282121,0.000000,-9474.636058,383.047749
529.282448,0.000000,-8808.450710,612.876398
529.282776,0.000000,-9326.594869,76.609550
529.283103,-444.123565,-9326.594869,536.266849
529.283431,-370.102971,-9474.636058,689.485948
529.283759,-148.041188,-9178.553681,766.095498
529.284086,-148.041188,-9178.553681,766.095498
529.284414,-148.041188,-8882.471304,383.047749
529.284741,0.000000,-8956.491898,459.657299
529.285069,-148.041188,-8660.409521,536.266849
529.285397,0.000000,-8734.430116,306.438199
529.285724,-222.061783,-8734.430116,383.047749
529.286052,-148.041188,-9252.574275,306.438199
529.286379,-370.102971,-9178.553681,689.485948
529.286707,-222.061783,-9474.636058,612.876398
529.287035,0.000000,-9326.594869,383.047749
529.287362,0.000000,-9252.574275,842.705048
529.287690,518.144159,-9400.615463,842.705048
529.288017,0.000000,-9178.553681,459.657299
529.288345,-148.041188,-8956.491898,459.657299
529.288673,74.020594,-9252.574275,76.609550
529.289000,-296.082377,-9400.615463,459.657299
529.289328,0.000000,-9104.533087,689.485948
529.289655,-222.061783,-9400.615463,306.438199
529.289983,-222.061783,-9252.574275,306.438199
529.290310,0.000000,-8882.471304,229.828649
529.290638,-148.041188,-8734.430116,76.609550
529.290966,-222.061783,-8734.430116,459.657299
529.291293,74.020594,-8660.409521,459.657299
529.291621,0.000000,-8956.491898,383.047749
529.291948,-296.082377,-9252.574275,459.657299
529.292276,-296.082377,-9326.594869,459.657299
529.292604,-148.041188,-9030.512492,919.314598
529.292931,0.000000,-8882.471304,1149.143247
529.293259,0.000000,-9178.553681,689.485948
529.293586,-370.102971,-8956.491898,383.047749
529.293914,-444.123565,-9178.553681,383.047749
529.294242,-370.102971,-9178.553681,536.266849
529.294569,0.000000,-9030.512492,842.705048
529.294897,-370.102971,-9326.594869,459.657299
529.295224,-518.144159,-9252.574275,612.876398
529.295552,-666.185348,-9178.553681,766.095498
529.295880,-370.102971,-9400.615463,536.266849
529.296207,-148.041188,-8956.491898,536.266849
529.296535,-518.144159,-8808.450710,459.657299
529.296862,-444.123565,-8808.450710,459.657299
529.297190,-370.102971,-9104.533087,459.657299
529.297518,-518.144159,-9178.553681,842.705048
529.297845,-296.082377,-9178.553681,919.314598
529.298173,-444.123565,-8956.491898,1225.752797
529.298500,-370.102971,-9030.512492,842.705048
529.298828,-444.123565,-9030.512492,689.485948
529.299156,-296.082377,-9030.512492,689.485948
529.299483,-296.082377,-8882.471304,612.876398
529.299811,-370.102971,-8734.430116,689.485948
529.300138,-518.144159,-8882.471304,459.657299
529.300466,-444.123565,-9252.574275,766.095498
529.300793,-296.082377,-9326.594869,459.657299
529.301121,-444.123565,-9178.553681,766.095498
529.301449,-518.144159,-8882.471304,842.705048
529.301776,0.000000,-8956.491898,612.876398
529.302104,0.000000,-8956.491898,459.657299
529.302431,-296.082377,-8882.471304,612.876398
529.302759,-370.102971,-9104.533087,536.266849
529.303087,-592.164754,-9104.533087,536.266849
529.303414,-444.123565,-9252.574275,459.657299
529.303742,-296.082377,-9178.553681,766.095498
529.304069,0.000000,-9252.574275,766.095498
529.304397,0.000000,-9178.553681,612.876398
529.304725,-740.205942,-9104.533087,766.095498
529.305052,0.000000,-9252.574275,919.314598
529.305380,-370.102971,-9104.533087,689.485948
529.305707,-518.144159,-9104.533087,306.438199
529.306035,-444.123565,-9252.574275,383.047749
529.306363,-444.123565,-9178.553681,306.438199
529.306690,-370.102971,-8808.450710,536.266849
529.307018,-666.185348,-8956.491898,306.438199
529.307345,-148.041188,-9104.533087,536.266849
529.307673,-370.102971,-8734.430116,306.438199
529.308001,-222.061783,-8808.450710,153.219100
529.308328,-222.061783,-8512.368333,383.047749
529.308656,-148.041188,-9326.594869,383.047749
529.308983,-370.102971,-9030.512492,229.828649
529.309311,-296.082377,-9252.574275,459.657299
529.309638,0.000000,-9474.636058,459.657299
529.309966,74.020594,-9400.615463,612.876398
529.310294,0.000000,-9104.533087,306.438199
529.310621,148.041188,-9030.512492,689.485948
529.310949,74.020594,-9178.553681,536.266849
529.311276,-148.041188,-9326.594869,383.047749
529.311604,0.000000,-8956.491898,459.657299
529.311932,222.061783,-9326.594869,306.438199
529.312259,0.000000,-9252.574275,536.266849
529.312587,-148.041188,-9474.636058,383.047749
529.312914,-296.082377,-9178.553681,612.876398
529.313242,-370.102971,-9030.512492,459.657299
529.313570,0.000000,-9326.594869,0.000000
529.313897,0.000000,-9030.512492,383.047749
529.314225,-296.082377,-8882.471304,306.438199
529.314552,0.000000,-9178.553681,536.266849
529.314880,-296.082377,-9252.574275,612.876398
529.315208,0.000000,-9400.615463,383.047749
529.315535,-222.061783,-9696.697840,612.876398
529.315863,-370.102971,-9474.636058,612.876398
529.316190,-296.082377,-9252.574275,612.876398
529.316518,-222.061783,-9252.574275,766.095498
529.316846,0.000000,-9104.533087,919.314598
529.317173,0.000000,-8956.491898,842.705048
529.317501,-444.123565,-9104.533087,306.438199
529.317828,-222.061783,-9326.594869,689.485948
529.318156,-370.102971,-9178.553681,612.876398
529.318484,-444.123565,-9178.553681,1302.362347
529.318811,0.000000,-9252.574275,689.485948
529.319139,-370.102971,-8956.491898,612.876398
529.319466,-148.041188,-8956.491898,689.485948
529.319794,-444.123565,-9252.574275,612.876398
529.320121,-592.164754,-9030.512492,459.657299
529.320449,-592.164754,-8586.388927,459.657299
529.320777,0.000000,-9474.636058,536.266849
529.321104,-222.061783,-9474.636058,689.485948
529.321432,-222.061783,-9474.636058,612.876398
529.321759,-148.041188,-9326.594869,612.876398
529.322087,-222.061783,-9104.533087,1149.143247
529.322415,74.020594,-9474.636058,536.266849
529.322742,0.000000,-9400.615463,689.485948
529.323070,0.000000,-9252.574275,689.485948
529.323397,0.000000,-9252.574275,459.657299
529.323725,0.000000,-8808.450710,536.266849
529.324053,0.000000,-9104.533087,995.924147
529.324380,-222.061783,-8956.491898,919.314598
529.324708,-222.061783,-8660.409521,459.657299
529.325035,-370.102971,-8882.471304,536.266849
529.325363,-518.144159,-8586.388927,766.095498
529.325691,-740.205942,-8512.368333,153.219100
529.326018,-518.144159,-8808.450710,536.266849
529.326346,-592.164754,-8956.491898,766.095498
529.326673,-518.144159,-8956.491898,842.705048
529.327001,-518.144159,-9178.553681,689.485948
529.327329,-370.102971,-9474.636058,1378.971896
529.327656,-666.185348,-8734.430116,766.095498
529.327984,-518.144159,-8808.450710,689.485948
529.328311,-444.123565,-9178.553681,689.485948
529.328639,-370.102971,-9178.553681,536.266849
529.328966,-296.082377,-9696.697840,153.219100
529.329294,-222.061783,-9104.533087,689.485948
529.329622,-370.102971,-9474.636058,536.266849
529.329949,-444.123565,-9178.553681,612.876398
529.330277,-370.102971,-9104.533087,612.876398
529.330604,-296.082377,-8956.491898,-459.657299
529.330932,-370.102971,-8364.327145,766.095498
529.331260,-296.082377,-8660.409521,459.657299
529.331587,-444.123565,-8734.430116,383.047749
529.331915,-370.102971,-8882.471304,229.828649
529.332242,-74.020594,-8734.430116,536.266849
529.332570,-148.041188,-8734.430116,229.828649
529.332898,0.000000,-9104.533087,306.438199
529.333225,0.000000,-9104.533087,383.047749
529.333553,148.041188,-9178.553681,229.828649
529.333880,148.041188,-9030.512492,306.438199
529.334208,74.020594,-8808.450710,536.266849
529.334536,0.000000,-9252.574275,459.657299
529.334863,-148.041188,-9474.636058,536.266849
529.335191,-222.061783,-9622.677246,459.657299
529.335518,-518.144159,-9548.656652,612.876398
529.335846,0.000000,-9474.636058,306.438199
529.336174,0.000000,-9178.553681,383.047749
529.336501,-444.123565,-8882.471304,842.705048
529.336829,-370.102971,-8734.430116,383.047749
529.337156,-222.061783,-8808.450710,459.657299
529.337484,-518.144159,-8734.430116,383.047749
529.337811,-444.123565,-8660.409521,536.266849
529.338139,-518.144159,-9030.512492,842.705048
529.338467,-444.123565,-9326.594869,919.314598
529.338794,-592.164754,-9474.636058,995.924147
529.339122,-518.144159,-9326.594869,842.705048
529.339449,-370.102971,-8956.491898,919.314598
529.339777,0.000000,-9030.512492,766.095498
529.340105,-296.082377,-9178.553681,766.095498
529.340432,-222.061783,-9178.553681,689.485948
529.340760,-592.164754,-9400.615463,919.314598
529.341087,-814.226536,-9474.636058,1455.581446
529.341415,-296.082377,-9548.656652,689.485948
529.341743,-666.185348,-9474.636058,459.657299
529.342070,-592.164754,-9474.636058,766.095498
529.342398,-370.102971,-9104.533087,229.828649
529.342725,148.041188,-9030.512492,689.485948
529.343053,0.000000,-9030.512492,0.000000
529.343381,-148.041188,-8956.491898,306.438199
529.343708,-296.082377,-9030.512492,612.876398
529.344036,-370.102971,-9474.636058,612.876398
529.344363,-666.185348,-9622.677246,689.485948
529.344691,0.000000,-9252.574275,689.485948
529.345019,-148.041188,-9252.574275,689.485948
529.345346,-148.041188,-9252.574275,612.876398
529.345674,0.000000,-9326.594869,459.657299
529.346001,148.041188,-9104.533087,459.657299
529.346329,444.123565,-9104.533087,459.657299
529.346657,-296.082377,-9104.533087,459.657299
529.346984,-148.041188,-9400.615463,766.095498
529.347312,-444.123565,-9252.574275,842.705048
529.347639,-296.082377,-9252.574275,612.876398
529.347967,-222.061783,-8882.471304,689.485948
529.348294,-444.123565,-9030.512492,153.219100
529.348622,-592.164754,-8882.471304,306.438199
529.348950,-518.144159,-8734.430116,306.438199
529.349277,-222.061783,-8734.430116,383.047749
529.349605,-74.020594,-8956.491898,459.657299
529.349932,-296.082377,-8808.450710,459.657299
529.350260,-370.102971,-9252.574275,459.657299
529.350588,-518.144159,-9178.553681,459.657299
529.350915,-370.102971,-8882.471304,306.438199
529.351243,-370.102971,-8882.471304,766.095498
529.351570,0.000000,-8808.450710,0.000000
529.351898,-296.082377,-8882.471304,383.047749
529.352226,-222.061783,-9178.553681,536.266849
529.352553,-296.082377,-9326.594869,306.438199
529.352881,-222.061783,-9178.553681,536.266849
529.353208,-740.205942,-8438.347739,459.657299
529.353536,-148.041188,-9030.512492,459.657299
529.353864,-222.061783,-9030.512492,536.266849
529.354191,-222.061783,-8956.491898,229.828649
529.354519,-296.082377,-9030.512492,459.657299
529.354846,0.000000,-8586.388927,76.609550
529.355174,-518.144159,-9178.553681,689.485948
529.355502,-518.144159,-9178.553681,766.095498
529.355829,-296.082377,-9252.574275,612.876398
529.356157,-222.061783,-9400.615463,689.485948
529.356484,-222.061783,-9104.533087,306.438199
529.356812,-222.061783,-8734.430116,1072.533697
529.357139,-296.082377,-8956.491898,612.876398
529.357467,-370.102971,-8956.491898,689.485948
529.357795,-592.164754,-9030.512492,689.485948
529.358122,-740.205942,-9178.553681,689.485948
529.358450,-74.020594,-9104.533087,995.924147
529.358777,-296.082377,-9030.512492,689.485948
529.359105,-370.102971,-8956.491898,919.314598
529.359433,-296.082377,-8882.471304,689.485948
529.359760,-444.123565,-8882.471304,689.485948
529.360088,-518.144159,-8512.368333,842.705048
529.360415,-814.226536,-8882.471304,459.657299
529.360743,-592.164754,-8956.491898,766.095498
529.361071,-518.144159,-9474.636058,842.705048
529.361398,-148.041188,-9474.636058,766.095498
529.361726,0.000000,-9252.574275,459.657299
529.362053,296.082377,-9474.636058,842.705048
529.362381,0.000000,-9326.594869,766.095498
529.362709,0.000000,-9104.533087,229.828649
529.363036,0.000000,-9104.533087,306.438199
529.363364,222.061783,-8734.430116,153.219100
529.363691,0.000000,-9474.636058,919.314598
529.364019,-296.082377,-9622.677246,689.485948
529.364347,-370.102971,-9622.677246,536.266849
529.364674,0.000000,-9474.636058,229.828649
529.365002,0.000000,-9400.615463,459.657299
529.365329,-148.041188,-8734.430116,153.219100
529.365657,0.000000,-9178.553681,229.828649
529.365985,0.000000,-8882.471304,306.438199
529.366312,0.000000,-9178.553681,383.047749
529.366640,-296.082377,-9178.553681,306.438199
529.366967,-370.102971,-9178.553681,1149.143247
529.367295,-370.102971,-9622.677246,612.876398
529.367623,-370.102971,-9474.636058,612.876398
529.367950,0.000000,-9400.615463,459.657299
529.368278,0.000000,-9104.533087,689.485948
529.368606,148.041188,-9252.574275,1302.362347
529.368933,296.082377,-8956.491898,536.266849
529.369261,0.000000,-9178.553681,536.266849
529.369588,-148.041188,-9326.594869,689.485948
529.369916,-370.102971,-9252.574275,612.876398
529.370244,-444.123565,-9326.594869,842.705048
529.370571,-296.082377,-9178.553681,1072.533697
529.370899,-222.061783,-9178.553681,612.876398
529.371226,-370.102971,-8956.491898,612.876398
529.371554,0.000000,-8808.450710,612.876398
529.371882,-222.061783,-8660.409521,229.828649
529.372209,-148.041188,-8660.409521,842.705048
529.372537,-370.102971,-8882.471304,612.876398
529.372865,-370.102971,-9326.594869,842.705048
529.373192,-444.123565,-9400.615463,689.485948
529.373520,-222.061783,-9474.636058,766.095498
529.373847,0.000000,-9252.574275,689.485948
529.374175,0.000000,-9326.594869,459.657299
529.374503,-222.061783,-9030.512492,536.266849
529.374830,0.000000,-9030.512492,612.876398
529.375158,74.020594,-9030.512492,153.219100
529.375485,0.000000,-8808.450710,536.266849
529.375813,0.000000,-8956.491898,306.438199
529.376141,-296.082377,-9326.594869,612.876398
529.376468,-370.102971,-9178.553681,689.485948
529.376796,-444.123565,-9326.594869,842.705048
529.377124,-370.102971,-8734.430116,612.876398
529.377451,-148.041188,-8660.409521,919.314598
529.377779,-296.082377,-8734.430116,459.657299
529.378106,-222.061783,-8882.471304,383.047749
529.378434,-370.102971,-8808.450710,536.266849
529.378762,-444.123565,-9104.533087,689.485948
529.379089,-666.185348,-8734.430116,766.095498
529.379417,-444.123565,-9178.553681,612.876398
529.379745,-370.102971,-9030.512492,689.485948
529.380072,-370.102971,-9178.553681,536.266849
529.380400,-370.102971,-9252.574275,689.485948
529.380727,74.020594,-8808.450710,383.047749
529.381055,-592.164754,-9252.574275,612.876398
529.381383,-148.041188,-9474.636058,766.095498
529.381710,-296.082377,-9178.553681,995.924147
529.382038,-518.144159,-9104.533087,612.876398
529.382365,-148.041188,-9326.594869,995.924147
529.382693,-222.061783,-8586.388927,689.485948
529.383021,-518.144159,-8882.471304,536.266849
529.383348,-296.082377,-9104.533087,459.657299
529.383676,-666.185348,-8956.491898,306.438199
529.384004,-592.164754,-8808.450710,306.438199
529.384331,0.000000,-8808.450710,612.876398
529.384659,-296.082377,-9030.512492,459.657299
529.384986,0.000000,-9178.553681,536.266849
529.385314,0.000000,-9252.574275,536.266849
529.385642,0.000000,-9104.533087,383.047749
529.385969,0.000000,-8956.491898,306.438199
529.386297,0.000000,-9030.512492,459.657299
529.386624,-222.061783,-9474.636058,229.828649
529.386952,0.000000,-9400.615463,306.438199
529.387280,0.000000,-9326.594869,459.657299
529.387607,148.041188,-9104.533087,536.266849
529.387935,0.000000,-9030.512492,306.438199
529.388263,-296.082377,-8882.471304,842.705048
529.388590,-222.061783,-8882.471304,229.828649
529.388918,0.000000,-8808.450710,229.828649
529.389245,-296.082377,-8808.450710,306.438199
529.389573,-740.205942,-8808.450710,153.219100
529.389901,-666.185348,-9030.512492,383.047749
529.390228,-740.205942,-9030.512492,536.266849
529.390556,-592.164754,-9030.512492,689.485948
529.390883,-740.205942,-9030.512492,536.266849
529.391211,0.000000,-9030.512492,842.705048
529.391539,0.000000,-8956.491898,766.095498
529.391866,0.000000,-8734.430116,612.876398
529.392194,-148.041188,-8734.430116,689.485948
529.392522,-148.041188,-9326.594869,842.705048
529.392849,0.000000,-9326.594869,1149.143247
529.393177,-296.082377,-9400.615463,766.095498
529.393504,-296.082377,-9326.594869,689.485948
529.393832,-370.102971,-9178.553681,536.266849
529.394160,-296.082377,-9104.533087,536.266849
529.394487,-296.082377,-8660.409521,612.876398
529.394815,74.020594,-8734.430116,536.266849
529.395142,0.000000,-9178.553681,459.657299
529.395470,-222.061783,-9178.553681,459.657299
529.395798,-296.082377,-9326.594869,766.095498
529.396125,0.000000,-9178.553681,842.705048
529.396453,0.000000,-9326.594869,612.876398
529.396781,-222.061783,-9400.615463,689.485948
529.397108,-222.061783,-9326.594869,536.266849
529.397436,0.000000,-9104.533087,612.876398
529.397763,0.000000,-9474.636058,995.924147
529.398091,-148.041188,-9178.553681,536.266849
529.398419,-222.061783,-9400.615463,383.047749
529.398746,-296.082377,-9474.636058,383.047749
529.399074,-370.102971,-9548.656652,536.266849
529.399401,-518.144159,-9474.636058,459.657299
529.399729,-222.061783,-9622.677246,76.609550
529.400057,-444.123565,-9252.574275,383.047749
529.400384,0.000000,-9252.574275,229.828649
529.400712,-222.061783,-9104.533087,766.095498
529.401040,-222.061783,-9030.512492,689.485948
529.401367,-148.041188,-9252.574275,229.828649
529.401695,-592.164754,-9326.594869,842.705048
529.402022,-518.144159,-9400.615463,612.876398
529.402350,-740.205942,-9474.636058,919.314598
529.402678,-592.164754,-8956.491898,766.095498
529.403005,0.000000,-9326.594869,766.095498
529.403333,-370.102971,-8586.388927,612.876398
529.403660,0.000000,-9030.512492,842.705048
529.403988,-148.041188,-8734.430116,536.266849
529.404316,-370.102971,-8956.491898,536.266849
529.404643,-370.102971,-9030.512492,1072.533697
529.404971,-888.247130,-9030.512492,229.828649
529.405299,0.000000,-9178.553681,306.438199
529.405626,-296.082377,-8882.471304,383.047749
529.405954,0.000000,-9030.512492,306.438199
529.406281,-296.082377,-9178.553681,306.438199
529.406609,-222.061783,-8808.450710,612.876398
529.406937,-148.041188,-8734.430116,459.657299
529.407264,-222.061783,-8808.450710,459.657299
529.407592,-444.123565,-9030.512492,459.657299
529.407919,-296.082377,-8956.491898,306.438199
529.408247,148.041188,-8882.471304,689.485948
529.408575,0.000000,-8882.471304,536.266849
529.408902,-370.102971,-8882.471304,612.876398
529.409230,0.000000,-9030.512492,306.438199
529.409558,-222.061783,-9030.512492,306.438199
529.409885,0.000000,-9030.512492,612.876398
529.410213,-148.041188,-8586.388927,383.047749
529.410540,-296.082377,-8956.491898,306.438199
529.410868,-222.061783,-9178.553681,536.266849
529.411196,0.000000,-9104.533087,459.657299
529.411523,-370.102971,-8882.471304,842.705048
529.411851,0.000000,-8734.430116,1149.143247
529.412179,-444.123565,-8882.471304,383.047749
529.412506,-370.102971,-8882.471304,459.657299
529.412834,-444.123565,-8808.450710,383.047749
529.413161,-518.144159,-9030.512492,459.657299
529.413489,-740.205942,-9178.553681,766.095498
529.413817,-666.185348,-9548.656652,689.485948
529.414144,-666.185348,-9400.615463,919.314598
529.414472,-370.102971,-9252.574275,459.657299
529.414799,-296.082377,-9326.594869,689.485948
529.415127,-222.061783,-9252.574275,612.876398
529.415455,-148.041188,-9178.553681,689.485948
529.415782,-296.082377,-9474.636058,612.876398
529.416110,-518.144159,-9326.594869,766.095498
529.416438,-592.164754,-9252.574275,766.095498
529.416765,-888.247130,-9474.636058,612.876398
529.417093,-222.061783,-9104.533087,1149.143247
529.417420,0.000000,-9252.574275,536.266849
529.417748,-222.061783,-8956.491898,459.657299
529.418076,-222.061783,-9104.533087,306.438199
529.418403,-222.061783,-9030.512492,459.657299
529.418731,-148.041188,-8808.450710,612.876398
529.419058,-148.041188,-9030.512492,459.657299
529.419386,-296.082377,-9326.594869,612.876398
529.419714,-370.102971,-9474.636058,536.266849
529.420041,-296.082377,-9474.636058,766.095498
529.420369,74.020594,-9252.574275,229.828649
529.420697,0.000000,-9178.553681,612.876398
529.421024,0.000000,-9252.574275,229.828649
529.421352,-148.041188,-9030.512492,459.657299
529.421679,-370.102971,-9030.512492,306.438199
529.422007,-296.082377,-8882.471304,766.095498
529.422335,-296.082377,-9030.512492,76.609550
529.422662,-370.102971,-9252.574275,459.657299
529.422990,-296.082377,-9400.615463,459.657299
529.423317,-296.082377,-9104.533087,459.657299
529.423645,-222.061783,-8882.471304,536.266849
529.423973,-370.102971,-8364.327145,612.876398
529.424300,-222.061783,-8734.430116,383.047749
529.424628,0.000000,-8734.430116,306.438199
529.424956,-296.082377,-9104.533087,612.876398
529.425283,-370.102971,-9252.574275,919.314598
529.425611,-222.061783,-9252.574275,1072.533697
529.425938,-296.082377,-9326.594869,1225.752797
529.426266,0.000000,-9252.574275,689.485948
529.426594,0.000000,-9252.574275,689.485948
529.426921,0.000000,-9104.533087,536.266849
529.427249,-518.144159,-9104.533087,1149.143247
529.427576,0.000000,-9178.553681,612.876398
529.427904,-296.082377,-9252.574275,689.485948
529.428232,-296.082377,-9326.594869,689.485948
529.428559,-222.061783,-9326.594869,689.485948
529.428887,-296.082377,-9030.512492,842.705048
529.429215,-296.082377,-9104.533087,536.266849
529.429542,-296.082377,-8956.491898,383.047749
529.429870,-370.102971,-8956.491898,459.657299
529.430197,-296.082377,-8882.471304,153.219100
529.430525,-814.226536,-9030.512492,459.657299
529.430853,-370.102971,-9252.574275,306.438199
529.431180,-222.061783,-9326.594869,536.266849
529.431508,-148.041188,-9474.636058,689.485948
529.431835,0.000000,-9474.636058,536.266849
529.432163,-148.041188,-9030.512492,766.095498
529.432491,444.123565,-9030.512492,612.876398
529.432818,0.000000,-9178.553681,383.047749
529.433146,-370.102971,-8956.491898,306.438199
529.433474,0.000000,-9030.512492,229.828649
529.433801,-296.082377,-9400.615463,612.876398
529.434129,-370.102971,-8956.491898,766.095498
529.434456,-370.102971,-9030.512492,536.266849
529.434784,-592.164754,-9104.533087,536.266849
529.435112,-444.123565,-8734.430116,229.828649
529.435439,-444.123565,-8734.430116,536.266849
529.435767,-444.123565,-8734.430116,383.047749
529.436094,-444.123565,-8290.306550,229.828649
529.436422,-444.123565,-8956.491898,689.485948
