#time,accel_x,accel_y,accel_z
231.461965,148.041188,-8734.430116,-1915.238745
231.462292,592.164754,-9178.553681,-1762.019645
231.462619,962.267725,-9474.636058,-1762.019645
231.462947,1184.329507,-9844.739029,-1225.752797
231.463274,1258.350101,-9918.759623,-1149.143247
231.463602,740.205942,-10510.924376,-612.876398
231.463929,222.061783,-10732.986159,-689.485948
231.464256,-370.102971,-10362.883188,-995.924147
231.464584,-814.226536,-9992.780217,-1072.533697
231.464911,-370.102971,-9252.574275,-1532.190996
231.465239,-740.205942,-8734.430116,-1378.971896
231.465566,-370.102971,-8734.430116,-1378.971896
231.465894,0.000000,-8068.244768,-1149.143247
231.466221,-888.247130,-8068.244768,-1225.752797
231.466548,-814.226536,-8142.265362,-919.314598
231.466876,-1258.350101,-7920.203579,-536.266849
231.467203,-1110.308913,-8586.388927,-1149.143247
231.467531,-962.267725,-8438.347739,-1225.752797
231.467858,-962.267725,-8586.388927,-995.924147
231.468185,-1406.391290,-8882.471304,-995.924147
231.468513,-1184.329507,-9178.553681,-689.485948
231.468840,-1332.370696,-9030.512492,-995.924147
231.469168,-814.226536,-8882.471304,-1072.533697
231.469495,-592.164754,-9178.553681,-1072.533697
231.469823,-444.123565,-9104.533087,-1378.971896
231.470150,-222.061783,-8586.388927,-1455.581446
231.470477,-296.082377,-8956.491898,-842.705048
231.470805,0.000000,-9326.594869,-1149.143247
231.471132,148.041188,-9474.636058,-842.705048
231.471460,222.061783,-9696.697840,-1072.533697
231.471787,444.123565,-9770.718434,-1072.533697
231.472114,148.041188,-9770.718434,-766.095498
231.472442,0.000000,-9696.697840,-842.705048
231.472769,74.020594,-9622.677246,-766.095498
231.473097,148.041188,-9326.594869,-612.876398
231.473424,518.144159,-9252.574275,-766.095498
231.473752,222.061783,-8660.409521,-612.876398
231.474079,296.082377,-8586.388927,-536.266849
231.474406,148.041188,-8364.327145,-842.705048
231.474734,-296.082377,-8512.368333,-1072.533697
231.475061,-296.082377,-8586.388927,-919.314598
231.475389,-592.164754,-8586.388927,-1532.190996
231.475716,-444.123565,-8586.388927,-689.485948
231.476043,-222.061783,-8956.491898,-842.705048
231.476371,0.000000,-9104.533087,-536.266849
231.476698,-370.102971,-9252.574275,-536.266849
231.477026,74.020594,-9770.718434,-459.657299
231.477353,-444.123565,-9178.553681,0.000000
231.477681,-888.247130,-9548.656652,-153.219100
231.478008,-666.185348,-9474.636058,153.219100
231.478335,-1036.288319,-9622.677246,0.000000
231.478663,-592.164754,-9474.636058,0.000000
231.478990,-888.247130,-8808.450710,306.438199
231.479318,-592.164754,-8956.491898,153.219100
231.479645,-962.267725,-8808.450710,459.657299
231.479972,-962.267725,-8808.450710,306.438199
231.480300,-1184.329507,-8660.409521,459.657299
231.480627,-518.144159,-8808.450710,612.876398
231.480955,-518.144159,-8660.409521,536.266849
231.481282,-222.061783,-8808.450710,995.924147
231.481610,0.000000,-8956.491898,919.314598
231.481937,0.000000,-8808.450710,995.924147
231.482264,-296.082377,-8808.450710,1378.971896
231.482592,-592.164754,-9104.533087,536.266849
231.482919,-518.144159,-9178.553681,842.705048
231.483247,-444.123565,-9178.553681,919.314598
231.483574,-370.102971,-9178.553681,689.485948
231.483901,-444.123565,-8882.471304,842.705048
231.484229,0.000000,-9252.574275,612.876398
231.484556,-814.226536,-9400.615463,689.485948
231.484884,-888.247130,-9326.594869,459.657299
231.485211,-962.267725,-9474.636058,153.219100
231.485539,-814.226536,-9474.636058,383.047749
231.485866,-666.185348,-9252.574275,459.657299
231.486193,-296.082377,-9474.636058,459.657299
231.486521,-222.061783,-9104.533087,229.828649
231.486848,-222.061783,-9178.553681,383.047749
231.487176,-148.041188,-9030.512492,153.219100
231.487503,148.041188,-8660.409521,229.828649
231.487830,592.164754,-8734.430116,229.828649
231.488158,518.144159,-8586.388927,0.000000
231.488485,666.185348,-8734.430116,459.657299
231.488813,962.267725,-9104.533087,766.095498
231.489140,1332.370696,-8808.450710,689.485948
231.489468,1036.288319,-9252.574275,995.924147
231.489795,740.205942,-9326.594869,842.705048
231.490122,888.247130,-9622.677246,1302.362347
231.490450,962.267725,-9770.718434,995.924147
231.490777,1036.288319,-9696.697840,1072.533697
231.491105,444.123565,-9622.677246,1149.143247
231.491432,666.185348,-9622.677246,1149.143247
231.491759,148.041188,-9474.636058,842.705048
231.492087,0.000000,-9400.615463,919.314598
231.492414,-370.102971,-9474.636058,536.266849
231.492742,-370.102971,-9178.553681,919.314598
231.493069,-1110.308913,-9178.553681,536.266849
231.493397,-1258.350101,-9104.533087,536.266849
231.493724,-1480.411884,-8956.491898,612.876398
231.494051,-1776.494261,-8734.430116,459.657299
231.494379,-1628.453072,-8808.450710,306.438199
231.494706,-1924.535449,-8882.471304,153.219100
231.495034,-2072.576638,-8808.450710,306.438199
231.495361,-1924.535449,-8808.450710,229.828649
231.495688,-1776.494261,-8734.430116,0.000000
231.496016,-1036.288319,-8734.430116,306.438199
231.496343,-1036.288319,-8808.450710,0.000000
231.496671,-740.205942,-8808.450710,0.000000
231.496998,-296.082377,-8956.491898,153.219100
231.497326,-222.061783,-9326.594869,306.438199
231.497653,74.020594,-8956.491898,612.876398
231.497980,370.102971,-9104.533087,689.485948
231.498308,592.164754,-9400.615463,766.095498
231.498635,444.123565,-9474.636058,536.266849
231.498963,666.185348,-9474.636058,766.095498
231.499290,888.247130,-9326.594869,766.095498
231.499617,962.267725,-9104.533087,1378.971896
231.499945,1036.288319,-9252.574275,919.314598
231.500272,740.205942,-9252.574275,842.705048
231.500600,592.164754,-9326.594869,689.485948
231.500927,222.061783,-9030.512492,919.314598
231.501255,148.041188,-8808.450710,919.314598
231.501582,0.000000,-9104.533087,459.657299
231.501909,-222.061783,-8882.471304,459.657299
231.502237,-370.102971,-8956.491898,536.266849
231.502564,-888.247130,-8882.471304,229.828649
231.502892,-1332.370696,-8882.471304,229.828649
231.503219,-962.267725,-8882.471304,766.095498
231.503546,-1184.329507,-8956.491898,229.828649
231.503874,-962.267725,-8956.491898,229.828649
231.504201,-1258.350101,-9178.553681,306.438199
231.504529,-1036.288319,-9178.553681,-612.876398
231.504856,-1184.329507,-9252.574275,0.000000
231.505184,-1258.350101,-8956.491898,229.828649
231.505511,-1110.308913,-9178.553681,0.000000
231.505838,-962.267725,-9104.533087,0.000000
231.506166,-592.164754,-9178.553681,76.609550
231.506493,-74.020594,-8956.491898,842.705048
231.506821,0.000000,-8956.491898,153.219100
231.507148,74.020594,-9104.533087,306.438199
231.507476,370.102971,-9030.512492,459.657299
231.507803,740.205942,-9178.553681,612.876398
231.508130,518.144159,-9252.574275,1072.533697
231.508458,1628.453072,-9326.594869,612.876398
231.508785,1110.308913,-9400.615463,612.876398
231.509113,1184.329507,-9474.636058,766.095498
231.509440,1332.370696,-9252.574275,995.924147
231.509767,1184.329507,-9474.636058,1072.533697
231.510095,1184.329507,-9474.636058,1455.581446
231.510422,888.247130,-9474.636058,1072.533697
231.510750,148.041188,-9622.677246,766.095498
231.511077,592.164754,-9474.636058,459.657299
231.511405,74.020594,-9622.677246,383.047749
231.511732,0.000000,-9474.636058,919.314598
231.512059,-296.082377,-9548.656652,383.047749
231.512387,-592.164754,-9400.615463,842.705048
231.512714,-962.267725,-9252.574275,459.657299
231.513042,-1110.308913,-8956.491898,459.657299
231.513369,-1258.350101,-8438.347739,306.438199
231.513696,-1258.350101,-9104.533087,612.876398
231.514024,-1258.350101,-8364.327145,306.438199
231.514351,-1554.432478,-8808.450710,536.266849
231.514679,-1480.411884,-8586.388927,229.828649
231.515006,-2220.617826,-8734.430116,536.266849
231.515334,-1554.432478,-8438.347739,153.219100
231.515661,-1702.473667,-8882.471304,383.047749
231.515988,-1332.370696,-8808.450710,306.438199
231.516316,-1184.329507,-9178.553681,306.438199
231.516643,-592.164754,-8882.471304,536.266849
231.516971,-592.164754,-9104.533087,689.485948
231.517298,-518.144159,-8956.491898,689.485948
231.517625,0.000000,-9326.594869,612.876398
231.517953,74.020594,-9104.533087,689.485948
231.518280,370.102971,-9252.574275,536.266849
231.518608,666.185348,-9326.594869,536.266849
231.518935,518.144159,-9252.574275,842.705048
231.519263,888.247130,-9178.553681,995.924147
231.519590,444.123565,-9326.594869,995.924147
231.519917,518.144159,-9178.553681,995.924147
231.520245,1110.308913,-9474.636058,612.876398
231.520572,74.020594,-9104.533087,1072.533697
231.520900,444.123565,-9178.553681,766.095498
231.521227,222.061783,-9178.553681,766.095498
231.521554,74.020594,-8956.491898,842.705048
231.521882,296.082377,-9030.512492,0.000000
231.522209,222.061783,-9030.512492,689.485948
231.522537,-370.102971,-8882.471304,306.438199
231.522864,-592.164754,-8882.471304,459.657299
231.523192,-740.205942,-8660.409521,153.219100
231.523519,-888.247130,-8290.306550,306.438199
231.523846,-518.144159,-8660.409521,612.876398
231.524174,-1184.329507,-8808.450710,229.828649
231.524501,-962.267725,-8734.430116,459.657299
231.524829,-1406.391290,-8956.491898,306.438199
231.525156,-1258.350101,-9104.533087,153.219100
231.525483,-1776.494261,-8734.430116,76.609550
231.525811,-1406.391290,-9178.553681,0.000000
231.526138,-1184.329507,-9252.574275,0.000000
231.526466,-962.267725,-9178.553681,76.609550
231.526793,-444.123565,-9030.512492,76.609550
231.527121,74.020594,-8734.430116,153.219100
231.527448,222.061783,-8956.491898,0.000000
231.527775,148.041188,-9104.533087,383.047749
231.528103,370.102971,-9030.512492,306.438199
231.528430,518.144159,-9030.512492,383.047749
231.528758,814.226536,-8734.430116,766.095498
231.529085,888.247130,-8956.491898,459.657299
231.529412,1036.288319,-9252.574275,842.705048
231.529740,962.267725,-9252.574275,1149.143247
231.530067,666.185348,-9400.615463,842.705048
231.530395,592.164754,-9400.615463,1455.581446
231.530722,740.205942,-9252.574275,689.485948
231.531050,370.102971,-9400.615463,919.314598
231.531377,444.123565,-9326.594869,842.705048
231.531704,370.102971,-9400.615463,995.924147
231.532032,0.000000,-9326.594869,842.705048
231.532359,0.000000,-9474.636058,536.266849
231.532687,-444.123565,-9030.512492,842.705048
231.533014,-740.205942,-9178.553681,919.314598
231.533341,-814.226536,-8956.491898,689.485948
231.533669,-1110.308913,-8808.450710,536.266849
231.533996,-1332.370696,-8882.471304,306.438199
231.534324,-1480.411884,-8882.471304,919.314598
231.534651,-1702.473667,-8734.430116,383.047749
231.534979,-1776.494261,-8956.491898,383.047749
231.535306,-1924.535449,-9030.512492,459.657299
231.535633,-1776.494261,-9030.512492,76.609550
231.535961,-2072.576638,-8734.430116,919.314598
231.536288,-1110.308913,-8808.450710,536.266849
231.536616,-1110.308913,-8660.409521,536.266849
231.536943,-814.226536,-9030.512492,459.657299
231.537271,-592.164754,-9474.636058,842.705048
231.537598,148.041188,-8956.491898,1762.019645
231.537925,0.000000,-8956.491898,689.485948
231.538253,370.102971,-9326.594869,842.705048
231.538580,518.144159,-9326.594869,919.314598
231.538908,666.185348,-9252.574275,995.924147
231.539235,814.226536,-9030.512492,1225.752797
231.539563,888.247130,-9252.574275,612.876398
231.539890,740.205942,-9474.636058,1378.971896
231.540218,666.185348,-9474.636058,766.095498
231.540545,222.061783,-9252.574275,689.485948
231.540872,444.123565,-8882.471304,1225.752797
231.541200,296.082377,-9252.574275,842.705048
231.541527,296.082377,-9400.615463,612.876398
231.541855,148.041188,-9104.533087,536.266849
231.542182,-148.041188,-9178.553681,383.047749
231.542510,-444.123565,-9030.512492,153.219100
231.542837,-444.123565,-9030.512492,766.095498
231.543164,-1184.329507,-8882.471304,153.219100
231.543492,-962.267725,-8808.450710,0.000000
231.543819,-1184.329507,-9104.533087,229.828649
231.544147,-1110.308913,-9104.533087,0.000000
231.544474,-962.267725,-8808.450710,0.000000
231.544802,-962.267725,-9104.533087,612.876398
231.545129,-1184.329507,-9178.553681,153.219100
231.545457,-1184.329507,-9252.574275,0.000000
231.545784,-1332.370696,-9178.553681,-229.828649
231.546111,-444.123565,-9252.574275,0.000000
231.546439,-222.061783,-9030.512492,0.000000
231.546766,-296.082377,-9252.574275,-306.438199
231.547094,0.000000,-9252.574275,0.000000
231.547421,148.041188,-9252.574275,0.000000
231.547749,370.102971,-8882.471304,76.609550
231.548076,888.247130,-8956.491898,383.047749
231.548403,1036.288319,-9252.574275,383.047749
231.548731,1036.288319,-9252.574275,229.828649
231.549058,1110.308913,-9474.636058,306.438199
231.549386,1036.288319,-9252.574275,612.876398
231.549713,962.267725,-8882.471304,919.314598
231.550041,962.267725,-9400.615463,842.705048
231.550368,518.144159,-9474.636058,919.314598
231.550696,740.205942,-9400.615463,536.266849
231.551023,518.144159,-9474.636058,995.924147
231.551350,592.164754,-9178.553681,842.705048
231.551678,296.082377,-9252.574275,919.314598
231.552005,148.041188,-9326.594869,919.314598
231.552333,-296.082377,-9178.553681,842.705048
231.552660,-370.102971,-9326.594869,842.705048
231.552988,-888.247130,-8956.491898,1302.362347
231.553315,-888.247130,-9030.512492,842.705048
231.553642,-1110.308913,-8956.491898,766.095498
231.553970,-1406.391290,-8956.491898,766.095498
231.554297,-1554.432478,-8882.471304,995.924147
231.554625,-1776.494261,-9104.533087,995.924147
231.554952,-1702.473667,-9326.594869,842.705048
231.555280,-1702.473667,-8956.491898,612.876398
231.555607,-1850.514855,-8734.430116,842.705048
231.555935,-1850.514855,-8882.471304,842.705048
231.556262,-1628.453072,-8882.471304,536.266849
231.556589,-1036.288319,-8660.409521,76.609550
231.556917,-814.226536,-8808.450710,459.657299
231.557244,-740.205942,-9030.512492,612.876398
231.557572,-666.185348,-8956.491898,612.876398
231.557899,0.000000,-9030.512492,612.876398
231.558227,-148.041188,-8438.347739,766.095498
231.558554,74.020594,-8956.491898,995.924147
231.558881,222.061783,-9104.533087,919.314598
231.559209,296.082377,-9030.512492,919.314598
231.559536,518.144159,-9178.553681,766.095498
231.559864,1110.308913,-9178.553681,1225.752797
231.560191,1110.308913,-9178.553681,842.705048
231.560519,592.164754,-9474.636058,842.705048
231.560846,444.123565,-9178.553681,1072.533697
231.561174,222.061783,-9104.533087,536.266849
231.561501,370.102971,-9326.594869,459.657299
231.561828,444.123565,-9030.512492,229.828649
231.562156,74.020594,-9252.574275,536.266849
231.562483,0.000000,-9030.512492,306.438199
231.562811,-370.102971,-9104.533087,229.828649
231.563138,-592.164754,-9030.512492,229.828649
231.563466,-222.061783,-8808.450710,76.609550
231.563793,-592.164754,-8956.491898,0.000000
231.564120,-740.205942,-8882.471304,0.000000
231.564448,-1036.288319,-9104.533087,153.219100
231.564775,-1110.308913,-9104.533087,0.000000
231.565103,-1110.308913,-8734.430116,229.828649
231.565430,-1184.329507,-9178.553681,0.000000
231.565758,-1258.350101,-9030.512492,-153.219100
231.566085,-1110.308913,-9104.533087,-153.219100
231.566413,-962.267725,-9030.512492,0.000000
231.566740,-666.185348,-9178.553681,0.000000
231.567067,-518.144159,-9104.533087,0.000000
231.567395,-222.061783,-9104.533087,0.000000
231.567722,0.000000,-9104.533087,0.000000
231.568050,148.041188,-9178.553681,153.219100
231.568377,296.082377,-9030.512492,153.219100
231.568705,1110.308913,-9474.636058,766.095498
231.569032,666.185348,-9252.574275,459.657299
231.569359,814.226536,-9178.553681,612.876398
231.569687,962.267725,-9400.615463,689.485948
231.570014,962.267725,-9252.574275,1149.143247
231.570342,1258.350101,-8734.430116,995.924147
231.570669,444.123565,-9326.594869,842.705048
231.570997,814.226536,-9474.636058,1072.533697
231.571324,666.185348,-9326.594869,919.314598
231.571652,592.164754,-9326.594869,1225.752797
231.571979,444.123565,-8956.491898,1302.362347
231.572306,296.082377,-9326.594869,919.314598
231.572634,-148.041188,-9252.574275,689.485948
231.572961,-296.082377,-9104.533087,842.705048
231.573289,-592.164754,-8956.491898,1225.752797
231.573616,-1258.350101,-8956.491898,995.924147
231.573944,-740.205942,-8808.450710,995.924147
231.574271,-1406.391290,-8956.491898,1072.533697
231.574598,-1628.453072,-8882.471304,842.705048
231.574926,-1924.535449,-8882.471304,766.095498
231.575253,-1850.514855,-8808.450710,459.657299
231.575581,-1924.535449,-8808.450710,919.314598
231.575908,-1850.514855,-8808.450710,536.266849
231.576236,-1924.535449,-8808.450710,459.657299
231.576563,-1480.411884,-8956.491898,459.657299
231.576891,-1258.350101,-9252.574275,459.657299
231.577218,-518.144159,-8808.450710,536.266849
231.577545,-666.185348,-9030.512492,536.266849
231.577873,-148.041188,-8956.491898,689.485948
231.578200,0.000000,-9030.512492,612.876398
231.578528,0.000000,-9030.512492,459.657299
231.578855,518.144159,-9104.533087,1149.143247
231.579183,666.185348,-9030.512492,1149.143247
231.579510,888.247130,-9252.574275,919.314598
231.579837,962.267725,-9326.594869,995.924147
231.580165,740.205942,-9474.636058,919.314598
231.580492,1036.288319,-9548.656652,1225.752797
231.580820,1110.308913,-9326.594869,1149.143247
231.581147,444.123565,-9400.615463,919.314598
231.581475,814.226536,-9474.636058,919.314598
231.581802,444.123565,-9400.615463,995.924147
231.582130,296.082377,-9252.574275,689.485948
231.582457,0.000000,-9178.553681,459.657299
231.582784,-296.082377,-9326.594869,306.438199
231.583112,-444.123565,-9104.533087,229.828649
231.583439,-370.102971,-9252.574275,76.609550
231.583767,-740.205942,-8956.491898,76.609550
231.584094,-1036.288319,-8586.388927,459.657299
231.584422,-1184.329507,-8882.471304,0.000000
231.584749,-1332.370696,-8808.450710,0.000000
231.585076,-1406.391290,-8956.491898,76.609550
231.585404,-1480.411884,-8808.450710,0.000000
231.585731,-1628.453072,-8808.450710,0.000000
231.586059,-1110.308913,-9104.533087,0.000000
231.586386,-1332.370696,-8808.450710,0.000000
231.586714,-814.226536,-8882.471304,76.609550
231.587041,-814.226536,-8956.491898,0.000000
231.587369,-370.102971,-9030.512492,0.000000
231.587696,0.000000,-8808.450710,-306.438199
231.588023,148.041188,-9178.553681,0.000000
231.588351,444.123565,-9178.553681,76.609550
231.588678,592.164754,-9178.553681,76.609550
231.589006,666.185348,-9252.574275,689.485948
231.589333,1258.350101,-9400.615463,842.705048
231.589661,1110.308913,-9252.574275,766.095498
231.589988,888.247130,-9178.553681,612.876398
231.590315,888.247130,-9400.615463,842.705048
231.590643,592.164754,-9326.594869,842.705048
231.590970,962.267725,-9178.553681,1149.143247
231.591298,592.164754,-8956.491898,919.314598
231.591625,444.123565,-9252.574275,919.314598
231.591953,444.123565,-9252.574275,919.314598
231.592280,0.000000,-9104.533087,1149.143247
231.592608,-370.102971,-9178.553681,995.924147
231.592935,-444.123565,-8956.491898,919.314598
231.593262,-814.226536,-9252.574275,995.924147
231.593590,-888.247130,-9030.512492,766.095498
231.593917,-1184.329507,-8808.450710,689.485948
231.594245,-1480.411884,-8956.491898,919.314598
231.594572,-1184.329507,-8734.430116,842.705048
231.594900,-1702.473667,-9030.512492,306.438199
231.595227,-1850.514855,-8808.450710,459.657299
231.595554,-1924.535449,-8956.491898,383.047749
231.595882,-1850.514855,-8882.471304,383.047749
231.596209,-1480.411884,-8734.430116,536.266849
231.596537,-1776.494261,-8882.471304,612.876398
231.596864,-1258.350101,-9326.594869,536.266849
231.597192,-962.267725,-9178.553681,306.438199
231.597519,-592.164754,-9104.533087,153.219100
231.597847,-148.041188,-9252.574275,536.266849
231.598174,148.041188,-9474.636058,306.438199
231.598501,222.061783,-9474.636058,536.266849
231.598829,518.144159,-9474.636058,766.095498
231.599156,666.185348,-9400.615463,766.095498
231.599484,1110.308913,-9326.594869,383.047749
231.599811,740.205942,-9326.594869,1455.581446
231.600139,740.205942,-9622.677246,842.705048
231.600466,814.226536,-9474.636058,919.314598
231.600794,888.247130,-9400.615463,612.876398
231.601121,666.185348,-9474.636058,689.485948
231.601448,1036.288319,-9326.594869,919.314598
231.601776,888.247130,-9474.636058,919.314598
231.602103,444.123565,-9474.636058,766.095498
231.602431,222.061783,-9474.636058,689.485948
231.602758,0.000000,-9474.636058,612.876398
231.603086,-296.082377,-9178.553681,689.485948
231.603413,-222.061783,-9104.533087,459.657299
231.603740,-666.185348,-9030.512492,689.485948
231.604068,-740.205942,-8808.450710,459.657299
231.604395,-888.247130,-8956.491898,536.266849
231.604723,-592.164754,-8438.347739,612.876398
231.605050,-1184.329507,-8882.471304,306.438199
231.605378,-1628.453072,-8734.430116,0.000000
231.605705,-1480.411884,-8956.491898,0.000000
231.606033,-1702.473667,-8956.491898,-229.828649
231.606360,-1110.308913,-9252.574275,76.609550
231.606687,-1258.350101,-8734.430116,0.000000
231.607015,-888.247130,-9178.553681,0.000000
231.607342,-666.185348,-9030.512492,-306.438199
231.607670,-592.164754,-9104.533087,0.000000
231.607997,-370.102971,-8956.491898,0.000000
231.608325,0.000000,-8956.491898,229.828649
231.608652,518.144159,-8808.450710,0.000000
231.608979,592.164754,-9030.512492,459.657299
231.609307,888.247130,-8882.471304,459.657299
231.609634,1184.329507,-9178.553681,459.657299
231.609962,1110.308913,-8660.409521,1149.143247
231.610289,1406.391290,-9252.574275,1072.533697
231.610617,1184.329507,-9252.574275,1302.362347
231.610944,1332.370696,-9400.615463,919.314598
231.611272,814.226536,-9252.574275,1072.533697
231.611599,1110.308913,-8808.450710,1302.362347
231.611926,888.247130,-9252.574275,1302.362347
231.612254,518.144159,-9400.615463,1149.143247
231.612581,148.041188,-8956.491898,995.924147
231.612909,-148.041188,-9252.574275,1225.752797
231.613236,-296.082377,-9178.553681,1149.143247
231.613564,-518.144159,-8882.471304,842.705048
231.613891,-1258.350101,-8660.409521,766.095498
231.614218,-1480.411884,-9030.512492,459.657299
231.614546,-1702.473667,-9030.512492,612.876398
231.614873,-1998.556043,-8882.471304,306.438199
231.615201,-2072.576638,-8512.368333,229.828649
231.615528,-2368.659014,-8586.388927,459.657299
231.615856,-2590.720797,-8660.409521,459.657299
231.616183,-2516.700203,-8734.430116,459.657299
231.616511,-2220.617826,-8660.409521,536.266849
231.616838,-1924.535449,-8438.347739,76.609550
231.617165,-1480.411884,-8734.430116,536.266849
231.617493,-1110.308913,-8734.430116,153.219100
231.617820,-666.185348,-8882.471304,306.438199
231.618148,0.000000,-8956.491898,536.266849
231.618475,74.020594,-9326.594869,689.485948
231.618803,222.061783,-8808.450710,383.047749
231.619130,518.144159,-9178.553681,766.095498
231.619457,888.247130,-9400.615463,1072.533697
231.619785,1184.329507,-9400.615463,919.314598
231.620112,1184.329507,-9474.636058,766.095498
231.620440,1110.308913,-9326.594869,1149.143247
231.620767,1406.391290,-9696.697840,995.924147
231.621095,888.247130,-9474.636058,1072.533697
231.621422,740.205942,-9400.615463,1072.533697
231.621750,1184.329507,-9178.553681,919.314598
231.622077,222.061783,-9030.512492,842.705048
231.622404,296.082377,-9474.636058,919.314598
231.622732,0.000000,-9252.574275,383.047749
231.623059,-296.082377,-9178.553681,383.047749
231.623387,-592.164754,-8956.491898,536.266849
231.623714,-1036.288319,-8882.471304,919.314598
231.624042,-740.205942,-9030.512492,306.438199
231.624369,-962.267725,-8956.491898,0.000000
231.624696,-1332.370696,-8808.450710,0.000000
231.625024,-1406.391290,-8956.491898,0.000000
231.625351,-1628.453072,-8808.450710,0.000000
231.625679,-1702.473667,-8808.450710,383.047749
231.626006,-1554.432478,-8956.491898,0.000000
231.626334,-1258.350101,-8956.491898,0.000000
231.626661,-1406.391290,-8956.491898,0.000000
231.626989,-1110.308913,-9030.512492,0.000000
231.627316,-370.102971,-8956.491898,76.609550
231.627643,-296.082377,-9030.512492,0.000000
231.627971,0.000000,-9104.533087,0.000000
231.628298,444.123565,-9400.615463,153.219100
231.628626,592.164754,-9104.533087,383.047749
231.628953,1184.329507,-9178.553681,612.876398
231.629281,1184.329507,-9030.512492,919.314598
231.629608,1258.350101,-9326.594869,842.705048
231.629935,1332.370696,-9400.615463,919.314598
231.630263,1110.308913,-9252.574275,1072.533697
231.630590,1332.370696,-9104.533087,1302.362347
231.630918,1258.350101,-9326.594869,919.314598
231.631245,518.144159,-9252.574275,1225.752797
231.631573,666.185348,-9104.533087,995.924147
231.631900,296.082377,-9178.553681,1149.143247
231.632228,296.082377,-9030.512492,689.485948
231.632555,296.082377,-8956.491898,919.314598
231.632882,-296.082377,-9104.533087,919.314598
231.633210,-666.185348,-9030.512492,612.876398
231.633537,-740.205942,-9030.512492,536.266849
231.633865,-1110.308913,-8956.491898,842.705048
231.634192,-1036.288319,-8364.327145,459.657299
231.634520,-1776.494261,-8660.409521,612.876398
231.634847,-1554.432478,-8956.491898,229.828649
231.635174,-1998.556043,-8808.450710,536.266849
231.635502,-1924.535449,-8586.388927,612.876398
231.635829,-2072.576638,-8734.430116,842.705048
231.636157,-1110.308913,-8882.471304,229.828649
231.636484,-1480.411884,-8956.491898,76.609550
231.636812,-1406.391290,-8956.491898,229.828649
231.637139,-1110.308913,-9104.533087,76.609550
231.637467,-1258.350101,-8586.388927,383.047749
231.637794,-296.082377,-8882.471304,306.438199
231.638121,-222.061783,-9030.512492,229.828649
231.638449,-296.082377,-9326.594869,229.828649
231.638776,296.082377,-9326.594869,536.266849
231.639104,666.185348,-8882.471304,536.266849
231.639431,814.226536,-9474.636058,766.095498
231.639759,888.247130,-9548.656652,459.657299
231.640086,1036.288319,-9474.636058,766.095498
231.640414,814.226536,-9400.615463,1149.143247
231.640741,888.247130,-9400.615463,689.485948
231.641069,1110.308913,-9622.677246,766.095498
231.641396,962.267725,-9252.574275,612.876398
231.641723,444.123565,-9474.636058,689.485948
231.642051,518.144159,-9400.615463,612.876398
231.642378,444.123565,-9400.615463,919.314598
231.642706,0.000000,-9178.553681,766.095498
231.643033,0.000000,-9252.574275,766.095498
231.643361,-222.061783,-9326.594869,612.876398
231.643688,-666.185348,-9104.533087,306.438199
231.644016,-814.226536,-8808.450710,306.438199
231.644343,-814.226536,-9326.594869,153.219100
231.644670,-1332.370696,-8660.409521,842.705048
231.644998,-1406.391290,-8956.491898,306.438199
231.645325,-1628.453072,-8882.471304,306.438199
231.645653,-1628.453072,-8808.450710,76.609550
231.645980,-1702.473667,-8734.430116,-153.219100
231.646308,-1554.432478,-8956.491898,76.609550
231.646635,-1702.473667,-9030.512492,-153.219100
231.646963,-1480.411884,-9030.512492,0.000000
231.647290,-1258.350101,-9030.512492,0.000000
231.647618,-888.247130,-9030.512492,-306.438199
231.647945,-296.082377,-8808.450710,306.438199
231.648272,0.000000,-8808.450710,153.219100
231.648600,0.000000,-8808.450710,306.438199
231.648927,592.164754,-8882.471304,536.266849
231.649255,814.226536,-9030.512492,612.876398
231.649582,1480.411884,-9326.594869,842.705048
231.649910,888.247130,-8808.450710,766.095498
231.650237,1258.350101,-9104.533087,995.924147
231.650565,1406.391290,-9104.533087,919.314598
231.650892,1110.308913,-9178.553681,995.924147
231.651219,962.267725,-9252.574275,1225.752797
231.651547,814.226536,-8586.388927,1225.752797
231.651874,1036.288319,-9252.574275,1149.143247
231.652202,888.247130,-9326.594869,1302.362347
231.652529,518.144159,-9178.553681,1302.362347
231.652857,0.000000,-9178.553681,1302.362347
231.653184,222.061783,-8734.430116,919.314598
231.653512,-222.061783,-9252.574275,689.485948
231.653839,-740.205942,-8956.491898,995.924147
231.654167,-962.267725,-8956.491898,919.314598
231.654494,-1702.473667,-8808.450710,766.095498
231.654821,-1924.535449,-9252.574275,766.095498
231.655149,-1924.535449,-9178.553681,459.657299
231.655476,-2220.617826,-9178.553681,153.219100
231.655804,-2146.597232,-9030.512492,306.438199
231.656131,-2368.659014,-8882.471304,153.219100
231.656459,-1998.556043,-8734.430116,536.266849
231.656786,-1924.535449,-8808.450710,76.609550
231.657114,-1554.432478,-8956.491898,229.828649
231.657441,-1406.391290,-9030.512492,383.047749
231.657769,-962.267725,-9252.574275,383.047749
231.658096,-222.061783,-9104.533087,689.485948
231.658423,148.041188,-9474.636058,306.438199
231.658751,518.144159,-9400.615463,612.876398
231.659078,444.123565,-9178.553681,842.705048
231.659406,814.226536,-9474.636058,919.314598
231.659733,1110.308913,-9474.636058,1072.533697
231.660061,1702.473667,-9918.759623,1302.362347
231.660388,1110.308913,-9696.697840,1149.143247
231.660716,1036.288319,-9622.677246,689.485948
231.661043,1184.329507,-9548.656652,919.314598
231.661370,1480.411884,-9474.636058,842.705048
231.661698,1332.370696,-9844.739029,1302.362347
231.662025,1036.288319,-9474.636058,536.266849
231.662353,518.144159,-9400.615463,536.266849
231.662680,222.061783,-9252.574275,689.485948
231.663008,0.000000,-9104.533087,459.657299
231.663335,0.000000,-8956.491898,612.876398
231.663663,-592.164754,-8734.430116,536.266849
231.663990,-814.226536,-9178.553681,459.657299
231.664318,-1184.329507,-8956.491898,383.047749
231.664645,-1480.411884,-8808.450710,76.609550
231.664972,-1554.432478,-8734.430116,-306.438199
231.665300,-1628.453072,-8808.450710,0.000000
231.665627,-1628.453072,-8586.388927,-153.219100
231.665955,-1924.535449,-8734.430116,-76.609550
231.666282,-1850.514855,-8734.430116,0.000000
231.666610,-1554.432478,-8956.491898,0.000000
231.666937,-962.267725,-9030.512492,229.828649
231.667265,-1036.288319,-8882.471304,-229.828649
231.667592,-592.164754,-8882.471304,0.000000
231.667919,-370.102971,-8808.450710,0.000000
231.668247,0.000000,-8956.491898,0.000000
231.668574,370.102971,-8808.450710,459.657299
231.668902,370.102971,-8512.368333,306.438199
231.669229,814.226536,-8882.471304,536.266849
231.669557,1036.288319,-9104.533087,536.266849
231.669884,1036.288319,-9326.594869,842.705048
231.670212,1258.350101,-9474.636058,842.705048
231.670539,1406.391290,-9104.533087,995.924147
231.670867,1110.308913,-9030.512492,995.924147
231.671194,1036.288319,-9326.594869,995.924147
231.671521,740.205942,-9178.553681,919.314598
231.671849,814.226536,-8808.450710,612.876398
231.672176,666.185348,-8882.471304,1225.752797
231.672504,296.082377,-9178.553681,995.924147
231.672831,0.000000,-9178.553681,689.485948
231.673159,-222.061783,-9252.574275,1072.533697
231.673486,-444.123565,-8956.491898,766.095498
231.673814,-666.185348,-8586.388927,1378.971896
231.674141,-814.226536,-9030.512492,842.705048
231.674468,-1332.370696,-9178.553681,766.095498
231.674796,-1406.391290,-9178.553681,689.485948
231.675123,-1776.494261,-8956.491898,383.047749
231.675451,-2220.617826,-8660.409521,1149.143247
231.675778,-1702.473667,-8808.450710,766.095498
231.676106,-2146.597232,-8882.471304,229.828649
231.676433,-1776.494261,-8808.450710,383.047749
231.676761,-2072.576638,-8808.450710,153.219100
231.677088,-1184.329507,-8808.450710,459.657299
231.677416,-1110.308913,-8956.491898,153.219100
231.677743,-1036.288319,-8956.491898,153.219100
231.678070,-666.185348,-9252.574275,229.828649
231.678398,-296.082377,-9104.533087,536.266849
231.678725,74.020594,-9252.574275,536.266849
231.679053,962.267725,-9326.594869,842.705048
231.679380,518.144159,-9400.615463,766.095498
231.679708,814.226536,-9474.636058,842.705048
231.680035,1036.288319,-9474.636058,842.705048
231.680363,1036.288319,-9474.636058,766.095498
231.680690,1110.308913,-9474.636058,995.924147
231.681017,1332.370696,-9400.615463,1072.533697
231.681345,1332.370696,-9400.615463,842.705048
231.681672,1184.329507,-9548.656652,689.485948
231.682000,1036.288319,-9474.636058,919.314598
231.682327,814.226536,-9178.553681,919.314598
231.682655,518.144159,-9474.636058,689.485948
231.682982,222.061783,-9326.594869,612.876398
231.683310,0.000000,-9252.574275,536.266849
231.683637,-296.082377,-9252.574275,536.266849
231.683965,-370.102971,-9104.533087,153.219100
231.684292,-370.102971,-9104.533087,459.657299
231.684619,-1184.329507,-9030.512492,229.828649
231.684947,-1480.411884,-8882.471304,153.219100
231.685274,-1554.432478,-8882.471304,76.609550
231.685602,-1480.411884,-8734.430116,0.000000
231.685929,-1628.453072,-8660.409521,-306.438199
231.686257,-1850.514855,-8882.471304,-229.828649
231.686584,-1924.535449,-8808.450710,0.000000
231.686912,-1480.411884,-8808.450710,-153.219100
231.687239,-1332.370696,-9030.512492,-153.219100
231.687566,-1036.288319,-8882.471304,229.828649
231.687894,-666.185348,-8808.450710,306.438199
231.688221,-148.041188,-8956.491898,-229.828649
231.688549,0.000000,-8956.491898,153.219100
231.688876,148.041188,-8808.450710,153.219100
231.689204,888.247130,-9326.594869,383.047749
231.689531,1036.288319,-8882.471304,306.438199
231.689859,1184.329507,-9474.636058,689.485948
231.690186,1332.370696,-9178.553681,842.705048
231.690514,1406.391290,-9252.574275,612.876398
231.690841,1258.350101,-9104.533087,995.924147
231.691168,1036.288319,-9252.574275,1455.581446
231.691496,1702.473667,-9104.533087,842.705048
231.691823,1332.370696,-9548.656652,1149.143247
231.692151,962.267725,-9104.533087,1149.143247
231.692478,814.226536,-9400.615463,1225.752797
231.692806,74.020594,-8734.430116,1225.752797
231.693133,0.000000,-9326.594869,1302.362347
231.693461,0.000000,-9178.553681,1225.752797
231.693788,-814.226536,-9030.512492,1149.143247
231.694116,-962.267725,-8956.491898,995.924147
231.694443,-1702.473667,-8882.471304,919.314598
231.694770,-1258.350101,-9178.553681,842.705048
231.695098,-1998.556043,-8956.491898,689.485948
231.695425,-2294.638420,-8956.491898,459.657299
231.695753,-2368.659014,-8882.471304,229.828649
231.696080,-2220.617826,-8512.368333,689.485948
231.696408,-2442.679609,-8512.368333,153.219100
231.696735,-2294.638420,-9030.512492,153.219100
231.697063,-2072.576638,-8956.491898,153.219100
231.697390,-1554.432478,-8734.430116,229.828649
231.697717,-888.247130,-8956.491898,842.705048
231.698045,-814.226536,-9400.615463,459.657299
231.698372,-592.164754,-9326.594869,536.266849
231.698700,0.000000,-9326.594869,459.657299
231.699027,444.123565,-9400.615463,766.095498
231.699355,592.164754,-9400.615463,689.485948
231.699682,444.123565,-9252.574275,1072.533697
231.700010,1110.308913,-9400.615463,1072.533697
231.700337,1628.453072,-9548.656652,1149.143247
231.700665,1480.411884,-9548.656652,919.314598
231.700992,1332.370696,-9474.636058,612.876398
231.701319,1406.391290,-9474.636058,612.876398
231.701647,1406.391290,-9400.615463,995.924147
231.701974,1110.308913,-9548.656652,995.924147
231.702302,814.226536,-9474.636058,919.314598
231.702629,666.185348,-9474.636058,1072.533697
231.702957,370.102971,-9400.615463,459.657299
231.703284,-296.082377,-9030.512492,842.705048
231.703612,-148.041188,-9178.553681,766.095498
231.703939,-592.164754,-9104.533087,766.095498
231.704266,-888.247130,-9030.512492,459.657299
231.704594,-1110.308913,-8956.491898,459.657299
231.704921,-1480.411884,-8808.450710,229.828649
231.705249,-1480.411884,-8882.471304,383.047749
231.705576,-1924.535449,-8586.388927,0.000000
231.705904,-1924.535449,-8882.471304,76.609550
231.706231,-1628.453072,-8734.430116,-153.219100
231.706559,-1258.350101,-8956.491898,0.000000
231.706886,-1406.391290,-8734.430116,-306.438199
231.707214,-1184.329507,-8734.430116,0.000000
231.707541,-740.205942,-9030.512492,0.000000
231.707868,-666.185348,-9030.512492,76.609550
231.708196,-518.144159,-8734.430116,229.828649
231.708523,222.061783,-8882.471304,612.876398
231.708851,296.082377,-9252.574275,536.266849
231.709178,518.144159,-9178.553681,612.876398
231.709506,962.267725,-9030.512492,536.266849
231.709833,1110.308913,-9178.553681,383.047749
231.710161,962.267725,-9030.512492,1149.143247
231.710488,1110.308913,-9030.512492,1072.533697
231.710815,1110.308913,-9326.594869,536.266849
231.711143,1184.329507,-9326.594869,1225.752797
231.711470,1406.391290,-9104.533087,766.095498
231.711798,888.247130,-8808.450710,1302.362347
231.712125,888.247130,-9178.553681,1149.143247
231.712453,370.102971,-9326.594869,1149.143247
231.712780,296.082377,-9252.574275,1149.143247
231.713108,0.000000,-9252.574275,766.095498
231.713435,-222.061783,-8882.471304,919.314598
231.713763,-962.267725,-8660.409521,842.705048
231.714090,-888.247130,-9178.553681,689.485948
231.714417,-1480.411884,-9178.553681,536.266849
231.714745,-1628.453072,-9104.533087,612.876398
231.715072,-1554.432478,-8734.430116,766.095498
231.715400,-1924.535449,-8364.327145,153.219100
231.715727,-1776.494261,-8734.430116,229.828649
231.716055,-1998.556043,-8586.388927,229.828649
231.716382,-1998.556043,-8660.409521,153.219100
231.716710,-2146.597232,-8290.306550,153.219100
231.717037,-1480.411884,-8586.388927,306.438199
231.717364,-1406.391290,-9030.512492,76.609550
231.717692,-1258.350101,-9178.553681,76.609550
231.718019,-740.205942,-9030.512492,306.438199
231.718347,-370.102971,-9252.574275,229.828649
231.718674,0.000000,-9104.533087,459.657299
231.719002,296.082377,-9474.636058,536.266849
231.719329,592.164754,-9474.636058,842.705048
231.719657,814.226536,-9474.636058,689.485948
231.719984,962.267725,-9326.594869,612.876398
231.720312,1036.288319,-9474.636058,1072.533697
231.720639,1110.308913,-9548.656652,995.924147
231.720966,1110.308913,-9696.697840,1149.143247
231.721294,1332.370696,-9474.636058,1072.533697
231.721621,740.205942,-9326.594869,1072.533697
231.721949,888.247130,-8956.491898,1455.581446
231.722276,666.185348,-9400.615463,919.314598
231.722604,74.020594,-9326.594869,842.705048
231.722931,296.082377,-9400.615463,689.485948
231.723259,-222.061783,-9326.594869,766.095498
231.723586,-222.061783,-9030.512492,306.438199
231.723914,-296.082377,-9474.636058,766.095498
231.724241,-962.267725,-9104.533087,689.485948
231.724568,-1036.288319,-9104.533087,306.438199
231.724896,-1258.350101,-8808.450710,229.828649
231.725223,-1406.391290,-8882.471304,76.609550
231.725551,-1258.350101,-8586.388927,153.219100
231.725878,-1850.514855,-8660.409521,0.000000
231.726206,-1998.556043,-8660.409521,0.000000
231.726533,-1924.535449,-8734.430116,-229.828649
231.726861,-1628.453072,-8956.491898,76.609550
231.727188,-1628.453072,-8808.450710,0.000000
231.727515,-1184.329507,-8438.347739,306.438199
231.727843,-962.267725,-8956.491898,76.609550
231.728170,-592.164754,-8956.491898,0.000000
231.728498,-222.061783,-9252.574275,0.000000
231.728825,0.000000,-9104.533087,-383.047749
231.729153,370.102971,-8438.347739,459.657299
231.729480,666.185348,-8956.491898,536.266849
231.729808,1036.288319,-9178.553681,536.266849
231.730135,1184.329507,-9252.574275,612.876398
231.730463,1554.432478,-9030.512492,842.705048
231.730790,1406.391290,-9178.553681,766.095498
231.731117,1184.329507,-9104.533087,919.314598
231.731445,1480.411884,-9178.553681,842.705048
231.731772,1332.370696,-9252.574275,1149.143247
231.732100,1184.329507,-9326.594869,1378.971896
231.732427,888.247130,-9178.553681,1685.410096
231.732755,296.082377,-9474.636058,1072.533697
231.733082,222.061783,-9252.574275,919.314598
231.733410,0.000000,-9252.574275,1302.362347
231.733737,-444.123565,-8956.491898,919.314598
231.734064,-444.123565,-9178.553681,1838.629195
231.734392,-1036.288319,-8808.450710,919.314598
231.734719,-1776.494261,-8808.450710,689.485948
231.735047,-1776.494261,-8808.450710,766.095498
231.735374,-1850.514855,-8882.471304,536.266849
231.735702,-1850.514855,-8808.450710,689.485948
231.736029,-2072.576638,-8586.388927,229.828649
231.736356,-2368.659014,-8882.471304,76.609550
231.736684,-2146.597232,-9104.533087,306.438199
231.737011,-1924.535449,-8956.491898,383.047749
231.737339,-1924.535449,-9178.553681,0.000000
231.737666,-1406.391290,-8660.409521,0.000000
231.737994,-1036.288319,-9178.553681,153.219100
231.738321,-666.185348,-9252.574275,306.438199
231.738648,-444.123565,-8956.491898,383.047749
231.738976,74.020594,-9252.574275,459.657299
231.739303,666.185348,-9178.553681,1072.533697
231.739631,1036.288319,-9474.636058,766.095498
231.739958,962.267725,-9400.615463,689.485948
231.740285,1258.350101,-9400.615463,842.705048
231.740613,1332.370696,-9548.656652,766.095498
231.740940,1036.288319,-9400.615463,995.924147
231.741268,1480.411884,-9918.759623,919.314598
231.741595,1406.391290,-9622.677246,689.485948
231.741923,888.247130,-9622.677246,766.095498
231.742250,1036.288319,-9252.574275,689.485948
231.742577,814.226536,-9474.636058,919.314598
231.742905,444.123565,-9252.574275,612.876398
231.743232,296.082377,-9400.615463,612.876398
231.743560,-370.102971,-9252.574275,689.485948
231.743887,-370.102971,-9326.594869,689.485948
231.744214,-518.144159,-9326.594869,536.266849
231.744542,-666.185348,-8660.409521,459.657299
231.744869,-962.267725,-8808.450710,383.047749
231.745197,-1332.370696,-9104.533087,229.828649
231.745524,-1406.391290,-8808.450710,153.219100
231.745852,-1702.473667,-8586.388927,0.000000
231.746179,-1702.473667,-8734.430116,536.266849
231.746506,-1776.494261,-8512.368333,0.000000
231.746834,-1850.514855,-8808.450710,0.000000
231.747161,-1480.411884,-8882.471304,-306.438199
231.747489,-1184.329507,-8956.491898,0.000000
231.747816,-592.164754,-8956.491898,306.438199
231.748143,-666.185348,-8808.450710,0.000000
231.748471,-592.164754,-9178.553681,306.438199
231.748798,0.000000,-9030.512492,229.828649
231.749126,0.000000,-9104.533087,536.266849
231.749453,518.144159,-8808.450710,76.609550
231.749780,814.226536,-8956.491898,1455.581446
231.750108,1036.288319,-9104.533087,842.705048
231.750435,1332.370696,-9252.574275,766.095498
231.750763,962.267725,-8956.491898,766.095498
231.751090,962.267725,-9104.533087,689.485948
231.751418,1036.288319,-8734.430116,1302.362347
231.751745,1702.473667,-8956.491898,995.924147
231.752072,1036.288319,-9252.574275,1072.533697
231.752400,814.226536,-9104.533087,1072.533697
231.752727,444.123565,-9326.594869,1378.971896
231.753055,74.020594,-8882.471304,1455.581446
231.753382,-222.061783,-9104.533087,612.876398
231.753709,-370.102971,-9252.574275,1072.533697
231.754037,-814.226536,-9474.636058,842.705048
231.754364,-962.267725,-9104.533087,612.876398
231.754692,-1110.308913,-9104.533087,1072.533697
231.755019,-1554.432478,-8882.471304,153.219100
231.755347,-1628.453072,-9030.512492,536.266849
231.755674,-2146.597232,-8956.491898,153.219100
231.756001,-1998.556043,-8956.491898,383.047749
231.756329,-2368.659014,-9104.533087,459.657299
231.756656,-1850.514855,-8512.368333,76.609550
231.756984,-1628.453072,-8586.388927,76.609550
231.757311,-1628.453072,-8956.491898,0.000000
231.757638,-1406.391290,-9030.512492,306.438199
231.757966,-962.267725,-8882.471304,459.657299
231.758293,-444.123565,-8734.430116,612.876398
231.758621,-296.082377,-9104.533087,459.657299
231.758948,74.020594,-9400.615463,459.657299
231.759276,370.102971,-9326.594869,536.266849
231.759603,666.185348,-9252.574275,766.095498
231.759930,1258.350101,-9104.533087,919.314598
231.760258,1332.370696,-9696.697840,612.876398
231.760585,1184.329507,-9474.636058,919.314598
231.760913,1184.329507,-9474.636058,842.705048
231.761240,1184.329507,-9474.636058,1149.143247
231.761567,1184.329507,-9474.636058,842.705048
231.761895,962.267725,-9400.615463,1225.752797
231.762222,962.267725,-9326.594869,842.705048
231.762550,370.102971,-9326.594869,919.314598
231.762877,518.144159,-9474.636058,842.705048
231.763204,444.123565,-9178.553681,1072.533697
231.763532,0.000000,-9030.512492,612.876398
231.763859,-296.082377,-9252.574275,689.485948
231.764187,-666.185348,-9030.512492,536.266849
231.764514,-962.267725,-9104.533087,459.657299
231.764842,-962.267725,-9030.512492,459.657299
231.765169,-1110.308913,-8808.450710,536.266849
231.765496,-1554.432478,-8808.450710,306.438199
231.765824,-1628.453072,-8586.388927,0.000000
231.766151,-1998.556043,-8808.450710,0.000000
231.766479,-1924.535449,-8734.430116,-229.828649
231.766806,-1776.494261,-8956.491898,-306.438199
231.767133,-1628.453072,-8734.430116,0.000000
231.767461,-1332.370696,-8882.471304,153.219100
231.767788,-1110.308913,-8882.471304,153.219100
231.768116,-592.164754,-9252.574275,0.000000
231.768443,-592.164754,-8660.409521,229.828649
231.768771,296.082377,-8734.430116,153.219100
231.769098,222.061783,-8882.471304,229.828649
231.769425,592.164754,-9104.533087,229.828649
231.769753,888.247130,-9400.615463,689.485948
231.770080,1332.370696,-9178.553681,995.924147
231.770408,1628.453072,-9326.594869,842.705048
231.770735,1332.370696,-9326.594869,842.705048
231.771062,1184.329507,-9104.533087,842.705048
231.771390,1480.411884,-9252.574275,1455.581446
231.771717,1702.473667,-9030.512492,1072.533697
231.772045,1258.350101,-9400.615463,995.924147
231.772372,1110.308913,-9252.574275,1532.190996
231.772700,592.164754,-9252.574275,919.314598
231.773027,222.061783,-9252.574275,919.314598
231.773354,0.000000,-9252.574275,842.705048
231.773682,0.000000,-9474.636058,612.876398
231.774009,-592.164754,-8660.409521,1378.971896
231.774337,-1036.288319,-9030.512492,766.095498
231.774664,-1480.411884,-9104.533087,689.485948
231.774991,-1776.494261,-8808.450710,536.266849
231.775319,-1998.556043,-8734.430116,306.438199
231.775646,-2294.638420,-8512.368333,612.876398
231.775974,-2516.700203,-8956.491898,229.828649
231.776301,-2368.659014,-8734.430116,0.000000
231.776628,-2368.659014,-8734.430116,0.000000
231.776956,-2072.576638,-8734.430116,153.219100
231.777283,-1628.453072,-8364.327145,0.000000
231.777611,-1480.411884,-8882.471304,153.219100
231.777938,-1184.329507,-8956.491898,0.000000
231.778266,-666.185348,-9178.553681,153.219100
231.778593,-296.082377,-9178.553681,153.219100
231.778920,148.041188,-9104.533087,536.266849
231.779248,370.102971,-9178.553681,306.438199
231.779575,962.267725,-9622.677246,612.876398
231.779903,1184.329507,-9474.636058,612.876398
231.780230,1258.350101,-9548.656652,919.314598
231.780557,1406.391290,-9548.656652,689.485948
231.780885,1702.473667,-9400.615463,766.095498
231.781212,1554.432478,-9548.656652,612.876398
231.781540,1036.288319,-9696.697840,612.876398
231.781867,1332.370696,-9622.677246,689.485948
231.782195,1332.370696,-9178.553681,1225.752797
231.782522,888.247130,-9104.533087,689.485948
231.782849,518.144159,-9474.636058,689.485948
231.783177,296.082377,-9326.594869,536.266849
231.783504,0.000000,-9252.574275,612.876398
231.783832,0.000000,-9030.512492,459.657299
231.784159,-518.144159,-9326.594869,383.047749
231.784486,-888.247130,-9104.533087,536.266849
231.784814,-1184.329507,-8882.471304,383.047749
231.785141,-1554.432478,-8956.491898,459.657299
231.785469,-1480.411884,-8808.450710,76.609550
231.785796,-1554.432478,-8364.327145,229.828649
231.786124,-1776.494261,-8660.409521,0.000000
231.786451,-2146.597232,-8660.409521,0.000000
231.786778,-1924.535449,-8734.430116,76.609550
231.787106,-1702.473667,-8882.471304,76.609550
231.787433,-1036.288319,-8808.450710,306.438199
231.787761,-1258.350101,-8956.491898,229.828649
231.788088,-888.247130,-9030.512492,76.609550
231.788415,-370.102971,-9030.512492,383.047749
231.788743,-222.061783,-9030.512492,383.047749
231.789070,74.020594,-9030.512492,689.485948
231.789398,74.020594,-8956.491898,766.095498
231.789725,592.164754,-9178.553681,612.876398
231.790052,888.247130,-9326.594869,459.657299
231.790380,1110.308913,-9104.533087,612.876398
231.790707,1036.288319,-9326.594869,689.485948
231.791035,962.267725,-8734.430116,1225.752797
231.791362,1184.329507,-9178.553681,1225.752797
231.791690,1332.370696,-8882.471304,1072.533697
231.792017,666.185348,-9104.533087,1149.143247
231.792344,1036.288319,-9252.574275,1149.143247
231.792672,148.041188,-9252.574275,842.705048
231.792999,296.082377,-9474.636058,1149.143247
231.793327,0.000000,-9252.574275,919.314598
231.793654,-444.123565,-9252.574275,1149.143247
231.793981,-592.164754,-9474.636058,1072.533697
231.794309,-518.144159,-9252.574275,766.095498
231.794636,-962.267725,-9104.533087,995.924147
231.794964,-1332.370696,-9178.553681,383.047749
231.795291,-1776.494261,-9252.574275,459.657299
231.795619,-1776.494261,-8956.491898,383.047749
231.795946,-1924.535449,-8808.450710,76.609550
231.796273,-1924.535449,-8364.327145,0.000000
231.796601,-1776.494261,-8882.471304,0.000000
231.796928,-1850.514855,-8956.491898,229.828649
231.797256,-1628.453072,-8808.450710,0.000000
231.797583,-1258.350101,-8956.491898,76.609550
231.797910,-814.226536,-9030.512492,229.828649
231.798238,-888.247130,-9178.553681,76.609550
231.798565,0.000000,-9400.615463,0.000000
231.798893,0.000000,-9178.553681,459.657299
231.799220,222.061783,-9400.615463,536.266849
231.799548,518.144159,-9252.574275,459.657299
231.799875,962.267725,-9474.636058,842.705048
231.800202,1036.288319,-9474.636058,919.314598
231.800530,1110.308913,-9474.636058,536.266849
231.800857,1184.329507,-9474.636058,919.314598
231.801185,1332.370696,-9696.697840,76.609550
231.801512,1110.308913,-9474.636058,842.705048
231.801839,888.247130,-9474.636058,689.485948
231.802167,1036.288319,-9252.574275,612.876398
231.802494,296.082377,-9400.615463,766.095498
231.802822,444.123565,-9252.574275,1072.533697
231.803149,666.185348,-9030.512492,1225.752797
231.803476,0.000000,-9252.574275,689.485948
231.803804,-148.041188,-9178.553681,689.485948
231.804131,-814.226536,-9030.512492,766.095498
231.804459,-962.267725,-8956.491898,689.485948
231.804786,-1036.288319,-9030.512492,459.657299
231.805114,-1480.411884,-8808.450710,229.828649
231.805441,-1480.411884,-8808.450710,153.219100
231.805768,-1702.473667,-8734.430116,76.609550
231.806096,-1850.514855,-8808.450710,0.000000
231.806423,-2220.617826,-8512.368333,0.000000
231.806751,-1554.432478,-8660.409521,76.609550
231.807078,-1554.432478,-8660.409521,0.000000
231.807405,-1406.391290,-8882.471304,0.000000
231.807733,-1110.308913,-9030.512492,0.000000
231.808060,-814.226536,-9030.512492,-229.828649
231.808388,-666.185348,-8660.409521,229.828649
231.808715,-222.061783,-9104.533087,76.609550
231.809043,0.000000,-9326.594869,383.047749
231.809370,296.082377,-9326.594869,383.047749
231.809697,666.185348,-9030.512492,536.266849
231.810025,1036.288319,-8956.491898,842.705048
231.810352,1258.350101,-9252.574275,842.705048
231.810680,1184.329507,-9400.615463,919.314598
231.811007,1332.370696,-9252.574275,995.924147
231.811334,1480.411884,-9252.574275,1225.752797
231.811662,1480.411884,-9104.533087,1378.971896
231.811989,592.164754,-8956.491898,1149.143247
231.812317,1036.288319,-9326.594869,919.314598
231.812644,740.205942,-9400.615463,1225.752797
231.812972,370.102971,-9400.615463,919.314598
231.813299,444.123565,-9844.739029,1685.410096
231.813626,0.000000,-9326.594869,995.924147
231.813954,-518.144159,-9400.615463,919.314598
231.814281,-888.247130,-9252.574275,689.485948
231.814609,-1184.329507,-9178.553681,919.314598
231.814936,-1702.473667,-8734.430116,766.095498
231.815263,-1998.556043,-8734.430116,689.485948
231.815591,-1998.556043,-8956.491898,459.657299
231.815918,-2220.617826,-8808.450710,306.438199
231.816246,-2442.679609,-8660.409521,383.047749
231.816573,-2220.617826,-8660.409521,0.000000
231.816900,-1924.535449,-8586.388927,459.657299
231.817228,-1850.514855,-8882.471304,0.000000
231.817555,-1628.453072,-8808.450710,153.219100
231.817883,-1480.411884,-8734.430116,153.219100
231.818210,-962.267725,-9104.533087,229.828649
231.818538,-444.123565,-8808.450710,383.047749
231.818865,74.020594,-9326.594869,153.219100
231.819192,296.082377,-9326.594869,306.438199
231.819520,666.185348,-9400.615463,536.266849
231.819847,888.247130,-9400.615463,612.876398
231.820175,1184.329507,-9474.636058,766.095498
231.820502,1628.453072,-9548.656652,536.266849
231.820829,1406.391290,-9474.636058,919.314598
231.821157,1184.329507,-9474.636058,459.657299
231.821484,1480.411884,-9548.656652,995.924147
231.821812,1628.453072,-9326.594869,919.314598
231.822139,888.247130,-9178.553681,842.705048
231.822467,1332.370696,-9474.636058,612.876398
231.822794,814.226536,-9474.636058,1149.143247
231.823121,444.123565,-9400.615463,612.876398
231.823449,222.061783,-9326.594869,536.266849
231.823776,0.000000,-9178.553681,1149.143247
231.824104,-592.164754,-8660.409521,689.485948
231.824431,-740.205942,-9104.533087,689.485948
231.824758,-1036.288319,-9104.533087,229.828649
231.825086,-1258.350101,-8956.491898,306.438199
231.825413,-1628.453072,-8438.347739,459.657299
231.825741,-1406.391290,-8512.368333,0.000000
231.826068,-1998.556043,-8586.388927,229.828649
231.826396,-2072.576638,-8734.430116,0.000000
231.826723,-2146.597232,-8586.388927,0.000000
231.827050,-1628.453072,-8808.450710,0.000000
231.827378,-1332.370696,-8512.368333,153.219100
231.827705,-1332.370696,-8956.491898,76.609550
231.828033,-1036.288319,-9030.512492,306.438199
231.828360,-592.164754,-9030.512492,229.828649
231.828687,-74.020594,-9178.553681,306.438199
231.829015,148.041188,-9178.553681,612.876398
231.829342,296.082377,-9326.594869,536.266849
231.829670,370.102971,-9178.553681,689.485948
231.829997,666.185348,-9104.533087,842.705048
231.830324,962.267725,-9400.615463,766.095498
231.830652,1332.370696,-9178.553681,1991.848295
231.830979,1110.308913,-9252.574275,995.924147
231.831307,1406.391290,-9030.512492,766.095498
231.831634,1258.350101,-9178.553681,842.705048
231.831962,1332.370696,-9252.574275,995.924147
231.832289,1184.329507,-9252.574275,1762.019645
231.832616,666.185348,-9178.553681,1072.533697
231.832944,370.102971,-9474.636058,1225.752797
231.833271,148.041188,-9400.615463,919.314598
231.833599,-444.123565,-9474.636058,1149.143247
231.833926,-444.123565,-9326.594869,1225.752797
231.834253,-814.226536,-9178.553681,1149.143247
231.834581,-1332.370696,-9178.553681,919.314598
231.834908,-1480.411884,-9104.533087,612.876398
231.835236,-1850.514855,-8808.450710,536.266849
231.835563,-1850.514855,-8956.491898,459.657299
231.835891,-1924.535449,-8660.409521,383.047749
231.836218,-2368.659014,-8586.388927,153.219100
231.836545,-2072.576638,-8734.430116,0.000000
231.836873,-1850.514855,-8882.471304,0.000000
231.837200,-1554.432478,-8882.471304,76.609550
231.837528,-1332.370696,-8734.430116,995.924147
231.837855,-888.247130,-8956.491898,0.000000
231.838182,-740.205942,-9104.533087,153.219100
231.838510,-518.144159,-9104.533087,459.657299
231.838837,0.000000,-9178.553681,459.657299
231.839165,592.164754,-9178.553681,536.266849
231.839492,740.205942,-9178.553681,842.705048
231.839819,888.247130,-9474.636058,766.095498
231.840147,1110.308913,-9474.636058,995.924147
231.840474,1258.350101,-9474.636058,536.266849
231.840802,1480.411884,-9474.636058,995.924147
231.841129,1110.308913,-9252.574275,689.485948
231.841456,888.247130,-9474.636058,919.314598
231.841784,1406.391290,-9474.636058,766.095498
231.842111,1110.308913,-9474.636058,612.876398
231.842439,814.226536,-9326.594869,766.095498
231.842766,592.164754,-9252.574275,612.876398
231.843093,74.020594,-9252.574275,766.095498
231.843421,0.000000,-9474.636058,459.657299
231.843748,-74.020594,-9104.533087,766.095498
231.844076,-592.164754,-9178.553681,689.485948
231.844403,-962.267725,-8734.430116,766.095498
231.844730,-1184.329507,-8808.450710,919.314598
231.845058,-1702.473667,-8808.450710,536.266849
231.845385,-1554.432478,-8808.450710,153.219100
231.845713,-1702.473667,-8586.388927,76.609550
231.846040,-1406.391290,-8734.430116,153.219100
231.846367,-2072.576638,-8512.368333,0.000000
231.846695,-1702.473667,-8808.450710,0.000000
231.847022,-1628.453072,-8734.430116,-229.828649
231.847350,-1110.308913,-8956.491898,0.000000
231.847677,-1332.370696,-9252.574275,383.047749
231.848004,-1332.370696,-9252.574275,-153.219100
231.848332,-222.061783,-9252.574275,0.000000
231.848659,0.000000,-9178.553681,0.000000
231.848987,148.041188,-9326.594869,229.828649
231.849314,592.164754,-9474.636058,383.047749
231.849641,592.164754,-8734.430116,689.485948
231.849969,1184.329507,-9178.553681,689.485948
231.850296,1036.288319,-9252.574275,536.266849
231.850624,1258.350101,-9104.533087,766.095498
231.850951,1036.288319,-9178.553681,842.705048
231.851278,1258.350101,-9104.533087,1685.410096
231.851606,1776.494261,-8734.430116,766.095498
231.851933,962.267725,-9104.533087,1225.752797
231.852261,1258.350101,-9326.594869,1149.143247
231.852588,370.102971,-9326.594869,1149.143247
231.852916,296.082377,-9178.553681,995.924147
231.853243,222.061783,-9326.594869,919.314598
231.853570,-148.041188,-9252.574275,1149.143247
231.853898,-444.123565,-9178.553681,689.485948
231.854225,-1036.288319,-9474.636058,842.705048
231.854553,-1036.288319,-9326.594869,842.705048
231.854880,-1406.391290,-8808.450710,1072.533697
231.855207,-2072.576638,-8956.491898,766.095498
231.855535,-1776.494261,-9030.512492,459.657299
231.855862,-1998.556043,-8882.471304,459.657299
231.856190,-2294.638420,-8808.450710,383.047749
231.856517,-1998.556043,-8660.409521,0.000000
231.856844,-1998.556043,-8660.409521,459.657299
231.857172,-2146.597232,-8808.450710,153.219100
231.857499,-1554.432478,-8956.491898,229.828649
231.857827,-1332.370696,-8956.491898,153.219100
231.858154,-740.205942,-9400.615463,459.657299
231.858481,-370.102971,-8956.491898,383.047749
231.858809,0.000000,-9252.574275,459.657299
231.859136,296.082377,-9326.594869,229.828649
231.859464,740.205942,-9474.636058,536.266849
231.859791,962.267725,-9030.512492,689.485948
231.860118,962.267725,-9252.574275,766.095498
231.860446,1332.370696,-9474.636058,689.485948
231.860773,1258.350101,-9474.636058,689.485948
231.861101,1110.308913,-9844.739029,612.876398
231.861428,1406.391290,-9548.656652,919.314598
231.861755,1406.391290,-9252.574275,689.485948
231.862083,1110.308913,-9400.615463,612.876398
231.862410,1110.308913,-9474.636058,766.095498
231.862738,740.205942,-9400.615463,536.266849
231.863065,370.102971,-9326.594869,612.876398
231.863392,444.123565,-8956.491898,306.438199
231.863720,-148.041188,-9178.553681,995.924147
231.864047,-518.144159,-9178.553681,536.266849
231.864375,-592.164754,-9104.533087,536.266849
231.864702,-1036.288319,-9030.512492,842.705048
231.865029,-1184.329507,-8660.409521,383.047749
231.865357,-1480.411884,-8512.368333,536.266849
231.865684,-1850.514855,-8660.409521,153.219100
231.866012,-1998.556043,-8438.347739,0.000000
231.866339,-2072.576638,-8660.409521,229.828649
231.866666,-2072.576638,-8660.409521,383.047749
231.866994,-1258.350101,-8586.388927,0.000000
231.867321,-1554.432478,-8808.450710,0.000000
231.867649,-1258.350101,-8956.491898,0.000000
231.867976,-1036.288319,-8882.471304,153.219100
231.868303,-814.226536,-9104.533087,229.828649
231.868631,-518.144159,-9178.553681,306.438199
231.868958,-222.061783,-9252.574275,306.438199
231.869286,74.020594,-9178.553681,306.438199
231.869613,518.144159,-9400.615463,612.876398
231.869940,814.226536,-9178.553681,689.485948
231.870268,1184.329507,-8882.471304,689.485948
231.870595,1184.329507,-9252.574275,459.657299
231.870923,1258.350101,-9326.594869,919.314598
231.871250,1036.288319,-9178.553681,612.876398
231.871577,1110.308913,-9178.553681,1302.362347
231.871905,1776.494261,-8882.471304,1072.533697
231.872232,1184.329507,-9252.574275,1378.971896
231.872560,888.247130,-9252.574275,1072.533697
231.872887,444.123565,-9474.636058,919.314598
231.873214,74.020594,-9400.615463,1072.533697
231.873542,-148.041188,-9252.574275,1072.533697
231.873869,0.000000,-9178.553681,919.314598
231.874197,-666.185348,-9474.636058,1072.533697
231.874524,-962.267725,-9252.574275,919.314598
231.874851,-962.267725,-9104.533087,995.924147
231.875179,-1776.494261,-8882.471304,689.485948
231.875506,-1776.494261,-9030.512492,229.828649
231.875834,-2368.659014,-8438.347739,612.876398
231.876161,-2220.617826,-8808.450710,383.047749
231.876489,-1998.556043,-8808.450710,459.657299
231.876816,-2146.597232,-8660.409521,76.609550
231.877143,-1702.473667,-8512.368333,0.000000
231.877471,-1480.411884,-8808.450710,153.219100
231.877798,-1258.350101,-9104.533087,229.828649
231.878126,-962.267725,-9030.512492,153.219100
231.878453,-592.164754,-9104.533087,459.657299
231.878780,-148.041188,-9474.636058,306.438199
231.879108,0.000000,-9104.533087,612.876398
231.879435,296.082377,-9474.636058,612.876398
231.879763,666.185348,-9252.574275,689.485948
231.880090,888.247130,-9474.636058,766.095498
231.880417,1184.329507,-9770.718434,1149.143247
231.880745,1184.329507,-9252.574275,919.314598
231.881072,1480.411884,-9622.677246,919.314598
231.881400,1554.432478,-9548.656652,919.314598
231.881727,1036.288319,-9400.615463,842.705048
231.882054,740.205942,-9400.615463,995.924147
231.882382,962.267725,-9104.533087,1225.752797
231.882709,592.164754,-9326.594869,766.095498
231.883037,296.082377,-9326.594869,842.705048
231.883364,296.082377,-9252.574275,612.876398
231.883691,-296.082377,-9252.574275,612.876398
231.884019,-518.144159,-8882.471304,459.657299
231.884346,-518.144159,-9030.512492,612.876398
231.884674,-962.267725,-8956.491898,153.219100
231.885001,-1110.308913,-8956.491898,306.438199
231.885328,-1258.350101,-8882.471304,153.219100
231.885656,-1554.432478,-8290.306550,76.609550
231.885983,-962.267725,-8808.450710,153.219100
231.886311,-1850.514855,-8882.471304,0.000000
231.886638,-1776.494261,-8734.430116,-153.219100
231.886965,-1702.473667,-8734.430116,76.609550
231.887293,-1406.391290,-8956.491898,0.000000
231.887620,-1406.391290,-8956.491898,76.609550
231.887948,-888.247130,-9030.512492,0.000000
231.888275,-444.123565,-9104.533087,76.609550
231.888602,-148.041188,-9252.574275,0.000000
231.888930,0.000000,-9178.553681,306.438199
231.889257,592.164754,-8660.409521,153.219100
231.889585,666.185348,-9178.553681,536.266849
231.889912,888.247130,-9178.553681,689.485948
231.890239,1110.308913,-9252.574275,995.924147
231.890567,1184.329507,-9252.574275,919.314598
231.890894,1406.391290,-9474.636058,1072.533697
231.891222,1702.473667,-9030.512492,1455.581446
231.891549,1184.329507,-9252.574275,1149.143247
231.891876,1258.350101,-9252.574275,1149.143247
231.892204,1036.288319,-9252.574275,1302.362347
231.892531,592.164754,-9326.594869,1378.971896
231.892859,370.102971,-9030.512492,995.924147
231.893186,74.020594,-9252.574275,1149.143247
231.893513,-444.123565,-9400.615463,1378.971896
231.893841,-518.144159,-9252.574275,1149.143247
231.894168,-1036.288319,-9400.615463,1072.533697
231.894496,-1480.411884,-8882.471304,1072.533697
231.894823,-1480.411884,-9252.574275,689.485948
231.895150,-2072.576638,-9030.512492,459.657299
231.895478,-1924.535449,-9030.512492,536.266849
231.895805,-2368.659014,-8734.430116,459.657299
231.896133,-1924.535449,-8438.347739,153.219100
231.896460,-2442.679609,-8956.491898,229.828649
231.896787,-2368.659014,-8808.450710,153.219100
231.897115,-2072.576638,-8956.491898,76.609550
231.897442,-1776.494261,-8808.450710,153.219100
231.897770,-1406.391290,-9104.533087,0.000000
231.898097,-1258.350101,-8438.347739,306.438199
231.898424,-740.205942,-8882.471304,229.828649
231.898752,-222.061783,-9326.594869,153.219100
231.899079,222.061783,-9252.574275,306.438199
231.899407,518.144159,-9326.594869,536.266849
231.899734,666.185348,-9030.512492,1072.533697
231.900061,1332.370696,-9326.594869,612.876398
231.900389,1480.411884,-9474.636058,766.095498
231.900716,1554.432478,-9474.636058,919.314598
231.901044,1406.391290,-9474.636058,766.095498
231.901371,2146.597232,-9918.759623,995.924147
231.901699,1480.411884,-9548.656652,766.095498
231.902026,888.247130,-9252.574275,766.095498
231.902353,1406.391290,-9326.594869,689.485948
231.902681,814.226536,-9696.697840,612.876398
231.903008,592.164754,-9178.553681,536.266849
231.903336,518.144159,-9104.533087,612.876398
231.903663,0.000000,-9252.574275,612.876398
231.903990,-296.082377,-8660.409521,536.266849
231.904318,-740.205942,-9104.533087,459.657299
231.904645,-1184.329507,-8882.471304,612.876398
231.904973,-1332.370696,-8438.347739,0.000000
231.905300,-1480.411884,-8512.368333,459.657299
231.905627,-1776.494261,-8660.409521,306.438199
231.905955,-1924.535449,-8586.388927,0.000000
231.906282,-2294.638420,-8512.368333,383.047749
231.906610,-1628.453072,-8882.471304,0.000000
231.906937,-1776.494261,-8734.430116,0.000000
231.907264,-1628.453072,-8956.491898,-153.219100
231.907592,-1258.350101,-9030.512492,0.000000
231.907919,-1258.350101,-8956.491898,0.000000
231.908247,-518.144159,-8956.491898,153.219100
231.908574,-370.102971,-9178.553681,0.000000
231.908901,0.000000,-9252.574275,153.219100
231.909229,148.041188,-9178.553681,383.047749
231.909556,592.164754,-9104.533087,306.438199
231.909884,962.267725,-9030.512492,612.876398
231.910211,1184.329507,-9252.574275,383.047749
231.910538,1258.350101,-9252.574275,689.485948
231.910866,1184.329507,-9178.553681,1302.362347
231.911193,1036.288319,-8882.471304,842.705048
231.911521,1258.350101,-8808.450710,1302.362347
231.911848,1702.473667,-9178.553681,689.485948
231.912175,1258.350101,-9474.636058,1072.533697
231.912503,740.205942,-9326.594869,1302.362347
231.912830,518.144159,-9474.636058,1149.143247
231.913158,370.102971,-9326.594869,1378.971896
231.913485,0.000000,-9104.533087,995.924147
231.913812,-148.041188,-9178.553681,1072.533697
231.914140,-666.185348,-9326.594869,1149.143247
231.914467,-814.226536,-9400.615463,842.705048
231.914795,-1184.329507,-8956.491898,995.924147
231.915122,-1258.350101,-9252.574275,689.485948
231.915449,-2072.576638,-8956.491898,536.266849
231.915777,-1998.556043,-8956.491898,612.876398
231.916104,-2146.597232,-8734.430116,306.438199
231.916432,-2220.617826,-8660.409521,306.438199
231.916759,-1776.494261,-8956.491898,766.095498
231.917086,-1850.514855,-8438.347739,689.485948
231.917414,-1998.556043,-8734.430116,306.438199
231.917741,-1480.411884,-8956.491898,229.828649
231.918069,-1184.329507,-9030.512492,383.047749
231.918396,-962.267725,-9030.512492,76.609550
231.918723,-814.226536,-8660.409521,306.438199
231.919051,74.020594,-9030.512492,919.314598
231.919378,370.102971,-9400.615463,612.876398
231.919706,666.185348,-9104.533087,689.485948
231.920033,962.267725,-9548.656652,689.485948
231.920360,1554.432478,-9400.615463,1532.190996
231.920688,1184.329507,-9474.636058,842.705048
231.921015,1258.350101,-9474.636058,1072.533697
231.921343,1406.391290,-9548.656652,919.314598
231.921670,1036.288319,-9474.636058,842.705048
231.921997,1258.350101,-9400.615463,766.095498
231.922325,1110.308913,-9400.615463,1072.533697
231.922652,444.123565,-9400.615463,842.705048
231.922980,370.102971,-9400.615463,612.876398
231.923307,296.082377,-9104.533087,459.657299
231.923634,0.000000,-9104.533087,689.485948
231.923962,-296.082377,-8882.471304,306.438199
231.924289,-962.267725,-9030.512492,459.657299
231.924617,-888.247130,-8956.491898,229.828649
231.924944,-1036.288319,-8734.430116,153.219100
231.925272,-1480.411884,-8364.327145,459.657299
231.925599,-1406.391290,-8734.430116,306.438199
231.925926,-1554.432478,-8734.430116,0.000000
231.926254,-1776.494261,-8364.327145,0.000000
231.926581,-1924.535449,-8586.388927,0.000000
231.926909,-1850.514855,-8808.450710,0.000000
231.927236,-1258.350101,-8512.368333,0.000000
231.927563,-1110.308913,-9030.512492,0.000000
231.927891,-1258.350101,-8882.471304,0.000000
231.928218,-592.164754,-9104.533087,153.219100
231.928546,-222.061783,-9400.615463,0.000000
231.928873,-148.041188,-8808.450710,229.828649
231.929200,296.082377,-9104.533087,229.828649
231.929528,814.226536,-9548.656652,536.266849
231.929855,888.247130,-9474.636058,689.485948
231.930183,1036.288319,-9252.574275,842.705048
231.930510,1480.411884,-9326.594869,995.924147
231.930837,1406.391290,-8808.450710,842.705048
231.931165,1480.411884,-9104.533087,1149.143247
231.931492,1258.350101,-9400.615463,1302.362347
231.931820,1480.411884,-9104.533087,1378.971896
231.932147,1406.391290,-9178.553681,995.924147
231.932474,518.144159,-9252.574275,1762.019645
231.932802,740.205942,-9474.636058,1225.752797
231.933129,222.061783,-9474.636058,1378.971896
231.933457,-148.041188,-9326.594869,1072.533697
231.933784,-592.164754,-9400.615463,1225.752797
231.934111,-1332.370696,-8808.450710,1225.752797
231.934439,-1184.329507,-9400.615463,842.705048
231.934766,-1628.453072,-9178.553681,612.876398
231.935094,-2072.576638,-9178.553681,536.266849
231.935421,-2220.617826,-9030.512492,229.828649
231.935749,-2442.679609,-8882.471304,689.485948
231.936076,-2220.617826,-9030.512492,383.047749
231.936403,-2368.659014,-9030.512492,229.828649
231.936731,-2368.659014,-8734.430116,153.219100
231.937058,-2072.576638,-8956.491898,229.828649
231.937386,-1702.473667,-8438.347739,536.266849
231.937713,-1184.329507,-8512.368333,383.047749
231.938041,-1036.288319,-9030.512492,383.047749
231.938368,-444.123565,-9252.574275,459.657299
231.938695,-148.041188,-9030.512492,383.047749
231.939023,444.123565,-9400.615463,153.219100
231.939350,592.164754,-9030.512492,766.095498
231.939678,1110.308913,-9474.636058,689.485948
231.940005,1406.391290,-9474.636058,689.485948
231.940333,1332.370696,-9474.636058,919.314598
231.940660,1258.350101,-9548.656652,919.314598
231.940988,1110.308913,-9400.615463,766.095498
231.941315,1480.411884,-9622.677246,1378.971896
231.941642,1480.411884,-9548.656652,689.485948
231.941970,888.247130,-9400.615463,766.095498
231.942297,1110.308913,-9400.615463,612.876398
231.942625,962.267725,-9696.697840,536.266849
231.942952,592.164754,-9474.636058,536.266849
231.943280,222.061783,-9252.574275,536.266849
231.943607,-296.082377,-9252.574275,842.705048
231.943935,-666.185348,-9104.533087,306.438199
231.944262,-888.247130,-8956.491898,536.266849
231.944589,-740.205942,-9104.533087,842.705048
231.944917,-1110.308913,-8734.430116,306.438199
231.945244,-1480.411884,-8734.430116,306.438199
231.945572,-1850.514855,-8586.388927,0.000000
231.945899,-1850.514855,-8586.388927,0.000000
231.946227,-1924.535449,-8808.450710,0.000000
231.946554,-1850.514855,-8364.327145,0.000000
231.946882,-1850.514855,-8808.450710,0.000000
231.947209,-1554.432478,-8956.491898,0.000000
231.947536,-1184.329507,-8808.450710,0.000000
231.947864,-1036.288319,-9104.533087,612.876398
231.948191,-296.082377,-8882.471304,0.000000
231.948519,-370.102971,-9178.553681,0.000000
231.948846,0.000000,-9326.594869,306.438199
231.949174,296.082377,-9400.615463,229.828649
231.949501,740.205942,-9252.574275,536.266849
231.949829,814.226536,-8808.450710,1072.533697
231.950156,888.247130,-9252.574275,689.485948
231.950483,1036.288319,-9326.594869,689.485948
231.950811,1184.329507,-8882.471304,842.705048
231.951138,1406.391290,-8956.491898,842.705048
231.951466,1184.329507,-8808.450710,1378.971896
231.951793,1480.411884,-9252.574275,1149.143247
231.952121,1184.329507,-9178.553681,1149.143247
231.952448,518.144159,-9252.574275,1225.752797
231.952775,740.205942,-9400.615463,1225.752797
231.953103,74.020594,-8882.471304,1378.971896
231.953430,0.000000,-9400.615463,919.314598
231.953758,-148.041188,-9400.615463,995.924147
231.954085,-518.144159,-9252.574275,1149.143247
231.954413,-1110.308913,-9178.553681,995.924147
231.954740,-1258.350101,-8882.471304,1072.533697
231.955068,-1924.535449,-8882.471304,536.266849
231.955395,-1924.535449,-8882.471304,383.047749
231.955722,-2294.638420,-8882.471304,536.266849
231.956050,-2442.679609,-8734.430116,153.219100
231.956377,-2072.576638,-8808.450710,0.000000
231.956705,-1998.556043,-8734.430116,0.000000
231.957032,-1924.535449,-8808.450710,153.219100
231.957360,-1480.411884,-8956.491898,229.828649
231.957687,-1258.350101,-8882.471304,0.000000
231.958015,-962.267725,-8882.471304,76.609550
231.958342,-962.267725,-8808.450710,536.266849
231.958669,-296.082377,-9104.533087,383.047749
231.958997,0.000000,-9178.553681,459.657299
231.959324,444.123565,-9104.533087,689.485948
231.959652,814.226536,-9400.615463,612.876398
231.959979,1036.288319,-9252.574275,842.705048
231.960307,888.247130,-9252.574275,689.485948
231.960634,1110.308913,-9474.636058,766.095498
231.960962,1110.308913,-9548.656652,689.485948
231.961289,1332.370696,-9622.677246,1072.533697
231.961616,1554.432478,-9474.636058,766.095498
231.961944,666.185348,-9326.594869,842.705048
231.962271,1110.308913,-9400.615463,842.705048
231.962599,518.144159,-9548.656652,842.705048
231.962926,370.102971,-9178.553681,459.657299
231.963254,222.061783,-9252.574275,842.705048
231.963581,0.000000,-9400.615463,919.314598
231.963909,-222.061783,-9104.533087,689.485948
231.964236,-666.185348,-9030.512492,459.657299
231.964563,-888.247130,-9104.533087,229.828649
231.964891,-814.226536,-8956.491898,229.828649
231.965218,-962.267725,-8586.388927,306.438199
231.965546,-1332.370696,-8660.409521,153.219100
231.965873,-1776.494261,-8512.368333,0.000000
231.966201,-1702.473667,-8586.388927,0.000000
231.966528,-1776.494261,-8808.450710,-306.438199
231.966855,-1628.453072,-8808.450710,383.047749
231.967183,-1406.391290,-8734.430116,-229.828649
231.967510,-1184.329507,-8808.450710,0.000000
231.967838,-962.267725,-8882.471304,-229.828649
231.968165,-814.226536,-9104.533087,0.000000
231.968493,-296.082377,-9030.512492,459.657299
231.968820,74.020594,-9252.574275,306.438199
231.969148,74.020594,-9474.636058,459.657299
231.969475,222.061783,-9178.553681,766.095498
231.969802,740.205942,-9252.574275,689.485948
231.970130,1036.288319,-9178.553681,689.485948
231.970457,1406.391290,-9252.574275,766.095498
231.970785,1184.329507,-9030.512492,919.314598
231.971112,1258.350101,-9104.533087,842.705048
231.971440,1258.350101,-9030.512492,1149.143247
231.971767,1406.391290,-9178.553681,1149.143247
231.972095,962.267725,-8586.388927,1225.752797
231.972422,740.205942,-9326.594869,1608.800546
231.972749,296.082377,-9252.574275,1225.752797
231.973077,0.000000,-9252.574275,1149.143247
231.973404,-370.102971,-9252.574275,995.924147
231.973732,0.000000,-9474.636058,1225.752797
231.974059,-740.205942,-9104.533087,689.485948
231.974387,-1036.288319,-9178.553681,766.095498
231.974714,-1406.391290,-9178.553681,689.485948
231.975042,-1924.535449,-8956.491898,536.266849
231.975369,-1998.556043,-8808.450710,766.095498
231.975696,-2738.761985,-8660.409521,229.828649
231.976024,-2220.617826,-8734.430116,0.000000
231.976351,-2220.617826,-8734.430116,76.609550
231.976679,-2220.617826,-8882.471304,153.219100
231.977006,-1924.535449,-8956.491898,0.000000
231.977334,-1702.473667,-8660.409521,306.438199
231.977661,-1332.370696,-9030.512492,0.000000
231.977989,-1184.329507,-9104.533087,229.828649
231.978316,-740.205942,-9326.594869,153.219100
231.978643,-222.061783,-9178.553681,229.828649
231.978971,0.000000,-9104.533087,766.095498
231.979298,592.164754,-9622.677246,383.047749
231.979626,814.226536,-9326.594869,612.876398
231.979953,1110.308913,-9474.636058,689.485948
231.980281,1406.391290,-9548.656652,689.485948
231.980608,1258.350101,-9326.594869,1455.581446
231.980935,1628.453072,-9622.677246,842.705048
231.981263,1406.391290,-9622.677246,689.485948
231.981590,1110.308913,-9474.636058,766.095498
231.981918,1036.288319,-9622.677246,842.705048
231.982245,1406.391290,-9178.553681,919.314598
231.982573,518.144159,-9696.697840,1072.533697
231.982900,666.185348,-9326.594869,459.657299
231.983228,370.102971,-9326.594869,612.876398
231.983555,0.000000,-9030.512492,536.266849
231.983882,0.000000,-9030.512492,689.485948
231.984210,-518.144159,-8660.409521,766.095498
231.984537,-1036.288319,-8808.450710,919.314598
231.984865,-1110.308913,-8808.450710,229.828649
231.985192,-1480.411884,-8808.450710,383.047749
231.985520,-1628.453072,-8438.347739,229.828649
231.985847,-1776.494261,-8512.368333,612.876398
231.986175,-1850.514855,-8660.409521,0.000000
231.986502,-2146.597232,-8734.430116,0.000000
231.986829,-1924.535449,-8734.430116,76.609550
231.987157,-1702.473667,-8734.430116,76.609550
231.987484,-1110.308913,-8586.388927,229.828649
231.987812,-962.267725,-8882.471304,306.438199
231.988139,-888.247130,-9178.553681,0.000000
231.988467,-370.102971,-9178.553681,153.219100
231.988794,-222.061783,-9178.553681,229.828649
231.989122,222.061783,-8882.471304,306.438199
231.989449,592.164754,-9030.512492,919.314598
231.989776,666.185348,-9252.574275,612.876398
231.990104,1036.288319,-9178.553681,689.485948
231.990431,1184.329507,-9326.594869,766.095498
231.990759,1258.350101,-9252.574275,689.485948
231.991086,962.267725,-8364.327145,842.705048
231.991414,1554.432478,-9252.574275,1225.752797
231.991741,1332.370696,-9400.615463,1225.752797
231.992069,888.247130,-9178.553681,1149.143247
231.992396,1258.350101,-9178.553681,1149.143247
231.992723,592.164754,-9326.594869,1378.971896
231.993051,222.061783,-9326.594869,1302.362347
231.993378,148.041188,-9474.636058,995.924147
231.993706,0.000000,-9474.636058,919.314598
231.994033,-592.164754,-9400.615463,842.705048
231.994361,-370.102971,-9474.636058,766.095498
231.994688,-1258.350101,-9104.533087,536.266849
231.995015,-1702.473667,-9252.574275,536.266849
231.995343,-1924.535449,-8882.471304,306.438199
231.995670,-2146.597232,-8882.471304,306.438199
231.995998,-2146.597232,-8586.388927,0.000000
231.996325,-2072.576638,-8512.368333,0.000000
231.996653,-2294.638420,-8808.450710,0.000000
231.996980,-1850.514855,-8586.388927,153.219100
231.997308,-1702.473667,-8586.388927,76.609550
231.997635,-1480.411884,-8882.471304,76.609550
231.997962,-1110.308913,-8660.409521,76.609550
231.998290,-888.247130,-9104.533087,229.828649
231.998617,-444.123565,-9252.574275,459.657299
231.998945,0.000000,-9400.615463,459.657299
231.999272,148.041188,-9178.553681,689.485948
231.999600,888.247130,-9252.574275,612.876398
231.999927,666.185348,-9178.553681,383.047749
232.000255,1036.288319,-9400.615463,842.705048
232.000582,1332.370696,-9474.636058,842.705048
232.000909,1332.370696,-9548.656652,919.314598
232.001237,1406.391290,-9400.615463,536.266849
232.001564,1036.288319,-9474.636058,842.705048
232.001892,1184.329507,-9474.636058,459.657299
232.002219,1110.308913,-9548.656652,842.705048
232.002547,666.185348,-9178.553681,1072.533697
232.002874,814.226536,-9474.636058,766.095498
232.003202,592.164754,-9178.553681,995.924147
232.003529,0.000000,-9252.574275,766.095498
232.003856,-222.061783,-9104.533087,766.095498
232.004184,-814.226536,-8956.491898,766.095498
232.004511,-1184.329507,-8734.430116,689.485948
232.004839,-1406.391290,-8586.388927,536.266849
232.005166,-1332.370696,-8734.430116,383.047749
232.005494,-1480.411884,-8586.388927,76.609550
232.005821,-1702.473667,-8512.368333,0.000000
232.006149,-1554.432478,-8586.388927,-229.828649
232.006476,-1924.535449,-8734.430116,0.000000
232.006803,-1628.453072,-8956.491898,-153.219100
232.007131,-1554.432478,-8882.471304,-306.438199
232.007458,-1184.329507,-8956.491898,-153.219100
232.007786,-1110.308913,-8956.491898,-153.219100
232.008113,-666.185348,-8956.491898,383.047749
232.008441,222.061783,-9252.574275,383.047749
232.008768,222.061783,-9326.594869,76.609550
232.009095,74.020594,-9326.594869,459.657299
232.009423,518.144159,-9400.615463,612.876398
232.009750,1110.308913,-9326.594869,766.095498
232.010078,666.185348,-8956.491898,1072.533697
232.010405,1036.288319,-9030.512492,842.705048
232.010733,1406.391290,-9178.553681,1072.533697
232.011060,962.267725,-9104.533087,842.705048
232.011388,1110.308913,-9178.553681,1378.971896
232.011715,1702.473667,-9030.512492,995.924147
232.012042,1332.370696,-9400.615463,1378.971896
232.012370,740.205942,-9178.553681,1378.971896
232.012697,518.144159,-9474.636058,1225.752797
232.013025,0.000000,-9326.594869,1225.752797
232.013352,0.000000,-9178.553681,919.314598
232.013680,-444.123565,-9178.553681,995.924147
232.014007,-1036.288319,-9178.553681,919.314598
232.014335,-1258.350101,-9030.512492,919.314598
232.014662,-1628.453072,-9030.512492,842.705048
232.014989,-1702.473667,-8734.430116,459.657299
232.015317,-1628.453072,-8808.450710,536.266849
232.015644,-2294.638420,-8808.450710,306.438199
232.015972,-2220.617826,-8660.409521,229.828649
232.016299,-2368.659014,-8734.430116,76.609550
232.016627,-2294.638420,-8808.450710,383.047749
232.016954,-1776.494261,-8586.388927,153.219100
232.017282,-1702.473667,-8808.450710,306.438199
232.017609,-1258.350101,-8956.491898,229.828649
232.017936,-888.247130,-9178.553681,229.828649
232.018264,-666.185348,-9326.594869,229.828649
232.018591,-74.020594,-8808.450710,0.000000
232.018919,296.082377,-9252.574275,842.705048
232.019246,518.144159,-9474.636058,842.705048
232.019574,888.247130,-9400.615463,459.657299
232.019901,1258.350101,-9474.636058,689.485948
232.020229,1702.473667,-9474.636058,612.876398
232.020556,1258.350101,-9326.594869,459.657299
232.020883,1184.329507,-9474.636058,459.657299
232.021211,1480.411884,-9696.697840,919.314598
232.021538,1480.411884,-9326.594869,689.485948
232.021866,592.164754,-9474.636058,612.876398
232.022193,814.226536,-9030.512492,1149.143247
232.022521,370.102971,-9474.636058,842.705048
232.022848,518.144159,-9178.553681,689.485948
232.023175,148.041188,-9030.512492,612.876398
232.023503,-222.061783,-9178.553681,612.876398
232.023830,-518.144159,-8956.491898,383.047749
232.024158,-592.164754,-9030.512492,612.876398
232.024485,-962.267725,-9104.533087,229.828649
232.024813,-962.267725,-8808.450710,536.266849
232.025140,-1332.370696,-8808.450710,229.828649
232.025468,-1258.350101,-8512.368333,229.828649
232.025795,-1628.453072,-8438.347739,-306.438199
232.026122,-1850.514855,-8660.409521,76.609550
232.026450,-1850.514855,-8734.430116,0.000000
232.026777,-1702.473667,-8882.471304,0.000000
232.027105,-1258.350101,-8882.471304,306.438199
232.027432,-962.267725,-8882.471304,229.828649
232.027760,-962.267725,-9104.533087,0.000000
232.028087,-888.247130,-8956.491898,0.000000
232.028415,-296.082377,-9252.574275,76.609550
232.028742,-222.061783,-9030.512492,229.828649
232.029069,370.102971,-8882.471304,383.047749
232.029397,370.102971,-9252.574275,0.000000
232.029724,370.102971,-9178.553681,459.657299
232.030052,740.205942,-9326.594869,536.266849
232.030379,1036.288319,-9178.553681,536.266849
232.030707,1036.288319,-8808.450710,1149.143247
232.031034,1036.288319,-9104.533087,612.876398
232.031362,1110.308913,-9030.512492,766.095498
232.031689,1554.432478,-9178.553681,766.095498
232.032016,1110.308913,-9252.574275,1072.533697
232.032344,1110.308913,-9474.636058,1455.581446
232.032671,962.267725,-9400.615463,995.924147
232.032999,370.102971,-9326.594869,919.314598
232.033326,148.041188,-9326.594869,919.314598
232.033654,148.041188,-9400.615463,1149.143247
232.033981,-370.102971,-9030.512492,1762.019645
232.034309,-592.164754,-9030.512492,1225.752797
232.034636,-740.205942,-9252.574275,766.095498
232.034963,-1332.370696,-8882.471304,536.266849
232.035291,-1628.453072,-8956.491898,766.095498
232.035618,-1924.535449,-8734.430116,306.438199
232.035946,-1924.535449,-8808.450710,536.266849
232.036273,-2146.597232,-8808.450710,306.438199
232.036601,-2220.617826,-9104.533087,306.438199
232.036928,-2072.576638,-8882.471304,383.047749
232.037255,-1850.514855,-9104.533087,76.609550
232.037583,-1480.411884,-9326.594869,153.219100
232.037910,-1184.329507,-8956.491898,76.609550
232.038238,-962.267725,-9178.553681,306.438199
232.038565,-740.205942,-9178.553681,459.657299
232.038893,-222.061783,-9104.533087,612.876398
232.039220,0.000000,-9252.574275,689.485948
232.039548,370.102971,-9252.574275,995.924147
232.039875,222.061783,-9178.553681,919.314598
232.040202,814.226536,-9474.636058,919.314598
232.040530,888.247130,-9474.636058,842.705048
232.040857,814.226536,-9400.615463,306.438199
232.041185,888.247130,-9622.677246,612.876398
232.041512,1036.288319,-9400.615463,842.705048
232.041840,1332.370696,-9474.636058,766.095498
232.042167,814.226536,-9548.656652,612.876398
232.042495,962.267725,-9474.636058,689.485948
232.042822,962.267725,-9548.656652,919.314598
232.043149,666.185348,-9474.636058,842.705048
232.043477,74.020594,-9252.574275,536.266849
232.043804,0.000000,-9474.636058,919.314598
232.044132,-518.144159,-9252.574275,842.705048
232.044459,-592.164754,-8660.409521,612.876398
232.044787,-1036.288319,-8956.491898,459.657299
232.045114,-962.267725,-8956.491898,612.876398
232.045441,-1332.370696,-8882.471304,153.219100
232.045769,-1776.494261,-8660.409521,153.219100
232.046096,-1480.411884,-8808.450710,0.000000
232.046424,-1554.432478,-8438.347739,-229.828649
232.046751,-1628.453072,-8586.388927,0.000000
232.047079,-1554.432478,-8956.491898,-229.828649
232.047406,-1258.350101,-8808.450710,0.000000
232.047734,-1332.370696,-8586.388927,229.828649
232.048061,-666.185348,-8882.471304,229.828649
232.048388,-518.144159,-9104.533087,-153.219100
232.048716,-148.041188,-9104.533087,306.438199
232.049043,0.000000,-9104.533087,229.828649
232.049371,222.061783,-9326.594869,306.438199
232.049698,592.164754,-9030.512492,919.314598
232.050026,888.247130,-9104.533087,612.876398
232.050353,1036.288319,-8956.491898,842.705048
232.050680,1258.350101,-9030.512492,766.095498
232.051008,1184.329507,-9104.533087,1072.533697
232.051335,1184.329507,-9178.553681,1225.752797
232.051663,1332.370696,-8956.491898,919.314598
232.051990,1184.329507,-9178.553681,1455.581446
232.052318,888.247130,-9030.512492,1378.971896
232.052645,518.144159,-9326.594869,1225.752797
232.052973,518.144159,-9252.574275,1685.410096
232.053300,444.123565,-9326.594869,1378.971896
232.053627,0.000000,-9252.574275,1302.362347
232.053955,-518.144159,-9252.574275,1072.533697
232.054282,-1036.288319,-9400.615463,689.485948
232.054610,-1258.350101,-9252.574275,842.705048
232.054937,-1554.432478,-8586.388927,995.924147
232.055265,-1776.494261,-9030.512492,689.485948
232.055592,-2072.576638,-8956.491898,459.657299
232.055920,-2368.659014,-9104.533087,459.657299
232.056247,-2368.659014,-8882.471304,0.000000
232.056574,-2294.638420,-8438.347739,536.266849
232.056902,-2294.638420,-8734.430116,76.609550
232.057229,-1998.556043,-8956.491898,0.000000
232.057557,-1850.514855,-9104.533087,76.609550
232.057884,-1406.391290,-8956.491898,229.828649
232.058212,-814.226536,-8808.450710,153.219100
232.058539,-222.061783,-9400.615463,0.000000
232.058866,0.000000,-9252.574275,76.609550
232.059194,222.061783,-9326.594869,612.876398
232.059521,740.205942,-9326.594869,383.047749
232.059849,1110.308913,-9252.574275,153.219100
232.060176,1110.308913,-9326.594869,612.876398
232.060504,1332.370696,-9622.677246,689.485948
232.060831,1332.370696,-9696.697840,536.266849
232.061159,1332.370696,-9696.697840,612.876398
232.061486,1554.432478,-9622.677246,919.314598
232.061813,1406.391290,-9400.615463,766.095498
232.062141,814.226536,-9474.636058,612.876398
232.062468,1110.308913,-9326.594869,689.485948
232.062796,592.164754,-9474.636058,612.876398
232.063123,444.123565,-9474.636058,536.266849
232.063451,740.205942,-9030.512492,919.314598
232.063778,0.000000,-9104.533087,1072.533697
232.064106,-444.123565,-9030.512492,536.266849
232.064433,-740.205942,-8956.491898,536.266849
232.064760,-962.267725,-8956.491898,383.047749
232.065088,-1036.288319,-8586.388927,229.828649
232.065415,-1184.329507,-8882.471304,306.438199
232.065743,-1776.494261,-8882.471304,153.219100
232.066070,-1776.494261,-8956.491898,76.609550
232.066398,-1924.535449,-8734.430116,0.000000
232.066725,-1554.432478,-8142.265362,-383.047749
232.067052,-1702.473667,-8956.491898,229.828649
232.067380,-1480.411884,-8882.471304,0.000000
232.067707,-1480.411884,-8660.409521,0.000000
232.068035,-888.247130,-9252.574275,76.609550
232.068362,-888.247130,-8882.471304,0.000000
232.068690,0.000000,-8956.491898,229.828649
232.069017,-370.102971,-9104.533087,0.000000
232.069345,222.061783,-9400.615463,76.609550
232.069672,370.102971,-9030.512492,459.657299
232.069999,814.226536,-9252.574275,459.657299
232.070327,814.226536,-8734.430116,306.438199
232.070654,962.267725,-8956.491898,612.876398
232.070982,1110.308913,-9030.512492,842.705048
232.071309,1110.308913,-9104.533087,766.095498
232.071637,1332.370696,-9104.533087,842.705048
232.071964,1406.391290,-8882.471304,689.485948
232.072291,1110.308913,-9252.574275,995.924147
232.072619,888.247130,-9178.553681,919.314598
232.072946,592.164754,-9178.553681,995.924147
232.073274,370.102971,-9326.594869,1149.143247
232.073601,296.082377,-8956.491898,1455.581446
232.073929,-814.226536,-8882.471304,1378.971896
232.074256,-518.144159,-9474.636058,1302.362347
232.074584,-1258.350101,-8956.491898,1149.143247
232.074911,-1258.350101,-9326.594869,1302.362347
232.075238,-1924.535449,-8808.450710,536.266849
232.075566,-2516.700203,-8660.409521,536.266849
232.075893,-2072.576638,-8956.491898,306.438199
232.076221,-2368.659014,-8808.450710,383.047749
232.076548,-2146.597232,-8956.491898,536.266849
232.076876,-2072.576638,-8808.450710,76.609550
232.077203,-2220.617826,-8734.430116,383.047749
232.077531,-1332.370696,-9178.553681,229.828649
232.077858,-1480.411884,-8882.471304,306.438199
232.078185,-1110.308913,-9030.512492,459.657299
232.078513,-518.144159,-9030.512492,229.828649
232.078840,0.000000,-9178.553681,1225.752797
232.079168,296.082377,-9178.553681,306.438199
232.079495,444.123565,-9400.615463,689.485948
232.079823,814.226536,-9400.615463,842.705048
232.080150,962.267725,-9622.677246,842.705048
232.080477,1332.370696,-9548.656652,1072.533697
232.080805,1184.329507,-9326.594869,766.095498
232.081132,1332.370696,-9474.636058,766.095498
232.081460,1332.370696,-9548.656652,1149.143247
232.081787,1332.370696,-9474.636058,612.876398
232.082115,740.205942,-9474.636058,689.485948
232.082442,1554.432478,-9326.594869,842.705048
232.082770,666.185348,-9474.636058,919.314598
232.083097,592.164754,-9474.636058,612.876398
232.083424,148.041188,-9326.594869,766.095498
232.083752,0.000000,-9474.636058,766.095498
232.084079,-444.123565,-8956.491898,766.095498
232.084407,-518.144159,-8808.450710,459.657299
232.084734,-962.267725,-9030.512492,536.266849
232.085062,-1258.350101,-8660.409521,306.438199
232.085389,-1480.411884,-8808.450710,383.047749
232.085717,-1406.391290,-8660.409521,153.219100
232.086044,-1850.514855,-8068.244768,229.828649
232.086371,-1850.514855,-8438.347739,0.000000
232.086699,-1776.494261,-8512.368333,0.000000
232.087026,-1554.432478,-8808.450710,0.000000
232.087354,-1332.370696,-9030.512492,0.000000
232.087681,-888.247130,-8290.306550,76.609550
232.088009,-888.247130,-8808.450710,0.000000
232.088336,-518.144159,-9178.553681,0.000000
232.088663,-296.082377,-9474.636058,306.438199
232.088991,74.020594,-9252.574275,383.047749
232.089318,444.123565,-8956.491898,306.438199
232.089646,666.185348,-9326.594869,995.924147
232.089973,814.226536,-9252.574275,766.095498
232.090301,962.267725,-9178.553681,766.095498
232.090628,1184.329507,-9030.512492,1225.752797
232.090956,1332.370696,-8734.430116,766.095498
232.091283,1406.391290,-8734.430116,1072.533697
232.091610,1184.329507,-9178.553681,1149.143247
232.091938,814.226536,-9030.512492,1532.190996
232.092265,1184.329507,-8808.450710,1455.581446
232.092593,74.020594,-8734.430116,1378.971896
232.092920,296.082377,-8882.471304,995.924147
232.093248,-222.061783,-9178.553681,919.314598
232.093575,-666.185348,-9252.574275,1225.752797
232.093903,-518.144159,-9252.574275,842.705048
232.094230,-1036.288319,-9252.574275,842.705048
232.094557,-1776.494261,-9030.512492,919.314598
232.094885,-1554.432478,-8956.491898,612.876398
232.095212,-1850.514855,-8882.471304,459.657299
232.095540,-1998.556043,-8882.471304,229.828649
232.095867,-2072.576638,-8956.491898,306.438199
232.096195,-1850.514855,-8734.430116,-229.828649
232.096522,-1924.535449,-8882.471304,0.000000
232.096849,-1850.514855,-8660.409521,229.828649
232.097177,-1702.473667,-8882.471304,76.609550
232.097504,-1406.391290,-8956.491898,76.609550
232.097832,-1184.329507,-9030.512492,459.657299
232.098159,-592.164754,-8882.471304,0.000000
232.098487,-296.082377,-9178.553681,306.438199
232.098814,0.000000,-9252.574275,229.828649
232.099142,518.144159,-9400.615463,459.657299
232.099469,814.226536,-9326.594869,459.657299
232.099796,888.247130,-9252.574275,689.485948
232.100124,1110.308913,-9400.615463,612.876398
232.100451,1110.308913,-9474.636058,536.266849
232.100779,1184.329507,-9326.594869,536.266849
232.101106,1332.370696,-9474.636058,612.876398
232.101434,1184.329507,-9770.718434,383.047749
232.101761,666.185348,-9400.615463,919.314598
232.102088,1184.329507,-9178.553681,766.095498
232.102416,444.123565,-9400.615463,766.095498
232.102743,592.164754,-9252.574275,689.485948
232.103071,592.164754,-9030.512492,383.047749
232.103398,0.000000,-9030.512492,995.924147
232.103726,148.041188,-9178.553681,459.657299
232.104053,-296.082377,-9104.533087,612.876398
232.104381,-740.205942,-9030.512492,689.485948
232.104708,-592.164754,-9030.512492,689.485948
232.105035,-1554.432478,-8512.368333,459.657299
232.105363,-1258.350101,-8438.347739,536.266849
232.105690,-1628.453072,-8660.409521,0.000000
232.106018,-1998.556043,-8660.409521,0.000000
232.106345,-1776.494261,-8734.430116,536.266849
232.106673,-1924.535449,-8956.491898,76.609550
232.107000,-1332.370696,-8808.450710,0.000000
232.107328,-1480.411884,-8808.450710,153.219100
232.107655,-1036.288319,-8956.491898,0.000000
232.107982,-740.205942,-9104.533087,153.219100
232.108310,-740.205942,-8660.409521,153.219100
232.108637,-370.102971,-9178.553681,76.609550
232.108965,-296.082377,-9252.574275,153.219100
232.109292,148.041188,-9104.533087,153.219100
232.109620,370.102971,-9030.512492,229.828649
232.109947,148.041188,-8512.368333,459.657299
232.110274,666.185348,-8808.450710,612.876398
232.110602,1036.288319,-9326.594869,689.485948
232.110929,888.247130,-9178.553681,766.095498
232.111257,1110.308913,-9252.574275,1072.533697
232.111584,1332.370696,-8660.409521,1225.752797
232.111912,1332.370696,-8882.471304,1072.533697
232.112239,1258.350101,-9178.553681,995.924147
232.112567,814.226536,-9252.574275,1149.143247
232.112894,740.205942,-9326.594869,1225.752797
232.113221,518.144159,-9400.615463,1149.143247
232.113549,-148.041188,-9178.553681,1149.143247
232.113876,-296.082377,-9178.553681,1149.143247
232.114204,-296.082377,-9252.574275,1072.533697
232.114531,-962.267725,-9252.574275,995.924147
232.114859,-1184.329507,-9252.574275,612.876398
232.115186,-1480.411884,-8660.409521,536.266849
232.115514,-1998.556043,-9030.512492,689.485948
232.115841,-2072.576638,-8808.450710,306.438199
232.116168,-2368.659014,-8882.471304,306.438199
232.116496,-2368.659014,-8882.471304,459.657299
232.116823,-2146.597232,-8808.450710,153.219100
232.117151,-1776.494261,-8808.450710,153.219100
232.117478,-1850.514855,-8808.450710,229.828649
232.117806,-1480.411884,-9030.512492,383.047749
232.118133,-1110.308913,-9030.512492,306.438199
232.118460,-814.226536,-8808.450710,229.828649
232.118788,-518.144159,-8512.368333,0.000000
232.119115,0.000000,-9252.574275,383.047749
232.119443,222.061783,-9178.553681,612.876398
232.119770,518.144159,-9252.574275,536.266849
232.120098,814.226536,-9400.615463,689.485948
232.120425,814.226536,-9104.533087,1072.533697
232.120753,1110.308913,-9474.636058,459.657299
232.121080,1332.370696,-9474.636058,919.314598
232.121407,1406.391290,-9474.636058,536.266849
232.121735,1184.329507,-9474.636058,689.485948
232.122062,1258.350101,-9178.553681,842.705048
232.122390,1036.288319,-9400.615463,766.095498
232.122717,592.164754,-9474.636058,995.924147
232.123045,666.185348,-9474.636058,766.095498
232.123372,444.123565,-9326.594869,1072.533697
232.123700,74.020594,-9178.553681,919.314598
232.124027,-148.041188,-8956.491898,919.314598
232.124354,-814.226536,-9104.533087,536.266849
232.124682,-814.226536,-8956.491898,689.485948
232.125009,-888.247130,-8734.430116,229.828649
232.125337,-1406.391290,-8512.368333,919.314598
232.125664,-1554.432478,-8660.409521,383.047749
232.125992,-1702.473667,-8586.388927,76.609550
232.126319,-1554.432478,-8586.388927,0.000000
232.126646,-1554.432478,-8660.409521,0.000000
232.126974,-1628.453072,-8808.450710,0.000000
232.127301,-1702.473667,-8586.388927,229.828649
232.127629,-1184.329507,-8956.491898,0.000000
232.127956,-962.267725,-9030.512492,76.609550
232.128284,-444.123565,-9252.574275,0.000000
232.128611,-222.061783,-9400.615463,306.438199
232.128939,148.041188,-9252.574275,306.438199
232.129266,444.123565,-9030.512492,229.828649
232.129593,444.123565,-9326.594869,689.485948
232.129921,814.226536,-9326.594869,919.314598
232.130248,962.267725,-9400.615463,995.924147
232.130576,1110.308913,-9030.512492,919.314598
232.130903,1406.391290,-9178.553681,1072.533697
232.131231,962.267725,-9104.533087,919.314598
232.131558,962.267725,-9030.512492,1225.752797
232.131885,1406.391290,-9178.553681,1225.752797
232.132213,592.164754,-9252.574275,1915.238745
232.132540,592.164754,-9326.594869,995.924147
232.132868,296.082377,-9400.615463,919.314598
232.133195,0.000000,-9326.594869,1072.533697
232.133523,-370.102971,-9252.574275,919.314598
232.133850,-592.164754,-9326.594869,1072.533697
232.134178,-1036.288319,-9474.636058,306.438199
232.134505,-1258.350101,-9252.574275,689.485948
232.134832,-1702.473667,-8956.491898,766.095498
232.135160,-1998.556043,-9030.512492,766.095498
232.135487,-1924.535449,-8882.471304,306.438199
232.135815,-1998.556043,-8882.471304,76.609550
232.136142,-1924.535449,-8882.471304,153.219100
232.136470,-1924.535449,-8882.471304,229.828649
232.136797,-1776.494261,-8808.450710,76.609550
232.137125,-1554.432478,-8882.471304,76.609550
232.137452,-1036.288319,-9030.512492,0.000000
232.137779,-888.247130,-9178.553681,459.657299
232.138107,-666.185348,-9178.553681,229.828649
232.138434,-296.082377,-9252.574275,76.609550
232.138762,0.000000,-9326.594869,383.047749
232.139089,592.164754,-9770.718434,842.705048
232.139416,740.205942,-9252.574275,689.485948
232.139744,814.226536,-9400.615463,306.438199
232.140071,1036.288319,-9400.615463,766.095498
232.140399,1184.329507,-9400.615463,766.095498
232.140726,1036.288319,-9400.615463,459.657299
232.141054,1258.350101,-9400.615463,612.876398
232.141381,1036.288319,-9326.594869,766.095498
232.141708,1332.370696,-9326.594869,536.266849
232.142036,1036.288319,-9400.615463,766.095498
232.142363,592.164754,-9252.574275,612.876398
232.142691,740.205942,-9326.594869,842.705048
232.143018,444.123565,-9326.594869,766.095498
232.143345,0.000000,-9252.574275,612.876398
232.143673,0.000000,-9104.533087,689.485948
232.144000,-740.205942,-9030.512492,766.095498
232.144328,-814.226536,-8808.450710,459.657299
232.144655,-1110.308913,-8512.368333,689.485948
232.144983,-1554.432478,-8734.430116,229.828649
232.145310,-1258.350101,-8586.388927,536.266849
232.145637,-1776.494261,-8512.368333,383.047749
232.145965,-1702.473667,-8586.388927,306.438199
232.146292,-1924.535449,-8586.388927,383.047749
232.146620,-1776.494261,-8734.430116,0.000000
232.146947,-1628.453072,-8808.450710,0.000000
232.147274,-1332.370696,-8882.471304,76.609550
232.147602,-1110.308913,-8882.471304,0.000000
232.147929,-444.123565,-9030.512492,0.000000
232.148257,-592.164754,-9104.533087,76.609550
232.148584,-296.082377,-9400.615463,0.000000
232.148912,0.000000,-9400.615463,76.609550
232.149239,222.061783,-9400.615463,76.609550
232.149566,592.164754,-9030.512492,383.047749
232.149894,592.164754,-9104.533087,153.219100
232.150221,888.247130,-9252.574275,612.876398
232.150549,1036.288319,-9178.553681,536.266849
232.150876,1036.288319,-8956.491898,536.266849
232.151203,1406.391290,-9030.512492,1072.533697
232.151531,1554.432478,-9104.533087,766.095498
232.151858,962.267725,-9104.533087,842.705048
232.152186,1184.329507,-9030.512492,995.924147
232.152513,888.247130,-9252.574275,919.314598
232.152841,222.061783,-9178.553681,1072.533697
232.153168,444.123565,-9326.594869,1378.971896
232.153495,74.020594,-9474.636058,1225.752797
232.153823,-222.061783,-9252.574275,1072.533697
232.154150,-592.164754,-9178.553681,919.314598
232.154478,-962.267725,-9178.553681,995.924147
232.154805,-1036.288319,-8586.388927,612.876398
232.155132,-1480.411884,-9104.533087,842.705048
232.155460,-2072.576638,-8882.471304,383.047749
232.155787,-2146.597232,-8956.491898,459.657299
232.156115,-2368.659014,-8956.491898,383.047749
232.156442,-2294.638420,-8734.430116,459.657299
232.156770,-2146.597232,-8660.409521,-229.828649
232.157097,-1924.535449,-8734.430116,153.219100
232.157424,-1850.514855,-9030.512492,306.438199
232.157752,-1406.391290,-9030.512492,229.828649
232.158079,-1776.494261,-9030.512492,306.438199
232.158407,-370.102971,-9030.512492,459.657299
232.158734,-296.082377,-9178.553681,383.047749
232.159061,0.000000,-9104.533087,383.047749
232.159389,222.061783,-9326.594869,536.266849
232.159716,592.164754,-9326.594869,459.657299
232.160044,1036.288319,-9252.574275,1072.533697
232.160371,888.247130,-9400.615463,536.266849
232.160699,1110.308913,-9474.636058,459.657299
232.161026,1258.350101,-9474.636058,919.314598
232.161353,1332.370696,-9548.656652,919.314598
232.161681,1702.473667,-9326.594869,536.266849
232.162008,1036.288319,-9030.512492,919.314598
232.162336,1036.288319,-9178.553681,689.485948
232.162663,592.164754,-9548.656652,766.095498
232.162990,518.144159,-9400.615463,689.485948
232.163318,666.185348,-9326.594869,842.705048
232.163645,148.041188,-8882.471304,689.485948
232.163973,-296.082377,-9104.533087,459.657299
232.164300,-370.102971,-8956.491898,766.095498
232.164627,-740.205942,-9104.533087,383.047749
232.164955,-1110.308913,-8438.347739,536.266849
232.165282,-962.267725,-8956.491898,383.047749
232.165610,-1332.370696,-8734.430116,459.657299
232.165937,-1628.453072,-8808.450710,459.657299
232.166265,-1554.432478,-8808.450710,76.609550
232.166592,-1702.473667,-8808.450710,0.000000
232.166919,-1628.453072,-8512.368333,383.047749
232.167247,-1628.453072,-8808.450710,-306.438199
232.167574,-1184.329507,-8956.491898,0.000000
232.167902,-962.267725,-9178.553681,229.828649
232.168229,-740.205942,-9030.512492,76.609550
232.168556,-370.102971,-9030.512492,229.828649
232.168884,0.000000,-9326.594869,76.609550
232.169211,74.020594,-9400.615463,306.438199
232.169539,444.123565,-9252.574275,383.047749
232.169866,592.164754,-9178.553681,612.876398
232.170194,962.267725,-8882.471304,689.485948
232.170521,1258.350101,-8956.491898,459.657299
232.170848,1110.308913,-9252.574275,995.924147
232.171176,888.247130,-9178.553681,1072.533697
232.171503,1184.329507,-9178.553681,1302.362347
232.171831,1258.350101,-9104.533087,1149.143247
232.172158,814.226536,-9178.553681,1225.752797
232.172485,814.226536,-9326.594869,1149.143247
232.172813,370.102971,-9326.594869,1302.362347
232.173140,0.000000,-9252.574275,1072.533697
232.173468,0.000000,-9400.615463,842.705048
232.173795,-444.123565,-9326.594869,1378.971896
232.174123,-888.247130,-9326.594869,1072.533697
232.174450,-962.267725,-9252.574275,1072.533697
232.174777,-1184.329507,-8956.491898,1072.533697
232.175105,-1480.411884,-8956.491898,766.095498
232.175432,-1628.453072,-9030.512492,689.485948
232.175760,-1850.514855,-8586.388927,459.657299
232.176087,-1924.535449,-8882.471304,383.047749
232.176414,-2072.576638,-9104.533087,153.219100
232.176742,-1998.556043,-8734.430116,229.828649
232.177069,-1776.494261,-8956.491898,0.000000
232.177397,-1924.535449,-8734.430116,383.047749
232.177724,-1406.391290,-9030.512492,0.000000
232.178052,-1184.329507,-9030.512492,229.828649
232.178379,-740.205942,-9326.594869,229.828649
232.178706,-444.123565,-9178.553681,229.828649
232.179034,74.020594,-9252.574275,689.485948
232.179361,370.102971,-9400.615463,536.266849
232.179689,592.164754,-9400.615463,459.657299
232.180016,740.205942,-9474.636058,459.657299
232.180343,1110.308913,-9474.636058,689.485948
232.180671,1332.370696,-9104.533087,842.705048
232.180998,1480.411884,-9622.677246,306.438199
232.181326,1258.350101,-9474.636058,612.876398
232.181653,1036.288319,-9548.656652,766.095498
232.181981,1110.308913,-9474.636058,766.095498
232.182308,1332.370696,-9104.533087,842.705048
232.182635,444.123565,-9474.636058,766.095498
232.182963,666.185348,-9474.636058,459.657299
232.183290,296.082377,-9400.615463,612.876398
232.183618,0.000000,-9326.594869,612.876398
232.183945,0.000000,-9030.512492,689.485948
232.184272,-222.061783,-9400.615463,612.876398
232.184600,-814.226536,-8882.471304,459.657299
232.184927,-962.267725,-8734.430116,536.266849
232.185255,-1332.370696,-8660.409521,306.438199
232.185582,-1480.411884,-8808.450710,229.828649
232.185910,-1258.350101,-8956.491898,612.876398
232.186237,-1850.514855,-8586.388927,229.828649
232.186564,-1924.535449,-8734.430116,76.609550
232.186892,-1850.514855,-8808.450710,0.000000
232.187219,-1776.494261,-8956.491898,0.000000
232.187547,-1258.350101,-8660.409521,153.219100
232.187874,-1036.288319,-8882.471304,0.000000
232.188201,-962.267725,-9178.553681,0.000000
232.188529,-518.144159,-9474.636058,0.000000
232.188856,-370.102971,-9104.533087,0.000000
232.189184,0.000000,-9326.594869,459.657299
232.189511,296.082377,-8808.450710,0.000000
232.189839,666.185348,-9252.574275,459.657299
232.190166,740.205942,-9326.594869,536.266849
232.190493,888.247130,-9178.553681,612.876398
232.190821,888.247130,-9400.615463,842.705048
232.191148,1258.350101,-9104.533087,1072.533697
232.191476,1480.411884,-9178.553681,995.924147
232.191803,1406.391290,-9178.553681,766.095498
232.192130,1184.329507,-9326.594869,1149.143247
232.192458,1110.308913,-9252.574275,1072.533697
232.192785,1036.288319,-9474.636058,1455.581446
232.193113,296.082377,-9178.553681,1378.971896
232.193440,148.041188,-9326.594869,1149.143247
232.193767,0.000000,-9474.636058,1072.533697
232.194095,-592.164754,-9178.553681,1302.362347
232.194422,-444.123565,-9030.512492,995.924147
232.194750,-814.226536,-9104.533087,919.314598
232.195077,-1554.432478,-9178.553681,612.876398
232.195405,-1924.535449,-9030.512492,612.876398
232.195732,-1998.556043,-8882.471304,306.438199
232.196059,-2146.597232,-8660.409521,612.876398
232.196387,-1998.556043,-8586.388927,153.219100
232.196714,-2220.617826,-8660.409521,229.828649
232.197042,-2146.597232,-8808.450710,229.828649
232.197369,-1924.535449,-8808.450710,0.000000
232.197696,-1628.453072,-8808.450710,536.266849
232.198024,-1184.329507,-8882.471304,689.485948
232.198351,-888.247130,-9252.574275,229.828649
232.198679,-444.123565,-9178.553681,306.438199
232.199006,-296.082377,-9178.553681,689.485948
232.199334,296.082377,-9178.553681,689.485948
232.199661,1036.288319,-9252.574275,1149.143247
232.199988,740.205942,-9326.594869,842.705048
232.200316,1036.288319,-9622.677246,919.314598
232.200643,1258.350101,-9548.656652,612.876398
232.200971,1184.329507,-9474.636058,766.095498
232.201298,1184.329507,-9474.636058,919.314598
232.201625,1554.432478,-9474.636058,766.095498
232.201953,1554.432478,-9252.574275,842.705048
232.202280,962.267725,-9474.636058,689.485948
232.202608,1184.329507,-9400.615463,766.095498
232.202935,888.247130,-9178.553681,842.705048
232.203263,592.164754,-9030.512492,383.047749
232.203590,0.000000,-9104.533087,459.657299
232.203917,-370.102971,-9178.553681,766.095498
232.204245,-740.205942,-9030.512492,766.095498
232.204572,-1036.288319,-8882.471304,689.485948
232.204900,-1036.288319,-8808.450710,306.438199
232.205227,-1554.432478,-8660.409521,153.219100
232.205554,-1702.473667,-8808.450710,76.609550
232.205882,-2072.576638,-8586.388927,-153.219100
232.206209,-1924.535449,-8586.388927,0.000000
232.206537,-1998.556043,-8438.347739,-229.828649
232.206864,-1924.535449,-8438.347739,-306.438199
232.207192,-1554.432478,-8882.471304,0.000000
232.207519,-1332.370696,-8734.430116,0.000000
232.207846,-962.267725,-8734.430116,0.000000
232.208174,-740.205942,-8882.471304,766.095498
232.208501,-296.082377,-8734.430116,306.438199
232.208829,0.000000,-9104.533087,306.438199
232.209156,296.082377,-9178.553681,536.266849
232.209483,592.164754,-9474.636058,536.266849
232.209811,814.226536,-9622.677246,536.266849
232.210138,1036.288319,-8882.471304,1072.533697
232.210466,1184.329507,-9030.512492,1072.533697
232.210793,1332.370696,-9030.512492,1149.143247
232.211121,1036.288319,-9178.553681,995.924147
232.211448,1184.329507,-9326.594869,1455.581446
232.211775,1554.432478,-9326.594869,1455.581446
232.212103,740.205942,-9104.533087,1149.143247
232.212430,1036.288319,-9104.533087,1302.362347
232.212758,0.000000,-9400.615463,1149.143247
232.213085,0.000000,-9400.615463,995.924147
232.213412,0.000000,-8882.471304,1072.533697
232.213740,-370.102971,-9326.594869,919.314598
232.214067,-962.267725,-9400.615463,842.705048
232.214395,-1184.329507,-9400.615463,842.705048
232.214722,-1554.432478,-9104.533087,689.485948
232.215050,-1554.432478,-8882.471304,689.485948
232.215377,-1850.514855,-8512.368333,383.047749
232.215704,-2072.576638,-8882.471304,459.657299
232.216032,-2146.597232,-8882.471304,383.047749
232.216359,-2220.617826,-8882.471304,0.000000
232.216687,-1998.556043,-8586.388927,153.219100
232.217014,-1702.473667,-8586.388927,153.219100
232.217341,-1554.432478,-8808.450710,76.609550
232.217669,-1110.308913,-8956.491898,153.219100
232.217996,-888.247130,-9252.574275,153.219100
232.218324,-518.144159,-9252.574275,229.828649
232.218651,148.041188,-9326.594869,842.705048
232.218978,370.102971,-9326.594869,536.266849
232.219306,518.144159,-9548.656652,536.266849
232.219633,888.247130,-9400.615463,689.485948
232.219961,1184.329507,-9474.636058,842.705048
232.220288,1554.432478,-9030.512492,459.657299
232.220616,1332.370696,-9474.636058,1072.533697
232.220943,814.226536,-9548.656652,612.876398
232.221270,962.267725,-9474.636058,995.924147
232.221598,1480.411884,-9326.594869,842.705048
232.221925,666.185348,-9326.594869,842.705048
232.222253,740.205942,-9400.615463,459.657299
232.222580,444.123565,-9326.594869,919.314598
232.222907,74.020594,-9178.553681,919.314598
232.223235,0.000000,-9030.512492,612.876398
232.223562,-888.247130,-9030.512492,766.095498
232.223890,-518.144159,-8956.491898,842.705048
232.224217,-592.164754,-8882.471304,459.657299
232.224545,-1258.350101,-8808.450710,306.438199
232.224872,-1332.370696,-8808.450710,306.438199
232.225199,-1406.391290,-8808.450710,306.438199
232.225527,-1258.350101,-8660.409521,229.828649
232.225854,-1554.432478,-8660.409521,0.000000
232.226182,-1998.556043,-8882.471304,0.000000
232.226509,-1850.514855,-8882.471304,0.000000
232.226836,-1776.494261,-8660.409521,0.000000
232.227164,-1036.288319,-8512.368333,-76.609550
232.227491,-1332.370696,-8438.347739,76.609550
232.227819,-814.226536,-9104.533087,0.000000
232.228146,-740.205942,-8956.491898,76.609550
232.228474,-370.102971,-9252.574275,-229.828649
232.228801,74.020594,-9326.594869,229.828649
232.229128,370.102971,-9178.553681,0.000000
232.229456,444.123565,-9400.615463,153.219100
232.229783,740.205942,-9178.553681,306.438199
232.230111,888.247130,-9252.574275,612.876398
232.230438,1184.329507,-9326.594869,1072.533697
232.230765,1184.329507,-8808.450710,919.314598
232.231093,1480.411884,-9178.553681,1225.752797
232.231420,1258.350101,-9326.594869,842.705048
232.231748,1036.288319,-9030.512492,1302.362347
232.232075,1332.370696,-9030.512492,1072.533697
232.232403,1110.308913,-9252.574275,1378.971896
232.232730,666.185348,-9104.533087,995.924147
232.233057,444.123565,-9326.594869,1072.533697
232.233385,0.000000,-9400.615463,919.314598
232.233712,-148.041188,-9178.553681,919.314598
232.234040,-814.226536,-8882.471304,1302.362347
232.234367,-1036.288319,-9252.574275,995.924147
232.234694,-1406.391290,-9326.594869,766.095498
232.235022,-1554.432478,-9030.512492,689.485948
232.235349,-2072.576638,-8882.471304,536.266849
232.235677,-2146.597232,-8808.450710,459.657299
232.236004,-1998.556043,-8882.471304,306.438199
232.236332,-2368.659014,-8808.450710,153.219100
232.236659,-2294.638420,-8808.450710,229.828649
232.236986,-2072.576638,-8808.450710,153.219100
232.237314,-1776.494261,-8808.450710,0.000000
232.237641,-1332.370696,-8364.327145,459.657299
232.237969,-1184.329507,-9030.512492,306.438199
232.238296,-740.205942,-9104.533087,229.828649
232.238623,0.000000,-9474.636058,306.438199
232.238951,74.020594,-9252.574275,536.266849
232.239278,518.144159,-9326.594869,1378.971896
232.239606,740.205942,-9474.636058,689.485948
232.239933,888.247130,-9474.636058,536.266849
232.240261,1110.308913,-9474.636058,919.314598
232.240588,1184.329507,-9400.615463,842.705048
232.240916,1554.432478,-9400.615463,995.924147
232.241243,1554.432478,-9474.636058,689.485948
232.241570,1184.329507,-9548.656652,612.876398
232.241898,1184.329507,-9474.636058,919.314598
232.242225,1480.411884,-9252.574275,919.314598
232.242553,518.144159,-9252.574275,1072.533697
232.242880,1036.288319,-9622.677246,1072.533697
232.243208,518.144159,-9474.636058,842.705048
232.243535,0.000000,-9252.574275,995.924147
232.243863,0.000000,-9178.553681,766.095498
232.244190,-518.144159,-9104.533087,612.876398
232.244517,-888.247130,-9252.574275,1149.143247
232.244845,-1110.308913,-8734.430116,459.657299
232.245172,-1628.453072,-8586.388927,536.266849
232.245500,-1850.514855,-8438.347739,383.047749
232.245827,-1998.556043,-8586.388927,0.000000
232.246155,-1332.370696,-8438.347739,153.219100
232.246482,-1850.514855,-8586.388927,0.000000
232.246810,-1850.514855,-8512.368333,76.609550
232.247137,-1628.453072,-8734.430116,0.000000
232.247464,-1480.411884,-9030.512492,153.219100
232.247792,-1184.329507,-8734.430116,-383.047749
232.248119,-666.185348,-8808.450710,306.438199
232.248447,-296.082377,-9178.553681,153.219100
232.248774,0.000000,-9104.533087,536.266849
232.249102,0.000000,-9400.615463,536.266849
232.249429,370.102971,-9178.553681,1302.362347
232.249757,814.226536,-8734.430116,1225.752797
232.250084,1110.308913,-9252.574275,919.314598
232.250411,1332.370696,-9326.594869,919.314598
232.250739,1332.370696,-9252.574275,1072.533697
232.251066,1332.370696,-9030.512492,689.485948
232.251394,1258.350101,-8586.388927,1608.800546
232.251721,1628.453072,-9030.512492,1302.362347
232.252049,592.164754,-9400.615463,1225.752797
232.252376,962.267725,-9326.594869,1225.752797
232.252704,444.123565,-9326.594869,1149.143247
232.253031,148.041188,-8956.491898,995.924147
232.253358,-148.041188,-9326.594869,1072.533697
232.253686,-518.144159,-9400.615463,1072.533697
232.254013,-888.247130,-9178.553681,995.924147
232.254341,-1184.329507,-9178.553681,1072.533697
232.254668,-1332.370696,-9252.574275,383.047749
232.254996,-1776.494261,-9030.512492,0.000000
232.255323,-1924.535449,-8882.471304,153.219100
232.255651,-2294.638420,-8956.491898,76.609550
232.255978,-2072.576638,-8808.450710,76.609550
232.256306,-2146.597232,-8734.430116,689.485948
232.256633,-2146.597232,-8808.450710,153.219100
232.256960,-1554.432478,-8808.450710,0.000000
232.257288,-1554.432478,-8734.430116,0.000000
232.257615,-1184.329507,-9030.512492,229.828649
232.257943,-962.267725,-9104.533087,229.828649
232.258270,-518.144159,-8882.471304,612.876398
232.258598,0.000000,-9252.574275,459.657299
232.258925,444.123565,-9474.636058,536.266849
232.259253,518.144159,-9474.636058,842.705048
232.259580,888.247130,-9400.615463,842.705048
232.259907,1258.350101,-9030.512492,1149.143247
232.260235,1554.432478,-9548.656652,766.095498
232.260562,1332.370696,-9474.636058,766.095498
232.260890,888.247130,-9474.636058,612.876398
232.261217,1184.329507,-9474.636058,689.485948
232.261545,1628.453072,-9326.594869,1149.143247
232.261872,962.267725,-8956.491898,612.876398
232.262200,962.267725,-9474.636058,766.095498
232.262527,444.123565,-9326.594869,842.705048
232.262854,148.041188,-9400.615463,766.095498
232.263182,0.000000,-9326.594869,612.876398
232.263509,296.082377,-9400.615463,766.095498
232.263837,-518.144159,-9252.574275,766.095498
232.264164,-1036.288319,-9030.512492,689.485948
232.264492,-1184.329507,-8882.471304,459.657299
232.264819,-1332.370696,-8956.491898,383.047749
232.265147,-1332.370696,-8512.368333,459.657299
232.265474,-1850.514855,-8512.368333,76.609550
232.265801,-1702.473667,-8660.409521,229.828649
232.266129,-1924.535449,-8586.388927,0.000000
232.266456,-1776.494261,-8586.388927,-306.438199
232.266784,-1702.473667,-8660.409521,0.000000
232.267111,-1258.350101,-8808.450710,76.609550
232.267439,-1110.308913,-9030.512492,76.609550
232.267766,-888.247130,-8956.491898,0.000000
232.268094,-888.247130,-9252.574275,0.000000
232.268421,-222.061783,-9178.553681,0.000000
232.268748,0.000000,-8808.450710,153.219100
232.269076,0.000000,-9104.533087,229.828649
232.269403,444.123565,-9252.574275,229.828649
232.269731,814.226536,-9252.574275,612.876398
232.270058,1036.288319,-9178.553681,612.876398
232.270386,1110.308913,-9030.512492,766.095498
232.270713,1184.329507,-9326.594869,919.314598
232.271041,1554.432478,-9252.574275,1072.533697
232.271368,1480.411884,-9104.533087,842.705048
232.271695,1258.350101,-9030.512492,1149.143247
232.272023,1258.350101,-8882.471304,1072.533697
232.272350,814.226536,-9474.636058,1149.143247
232.272678,592.164754,-9178.553681,1225.752797
232.273005,296.082377,-9400.615463,1072.533697
232.273333,0.000000,-9474.636058,1072.533697
232.273660,-592.164754,-9030.512492,1072.533697
232.273988,-444.123565,-9252.574275,1302.362347
232.274315,-962.267725,-9178.553681,1072.533697
232.274643,-1332.370696,-8882.471304,919.314598
232.274970,-1776.494261,-9030.512492,919.314598
232.275297,-1628.453072,-9178.553681,689.485948
232.275625,-2072.576638,-9030.512492,995.924147
232.275952,-2368.659014,-8586.388927,229.828649
232.276280,-2368.659014,-8734.430116,306.438199
232.276607,-2146.597232,-8808.450710,383.047749
232.276935,-1998.556043,-8956.491898,306.438199
232.277262,-1776.494261,-8364.327145,76.609550
232.277590,-1480.411884,-8882.471304,229.828649
232.277917,-1258.350101,-9178.553681,229.828649
232.278244,-1110.308913,-9104.533087,306.438199
232.278572,-444.123565,-9104.533087,229.828649
232.278899,74.020594,-8956.491898,842.705048
232.279227,592.164754,-9104.533087,383.047749
232.279554,370.102971,-9326.594869,766.095498
232.279882,814.226536,-9326.594869,766.095498
232.280209,962.267725,-9326.594869,612.876398
232.280537,888.247130,-9400.615463,689.485948
232.280864,1776.494261,-9030.512492,842.705048
232.281191,1406.391290,-9474.636058,919.314598
232.281519,1110.308913,-9474.636058,612.876398
232.281846,888.247130,-9474.636058,766.095498
232.282174,1110.308913,-9252.574275,1149.143247
232.282501,1184.329507,-9400.615463,766.095498
232.282829,740.205942,-9326.594869,766.095498
232.283156,518.144159,-9400.615463,766.095498
232.283484,74.020594,-9400.615463,919.314598
232.283811,0.000000,-9400.615463,689.485948
232.284138,-518.144159,-9104.533087,383.047749
232.284466,-592.164754,-8956.491898,612.876398
232.284793,-962.267725,-9178.553681,536.266849
232.285121,-1332.370696,-8808.450710,306.438199
232.285448,-1480.411884,-8734.430116,612.876398
232.285776,-1776.494261,-7994.224174,612.876398
232.286103,-1776.494261,-8512.368333,76.609550
232.286431,-1924.535449,-8586.388927,0.000000
232.286758,-1924.535449,-9030.512492,0.000000
232.287085,-1702.473667,-8882.471304,0.000000
232.287413,-1036.288319,-8660.409521,76.609550
232.287740,-962.267725,-8956.491898,153.219100
232.288068,-814.226536,-9326.594869,0.000000
232.288395,-592.164754,-9252.574275,153.219100
232.288723,-370.102971,-9252.574275,459.657299
232.289050,0.000000,-8882.471304,459.657299
232.289378,370.102971,-8808.450710,1455.581446
232.289705,666.185348,-9030.512492,842.705048
232.290033,814.226536,-9400.615463,766.095498
232.290360,1110.308913,-9326.594869,1072.533697
232.290687,1110.308913,-9104.533087,995.924147
232.291015,1184.329507,-9178.553681,919.314598
232.291342,1258.350101,-9252.574275,1378.971896
232.291670,1258.350101,-9178.553681,995.924147
232.291997,666.185348,-9326.594869,1302.362347
232.292325,962.267725,-9030.512492,1149.143247
232.292652,296.082377,-9326.594869,1762.019645
232.292980,222.061783,-9030.512492,1378.971896
232.293307,0.000000,-9252.574275,919.314598
232.293634,-370.102971,-9178.553681,1455.581446
232.293962,-740.205942,-9400.615463,995.924147
232.294289,-1036.288319,-9104.533087,689.485948
232.294617,-1184.329507,-9104.533087,919.314598
232.294944,-1480.411884,-8956.491898,689.485948
232.295272,-1776.494261,-9104.533087,383.047749
232.295599,-1850.514855,-9104.533087,459.657299
232.295927,-1850.514855,-8882.471304,689.485948
232.296254,-1924.535449,-8734.430116,0.000000
232.296581,-2072.576638,-8734.430116,76.609550
232.296909,-1776.494261,-8882.471304,229.828649
232.297236,-1258.350101,-9030.512492,0.000000
232.297564,-1406.391290,-8956.491898,229.828649
232.297891,-666.185348,-8734.430116,229.828649
232.298219,-370.102971,-9104.533087,153.219100
232.298546,-370.102971,-9178.553681,153.219100
232.298874,222.061783,-9326.594869,229.828649
232.299201,296.082377,-9474.636058,229.828649
232.299528,1110.308913,-9252.574275,612.876398
232.299856,1184.329507,-9326.594869,383.047749
232.300183,1110.308913,-9326.594869,842.705048
