#time,accel_x,accel_y,accel_z
508.119486,-296.082377,-9104.533087,612.876398
508.119813,-296.082377,-8956.491898,459.657299
508.120141,0.000000,-8956.491898,689.485948
508.120468,-296.082377,-9178.553681,459.657299
508.120795,-222.061783,-9030.512492,383.047749
508.121123,0.000000,-9104.533087,459.657299
508.121450,-222.061783,-9030.512492,689.485948
508.121778,-148.041188,-9104.533087,383.047749
508.122105,-296.082377,-9252.574275,536.266849
508.122433,-296.082377,-9252.574275,459.657299
508.122760,-296.082377,-9326.594869,612.876398
508.123088,-296.082377,-9030.512492,459.657299
508.123415,-444.123565,-8956.491898,995.924147
508.123743,-222.061783,-9252.574275,612.876398
508.124070,-296.082377,-9030.512492,459.657299
508.124397,-518.144159,-9178.553681,766.095498
508.124725,-370.102971,-9252.574275,536.266849
508.125052,-592.164754,-8808.450710,995.924147
508.125380,0.000000,-9104.533087,536.266849
508.125707,-222.061783,-9104.533087,536.266849
508.126035,-370.102971,-9252.574275,766.095498
508.126362,-444.123565,-9178.553681,459.657299
508.126690,0.000000,-9474.636058,459.657299
508.127017,-296.082377,-8808.450710,995.924147
508.127344,-296.082377,-9030.512492,689.485948
508.127672,-296.082377,-9252.574275,459.657299
508.127999,-444.123565,-9030.512492,536.266849
508.128327,-444.123565,-9030.512492,689.485948
508.128654,74.020594,-8882.471304,919.314598
508.128982,-370.102971,-9400.615463,383.047749
508.129309,-888.247130,-9252.574275,383.047749
508.129637,-1184.329507,-9400.615463,76.609550
508.129964,-1406.391290,-9400.615463,-306.438199
508.130291,-1258.350101,-9400.615463,-995.924147
508.130619,-888.247130,-9178.553681,-459.657299
508.130946,-592.164754,-9030.512492,-306.438199
508.131274,-740.205942,-9104.533087,-766.095498
508.131601,-814.226536,-9474.636058,-842.705048
508.131929,-962.267725,-9178.553681,-919.314598
508.132256,-1184.329507,-9030.512492,-995.924147
508.132584,-814.226536,-9252.574275,-1378.971896
508.132911,-814.226536,-9252.574275,-1302.362347
508.133238,-518.144159,-9326.594869,-1225.752797
508.133566,0.000000,-9474.636058,-1302.362347
508.133893,-296.082377,-8660.409521,-1072.533697
508.134221,0.000000,-9178.553681,-1302.362347
508.134548,148.041188,-9326.594869,-1532.190996
508.134876,222.061783,-9252.574275,-1685.410096
508.135203,222.061783,-9326.594869,-1302.362347
508.135531,518.144159,-9030.512492,-2221.676944
508.135858,222.061783,-9326.594869,-1608.800546
508.136186,370.102971,-9326.594869,-1762.019645
508.136513,296.082377,-9326.594869,-1685.410096
508.136840,518.144159,-9252.574275,-1762.019645
508.137168,888.247130,-9474.636058,-1991.848295
508.137495,0.000000,-9104.533087,-1915.238745
508.137823,148.041188,-9178.553681,-1915.238745
508.138150,148.041188,-9474.636058,-1915.238745
508.138478,0.000000,-9326.594869,-1685.410096
508.138805,0.000000,-9474.636058,-1302.362347
508.139133,0.000000,-9178.553681,-1915.238745
508.139460,-740.205942,-9252.574275,-1915.238745
508.139787,-962.267725,-9104.533087,-2068.457845
508.140115,-1332.370696,-9400.615463,-2221.676944
508.140442,-1628.453072,-8882.471304,-2145.067394
508.140770,-1406.391290,-9030.512492,-2528.115143
508.141097,-1924.535449,-9178.553681,-3294.210641
508.141425,-2294.638420,-9030.512492,-3140.991542
508.141752,-1924.535449,-9104.533087,-3370.820191
508.142080,-1998.556043,-8956.491898,-3600.648841
508.142407,-1850.514855,-8956.491898,-4290.134789
508.142734,-1998.556043,-8882.471304,-4136.915689
508.143062,-1702.473667,-8882.471304,-3983.696590
508.143389,-1332.370696,-8808.450710,-4060.306139
508.143717,-740.205942,-8956.491898,-3907.087040
508.144044,0.000000,-8586.388927,-3907.087040
508.144372,740.205942,-9030.512492,-2987.772442
508.144699,1480.411884,-8734.430116,-2528.115143
508.145027,1998.556043,-8956.491898,-2528.115143
508.145354,2294.638420,-9104.533087,-1991.848295
508.145682,2294.638420,-9400.615463,-2374.896044
508.146009,1850.514855,-9770.718434,-1838.629195
508.146336,740.205942,-10066.800811,-2528.115143
508.146664,-222.061783,-10436.903782,-2834.553343
508.146991,-1110.308913,-10436.903782,-3524.039291
508.147319,-1480.411884,-10214.842000,-3830.477490
508.147646,-2294.638420,-9622.677246,-4519.963438
508.147974,-1480.411884,-9400.615463,-5056.230287
508.148301,-444.123565,-8512.368333,-4673.182538
508.148629,1110.308913,-7476.080014,-4290.134789
508.148956,2516.700203,-7105.977043,-3294.210641
508.149283,3108.864956,-7328.038826,-2451.505594
508.149611,2294.638420,-7698.141797,-1915.238745
508.149938,592.164754,-8660.409521,-1762.019645
508.150266,-1258.350101,-9696.697840,-2068.457845
508.150593,-2960.823768,-10658.965565,-2451.505594
508.150921,-4071.132681,-10510.924376,-2604.724693
508.151248,-3404.947333,-10140.821405,-2528.115143
508.151576,222.061783,-8660.409521,-1302.362347
508.151903,5033.400406,-6661.853478,995.924147
508.152230,9548.656652,-5329.482782,3064.381992
508.152558,11177.109724,-5995.668130,4443.353888
508.152885,8290.306550,-7254.018232,4519.963438
508.153213,2368.659014,-10362.883188,3217.601092
508.153540,-3923.091493,-12287.418637,1225.752797
508.153868,-8364.327145,-13841.851115,-689.485948
508.154195,-11843.295072,-13841.851115,-2528.115143
508.154523,-11843.295072,-13767.830521,-3370.820191
508.154850,-11547.212695,-11621.233289,-4213.525239
508.155177,-5255.462188,-8290.306550,-4136.915689
508.155505,-3997.112087,-5403.503377,-3217.601092
508.155832,222.061783,-3923.091493,-3983.696590
508.156160,222.061783,-4441.235652,-4826.401637
508.156487,-4441.235652,-6439.791695,-5515.887586
508.156815,-7254.018232,-7624.121203,-7737.564530
508.157142,-11917.315666,-9252.574275,-8886.707777
508.157470,-10066.800811,-10140.821405,-8197.221829
508.157797,-8142.265362,-9178.553681,-7431.126331
508.158125,-2516.700203,-8512.368333,-5822.325785
508.158452,4737.318029,-7402.059420,-4213.525239
508.158779,7402.059420,-7105.977043,-3294.210641
508.159107,8512.368333,-8586.388927,-3677.258390
508.159434,6883.915261,-9992.780217,-4749.792088
508.159762,4515.256246,-11547.212695,-5898.935335
508.160089,4959.379811,-11473.192101,-6281.983084
508.160417,7772.162391,-10288.862594,-5286.058936
508.160744,11473.192101,-9178.553681,-2757.943793
508.161072,13027.624579,-9548.656652,-536.266849
508.161399,11917.315666,-9992.780217,76.609550
508.161726,9252.574275,-9918.759623,-1915.238745
508.162054,5921.647536,-10955.047942,-2145.067394
508.162381,7105.977043,-10955.047942,-2145.067394
508.162709,5625.565159,-11029.068536,-1455.581446
508.163036,740.205942,-11177.109724,-1302.362347
508.163364,-4811.338623,-13471.748144,-4136.915689
508.163691,-11769.274478,-12361.439231,-6281.983084
508.164019,-14508.036463,-9622.677246,-7660.954980
508.164346,-10658.965565,-4959.379811,-7737.564530
508.164673,-4737.318029,-962.267725,-5898.935335
508.165001,2072.576638,-814.226536,-4213.525239
508.165328,2516.700203,-1184.329507,-2911.162892
508.165656,2368.659014,-2368.659014,-995.924147
508.165983,-962.267725,-5107.421000,-1072.533697
508.166311,-3182.885551,-6069.688724,-995.924147
508.166638,-4219.173869,-9104.533087,-766.095498
508.166966,-2812.782580,-11399.171507,1838.629195
508.167293,-2886.803174,-11547.212695,3064.381992
508.167621,-1110.308913,-11843.295072,5822.325785
508.167948,1776.494261,-10658.965565,7354.516781
508.168275,3256.906145,-9548.656652,6741.640382
508.168603,3775.050304,-10955.047942,4826.401637
508.168930,592.164754,-12139.377449,2068.457845
508.169258,-2294.638420,-12287.418637,153.219100
508.169585,-2886.803174,-10807.006753,536.266849
508.169913,-592.164754,-7920.203579,1225.752797
508.170240,1554.432478,-7105.977043,1455.581446
508.170568,370.102971,-7846.182985,229.828649
508.170895,-2368.659014,-10066.800811,1685.410096
508.171222,-4737.318029,-9030.512492,766.095498
508.171550,-7476.080014,-8882.471304,-459.657299
508.171877,-6735.874072,-9844.739029,-229.828649
508.172205,-4885.359217,-10807.006753,-766.095498
508.172532,-6217.729913,-10955.047942,-2068.457845
508.172860,-6069.688724,-9696.697840,-1838.629195
508.173187,-4959.379811,-6143.709319,-1915.238745
508.173515,-3701.029710,-5033.400406,-1991.848295
508.173842,-888.247130,-6143.709319,-2068.457845
508.174169,-370.102971,-7105.977043,-4290.134789
508.174497,370.102971,-8956.491898,-4443.353888
508.174824,3552.988522,-8216.285956,-3600.648841
508.175152,5329.482782,-7402.059420,-2528.115143
508.175479,7698.141797,-9770.718434,-153.219100
508.175807,7994.224174,-12953.603985,306.438199
508.176134,5551.544565,-14434.015869,-229.828649
508.176462,4219.173869,-14063.912898,0.000000
508.176789,4071.132681,-12805.562797,766.095498
508.177117,3108.864956,-12287.418637,1149.143247
508.177444,3330.926739,-12509.480420,842.705048
508.177772,4293.194464,-12657.521608,1455.581446
508.178099,5255.462188,-10066.800811,1915.238745
508.178427,5107.421000,-7920.203579,1608.800546
508.178754,3849.070898,-6883.915261,1838.629195
508.179082,370.102971,-7254.018232,-1072.533697
508.179409,-4663.297435,-8586.388927,-1915.238745
508.179737,-3923.091493,-7105.977043,-2528.115143
508.180064,-4737.318029,-5773.606348,-1915.238745
508.180392,-4959.379811,-5107.421000,-1378.971896
508.180719,-4885.359217,-6883.915261,-1072.533697
508.181047,-4515.256246,-8142.265362,-153.219100
508.181374,-3330.926739,-7105.977043,-536.266849
508.181702,-1924.535449,-7105.977043,153.219100
508.182029,-2960.823768,-7550.100608,229.828649
508.182357,-5995.668130,-8512.368333,0.000000
508.182684,-6587.832884,-9104.533087,-766.095498
508.183012,-4737.318029,-9030.512492,0.000000
508.183339,-1776.494261,-7476.080014,536.266849
508.183667,148.041188,-7105.977043,1762.019645
508.183994,1036.288319,-8586.388927,1915.238745
508.184322,1184.329507,-9474.636058,1762.019645
508.184649,2516.700203,-9326.594869,1991.848295
508.184977,3627.009116,-8956.491898,1915.238745
508.185304,3182.885551,-9770.718434,1762.019645
508.185632,888.247130,-10362.883188,536.266849
508.185959,-148.041188,-10436.903782,842.705048
508.186287,814.226536,-9474.636058,1225.752797
508.186614,2072.576638,-8068.244768,1532.190996
508.186942,2368.659014,-8216.285956,1991.848295
508.187269,1480.411884,-9178.553681,1455.581446
508.187597,-888.247130,-8734.430116,383.047749
508.187924,814.226536,-7920.203579,1915.238745
508.188252,2960.823768,-6809.894666,1149.143247
508.188579,296.082377,-7994.224174,689.485948
508.188907,444.123565,-9326.594869,306.438199
508.189234,-1702.473667,-10066.800811,383.047749
508.189562,-2516.700203,-9326.594869,536.266849
508.189889,-1036.288319,-9400.615463,1149.143247
508.190217,-1850.514855,-10140.821405,995.924147
508.190544,-2368.659014,-10288.862594,459.657299
508.190872,-592.164754,-11177.109724,383.047749
508.191199,-148.041188,-9252.574275,842.705048
508.191527,0.000000,-8660.409521,766.095498
508.191854,-962.267725,-10510.924376,459.657299
508.192182,-3849.070898,-10955.047942,-689.485948
508.192509,-4737.318029,-10288.862594,-842.705048
508.192837,-3627.009116,-8512.368333,-842.705048
508.193164,-1776.494261,-7550.100608,-383.047749
508.193492,-962.267725,-8142.265362,-383.047749
508.193819,0.000000,-9548.656652,383.047749
508.194147,592.164754,-8512.368333,536.266849
508.194474,1480.411884,-8216.285956,1149.143247
508.194802,2146.597232,-8734.430116,1608.800546
508.195129,222.061783,-10510.924376,1608.800546
508.195457,-1110.308913,-12139.377449,612.876398
508.195784,-1406.391290,-11251.130318,1762.019645
508.196112,0.000000,-10140.821405,919.314598
508.196439,1110.308913,-9770.718434,1302.362347
508.196767,1480.411884,-9844.739029,1149.143247
508.197094,666.185348,-9918.759623,76.609550
508.197422,1184.329507,-8882.471304,995.924147
508.197749,3182.885551,-8068.244768,1302.362347
508.198077,1850.514855,-8882.471304,919.314598
508.198404,222.061783,-9770.718434,229.828649
508.198732,-1480.411884,-10807.006753,0.000000
508.199059,-2442.679609,-9918.759623,-383.047749
508.199387,-2294.638420,-9104.533087,-153.219100
508.199714,-1406.391290,-8956.491898,536.266849
508.200042,-1776.494261,-9400.615463,0.000000
508.200369,-1406.391290,-9178.553681,0.000000
508.200697,-296.082377,-7772.162391,0.000000
508.201024,888.247130,-6957.935855,306.438199
508.201352,1258.350101,-6735.874072,229.828649
508.201679,-1184.329507,-7772.162391,0.000000
508.202007,-1998.556043,-8438.347739,-306.438199
508.202334,-2072.576638,-7698.141797,-306.438199
508.202662,-222.061783,-6883.915261,-459.657299
508.202989,888.247130,-7105.977043,306.438199
508.203317,962.267725,-8438.347739,229.828649
508.203644,1184.329507,-9252.574275,1072.533697
508.203972,1776.494261,-8882.471304,1378.971896
508.204299,2368.659014,-8660.409521,2221.676944
508.204627,1554.432478,-9474.636058,1762.019645
508.204954,-666.185348,-11177.109724,995.924147
508.205282,-2072.576638,-11177.109724,383.047749
508.205609,-1924.535449,-9770.718434,536.266849
508.205936,-814.226536,-8586.388927,612.876398
508.206264,-518.144159,-8438.347739,1608.800546
508.206591,-296.082377,-9326.594869,-153.219100
508.206919,-1924.535449,-8956.491898,306.438199
508.207246,1036.288319,-7105.977043,306.438199
508.207574,1406.391290,-6439.791695,766.095498
508.207901,666.185348,-7105.977043,459.657299
508.208229,-444.123565,-8956.491898,0.000000
508.208556,-2368.659014,-9548.656652,153.219100
508.208884,-1924.535449,-8438.347739,153.219100
508.209211,-888.247130,-8364.327145,766.095498
508.209539,-814.226536,-9104.533087,1378.971896
508.209866,-296.082377,-10288.862594,612.876398
508.210194,0.000000,-9992.780217,689.485948
508.210521,962.267725,-9030.512492,919.314598
508.210849,1702.473667,-8660.409521,1455.581446
508.211176,518.144159,-10066.800811,383.047749
508.211504,-1554.432478,-10881.027347,229.828649
508.211831,-2442.679609,-10881.027347,0.000000
508.212159,-1776.494261,-9918.759623,0.000000
508.212486,-370.102971,-9474.636058,459.657299
508.212814,-518.144159,-9622.677246,689.485948
508.213141,-222.061783,-10658.965565,842.705048
508.213469,0.000000,-9918.759623,919.314598
508.213796,814.226536,-8734.430116,1149.143247
508.214124,1332.370696,-8808.450710,1532.190996
508.214451,296.082377,-9696.697840,1149.143247
508.214779,-2368.659014,-10436.903782,689.485948
508.215106,-2516.700203,-10140.821405,612.876398
508.215434,-2072.576638,-9252.574275,689.485948
508.215761,-1258.350101,-8660.409521,919.314598
508.216089,-1110.308913,-9252.574275,919.314598
508.216416,-1184.329507,-9474.636058,766.095498
508.216744,-148.041188,-8438.347739,1225.752797
508.217071,1110.308913,-7476.080014,1149.143247
508.217399,1554.432478,-7772.162391,842.705048
508.217726,-370.102971,-9104.533087,-153.219100
508.218054,-2294.638420,-9770.718434,-919.314598
508.218381,-1850.514855,-9030.512492,0.000000
508.218709,-740.205942,-7698.141797,306.438199
508.219036,888.247130,-8290.306550,919.314598
508.219364,888.247130,-9326.594869,842.705048
508.219691,296.082377,-9918.759623,1608.800546
508.220019,1184.329507,-9400.615463,1149.143247
508.220346,1554.432478,-8956.491898,1762.019645
508.220674,1258.350101,-9104.533087,1762.019645
508.221001,-518.144159,-10362.883188,689.485948
508.221329,-2072.576638,-10658.965565,459.657299
508.221656,-2368.659014,-9178.553681,153.219100
508.221984,-666.185348,-7402.059420,536.266849
508.222311,370.102971,-7105.977043,229.828649
508.222639,592.164754,-7920.203579,-153.219100
508.222966,-148.041188,-8586.388927,-459.657299
508.223294,444.123565,-7994.224174,229.828649
508.223621,1628.453072,-7179.997637,0.000000
508.223949,1036.288319,-8216.285956,229.828649
508.224276,-444.123565,-9770.718434,-383.047749
508.224604,-1998.556043,-10732.986159,-306.438199
508.224931,-1702.473667,-9918.759623,153.219100
508.225259,-592.164754,-8882.471304,459.657299
508.225586,518.144159,-9178.553681,689.485948
508.225914,222.061783,-9770.718434,689.485948
508.226241,444.123565,-10140.821405,612.876398
508.226569,1258.350101,-8956.491898,536.266849
508.226896,2072.576638,-7846.182985,536.266849
508.227224,1554.432478,-8512.368333,536.266849
508.227551,-518.144159,-9918.759623,0.000000
508.227879,-1924.535449,-10584.944971,-459.657299
508.228206,-1850.514855,-9474.636058,0.000000
508.228534,-222.061783,-8734.430116,766.095498
508.228861,-370.102971,-8882.471304,229.828649
508.229189,-370.102971,-9844.739029,459.657299
508.229516,-592.164754,-9770.718434,229.828649
508.229844,148.041188,-9104.533087,919.314598
508.230171,666.185348,-8512.368333,1302.362347
508.230499,148.041188,-9178.553681,842.705048
508.230826,-1776.494261,-10214.842000,536.266849
508.231154,-2368.659014,-10288.862594,459.657299
508.231481,-2220.617826,-9104.533087,612.876398
508.231809,-888.247130,-7920.203579,1072.533697
508.232136,-148.041188,-8660.409521,612.876398
508.232464,-296.082377,-9400.615463,766.095498
508.232791,0.000000,-8956.491898,1149.143247
508.233119,814.226536,-8290.306550,1608.800546
508.233446,1110.308913,-8438.347739,1762.019645
508.233774,0.000000,-8956.491898,995.924147
508.234101,-2368.659014,-10510.924376,536.266849
508.234429,-3478.967927,-10362.883188,0.000000
508.234756,-2738.761985,-9326.594869,229.828649
508.235084,-1258.350101,-8808.450710,612.876398
508.235411,-962.267725,-8660.409521,766.095498
508.235739,-740.205942,-9252.574275,459.657299
508.236066,148.041188,-8660.409521,76.609550
508.236394,1184.329507,-7846.182985,536.266849
508.236721,1554.432478,-7624.121203,689.485948
508.237049,444.123565,-9030.512492,919.314598
508.237376,-814.226536,-10066.800811,0.000000
508.237704,-1258.350101,-9844.739029,76.609550
508.238031,0.000000,-9474.636058,1072.533697
508.238359,962.267725,-9252.574275,1378.971896
508.238686,1554.432478,-9696.697840,1532.190996
508.239014,1184.329507,-10214.842000,1455.581446
508.239341,1924.535449,-9474.636058,1762.019645
508.239669,3108.864956,-8364.327145,1838.629195
508.239996,2664.741391,-8956.491898,1685.410096
508.240324,592.164754,-9770.718434,766.095498
508.240651,-888.247130,-9918.759623,229.828649
508.240979,-1998.556043,-9326.594869,229.828649
508.241306,-1332.370696,-8364.327145,76.609550
508.241634,0.000000,-7846.182985,229.828649
508.241961,-444.123565,-8438.347739,0.000000
508.242289,-740.205942,-8438.347739,153.219100
508.242616,-592.164754,-8068.244768,306.438199
508.242944,0.000000,-7254.018232,383.047749
508.243271,-666.185348,-7402.059420,229.828649
508.243599,-2664.741391,-8956.491898,-689.485948
508.243926,-4071.132681,-9326.594869,-536.266849
508.244254,-3701.029710,-8586.388927,-995.924147
508.244581,-1998.556043,-7846.182985,-229.828649
508.244909,-962.267725,-7846.182985,306.438199
508.245236,-222.061783,-8734.430116,383.047749
508.245564,222.061783,-8808.450710,689.485948
508.245891,1480.411884,-8068.244768,995.924147
508.246219,2294.638420,-7624.121203,1378.971896
508.246546,2146.597232,-8660.409521,1302.362347
508.246874,222.061783,-10584.944971,612.876398
508.247201,-1480.411884,-11325.150913,766.095498
508.247529,-1998.556043,-9548.656652,612.876398
508.247856,0.000000,-9622.677246,612.876398
508.248183,296.082377,-9326.594869,689.485948
508.248511,74.020594,-10362.883188,0.000000
508.248838,0.000000,-10288.862594,229.828649
508.249166,1110.308913,-7994.224174,0.000000
508.249493,1480.411884,-7550.100608,1072.533697
508.249821,1184.329507,-8956.491898,536.266849
508.250148,-1184.329507,-10214.842000,-153.219100
508.250476,-2664.741391,-10288.862594,-536.266849
508.250803,-1628.453072,-9326.594869,-229.828649
508.251131,-592.164754,-8068.244768,229.828649
508.251458,74.020594,-8956.491898,459.657299
508.251786,296.082377,-9844.739029,536.266849
508.252113,1258.350101,-9474.636058,1225.752797
508.252441,2220.617826,-8808.450710,2374.896044
508.252768,2590.720797,-9252.574275,2068.457845
508.253096,1036.288319,-10288.862594,1532.190996
508.253423,-1036.288319,-11843.295072,766.095498
508.253751,-2516.700203,-11769.274478,536.266849
508.254078,-2442.679609,-10807.006753,612.876398
508.254406,-2072.576638,-9696.697840,842.705048
508.254733,-1850.514855,-9844.739029,0.000000
508.255061,-1258.350101,-10658.965565,0.000000
508.255388,-1184.329507,-9548.656652,-153.219100
508.255716,0.000000,-8290.306550,0.000000
508.256043,74.020594,-7402.059420,153.219100
508.256371,-222.061783,-8660.409521,-459.657299
508.256698,-2664.741391,-9104.533087,-842.705048
508.257026,-2812.782580,-8364.327145,-612.876398
508.257353,-1776.494261,-7105.977043,0.000000
508.257681,592.164754,-6735.874072,1378.971896
508.258008,1406.391290,-7105.977043,1762.019645
508.258336,1776.494261,-7920.203579,2145.067394
508.258663,2516.700203,-7698.141797,2911.162892
508.258991,3552.988522,-7179.997637,3294.210641
508.259318,2812.782580,-7846.182985,2987.772442
508.259646,1554.432478,-8882.471304,2374.896044
508.259973,-740.205942,-10214.842000,1608.800546
508.260301,-1554.432478,-9622.677246,1149.143247
508.260628,-666.185348,-8512.368333,1455.581446
508.260956,74.020594,-8734.430116,1302.362347
508.261283,-444.123565,-9474.636058,842.705048
508.261611,-1332.370696,-9844.739029,229.828649
508.261938,-1406.391290,-9104.533087,76.609550
508.262266,-1184.329507,-8364.327145,76.609550
508.262593,-1702.473667,-8068.244768,0.000000
508.262921,-3256.906145,-9252.574275,-995.924147
508.263248,-5033.400406,-9400.615463,-1838.629195
508.263576,-4737.318029,-8512.368333,-1225.752797
508.263903,-2960.823768,-6809.894666,-459.657299
508.264231,-1850.514855,-6291.750507,-153.219100
508.264558,-296.082377,-7550.100608,0.000000
508.264886,0.000000,-7772.162391,-459.657299
508.265213,592.164754,-7179.997637,76.609550
508.265541,1998.556043,-7031.956449,919.314598
508.265868,1628.453072,-7698.141797,536.266849
508.266196,1184.329507,-9770.718434,306.438199
508.266523,1110.308913,-10807.006753,-153.219100
508.266851,-740.205942,-10584.944971,-383.047749
508.267178,1702.473667,-10807.006753,0.000000
508.267506,2368.659014,-10510.924376,229.828649
508.267833,2072.576638,-11843.295072,0.000000
508.268161,888.247130,-11991.336260,-766.095498
508.268488,2072.576638,-11843.295072,229.828649
508.268816,2442.679609,-10362.883188,0.000000
508.269143,1628.453072,-10955.047942,0.000000
508.269471,-740.205942,-11843.295072,-229.828649
508.269798,-2590.720797,-11769.274478,-842.705048
508.270126,-2368.659014,-10658.965565,-995.924147
508.270453,-814.226536,-8586.388927,-229.828649
508.270781,222.061783,-8216.285956,383.047749
508.271108,0.000000,-9030.512492,383.047749
508.271436,666.185348,-9178.553681,1378.971896
508.271763,1702.473667,-8364.327145,1915.238745
508.272091,1184.329507,-8216.285956,1991.848295
508.272418,296.082377,-8808.450710,2068.457845
508.272746,-1628.453072,-10362.883188,1378.971896
508.273073,-2516.700203,-10510.924376,1225.752797
508.273401,-1924.535449,-9104.533087,1685.410096
508.273728,-888.247130,-9252.574275,1685.410096
508.274056,-444.123565,-9918.759623,1532.190996
508.274383,-1480.411884,-10658.965565,1302.362347
508.274711,-1332.370696,-10584.944971,1378.971896
508.275038,-666.185348,-9030.512492,1608.800546
508.275366,-370.102971,-9474.636058,1532.190996
508.275693,-1702.473667,-10140.821405,689.485948
508.276021,-3404.947333,-10955.047942,459.657299
508.276348,-4219.173869,-9992.780217,459.657299
508.276676,-2072.576638,-8290.306550,1072.533697
508.277003,-444.123565,-7105.977043,1149.143247
508.277331,74.020594,-7402.059420,995.924147
508.277658,148.041188,-7994.224174,1225.752797
508.277986,1036.288319,-7031.956449,1685.410096
508.278313,2368.659014,-5699.585753,2068.457845
508.278640,2960.823768,-6439.791695,2451.505594
508.278968,1702.473667,-7328.038826,2068.457845
508.279295,0.000000,-8512.368333,1685.410096
508.279623,-518.144159,-8216.285956,1455.581446
508.279950,0.000000,-7550.100608,1455.581446
508.280278,1184.329507,-8364.327145,2068.457845
508.280605,148.041188,-9400.615463,842.705048
508.280933,-296.082377,-10140.821405,0.000000
508.281260,148.041188,-9474.636058,76.609550
508.281588,814.226536,-8512.368333,0.000000
508.281915,740.205942,-8438.347739,0.000000
508.282243,-592.164754,-9770.718434,-995.924147
508.282570,-3034.844362,-10436.903782,-1838.629195
508.282898,-3923.091493,-9326.594869,-1685.410096
508.283225,-2738.761985,-8068.244768,-1762.019645
508.283552,-1628.453072,-7328.038826,-1762.019645
508.283880,-1332.370696,-7402.059420,-1149.143247
508.284207,-518.144159,-7920.203579,-842.705048
508.284535,814.226536,-7105.977043,0.000000
508.284862,2220.617826,-6291.750507,612.876398
508.285190,2368.659014,-7031.956449,1225.752797
508.285517,1184.329507,-9030.512492,229.828649
508.285845,74.020594,-10066.800811,536.266849
508.286172,0.000000,-9622.677246,536.266849
508.286500,1332.370696,-9474.636058,1072.533697
508.286827,1554.432478,-9622.677246,842.705048
508.287155,1628.453072,-11251.130318,229.828649
508.287482,888.247130,-11843.295072,459.657299
508.287810,1258.350101,-10955.047942,76.609550
508.288137,2146.597232,-10066.800811,536.266849
508.288465,444.123565,-10436.903782,-383.047749
508.288792,-1110.308913,-11917.315666,-1685.410096
508.289119,-3701.029710,-11769.274478,-1072.533697
508.289447,-2738.761985,-10584.944971,-1072.533697
508.289774,-1184.329507,-9474.636058,-229.828649
508.290102,0.000000,-9252.574275,229.828649
508.290429,222.061783,-9474.636058,1149.143247
508.290757,296.082377,-9474.636058,1685.410096
508.291084,814.226536,-8216.285956,2068.457845
508.291412,1406.391290,-7772.162391,2298.286494
508.291739,518.144159,-8882.471304,2221.676944
508.292067,-1258.350101,-9770.718434,1608.800546
508.292394,-2220.617826,-9400.615463,1762.019645
508.292722,-1554.432478,-8586.388927,1915.238745
508.293049,-222.061783,-8512.368333,2221.676944
508.293377,-296.082377,-9326.594869,2068.457845
508.293704,-740.205942,-9918.759623,1762.019645
508.294032,-666.185348,-9622.677246,1455.581446
508.294359,0.000000,-9104.533087,1225.752797
508.294686,0.000000,-9178.553681,1455.581446
508.295014,-1258.350101,-10436.903782,842.705048
508.295341,-3256.906145,-11177.109724,0.000000
508.295669,-3330.926739,-10436.903782,612.876398
508.295996,-3256.906145,-9104.533087,536.266849
508.296324,-2072.576638,-7920.203579,766.095498
508.296651,-1332.370696,-8364.327145,842.705048
508.296979,-1480.411884,-8734.430116,995.924147
508.297306,-740.205942,-7772.162391,1838.629195
508.297634,666.185348,-6365.771101,2374.896044
508.297961,1702.473667,-6365.771101,2145.067394
508.298289,1036.288319,-6957.935855,1762.019645
508.298616,74.020594,-7994.224174,1685.410096
508.298944,-370.102971,-7328.038826,1532.190996
508.299271,444.123565,-6587.832884,1225.752797
508.299599,1036.288319,-6883.915261,1455.581446
508.299926,518.144159,-7994.224174,459.657299
508.300253,222.061783,-9178.553681,229.828649
508.300581,740.205942,-8882.471304,229.828649
508.300908,1628.453072,-8660.409521,76.609550
508.301236,1036.288319,-9104.533087,153.219100
508.301563,-888.247130,-10807.006753,-842.705048
508.301891,-3108.864956,-11547.212695,-1838.629195
508.302218,-3478.967927,-10584.944971,-2221.676944
508.302546,-2516.700203,-9326.594869,-2068.457845
508.302873,-518.144159,-8660.409521,-1608.800546
508.303201,-296.082377,-9326.594869,-1685.410096
508.303528,-370.102971,-9474.636058,-1532.190996
508.303856,740.205942,-8364.327145,-995.924147
508.304183,2294.638420,-7105.977043,76.609550
508.304511,2664.741391,-6883.915261,229.828649
508.304838,1628.453072,-8734.430116,-306.438199
508.305165,444.123565,-9548.656652,-153.219100
508.305493,222.061783,-9030.512492,153.219100
508.305820,1554.432478,-8734.430116,842.705048
508.306148,2368.659014,-8512.368333,919.314598
508.306475,2294.638420,-10066.800811,995.924147
508.306803,1924.535449,-10732.986159,842.705048
508.307130,1776.494261,-10362.883188,919.314598
508.307458,2146.597232,-10140.821405,1149.143247
508.307785,888.247130,-10955.047942,995.924147
508.308113,-1258.350101,-12213.398043,0.000000
508.308440,-3182.885551,-12509.480420,-689.485948
508.308768,-3108.864956,-11103.089130,-536.266849
508.309095,-1850.514855,-9474.636058,-383.047749
508.309423,-740.205942,-9252.574275,0.000000
508.309750,-1406.391290,-9326.594869,383.047749
508.310078,-1110.308913,-9474.636058,766.095498
508.310405,-666.185348,-8290.306550,1378.971896
508.310732,-148.041188,-7328.038826,1915.238745
508.311060,-148.041188,-7846.182985,1762.019645
508.311387,-1776.494261,-9104.533087,2374.896044
508.311715,-3108.864956,-9030.512492,1915.238745
508.312042,-2590.720797,-7920.203579,2145.067394
508.312370,-1406.391290,-7476.080014,2145.067394
508.312697,-518.144159,-7698.141797,2298.286494
508.313025,-370.102971,-8660.409521,2374.896044
508.313352,-222.061783,-8586.388927,1455.581446
508.313680,370.102971,-7994.224174,1685.410096
508.314007,814.226536,-8142.265362,1532.190996
508.314335,-444.123565,-9696.697840,1072.533697
508.314662,-2368.659014,-11399.171507,229.828649
508.314990,-4293.194464,-10881.027347,-383.047749
508.315317,-3108.864956,-9548.656652,0.000000
508.315645,-1628.453072,-8808.450710,76.609550
508.315972,-1332.370696,-9400.615463,0.000000
508.316299,0.000000,-9474.636058,459.657299
508.316627,740.205942,-8438.347739,689.485948
508.316954,1258.350101,-7031.956449,1149.143247
508.317282,2368.659014,-7031.956449,1302.362347
508.317609,1776.494261,-7772.162391,1302.362347
508.317937,74.020594,-8734.430116,1302.362347
508.318264,74.020594,-8142.265362,1532.190996
508.318592,296.082377,-7994.224174,995.924147
508.318919,1184.329507,-7920.203579,919.314598
508.319247,1184.329507,-8660.409521,766.095498
508.319574,1258.350101,-9622.677246,536.266849
508.319902,2368.659014,-9400.615463,306.438199
508.320229,2442.679609,-8882.471304,536.266849
508.320557,2220.617826,-9770.718434,306.438199
508.320884,222.061783,-10807.006753,-153.219100
508.321212,-1850.514855,-11917.315666,-995.924147
508.321539,-2812.782580,-11103.089130,-1762.019645
508.321866,-2516.700203,-10362.883188,-1455.581446
508.322194,-1924.535449,-10214.842000,-1378.971896
508.322521,-1406.391290,-10510.924376,-1378.971896
508.322849,-1406.391290,-10288.862594,-1225.752797
508.323176,0.000000,-9178.553681,-612.876398
508.323504,1184.329507,-7772.162391,536.266849
508.323831,2368.659014,-7328.038826,995.924147
508.324159,1332.370696,-8142.265362,306.438199
508.324486,-370.102971,-9178.553681,536.266849
508.324814,-1036.288319,-9030.512492,612.876398
508.325141,-666.185348,-8216.285956,1455.581446
508.325469,-222.061783,-8438.347739,1378.971896
508.325796,0.000000,-9326.594869,1455.581446
508.326124,592.164754,-9844.739029,1762.019645
508.326451,1776.494261,-9030.512492,1991.848295
508.326778,3034.844362,-7994.224174,2374.896044
508.327106,1628.453072,-8882.471304,1838.629195
508.327433,-888.247130,-10807.006753,766.095498
508.327761,-3108.864956,-11251.130318,0.000000
508.328088,-3923.091493,-10140.821405,-229.828649
508.328416,-3182.885551,-8882.471304,-229.828649
508.328743,-1998.556043,-8512.368333,153.219100
508.329071,-2220.617826,-9178.553681,0.000000
508.329398,-1702.473667,-8882.471304,229.828649
508.329726,-518.144159,-7476.080014,459.657299
508.330053,592.164754,-6513.812290,766.095498
508.330381,518.144159,-6661.853478,1302.362347
508.330708,-1406.391290,-7920.203579,383.047749
508.331036,-2960.823768,-8586.388927,0.000000
508.331363,-2442.679609,-7254.018232,459.657299
508.331691,-592.164754,-6587.832884,1149.143247
508.332018,814.226536,-6735.874072,1685.410096
508.332345,1110.308913,-7994.224174,1072.533697
508.332673,1924.535449,-8586.388927,1532.190996
508.333000,2368.659014,-7772.162391,1302.362347
508.333328,2960.823768,-7994.224174,1608.800546
508.333655,1850.514855,-9474.636058,306.438199
508.333983,-666.185348,-11177.109724,-459.657299
508.334310,-1702.473667,-11547.212695,-766.095498
508.334638,-1850.514855,-10436.903782,-919.314598
508.334965,-370.102971,-9770.718434,0.000000
508.335293,740.205942,-10214.842000,-689.485948
508.335620,-148.041188,-10732.986159,0.000000
508.335948,74.020594,-10362.883188,-229.828649
508.336275,1110.308913,-8882.471304,229.828649
508.336603,2072.576638,-8512.368333,766.095498
508.336930,1480.411884,-8882.471304,842.705048
508.337258,-666.185348,-9770.718434,1302.362347
508.337585,-1998.556043,-9326.594869,536.266849
508.337912,-1480.411884,-8364.327145,842.705048
508.338240,-148.041188,-7846.182985,1302.362347
508.338567,592.164754,-7920.203579,1225.752797
508.338895,518.144159,-8882.471304,1762.019645
508.339222,1258.350101,-8808.450710,1378.971896
508.339550,1184.329507,-8290.306550,1762.019645
508.339877,1258.350101,-8734.430116,1762.019645
508.340205,-444.123565,-10288.862594,689.485948
508.340532,-2886.803174,-11399.171507,0.000000
508.340860,-3330.926739,-11473.192101,-689.485948
508.341187,-3256.906145,-10288.862594,-383.047749
508.341515,-2072.576638,-9770.718434,0.000000
508.341842,-1480.411884,-10510.924376,0.000000
508.342170,-1628.453072,-10807.006753,76.609550
508.342497,-740.205942,-9918.759623,229.828649
508.342825,0.000000,-9030.512492,459.657299
508.343152,740.205942,-8956.491898,995.924147
508.343479,-666.185348,-9696.697840,766.095498
508.343807,-2072.576638,-10436.903782,612.876398
508.344134,-2516.700203,-9104.533087,1378.971896
508.344462,-1184.329507,-7476.080014,1302.362347
508.344789,518.144159,-7105.977043,1378.971896
508.345117,1258.350101,-7920.203579,1685.410096
508.345444,1406.391290,-9104.533087,1762.019645
508.345772,2220.617826,-8068.244768,2374.896044
508.346099,2442.679609,-7698.141797,2068.457845
508.346427,1924.535449,-8808.450710,1838.629195
508.346754,0.000000,-10362.883188,766.095498
508.347082,-1924.535449,-11177.109724,153.219100
508.347409,-2516.700203,-10066.800811,0.000000
508.347737,-1776.494261,-8956.491898,0.000000
508.348064,-814.226536,-9474.636058,0.000000
508.348391,-1258.350101,-9992.780217,-459.657299
508.348719,-1480.411884,-10140.821405,-383.047749
508.349046,-370.102971,-8216.285956,-229.828649
508.349374,740.205942,-7105.977043,153.219100
508.349701,1184.329507,-7550.100608,383.047749
508.350029,-222.061783,-8438.347739,229.828649
508.350356,-1850.514855,-9030.512492,0.000000
508.350684,-1998.556043,-8068.244768,612.876398
508.351011,-962.267725,-7105.977043,76.609550
508.351339,0.000000,-7402.059420,612.876398
508.351666,74.020594,-8438.347739,536.266849
508.351994,518.144159,-9030.512492,536.266849
508.352321,2220.617826,-7846.182985,1072.533697
508.352649,3182.885551,-6809.894666,1302.362347
508.352976,2886.803174,-7846.182985,995.924147
508.353304,1110.308913,-9844.739029,306.438199
508.353631,-592.164754,-10807.006753,-229.828649
508.353958,-518.144159,-10140.821405,-306.438199
508.354286,148.041188,-9326.594869,0.000000
508.354613,370.102971,-10140.821405,0.000000
508.354941,0.000000,-11325.150913,0.000000
508.355268,-148.041188,-11251.130318,153.219100
508.355596,1036.288319,-9992.780217,612.876398
508.355923,1924.535449,-8734.430116,1225.752797
508.356251,1110.308913,-8586.388927,766.095498
508.356578,-518.144159,-9844.739029,689.485948
508.356906,-2590.720797,-9622.677246,153.219100
508.357233,-2664.741391,-8142.265362,0.000000
508.357561,-2072.576638,-7254.018232,459.657299
508.357888,-1110.308913,-7179.997637,153.219100
508.358216,-888.247130,-7994.224174,536.266849
508.358543,0.000000,-7550.100608,842.705048
508.358871,888.247130,-6883.915261,1072.533697
508.359198,888.247130,-7402.059420,1225.752797
508.359525,-666.185348,-8364.327145,1072.533697
508.359853,-2886.803174,-9918.759623,153.219100
508.360180,-3775.050304,-10584.944971,-153.219100
508.360508,-2516.700203,-10140.821405,536.266849
508.360835,-1110.308913,-9622.677246,995.924147
508.361163,74.020594,-10288.862594,1685.410096
508.361490,-222.061783,-10955.047942,1685.410096
508.361818,0.000000,-10584.944971,1532.190996
508.362145,962.267725,-9400.615463,1991.848295
508.362473,1110.308913,-8660.409521,1378.971896
508.362800,592.164754,-9474.636058,1608.800546
508.363128,-1332.370696,-10436.903782,1225.752797
508.363455,-2442.679609,-9622.677246,306.438199
508.363783,-1036.288319,-7920.203579,1072.533697
508.364110,222.061783,-7179.997637,1149.143247
508.364438,814.226536,-7994.224174,1302.362347
508.364765,370.102971,-8438.347739,1149.143247
508.365092,666.185348,-8364.327145,1302.362347
508.365420,814.226536,-7624.121203,1302.362347
508.365747,1110.308913,-8068.244768,1302.362347
508.366075,-370.102971,-9474.636058,689.485948
508.366402,-2368.659014,-10362.883188,-306.438199
508.366730,-2072.576638,-9992.780217,76.609550
508.367057,-1480.411884,-8882.471304,-229.828649
508.367385,-814.226536,-9030.512492,229.828649
508.367712,-296.082377,-10288.862594,-383.047749
508.368040,-1036.288319,-10658.965565,-459.657299
508.368367,-370.102971,-9474.636058,-766.095498
508.368695,1406.391290,-9178.553681,0.000000
508.369022,1258.350101,-9178.553681,0.000000
508.369350,370.102971,-10288.862594,0.000000
508.369677,-1406.391290,-11177.109724,-153.219100
508.370004,-1628.453072,-10214.842000,-536.266849
508.370332,-962.267725,-8808.450710,-153.219100
508.370659,0.000000,-8882.471304,-229.828649
508.370987,296.082377,-9474.636058,0.000000
508.371314,740.205942,-9326.594869,0.000000
508.371642,2072.576638,-8512.368333,1149.143247
508.371969,2812.782580,-7772.162391,995.924147
508.372297,2368.659014,-8512.368333,1149.143247
508.372624,1258.350101,-9918.759623,766.095498
508.372952,-222.061783,-10362.883188,383.047749
508.373279,-444.123565,-9252.574275,383.047749
508.373607,148.041188,-9252.574275,995.924147
508.373934,592.164754,-9400.615463,842.705048
508.374262,74.020594,-10362.883188,689.485948
508.374589,444.123565,-10362.883188,612.876398
508.374917,814.226536,-9178.553681,2298.286494
508.375244,1850.514855,-9178.553681,1532.190996
508.375571,666.185348,-9326.594869,1532.190996
508.375899,-1332.370696,-10436.903782,1072.533697
508.376226,-3330.926739,-10436.903782,229.828649
508.376554,-3849.070898,-9104.533087,689.485948
508.376881,-2738.761985,-7994.224174,459.657299
508.377209,-2368.659014,-7846.182985,689.485948
508.377536,-2368.659014,-8512.368333,766.095498
508.377864,-2146.597232,-7994.224174,842.705048
508.378191,-1332.370696,-7031.956449,1072.533697
508.378519,-296.082377,-6439.791695,1455.581446
508.378846,-1258.350101,-7550.100608,306.438199
508.379174,-2960.823768,-8956.491898,-383.047749
508.379501,-3108.864956,-8956.491898,-459.657299
508.379828,-1924.535449,-7846.182985,0.000000
508.380156,0.000000,-7328.038826,919.314598
508.380483,888.247130,-8734.430116,612.876398
508.380811,740.205942,-9474.636058,689.485948
508.381138,1406.391290,-9474.636058,1149.143247
508.381466,2442.679609,-8438.347739,1455.581446
508.381793,2960.823768,-9104.533087,1838.629195
508.382121,1480.411884,-9844.739029,1532.190996
508.382448,74.020594,-11251.130318,689.485948
508.382776,-888.247130,-10436.903782,76.609550
508.383103,74.020594,-9104.533087,919.314598
508.383430,1480.411884,-8586.388927,1378.971896
508.383758,1924.535449,-8956.491898,1072.533697
508.384085,518.144159,-9474.636058,842.705048
508.384413,592.164754,-9030.512492,689.485948
508.384740,1110.308913,-7550.100608,689.485948
508.385068,962.267725,-7698.141797,536.266849
508.385395,0.000000,-8438.347739,229.828649
508.385723,-2072.576638,-9474.636058,-459.657299
508.386050,-2960.823768,-8956.491898,-383.047749
508.386378,-1850.514855,-7846.182985,0.000000
508.386705,-888.247130,-8142.265362,306.438199
508.387032,-1332.370696,-8882.471304,612.876398
508.387360,-1258.350101,-9622.677246,76.609550
508.387687,-962.267725,-9252.574275,76.609550
508.388015,0.000000,-8660.409521,766.095498
508.388342,148.041188,-8808.450710,919.314598
508.388670,-518.144159,-10510.924376,536.266849
508.388997,-2220.617826,-10658.965565,0.000000
508.389325,-2590.720797,-9770.718434,-306.438199
508.389652,-1332.370696,-8808.450710,306.438199
508.389980,0.000000,-8808.450710,306.438199
508.390307,370.102971,-9104.533087,306.438199
508.390634,222.061783,-9474.636058,536.266849
508.390962,1258.350101,-8956.491898,306.438199
508.391289,1702.473667,-8068.244768,1072.533697
508.391617,1924.535449,-8216.285956,1149.143247
508.391944,148.041188,-9178.553681,612.876398
508.392272,-1332.370696,-9622.677246,459.657299
508.392599,-666.185348,-9474.636058,383.047749
508.392927,0.000000,-8068.244768,766.095498
508.393254,888.247130,-7994.224174,842.705048
508.393582,518.144159,-9326.594869,842.705048
508.393909,740.205942,-10140.821405,1302.362347
508.394236,1554.432478,-9178.553681,919.314598
508.394564,1924.535449,-8808.450710,1685.410096
508.394891,888.247130,-9178.553681,1608.800546
508.395219,-1480.411884,-11251.130318,919.314598
508.395546,-3775.050304,-11103.089130,0.000000
508.395874,-3552.988522,-9622.677246,0.000000
508.396201,-1850.514855,-8956.491898,0.000000
508.396529,-814.226536,-8586.388927,306.438199
508.396856,-1110.308913,-9178.553681,-229.828649
508.397184,-1480.411884,-9178.553681,0.000000
508.397511,-518.144159,-7994.224174,0.000000
508.397838,-148.041188,-7179.997637,-153.219100
508.398166,-666.185348,-7624.121203,-229.828649
508.398493,-1628.453072,-9326.594869,-612.876398
508.398821,-2442.679609,-9178.553681,-459.657299
508.399148,-2072.576638,-8734.430116,-153.219100
508.399476,-296.082377,-8142.265362,153.219100
508.399803,0.000000,-8808.450710,612.876398
508.400131,592.164754,-9622.677246,153.219100
508.400458,1332.370696,-9252.574275,536.266849
508.400786,3108.864956,-8438.347739,1455.581446
508.401113,3701.029710,-8068.244768,2221.676944
508.401440,3034.844362,-9252.574275,1915.238745
508.401768,962.267725,-11029.068536,1225.752797
508.402095,-296.082377,-10807.006753,766.095498
508.402423,592.164754,-10362.883188,689.485948
508.402750,1036.288319,-10066.800811,536.266849
508.403078,370.102971,-9918.759623,919.314598
508.403405,222.061783,-10658.965565,842.705048
508.403733,370.102971,-10140.821405,689.485948
508.404060,814.226536,-8956.491898,766.095498
508.404387,740.205942,-8290.306550,1455.581446
508.404715,-296.082377,-9252.574275,1072.533697
508.405042,-2294.638420,-9474.636058,0.000000
508.405370,-2664.741391,-8956.491898,0.000000
508.405697,-2442.679609,-7994.224174,229.828649
508.406025,-1332.370696,-7772.162391,689.485948
508.406352,-962.267725,-8882.471304,536.266849
508.406680,-1184.329507,-9030.512492,842.705048
508.407007,-370.102971,-8512.368333,1149.143247
508.407335,666.185348,-7846.182985,1685.410096
508.407662,1036.288319,-8512.368333,2068.457845
508.407989,-888.247130,-9548.656652,1149.143247
508.408317,-2812.782580,-10584.944971,76.609550
508.408644,-3034.844362,-9844.739029,0.000000
508.408972,-2072.576638,-9104.533087,229.828649
508.409299,0.000000,-8956.491898,612.876398
508.409627,370.102971,-9252.574275,766.095498
508.409954,148.041188,-10066.800811,459.657299
508.410282,296.082377,-9326.594869,842.705048
508.410609,444.123565,-9030.512492,383.047749
508.410937,0.000000,-9474.636058,612.876398
508.411264,-1406.391290,-10066.800811,0.000000
508.411591,-2368.659014,-10584.944971,-459.657299
508.411919,-2516.700203,-8956.491898,-766.095498
508.412246,-518.144159,-7994.224174,459.657299
508.412574,962.267725,-7105.977043,689.485948
508.412901,1406.391290,-7328.038826,536.266849
508.413229,1628.453072,-7254.018232,536.266849
508.413556,2294.638420,-6661.853478,995.924147
508.413884,2738.761985,-6735.874072,1455.581446
508.414211,1998.556043,-7624.121203,1378.971896
508.414539,-222.061783,-9622.677246,842.705048
508.414866,-1776.494261,-10732.986159,76.609550
508.415193,-1924.535449,-9918.759623,536.266849
508.415521,-370.102971,-8882.471304,919.314598
508.415848,0.000000,-8956.491898,383.047749
508.416176,-148.041188,-9844.739029,536.266849
508.416503,-444.123565,-9548.656652,-689.485948
508.416831,-222.061783,-7846.182985,-229.828649
508.417158,740.205942,-7550.100608,0.000000
508.417486,0.000000,-8290.306550,-229.828649
508.417813,-2146.597232,-9474.636058,-919.314598
508.418141,-2738.761985,-9622.677246,-689.485948
508.418468,-2664.741391,-8364.327145,-536.266849
508.418795,-1258.350101,-8142.265362,229.828649
508.419123,-296.082377,-8882.471304,689.485948
508.419450,-222.061783,-9844.739029,919.314598
508.419778,370.102971,-9474.636058,1455.581446
508.420105,2442.679609,-8438.347739,2145.067394
508.420433,2442.679609,-8364.327145,2451.505594
508.420760,2072.576638,-9622.677246,2298.286494
508.421088,148.041188,-10584.944971,1455.581446
508.421415,-1258.350101,-10140.821405,1149.143247
508.421743,-296.082377,-9326.594869,995.924147
508.422070,814.226536,-9104.533087,1225.752797
508.422397,888.247130,-9992.780217,919.314598
508.422725,-296.082377,-11029.068536,612.876398
508.423052,-592.164754,-10732.986159,612.876398
508.423380,-222.061783,-10066.800811,536.266849
508.423707,-148.041188,-9696.697840,689.485948
508.424035,-1406.391290,-10288.862594,153.219100
508.424362,-3108.864956,-10955.047942,0.000000
508.424690,-4219.173869,-10066.800811,-229.828649
508.425017,-3330.926739,-8142.265362,-383.047749
508.425345,-2072.576638,-7476.080014,0.000000
508.425672,-1480.411884,-7920.203579,76.609550
508.425999,-1110.308913,-8956.491898,153.219100
508.426327,0.000000,-7846.182985,689.485948
508.426654,1628.453072,-7031.956449,1302.362347
508.426982,2072.576638,-7402.059420,1378.971896
508.427309,1184.329507,-8808.450710,1608.800546
508.427637,-814.226536,-10140.821405,842.705048
508.427964,-1628.453072,-9992.780217,306.438199
508.428292,-592.164754,-9030.512492,689.485948
508.428619,518.144159,-8956.491898,1225.752797
508.428946,592.164754,-10288.862594,612.876398
508.429274,222.061783,-10658.965565,306.438199
508.429601,888.247130,-9770.718434,76.609550
508.429929,1850.514855,-8956.491898,383.047749
508.430256,1628.453072,-9400.615463,229.828649
508.430584,296.082377,-9622.677246,-306.438199
508.430911,-1628.453072,-10214.842000,-689.485948
508.431239,-2146.597232,-9030.512492,-766.095498
508.431566,-740.205942,-7994.224174,-306.438199
508.431894,444.123565,-7105.977043,229.828649
508.432221,-148.041188,-7624.121203,536.266849
508.432548,592.164754,-8364.327145,689.485948
508.432876,1110.308913,-7476.080014,1225.752797
508.433203,2146.597232,-6883.915261,1915.238745
508.433531,2220.617826,-7402.059420,1915.238745
508.433858,740.205942,-8956.491898,1608.800546
508.434186,-1258.350101,-9918.759623,919.314598
508.434513,-2146.597232,-9474.636058,459.657299
508.434841,-962.267725,-9178.553681,1225.752797
508.435168,-222.061783,-8956.491898,1225.752797
508.435496,-666.185348,-9474.636058,153.219100
508.435823,-1110.308913,-10362.883188,153.219100
508.436150,-888.247130,-9474.636058,-229.828649
508.436478,-296.082377,-8512.368333,153.219100
508.436805,-666.185348,-8512.368333,-229.828649
508.437133,-2368.659014,-9844.739029,-459.657299
508.437460,-3627.009116,-10436.903782,-1149.143247
508.437788,-3256.906145,-9400.615463,-1072.533697
508.438115,-2072.576638,-8068.244768,-153.219100
508.438443,-444.123565,-7920.203579,459.657299
508.438770,148.041188,-8734.430116,995.924147
508.439098,1036.288319,-8734.430116,1149.143247
508.439425,1998.556043,-7624.121203,1915.238745
508.439752,3034.844362,-7402.059420,2374.896044
508.440080,2368.659014,-8068.244768,2221.676944
508.440407,740.205942,-10066.800811,1072.533697
508.440735,0.000000,-9844.739029,1991.848295
508.441062,0.000000,-9474.636058,1225.752797
508.441390,740.205942,-9030.512492,1762.019645
508.441717,1332.370696,-9474.636058,1302.362347
508.442045,296.082377,-11547.212695,842.705048
508.442372,-814.226536,-10881.027347,536.266849
508.442700,0.000000,-10066.800811,229.828649
508.443027,-148.041188,-9844.739029,229.828649
508.443354,-1406.391290,-10881.027347,-383.047749
508.443682,-3478.967927,-11695.253884,-536.266849
508.444009,-4589.276840,-10955.047942,-1149.143247
508.444337,-3552.988522,-9178.553681,-766.095498
508.444664,-1332.370696,-7994.224174,-153.219100
508.444992,-740.205942,-8068.244768,76.609550
508.445319,148.041188,-8586.388927,229.828649
508.445647,222.061783,-8216.285956,459.657299
508.445974,1850.514855,-7994.224174,1455.581446
508.446302,1998.556043,-7772.162391,1532.190996
508.446629,1110.308913,-8956.491898,1149.143247
508.446956,-222.061783,-9992.780217,1149.143247
508.447284,-148.041188,-9918.759623,1455.581446
508.447611,592.164754,-8956.491898,1532.190996
508.447939,1628.453072,-9252.574275,1685.410096
508.448266,1184.329507,-10066.800811,1455.581446
508.448594,666.185348,-10732.986159,842.705048
508.448921,666.185348,-10288.862594,-229.828649
508.449249,1036.288319,-9252.574275,383.047749
508.449576,1036.288319,-9400.615463,842.705048
508.449904,74.020594,-9844.739029,536.266849
508.450231,-1924.535449,-10584.944971,76.609550
508.450558,-3182.885551,-9770.718434,-536.266849
508.450886,-2738.761985,-8956.491898,76.609550
508.451213,-1850.514855,-8364.327145,153.219100
508.451541,-1702.473667,-8142.265362,0.000000
508.451868,-1628.453072,-8216.285956,229.828649
508.452196,-518.144159,-7105.977043,306.438199
508.452523,1110.308913,-6291.750507,1455.581446
508.452851,1850.514855,-5773.606348,1991.848295
508.453178,592.164754,-7105.977043,1302.362347
508.453505,-740.205942,-8142.265362,995.924147
508.453833,-888.247130,-8068.244768,842.705048
508.454160,0.000000,-7476.080014,1149.143247
508.454488,666.185348,-7846.182985,1302.362347
508.454815,444.123565,-9252.574275,766.095498
508.455143,74.020594,-10362.883188,995.924147
508.455470,74.020594,-9844.739029,689.485948
508.455798,518.144159,-9474.636058,842.705048
508.456125,814.226536,-9400.615463,383.047749
508.456453,-740.205942,-10510.924376,-306.438199
508.456780,-2738.761985,-10658.965565,-1378.971896
508.457107,-2664.741391,-9844.739029,-1378.971896
508.457435,-1924.535449,-8956.491898,-689.485948
508.457762,74.020594,-8068.244768,-459.657299
508.458090,-148.041188,-8586.388927,-229.828649
508.458417,444.123565,-9326.594869,229.828649
508.458745,1332.370696,-8290.306550,919.314598
508.459072,2442.679609,-7698.141797,1762.019645
508.459400,2146.597232,-7994.224174,1455.581446
508.459727,666.185348,-9104.533087,2068.457845
508.460055,-592.164754,-9918.759623,1149.143247
508.460382,-1110.308913,-9104.533087,1225.752797
508.460709,0.000000,-8438.347739,1225.752797
508.461037,518.144159,-9104.533087,1378.971896
508.461364,-370.102971,-10214.842000,689.485948
508.461692,-518.144159,-10732.986159,459.657299
508.462019,0.000000,-9696.697840,76.609550
508.462347,444.123565,-9474.636058,0.000000
508.462674,-666.185348,-10362.883188,0.000000
508.463002,-2960.823768,-11399.171507,-1072.533697
508.463329,-4145.153275,-11399.171507,-1685.410096
508.463657,-3478.967927,-9474.636058,-1532.190996
508.463984,-1628.453072,-8734.430116,-995.924147
508.464311,-592.164754,-8808.450710,-383.047749
508.464639,0.000000,-9400.615463,76.609550
508.464966,-444.123565,-8660.409521,536.266849
508.465294,1110.308913,-7476.080014,1302.362347
508.465621,1924.535449,-7031.956449,1838.629195
508.465949,1406.391290,-8364.327145,1838.629195
508.466276,148.041188,-9844.739029,1302.362347
508.466604,-518.144159,-9104.533087,842.705048
508.466931,222.061783,-8660.409521,1455.581446
508.467259,1480.411884,-8068.244768,1838.629195
508.467586,2220.617826,-8882.471304,1762.019645
508.467913,1480.411884,-9622.677246,1532.190996
508.468241,1110.308913,-9696.697840,1072.533697
508.468568,1110.308913,-8882.471304,766.095498
508.468896,518.144159,-9622.677246,766.095498
508.469223,-1036.288319,-10955.047942,0.000000
508.469551,-3182.885551,-11843.295072,-919.314598
508.469878,-4219.173869,-10658.965565,-1608.800546
508.470206,-2664.741391,-9400.615463,-689.485948
508.470533,-2072.576638,-8808.450710,-459.657299
508.470861,-1332.370696,-9178.553681,153.219100
508.471188,-888.247130,-9030.512492,306.438199
508.471515,0.000000,-7994.224174,1072.533697
508.471843,962.267725,-6883.915261,1072.533697
508.472170,1480.411884,-7179.997637,1838.629195
508.472498,296.082377,-8216.285956,1608.800546
508.472825,-592.164754,-9326.594869,1455.581446
508.473153,-296.082377,-9030.512492,1302.362347
508.473480,148.041188,-7476.080014,1532.190996
508.473808,1184.329507,-8586.388927,1991.848295
508.474135,888.247130,-9474.636058,1532.190996
508.474463,370.102971,-10584.944971,1302.362347
508.474790,888.247130,-10066.800811,1762.019645
508.475117,814.226536,-9844.739029,1149.143247
508.475445,888.247130,-10881.027347,919.314598
508.475772,-1258.350101,-11843.295072,0.000000
508.476100,-3404.947333,-12065.356855,-536.266849
508.476427,-2960.823768,-10658.965565,-842.705048
508.476755,-1998.556043,-9400.615463,-612.876398
508.477082,-740.205942,-9030.512492,-229.828649
508.477410,-370.102971,-9178.553681,-153.219100
508.477737,-370.102971,-8734.430116,76.609550
508.478065,296.082377,-7846.182985,459.657299
508.478392,1258.350101,-7105.977043,1762.019645
508.478719,1480.411884,-7846.182985,1455.581446
508.479047,74.020594,-8512.368333,995.924147
508.479374,-814.226536,-8956.491898,842.705048
508.479702,-1258.350101,-8438.347739,995.924147
508.480029,370.102971,-7476.080014,1608.800546
508.480357,1110.308913,-7772.162391,1072.533697
508.480685,1036.288319,-8956.491898,1072.533697
508.481012,888.247130,-9326.594869,766.095498
508.481340,1406.391290,-8364.327145,689.485948
508.481667,1924.535449,-8364.327145,766.095498
508.481995,1110.308913,-9030.512492,153.219100
508.482323,-1406.391290,-10658.965565,-612.876398
508.482650,-2886.803174,-10807.006753,-842.705048
508.482978,-2960.823768,-9770.718434,-1302.362347
508.483305,-1628.453072,-8956.491898,-766.095498
508.483633,-1332.370696,-9474.636058,-536.266849
508.483960,-1554.432478,-9622.677246,-459.657299
508.484288,-740.205942,-8660.409521,0.000000
508.484616,370.102971,-7476.080014,612.876398
508.484943,1480.411884,-6809.894666,1378.971896
508.485271,1184.329507,-7179.997637,1149.143247
508.485598,0.000000,-8216.285956,1378.971896
508.485926,-1184.329507,-8068.244768,842.705048
508.486253,-592.164754,-7402.059420,1149.143247
508.486581,296.082377,-7550.100608,1378.971896
508.486909,888.247130,-8068.244768,1302.362347
508.487236,1110.308913,-9178.553681,1838.629195
508.487564,1184.329507,-9104.533087,1455.581446
508.487891,1554.432478,-8586.388927,1685.410096
508.488219,1924.535449,-9104.533087,1378.971896
508.488546,222.061783,-10510.924376,536.266849
508.488874,-1924.535449,-11325.150913,153.219100
508.489202,-3552.988522,-11029.068536,-1149.143247
508.489529,-2664.741391,-10066.800811,-459.657299
508.489857,-1776.494261,-9548.656652,-306.438199
508.490184,-1480.411884,-9474.636058,-229.828649
508.490512,-962.267725,-9770.718434,689.485948
508.490840,-740.205942,-9030.512492,536.266849
508.491167,0.000000,-7920.203579,1225.752797
508.491495,0.000000,-7994.224174,919.314598
508.491822,-1332.370696,-8956.491898,536.266849
508.492150,-2146.597232,-9400.615463,689.485948
508.492477,-2738.761985,-8586.388927,612.876398
508.492805,-1406.391290,-7772.162391,1225.752797
508.493133,518.144159,-7624.121203,1608.800546
508.493460,1258.350101,-8216.285956,1685.410096
508.493788,1258.350101,-8438.347739,1149.143247
508.494115,1998.556043,-8512.368333,2298.286494
508.494443,1924.535449,-8734.430116,1685.410096
508.494770,962.267725,-9770.718434,1149.143247
508.495098,-962.267725,-11399.171507,229.828649
508.495426,-2738.761985,-12287.418637,-229.828649
508.495753,-2812.782580,-11399.171507,0.000000
508.496081,-1702.473667,-10436.903782,-459.657299
508.496408,-296.082377,-10436.903782,0.000000
508.496736,-148.041188,-10140.821405,0.000000
508.497063,0.000000,-9770.718434,0.000000
508.497391,1110.308913,-8956.491898,0.000000
508.497719,1332.370696,-8142.265362,842.705048
508.498046,1110.308913,-8586.388927,919.314598
508.498374,-222.061783,-9104.533087,842.705048
508.498701,-1998.556043,-8882.471304,536.266849
508.499029,-1702.473667,-8364.327145,536.266849
508.499357,0.000000,-7105.977043,1378.971896
508.499684,592.164754,-7550.100608,1378.971896
508.500012,1184.329507,-8512.368333,1455.581446
508.500339,1036.288319,-8734.430116,1378.971896
508.500667,1406.391290,-8734.430116,1991.848295
508.500994,1998.556043,-8956.491898,2068.457845
508.501322,222.061783,-9548.656652,1072.533697
508.501650,-1702.473667,-11029.068536,459.657299
508.501977,-2886.803174,-11325.150913,-306.438199
508.502305,-3182.885551,-10066.800811,-689.485948
508.502632,-1998.556043,-9252.574275,-153.219100
508.502960,-1036.288319,-9252.574275,-459.657299
508.503287,-666.185348,-9696.697840,-306.438199
508.503615,-444.123565,-8882.471304,-229.828649
508.503943,814.226536,-7550.100608,383.047749
508.504270,1110.308913,-7772.162391,766.095498
508.504598,888.247130,-8142.265362,536.266849
508.504925,-592.164754,-9030.512492,689.485948
508.505253,-1332.370696,-8586.388927,306.438199
508.505580,-592.164754,-7550.100608,383.047749
508.505908,740.205942,-7328.038826,1072.533697
508.506236,1332.370696,-7624.121203,1302.362347
508.506563,1332.370696,-8290.306550,1225.752797
508.506891,1998.556043,-8438.347739,1608.800546
508.507218,2072.576638,-8068.244768,1149.143247
508.507546,2220.617826,-8660.409521,1608.800546
508.507873,740.205942,-9474.636058,153.219100
508.508201,-1036.288319,-10955.047942,0.000000
508.508529,-2442.679609,-10436.903782,-995.924147
508.508856,-2368.659014,-10658.965565,-536.266849
508.509184,-1702.473667,-10658.965565,-383.047749
508.509511,-1332.370696,-11029.068536,-229.828649
508.509839,-1776.494261,-10658.965565,-689.485948
508.510167,-814.226536,-9992.780217,-383.047749
508.510494,0.000000,-8882.471304,0.000000
508.510822,1036.288319,-8882.471304,536.266849
508.511149,222.061783,-8660.409521,536.266849
508.511477,-1184.329507,-8734.430116,-229.828649
508.511804,-1332.370696,-8216.285956,383.047749
508.512132,-888.247130,-7624.121203,459.657299
508.512460,-222.061783,-7476.080014,766.095498
508.512787,-222.061783,-7920.203579,229.828649
508.513115,592.164754,-8068.244768,919.314598
508.513442,1036.288319,-8216.285956,995.924147
508.513770,1998.556043,-8512.368333,1685.410096
508.514097,1998.556043,-8956.491898,1838.629195
508.514425,444.123565,-10214.842000,919.314598
508.514753,-666.185348,-10807.006753,612.876398
508.515080,-1628.453072,-10362.883188,0.000000
508.515408,-1332.370696,-10362.883188,76.609550
508.515735,-518.144159,-10658.965565,306.438199
508.516063,-666.185348,-10807.006753,76.609550
508.516390,-740.205942,-10584.944971,0.000000
508.516718,222.061783,-9400.615463,383.047749
508.517046,888.247130,-8586.388927,1225.752797
508.517373,1036.288319,-8808.450710,1302.362347
508.517701,-222.061783,-8882.471304,1455.581446
508.518028,-1924.535449,-9474.636058,612.876398
508.518356,-2146.597232,-8068.244768,1149.143247
508.518684,-1850.514855,-8290.306550,1072.533697
508.519011,-888.247130,-8808.450710,1378.971896
508.519339,-1110.308913,-8660.409521,1149.143247
508.519666,-296.082377,-7920.203579,1072.533697
508.519994,1110.308913,-7254.018232,1532.190996
508.520321,1554.432478,-7772.162391,1608.800546
508.520649,518.144159,-8586.388927,1225.752797
508.520977,-888.247130,-9770.718434,153.219100
508.521304,-2146.597232,-9622.677246,-306.438199
508.521632,-1924.535449,-9326.594869,-229.828649
508.521959,-666.185348,-9252.574275,76.609550
508.522287,0.000000,-9548.656652,153.219100
508.522614,0.000000,-10436.903782,536.266849
508.522942,0.000000,-9918.759623,536.266849
508.523270,444.123565,-8882.471304,995.924147
508.523597,1110.308913,-8956.491898,995.924147
508.523925,296.082377,-9474.636058,842.705048
508.524252,-1332.370696,-10066.800811,229.828649
508.524580,-2072.576638,-9548.656652,0.000000
508.524907,-1480.411884,-8364.327145,229.828649
508.525235,0.000000,-7994.224174,766.095498
508.525563,592.164754,-8216.285956,842.705048
508.525890,518.144159,-8438.347739,612.876398
508.526218,814.226536,-7624.121203,766.095498
508.526545,1850.514855,-6957.935855,919.314598
508.526873,1776.494261,-7105.977043,1455.581446
508.527201,666.185348,-8290.306550,383.047749
508.527528,-962.267725,-9622.677246,0.000000
508.527856,-1850.514855,-9548.656652,153.219100
508.528183,-1776.494261,-9400.615463,306.438199
508.528511,-592.164754,-9918.759623,995.924147
508.528838,-888.247130,-9992.780217,459.657299
508.529166,-814.226536,-10436.903782,536.266849
508.529494,-740.205942,-9696.697840,306.438199
508.529821,148.041188,-8882.471304,612.876398
508.530149,814.226536,-9474.636058,612.876398
508.530476,0.000000,-9326.594869,689.485948
508.530804,-1628.453072,-9622.677246,0.000000
508.531131,-2146.597232,-9030.512492,-153.219100
508.531459,-1702.473667,-8290.306550,0.000000
508.531787,-370.102971,-7920.203579,153.219100
508.532114,148.041188,-8364.327145,383.047749
508.532442,0.000000,-8734.430116,689.485948
508.532769,888.247130,-8142.265362,919.314598
508.533097,1480.411884,-7994.224174,1302.362347
508.533424,1554.432478,-8586.388927,1838.629195
508.533752,592.164754,-9400.615463,1532.190996
508.534080,-666.185348,-9992.780217,459.657299
508.534407,-1110.308913,-9696.697840,612.876398
508.534735,-666.185348,-9474.636058,459.657299
508.535062,-518.144159,-9696.697840,459.657299
508.535390,0.000000,-10066.800811,612.876398
508.535718,-296.082377,-9992.780217,229.828649
508.536045,296.082377,-9400.615463,536.266849
508.536373,1258.350101,-9178.553681,919.314598
508.536700,592.164754,-9696.697840,766.095498
508.537028,-518.144159,-10584.944971,842.705048
508.537355,-2146.597232,-10658.965565,76.609550
508.537683,-2664.741391,-9548.656652,76.609550
508.538011,-2146.597232,-8808.450710,229.828649
508.538338,-1036.288319,-8734.430116,459.657299
508.538666,-962.267725,-8808.450710,153.219100
508.538993,-296.082377,-8290.306550,766.095498
508.539321,296.082377,-7105.977043,689.485948
508.539648,1184.329507,-7105.977043,1149.143247
508.539976,1036.288319,-7846.182985,689.485948
508.540304,0.000000,-8882.471304,536.266849
508.540631,-962.267725,-9548.656652,842.705048
508.540959,-1258.350101,-9400.615463,153.219100
508.541286,-370.102971,-9548.656652,766.095498
508.541614,-296.082377,-10214.842000,842.705048
508.541941,0.000000,-10658.965565,612.876398
508.542269,518.144159,-10436.903782,1149.143247
508.542597,1036.288319,-9178.553681,1072.533697
508.542924,1998.556043,-9400.615463,1302.362347
508.543252,1480.411884,-9548.656652,1302.362347
508.543579,0.000000,-9992.780217,383.047749
508.543907,-1110.308913,-9770.718434,0.000000
508.544235,-1702.473667,-9030.512492,306.438199
508.544562,-1332.370696,-8882.471304,153.219100
508.544890,-1258.350101,-9104.533087,229.828649
508.545217,-1480.411884,-9252.574275,76.609550
508.545545,-814.226536,-8438.347739,919.314598
508.545872,222.061783,-7624.121203,306.438199
508.546200,518.144159,-7624.121203,459.657299
508.546528,296.082377,-8438.347739,459.657299
508.546855,-1036.288319,-9178.553681,76.609550
508.547183,-1776.494261,-8660.409521,0.000000
508.547510,-962.267725,-8216.285956,306.438199
508.547838,-370.102971,-8586.388927,306.438199
508.548165,0.000000,-9252.574275,689.485948
508.548493,222.061783,-9844.739029,689.485948
508.548821,962.267725,-8882.471304,1149.143247
508.549148,1776.494261,-8808.450710,1532.190996
508.549476,1924.535449,-9400.615463,1532.190996
508.549803,592.164754,-10066.800811,919.314598
508.550131,-962.267725,-10807.006753,383.047749
508.550458,-1702.473667,-9992.780217,0.000000
508.550786,-1110.308913,-9252.574275,689.485948
508.551114,0.000000,-9030.512492,1149.143247
508.551441,0.000000,-9252.574275,1149.143247
508.551769,370.102971,-9252.574275,1149.143247
508.552096,74.020594,-8216.285956,689.485948
508.552424,666.185348,-7920.203579,919.314598
508.552752,148.041188,-7698.141797,995.924147
508.553079,-962.267725,-8586.388927,536.266849
508.553407,-2368.659014,-8956.491898,76.609550
508.553734,-2664.741391,-8364.327145,76.609550
508.554062,-1924.535449,-8142.265362,383.047749
508.554389,-1036.288319,-8142.265362,995.924147
508.554717,-296.082377,-8956.491898,689.485948
508.555045,-148.041188,-8882.471304,689.485948
508.555372,666.185348,-8734.430116,919.314598
508.555700,1258.350101,-8660.409521,1225.752797
508.556027,1184.329507,-9252.574275,1532.190996
508.556355,0.000000,-10140.821405,536.266849
508.556682,-1258.350101,-10510.924376,459.657299
508.557010,-1628.453072,-9696.697840,229.828649
508.557338,-666.185348,-9474.636058,383.047749
508.557665,444.123565,-9474.636058,766.095498
508.557993,0.000000,-9696.697840,306.438199
508.558320,148.041188,-9474.636058,459.657299
508.558648,444.123565,-8290.306550,306.438199
508.558975,814.226536,-8586.388927,766.095498
508.559303,1110.308913,-8808.450710,1149.143247
508.559631,-222.061783,-9030.512492,306.438199
508.559958,-1480.411884,-9326.594869,229.828649
508.560286,-1628.453072,-9104.533087,76.609550
508.560613,-1480.411884,-9104.533087,229.828649
508.560941,-1036.288319,-9178.553681,0.000000
508.561269,-518.144159,-9030.512492,0.000000
508.561596,148.041188,-8808.450710,0.000000
508.561924,962.267725,-8068.244768,383.047749
508.562251,1924.535449,-8438.347739,842.705048
508.562579,1480.411884,-9104.533087,919.314598
508.562906,-370.102971,-9918.759623,153.219100
508.563234,-1924.535449,-9918.759623,0.000000
508.563562,-2590.720797,-9474.636058,-383.047749
508.563889,-1554.432478,-9622.677246,306.438199
508.564217,-1258.350101,-9844.739029,306.438199
508.564544,-1110.308913,-9770.718434,-229.828649
508.564872,-296.082377,-9400.615463,229.828649
508.565199,518.144159,-8512.368333,612.876398
508.565527,1110.308913,-8512.368333,842.705048
508.565855,740.205942,-8660.409521,766.095498
508.566182,0.000000,-9474.636058,153.219100
508.566510,-1480.411884,-9474.636058,0.000000
508.566837,-1258.350101,-8882.471304,0.000000
508.567165,-444.123565,-9030.512492,612.876398
508.567492,74.020594,-8882.471304,842.705048
508.567820,592.164754,-9252.574275,1072.533697
508.568148,1184.329507,-8364.327145,1302.362347
508.568475,2516.700203,-7772.162391,1762.019645
508.568803,2664.741391,-8216.285956,2298.286494
508.569130,1702.473667,-9326.594869,1991.848295
508.569458,-370.102971,-10066.800811,1149.143247
508.569786,-1998.556043,-9696.697840,842.705048
508.570113,-2146.597232,-9400.615463,919.314598
508.570441,-1850.514855,-9252.574275,842.705048
508.570768,-1406.391290,-9622.677246,689.485948
508.571096,-1554.432478,-9844.739029,306.438199
508.571423,-814.226536,-9030.512492,1072.533697
508.571751,0.000000,-7254.018232,76.609550
508.572079,0.000000,-7698.141797,0.000000
508.572406,-1036.288319,-8364.327145,-306.438199
508.572734,-2368.659014,-9030.512492,-689.485948
508.573061,-3404.947333,-7994.224174,-612.876398
508.573389,-2146.597232,-7772.162391,0.000000
508.573716,-1628.453072,-8216.285956,383.047749
508.574044,-592.164754,-8660.409521,612.876398
508.574372,0.000000,-9178.553681,1149.143247
508.574699,888.247130,-8364.327145,1378.971896
508.575027,1776.494261,-8586.388927,1302.362347
508.575354,1924.535449,-9030.512492,1685.410096
508.575682,1036.288319,-9918.759623,842.705048
508.576009,-444.123565,-10436.903782,459.657299
508.576337,-740.205942,-9844.739029,153.219100
508.576665,0.000000,-9252.574275,536.266849
508.576992,296.082377,-9474.636058,306.438199
508.577320,962.267725,-9770.718434,536.266849
508.577647,666.185348,-9844.739029,383.047749
508.577973,814.226536,-8956.491898,383.047749
508.578301,1480.411884,-9030.512492,842.705048
508.578629,1036.288319,-9252.574275,766.095498
508.578956,-962.267725,-9992.780217,0.000000
508.579284,-1850.514855,-10436.903782,-153.219100
508.579611,-2368.659014,-9252.574275,0.000000
508.579939,-1628.453072,-8364.327145,153.219100
508.580267,0.000000,-7994.224174,536.266849
508.580594,148.041188,-8216.285956,459.657299
508.580922,370.102971,-7550.100608,766.095498
508.581250,1406.391290,-7105.977043,919.314598
508.581577,1924.535449,-7328.038826,1378.971896
508.581905,1628.453072,-8586.388927,1608.800546
508.582232,0.000000,-9548.656652,995.924147
508.582560,-1480.411884,-10288.862594,766.095498
508.582888,-1924.535449,-9918.759623,766.095498
508.583215,-1406.391290,-9992.780217,995.924147
508.583543,-1258.350101,-9918.759623,536.266849
508.583871,-1554.432478,-10436.903782,0.000000
508.584198,-1554.432478,-9918.759623,76.609550
508.584526,-888.247130,-9104.533087,0.000000
508.584854,0.000000,-8734.430116,0.000000
508.585181,74.020594,-8734.430116,153.219100
508.585509,-1554.432478,-9400.615463,0.000000
508.585836,-2442.679609,-8956.491898,-919.314598
508.586164,-2516.700203,-8290.306550,-536.266849
508.586492,-1332.370696,-8068.244768,153.219100
508.586819,-222.061783,-8290.306550,536.266849
508.587147,222.061783,-8438.347739,612.876398
508.587475,1258.350101,-8364.327145,1378.971896
508.587802,2516.700203,-7772.162391,1991.848295
508.588130,2812.782580,-8290.306550,2221.676944
508.588457,2368.659014,-9252.574275,2068.457845
508.588785,1258.350101,-10214.842000,1685.410096
508.589113,-888.247130,-9992.780217,1149.143247
508.589440,-888.247130,-9474.636058,919.314598
508.589768,-518.144159,-9918.759623,612.876398
508.590096,-814.226536,-10510.924376,306.438199
508.590423,-962.267725,-11177.109724,383.047749
508.590751,-444.123565,-10436.903782,153.219100
508.591078,0.000000,-9770.718434,0.000000
508.591406,0.000000,-9400.615463,76.609550
508.591734,-1110.308913,-9992.780217,-459.657299
508.592061,-2886.803174,-9844.739029,-1072.533697
508.592389,-3256.906145,-8956.491898,-1225.752797
508.592717,-2664.741391,-7920.203579,-919.314598
508.593044,-1110.308913,-7846.182985,-229.828649
508.593372,-370.102971,-8290.306550,306.438199
508.593699,814.226536,-8290.306550,842.705048
508.594027,1628.453072,-7105.977043,1072.533697
508.594355,2220.617826,-7031.956449,1608.800546
508.594682,2146.597232,-8586.388927,2145.067394
508.595010,814.226536,-9918.759623,1532.190996
508.595338,-296.082377,-10288.862594,1378.971896
508.595665,-666.185348,-9474.636058,1149.143247
508.595993,0.000000,-9252.574275,1072.533697
508.596320,296.082377,-9770.718434,1225.752797
508.596648,296.082377,-10140.821405,766.095498
508.596976,592.164754,-10140.821405,383.047749
508.597303,0.000000,-9474.636058,76.609550
508.597631,888.247130,-8956.491898,0.000000
508.597959,0.000000,-9474.636058,0.000000
508.598286,-1628.453072,-10066.800811,-306.438199
508.598614,-3404.947333,-10214.842000,-766.095498
508.598941,-3997.112087,-9178.553681,0.000000
508.599269,-2812.782580,-7846.182985,0.000000
508.599597,-1332.370696,-7772.162391,76.609550
508.599924,-666.185348,-8068.244768,153.219100
508.600252,-370.102971,-7920.203579,919.314598
508.600580,592.164754,-6883.915261,1149.143247
508.600907,1184.329507,-6735.874072,1915.238745
508.601235,1036.288319,-7550.100608,1685.410096
508.601562,0.000000,-8808.450710,1072.533697
508.601890,-1184.329507,-9030.512492,766.095498
508.602218,-666.185348,-8364.327145,842.705048
508.602545,592.164754,-8068.244768,1149.143247
508.602873,962.267725,-8808.450710,1455.581446
508.603201,1184.329507,-9844.739029,1225.752797
508.603528,592.164754,-9918.759623,842.705048
508.603856,962.267725,-9326.594869,612.876398
508.604183,1184.329507,-9622.677246,766.095498
508.604511,296.082377,-10066.800811,536.266849
508.604839,-1924.535449,-11251.130318,0.000000
508.605166,-2146.597232,-10732.986159,76.609550
508.605494,-2368.659014,-9178.553681,0.000000
508.605822,-1036.288319,-7846.182985,612.876398
508.606149,74.020594,-7476.080014,766.095498
508.606477,-370.102971,-7994.224174,766.095498
508.606805,296.082377,-7402.059420,766.095498
508.607132,814.226536,-6661.853478,1072.533697
508.607460,1406.391290,-6809.894666,1685.410096
508.607787,1036.288319,-7920.203579,2145.067394
508.608115,-518.144159,-9252.574275,1532.190996
508.608443,-1628.453072,-9474.636058,1455.581446
508.608770,-1850.514855,-9178.553681,1455.581446
508.609098,-1406.391290,-9252.574275,1225.752797
508.609426,-1036.288319,-10288.862594,1378.971896
508.609753,-1924.535449,-10955.047942,383.047749
508.610081,-2220.617826,-10584.944971,-306.438199
508.610408,-962.267725,-9622.677246,-229.828649
508.610736,74.020594,-8956.491898,-153.219100
508.611064,518.144159,-9622.677246,76.609550
508.611391,-222.061783,-10436.903782,-766.095498
508.611719,-1628.453072,-10362.883188,-383.047749
508.612047,-1406.391290,-9696.697840,76.609550
508.612374,-296.082377,-9326.594869,995.924147
508.612702,666.185348,-9474.636058,1532.190996
508.613029,1480.411884,-10140.821405,1685.410096
508.613357,1776.494261,-9844.739029,2451.505594
508.613685,2812.782580,-8882.471304,3294.210641
508.614012,4219.173869,-7846.182985,4213.525239
508.614340,4737.318029,-8216.285956,4749.792088
508.614668,3478.967927,-8956.491898,4903.011187
508.614995,1406.391290,-9622.677246,3983.696590
508.615323,148.041188,-9474.636058,3600.648841
508.615650,666.185348,-9178.553681,3447.429741
508.615978,518.144159,-9474.636058,3217.601092
508.616306,-518.144159,-10510.924376,3370.820191
508.616633,-2368.659014,-11325.150913,2145.067394
508.616961,-2738.761985,-10140.821405,2298.286494
508.617289,-1998.556043,-9474.636058,2145.067394
508.617616,-1702.473667,-9178.553681,2451.505594
508.617944,-1998.556043,-10066.800811,2451.505594
508.618271,-4293.194464,-10214.842000,1991.848295
508.618599,-5921.647536,-9918.759623,1225.752797
508.618927,-4885.359217,-8512.368333,1838.629195
508.619254,-3108.864956,-7328.038826,2068.457845
508.619582,-1332.370696,-7031.956449,2451.505594
508.619910,-592.164754,-7624.121203,3447.429741
508.620237,-1702.473667,-7550.100608,2911.162892
508.620565,-962.267725,-6809.894666,3294.210641
508.620892,1480.411884,-5995.668130,3907.087040
508.621220,3627.009116,-6587.832884,4903.011187
508.621548,4515.256246,-7772.162391,5439.278036
508.621875,3627.009116,-9400.615463,5362.668486
508.622203,1924.535449,-10658.965565,4903.011187
508.622531,962.267725,-10732.986159,4979.620737
508.622858,1776.494261,-10436.903782,4979.620737
508.623186,2146.597232,-9622.677246,4519.963438
508.623513,3108.864956,-11399.171507,4979.620737
508.623841,1628.453072,-11399.171507,3907.087040
508.624169,-1184.329507,-11695.253884,3447.429741
508.624496,-2664.741391,-10140.821405,2451.505594
508.624824,-1776.494261,-8882.471304,2374.896044
508.625152,-370.102971,-8068.244768,2298.286494
508.625479,-148.041188,-8290.306550,2528.115143
508.625807,-1110.308913,-8364.327145,3140.991542
508.626134,-3997.112087,-8364.327145,2528.115143
508.626462,-5403.503377,-8216.285956,1991.848295
508.626790,-5181.441594,-7179.997637,919.314598
508.627117,-4071.132681,-7624.121203,1149.143247
508.627445,-1184.329507,-7031.956449,1838.629195
508.627773,74.020594,-6587.832884,2604.724693
508.628100,444.123565,-6661.853478,3447.429741
508.628428,74.020594,-7698.141797,3677.258390
508.628756,-740.205942,-8438.347739,2145.067394
508.629083,-592.164754,-9696.697840,1455.581446
508.629411,518.144159,-9770.718434,1838.629195
508.629738,2442.679609,-9400.615463,2834.553343
508.630066,3923.091493,-9252.574275,4749.792088
508.630394,5551.544565,-10807.006753,5975.544884
508.630721,4737.318029,-11991.336260,5515.887586
508.631049,2738.761985,-12583.501014,4749.792088
508.631377,222.061783,-12213.398043,3370.820191
508.631704,-1480.411884,-11843.295072,1915.238745
508.632032,-1850.514855,-11177.109724,2987.772442
508.632359,1628.453072,-9992.780217,3983.696590
508.632687,3849.070898,-8956.491898,5209.449386
508.633015,3182.885551,-7994.224174,5592.497135
508.633342,1110.308913,-8364.327145,5056.230287
508.633670,-2960.823768,-7624.121203,3447.429741
508.633998,-5995.668130,-8660.409521,2298.286494
508.634325,-6217.729913,-8364.327145,1149.143247
508.634653,-5403.503377,-7624.121203,1455.581446
508.634980,-2072.576638,-6883.915261,2374.896044
508.635308,370.102971,-5995.668130,4290.134789
508.635636,1258.350101,-5995.668130,4903.011187
508.635963,518.144159,-6809.894666,4903.011187
508.636291,-1628.453072,-8438.347739,3983.696590
508.636619,-3552.988522,-10066.800811,2374.896044
508.636946,-4885.359217,-10510.924376,1455.581446
508.637274,-4293.194464,-11325.150913,1149.143247
508.637601,-2368.659014,-10510.924376,2451.505594
508.637929,740.205942,-9770.718434,3677.258390
508.638257,2812.782580,-8882.471304,4519.963438
508.638584,3997.112087,-8290.306550,4826.401637
508.638912,3256.906145,-9104.533087,3677.258390
508.639240,1480.411884,-9770.718434,3370.820191
508.639567,296.082377,-10140.821405,2757.943793
508.639895,0.000000,-10362.883188,2604.724693
508.640222,518.144159,-10214.842000,3524.039291
508.640550,814.226536,-8734.430116,4290.134789
508.640878,1110.308913,-8438.347739,4060.306139
508.641205,-74.020594,-8586.388927,3983.696590
508.641533,592.164754,-8364.327145,3370.820191
508.641861,-222.061783,-8290.306550,2374.896044
508.642188,-518.144159,-7920.203579,2221.676944
508.642516,222.061783,-8068.244768,1608.800546
508.642843,962.267725,-7402.059420,2757.943793
508.643171,888.247130,-7920.203579,2834.553343
508.643499,2220.617826,-8290.306550,3753.867940
508.643826,1480.411884,-9178.553681,4443.353888
508.644154,592.164754,-9844.739029,3447.429741
508.644482,-740.205942,-10288.862594,3677.258390
508.644809,-2516.700203,-10658.965565,2987.772442
508.645137,-1924.535449,-10881.027347,3140.991542
508.645464,-1924.535449,-10658.965565,3370.820191
508.645792,-1258.350101,-9696.697840,3217.601092
508.646120,-592.164754,-9326.594869,3370.820191
508.646447,-296.082377,-8586.388927,3217.601092
508.646775,-370.102971,-8068.244768,2911.162892
508.647103,-444.123565,-7772.162391,2911.162892
508.647430,-592.164754,-7994.224174,2528.115143
508.647758,-962.267725,-7994.224174,2298.286494
508.648086,-1036.288319,-7994.224174,2834.553343
508.648413,-740.205942,-8438.347739,3447.429741
508.648741,148.041188,-8956.491898,3907.087040
508.649068,592.164754,-9178.553681,4596.572988
508.649396,296.082377,-9696.697840,4443.353888
508.649724,-370.102971,-10140.821405,3907.087040
508.650051,-1332.370696,-10288.862594,3370.820191
508.650379,-1184.329507,-10140.821405,3294.210641
508.650707,-296.082377,-9474.636058,2221.676944
508.651034,296.082377,-9252.574275,3140.991542
508.651362,1554.432478,-9104.533087,2834.553343
508.651689,1036.288319,-9178.553681,2834.553343
508.652017,518.144159,-9622.677246,2681.334243
508.652345,-148.041188,-9992.780217,2451.505594
508.652672,-592.164754,-9992.780217,2987.772442
508.653000,-1110.308913,-9696.697840,2145.067394
508.653328,-814.226536,-9696.697840,1991.848295
508.653655,-370.102971,-9178.553681,1991.848295
508.653983,-444.123565,-8956.491898,1838.629195
508.654310,-74.020594,-8734.430116,2374.896044
508.654638,-666.185348,-8734.430116,1915.238745
508.654966,-1258.350101,-8438.347739,1762.019645
508.655293,-1110.308913,-8364.327145,1685.410096
508.655621,-888.247130,-7920.203579,1378.971896
508.655949,0.000000,-7772.162391,1225.752797
508.656276,592.164754,-8216.285956,1225.752797
508.656604,518.144159,-8660.409521,1378.971896
508.656931,444.123565,-8956.491898,1608.800546
508.657259,0.000000,-9474.636058,1302.362347
508.657587,148.041188,-10288.862594,1455.581446
508.657914,0.000000,-10214.842000,1838.629195
508.658242,518.144159,-10658.965565,1455.581446
508.658570,1258.350101,-10584.944971,1762.019645
508.658897,1406.391290,-10066.800811,1762.019645
508.659225,1110.308913,-9622.677246,1685.410096
508.659552,1036.288319,-9252.574275,2374.896044
508.659880,296.082377,-9178.553681,1378.971896
508.660208,-592.164754,-9030.512492,1072.533697
508.660535,-518.144159,-8956.491898,1072.533697
508.660863,-740.205942,-8734.430116,689.485948
508.661191,-666.185348,-8660.409521,459.657299
508.661518,-296.082377,-8216.285956,842.705048
508.661846,-592.164754,-8068.244768,919.314598
508.662173,-814.226536,-7994.224174,612.876398
508.662501,-740.205942,-7846.182985,612.876398
508.662829,-740.205942,-8438.347739,459.657299
508.663156,-518.144159,-7994.224174,612.876398
508.663484,-740.205942,-8882.471304,612.876398
508.663812,-740.205942,-9474.636058,612.876398
508.664139,-814.226536,-9474.636058,1225.752797
508.664467,-666.185348,-9104.533087,919.314598
508.664794,0.000000,-9326.594869,1991.848295
508.665122,0.000000,-9770.718434,995.924147
508.665450,0.000000,-9474.636058,842.705048
508.665777,0.000000,-9474.636058,689.485948
508.666105,0.000000,-9400.615463,995.924147
508.666433,-222.061783,-9326.594869,1378.971896
508.666760,0.000000,-9474.636058,1072.533697
508.667088,-296.082377,-9400.615463,1225.752797
508.667415,0.000000,-9178.553681,919.314598
508.667743,0.000000,-8956.491898,919.314598
508.668071,-148.041188,-8216.285956,1072.533697
508.668398,0.000000,-8364.327145,1072.533697
508.668726,0.000000,-8364.327145,459.657299
508.669054,-592.164754,-8660.409521,919.314598
508.669381,-888.247130,-8586.388927,842.705048
508.669709,-370.102971,-8660.409521,1149.143247
508.670037,-740.205942,-8882.471304,459.657299
508.670364,-1110.308913,-8734.430116,536.266849
508.670692,-740.205942,-9326.594869,229.828649
508.671019,-814.226536,-9474.636058,459.657299
508.671347,0.000000,-9104.533087,612.876398
508.671675,-296.082377,-9104.533087,766.095498
508.672002,0.000000,-9474.636058,536.266849
508.672330,0.000000,-9474.636058,536.266849
508.672658,0.000000,-9474.636058,383.047749
508.672985,-222.061783,-9474.636058,536.266849
508.673313,-592.164754,-9400.615463,995.924147
508.673640,-148.041188,-9844.739029,459.657299
508.673968,-518.144159,-9696.697840,689.485948
508.674296,-148.041188,-9474.636058,919.314598
508.674623,0.000000,-9030.512492,536.266849
508.674951,370.102971,-8882.471304,842.705048
508.675279,148.041188,-8734.430116,383.047749
508.675606,296.082377,-8660.409521,459.657299
508.675934,74.020594,-8808.450710,689.485948
508.676261,0.000000,-8882.471304,459.657299
508.676589,370.102971,-9474.636058,459.657299
508.676917,0.000000,-9252.574275,229.828649
508.677244,74.020594,-9252.574275,153.219100
508.677572,0.000000,-9326.594869,153.219100
508.677900,0.000000,-9178.553681,153.219100
508.678227,222.061783,-9252.574275,229.828649
508.678555,296.082377,-9252.574275,0.000000
508.678882,-222.061783,-8956.491898,229.828649
508.679210,-592.164754,-9104.533087,383.047749
508.679538,-518.144159,-9178.553681,229.828649
508.679865,-592.164754,-9252.574275,229.828649
508.680193,-592.164754,-8586.388927,383.047749
508.680521,-814.226536,-8734.430116,459.657299
508.680848,-592.164754,-8586.388927,383.047749
508.681176,-444.123565,-8586.388927,306.438199
508.681503,-444.123565,-8660.409521,229.828649
508.681831,-592.164754,-8290.306550,689.485948
508.682159,-592.164754,-8660.409521,689.485948
508.682486,-518.144159,-8882.471304,842.705048
508.682814,-962.267725,-9178.553681,919.314598
508.683142,-962.267725,-9252.574275,689.485948
508.683469,-962.267725,-9474.636058,306.438199
508.683797,-814.226536,-9178.553681,1149.143247
508.684125,-518.144159,-8956.491898,842.705048
508.684452,-370.102971,-8808.450710,689.485948
508.684780,-222.061783,-8808.450710,689.485948
508.685107,-370.102971,-9030.512492,459.657299
508.685435,-222.061783,-9178.553681,536.266849
508.685763,-444.123565,-9548.656652,995.924147
508.686090,-888.247130,-9326.594869,1149.143247
508.686418,-592.164754,-9400.615463,995.924147
508.686746,-666.185348,-9326.594869,689.485948
508.687073,-222.061783,-9400.615463,1378.971896
508.687401,-296.082377,-9030.512492,612.876398
508.687729,-444.123565,-8660.409521,383.047749
508.688056,-444.123565,-8660.409521,689.485948
508.688384,-518.144159,-9030.512492,612.876398
508.688711,-592.164754,-9252.574275,919.314598
508.689039,-370.102971,-8956.491898,689.485948
508.689367,-666.185348,-9178.553681,459.657299
508.689694,-370.102971,-9104.533087,459.657299
508.690022,-444.123565,-9104.533087,612.876398
508.690350,-518.144159,-9030.512492,76.609550
508.690677,-296.082377,-8586.388927,76.609550
508.691005,-370.102971,-9104.533087,76.609550
508.691332,-296.082377,-9326.594869,536.266849
508.691660,-222.061783,-9548.656652,536.266849
508.691988,-296.082377,-9622.677246,612.876398
508.692315,-666.185348,-9474.636058,766.095498
508.692643,0.000000,-9474.636058,383.047749
508.692971,-222.061783,-9252.574275,536.266849
508.693298,-148.041188,-8882.471304,306.438199
508.693626,-370.102971,-8660.409521,306.438199
508.693954,-222.061783,-8142.265362,306.438199
508.694281,-740.205942,-8438.347739,0.000000
508.694609,-1036.288319,-8438.347739,306.438199
508.694936,-962.267725,-8512.368333,306.438199
508.695264,-888.247130,-8734.430116,689.485948
508.695592,-740.205942,-8364.327145,842.705048
508.695919,0.000000,-8512.368333,766.095498
508.696247,148.041188,-8734.430116,459.657299
508.696575,222.061783,-8660.409521,459.657299
508.696902,222.061783,-8808.450710,612.876398
508.697230,0.000000,-8734.430116,689.485948
508.697558,-370.102971,-9400.615463,919.314598
508.697885,-370.102971,-9770.718434,1225.752797
508.698213,-518.144159,-9992.780217,766.095498
508.698540,0.000000,-9474.636058,995.924147
508.698868,148.041188,-9104.533087,612.876398
508.699196,296.082377,-8216.285956,842.705048
508.699523,296.082377,-8512.368333,459.657299
508.699851,148.041188,-8142.265362,306.438199
508.700179,0.000000,-8216.285956,306.438199
508.700506,-222.061783,-8586.388927,383.047749
508.700834,-518.144159,-8734.430116,919.314598
508.701161,-592.164754,-9178.553681,306.438199
508.701489,-370.102971,-9104.533087,612.876398
508.701817,0.000000,-8808.450710,536.266849
508.702144,0.000000,-8586.388927,229.828649
508.702472,0.000000,-8586.388927,229.828649
508.702800,296.082377,-8660.409521,383.047749
508.703127,370.102971,-8808.450710,229.828649
508.703455,0.000000,-9178.553681,306.438199
508.703783,-444.123565,-9696.697840,612.876398
508.704110,-370.102971,-9622.677246,919.314598
508.704438,0.000000,-10066.800811,842.705048
508.704765,0.000000,-9918.759623,383.047749
508.705093,0.000000,-9474.636058,306.438199
508.705421,74.020594,-9474.636058,153.219100
508.705748,148.041188,-9400.615463,0.000000
508.706076,592.164754,-9400.615463,229.828649
508.706404,222.061783,-9400.615463,536.266849
508.706731,148.041188,-9696.697840,612.876398
508.707059,0.000000,-9622.677246,766.095498
508.707386,-148.041188,-9992.780217,842.705048
508.707714,-444.123565,-9400.615463,842.705048
508.708042,148.041188,-9178.553681,766.095498
508.708369,-222.061783,-9030.512492,306.438199
508.708697,-370.102971,-9252.574275,306.438199
508.709025,-370.102971,-9178.553681,459.657299
508.709352,-518.144159,-9326.594869,76.609550
508.709680,-518.144159,-9178.553681,1072.533697
508.710008,-444.123565,-9474.636058,919.314598
508.710335,-518.144159,-9548.656652,766.095498
508.710663,-444.123565,-9400.615463,689.485948
508.710990,-518.144159,-9178.553681,306.438199
508.711318,0.000000,-9622.677246,536.266849
508.711646,-740.205942,-9178.553681,383.047749
508.711973,-814.226536,-9400.615463,536.266849
508.712301,-814.226536,-9400.615463,766.095498
508.712629,-740.205942,-9696.697840,689.485948
508.712956,-518.144159,-9770.718434,689.485948
508.713284,-666.185348,-9400.615463,1302.362347
508.713612,-444.123565,-8956.491898,766.095498
508.713939,-666.185348,-8734.430116,536.266849
508.714267,-518.144159,-8660.409521,536.266849
508.714594,-444.123565,-8660.409521,229.828649
508.714922,-518.144159,-8882.471304,766.095498
508.715250,-740.205942,-8734.430116,842.705048
508.715577,-814.226536,-9326.594869,689.485948
508.715905,-592.164754,-9104.533087,536.266849
508.716233,-444.123565,-8660.409521,1149.143247
508.716560,-370.102971,-8660.409521,229.828649
508.716888,-222.061783,-8734.430116,459.657299
508.717215,-222.061783,-8956.491898,306.438199
508.717543,-222.061783,-8512.368333,459.657299
508.717871,-222.061783,-8956.491898,612.876398
508.718198,-592.164754,-8660.409521,536.266849
508.718526,-370.102971,-9326.594869,612.876398
508.718854,-592.164754,-9326.594869,612.876398
508.719181,-222.061783,-9326.594869,612.876398
508.719509,0.000000,-9030.512492,383.047749
508.719837,444.123565,-8808.450710,459.657299
508.720164,148.041188,-8586.388927,306.438199
508.720492,296.082377,-8882.471304,459.657299
508.720819,148.041188,-9104.533087,383.047749
508.721147,0.000000,-8956.491898,612.876398
508.721475,148.041188,-9400.615463,306.438199
508.721802,0.000000,-9474.636058,536.266849
508.722130,0.000000,-9326.594869,383.047749
508.722458,74.020594,-8956.491898,536.266849
508.722785,74.020594,-9030.512492,306.438199
508.723113,0.000000,-8660.409521,229.828649
508.723440,0.000000,-8882.471304,919.314598
508.723768,-148.041188,-8956.491898,383.047749
508.724096,-148.041188,-8882.471304,536.266849
508.724423,-370.102971,-9178.553681,229.828649
508.724751,-296.082377,-9326.594869,229.828649
508.725079,148.041188,-9474.636058,612.876398
508.725406,-370.102971,-9178.553681,612.876398
508.725734,-148.041188,-9178.553681,383.047749
508.726062,-222.061783,-9252.574275,689.485948
508.726389,0.000000,-9252.574275,612.876398
508.726717,0.000000,-9252.574275,919.314598
508.727044,0.000000,-8808.450710,689.485948
508.727372,0.000000,-9252.574275,612.876398
508.727700,0.000000,-9252.574275,766.095498
508.728027,-148.041188,-9400.615463,766.095498
508.728355,0.000000,-9104.533087,459.657299
508.728683,222.061783,-9252.574275,536.266849
508.729010,74.020594,-9400.615463,612.876398
508.729338,74.020594,-9252.574275,612.876398
508.729666,0.000000,-9400.615463,766.095498
508.729993,74.020594,-8808.450710,459.657299
508.730321,-296.082377,-9326.594869,766.095498
508.730648,-370.102971,-9326.594869,459.657299
508.730976,-370.102971,-9474.636058,612.876398
508.731304,-370.102971,-9474.636058,306.438199
508.731631,-370.102971,-9400.615463,306.438199
508.731959,0.000000,-9178.553681,459.657299
508.732287,0.000000,-9400.615463,459.657299
508.732614,-148.041188,-9178.553681,536.266849
508.732942,74.020594,-9030.512492,612.876398
508.733269,0.000000,-9178.553681,612.876398
508.733597,0.000000,-9326.594869,766.095498
508.733925,-296.082377,-9400.615463,229.828649
508.734252,-148.041188,-9400.615463,612.876398
508.734580,-222.061783,-9474.636058,536.266849
508.734908,-444.123565,-9400.615463,612.876398
508.735235,0.000000,-9400.615463,1225.752797
508.735563,0.000000,-9030.512492,153.219100
508.735891,-296.082377,-8882.471304,383.047749
508.736218,-296.082377,-8808.450710,536.266849
508.736546,-148.041188,-8956.491898,383.047749
508.736873,-296.082377,-8808.450710,76.609550
508.737201,-444.123565,-8660.409521,842.705048
508.737529,-296.082377,-9104.533087,689.485948
508.737856,-592.164754,-9030.512492,383.047749
508.738184,-592.164754,-9474.636058,459.657299
508.738512,-592.164754,-9252.574275,612.876398
508.738839,-296.082377,-9474.636058,689.485948
508.739167,-444.123565,-8956.491898,459.657299
508.739494,-370.102971,-9104.533087,689.485948
508.739822,-444.123565,-9326.594869,766.095498
508.740150,0.000000,-9178.553681,766.095498
508.740477,0.000000,-9030.512492,919.314598
508.740805,-148.041188,-9178.553681,766.095498
508.741133,-296.082377,-9326.594869,766.095498
508.741460,-296.082377,-9178.553681,612.876398
508.741788,-444.123565,-8882.471304,612.876398
508.742116,0.000000,-8734.430116,1225.752797
508.742443,0.000000,-8882.471304,919.314598
508.742771,-296.082377,-9030.512492,766.095498
508.743098,-518.144159,-8660.409521,536.266849
508.743426,-296.082377,-8882.471304,766.095498
508.743754,-518.144159,-8734.430116,459.657299
508.744081,0.000000,-8882.471304,689.485948
508.744409,-444.123565,-8956.491898,306.438199
508.744737,-518.144159,-8808.450710,536.266849
508.745064,-444.123565,-8882.471304,383.047749
508.745392,-518.144159,-9104.533087,536.266849
508.745720,-666.185348,-8808.450710,76.609550
508.746047,-370.102971,-9252.574275,766.095498
508.746375,-370.102971,-9252.574275,536.266849
508.746702,-222.061783,-9104.533087,689.485948
508.747030,-222.061783,-9030.512492,536.266849
508.747358,-148.041188,-9252.574275,536.266849
508.747685,0.000000,-9252.574275,306.438199
508.748013,-222.061783,-9030.512492,689.485948
508.748341,-222.061783,-8956.491898,383.047749
508.748668,-518.144159,-9030.512492,383.047749
508.748996,-222.061783,-9104.533087,0.000000
508.749323,-444.123565,-8660.409521,229.828649
508.749651,-444.123565,-8808.450710,229.828649
508.749979,-370.102971,-8808.450710,612.876398
508.750306,-518.144159,-8586.388927,229.828649
508.750634,-370.102971,-8808.450710,459.657299
508.750962,-740.205942,-8438.347739,536.266849
508.751289,-296.082377,-8808.450710,76.609550
508.751617,-518.144159,-9178.553681,459.657299
508.751945,-666.185348,-9104.533087,766.095498
508.752272,-518.144159,-9326.594869,383.047749
508.752600,-518.144159,-8734.430116,995.924147
508.752927,0.000000,-9252.574275,689.485948
508.753255,-222.061783,-9104.533087,459.657299
508.753583,0.000000,-9252.574275,536.266849
508.753910,-296.082377,-9178.553681,459.657299
508.754238,-444.123565,-8586.388927,919.314598
508.754566,-296.082377,-8586.388927,612.876398
508.754893,-222.061783,-9030.512492,536.266849
508.755221,-444.123565,-9252.574275,766.095498
508.755549,-444.123565,-9252.574275,766.095498
508.755876,-370.102971,-8734.430116,842.705048
508.756204,-296.082377,-9030.512492,536.266849
508.756531,-296.082377,-8808.450710,612.876398
508.756859,-370.102971,-8808.450710,383.047749
508.757187,0.000000,-9030.512492,612.876398
508.757514,-296.082377,-9030.512492,459.657299
508.757842,-148.041188,-8882.471304,995.924147
508.758170,-148.041188,-9252.574275,306.438199
508.758497,-148.041188,-9400.615463,612.876398
508.758825,0.000000,-9178.553681,459.657299
508.759152,0.000000,-9400.615463,536.266849
508.759480,444.123565,-9548.656652,536.266849
508.759808,0.000000,-9326.594869,306.438199
508.760135,222.061783,-9474.636058,383.047749
508.760463,0.000000,-9474.636058,842.705048
508.760791,0.000000,-9622.677246,536.266849
508.761118,74.020594,-9474.636058,1225.752797
508.761446,-148.041188,-9474.636058,842.705048
508.761774,-222.061783,-9474.636058,842.705048
508.762101,0.000000,-9474.636058,536.266849
508.762429,0.000000,-9400.615463,459.657299
508.762756,222.061783,-9178.553681,306.438199
508.763084,0.000000,-9030.512492,459.657299
508.763412,-222.061783,-8882.471304,459.657299
508.763739,0.000000,-9252.574275,536.266849
508.764067,-148.041188,-9474.636058,612.876398
508.764395,-444.123565,-9252.574275,459.657299
508.764722,-814.226536,-9326.594869,842.705048
508.765050,-518.144159,-9474.636058,842.705048
508.765377,-148.041188,-9474.636058,536.266849
508.765705,-222.061783,-9622.677246,536.266849
508.766033,0.000000,-9400.615463,612.876398
508.766360,-148.041188,-9400.615463,995.924147
508.766688,518.144159,-9696.697840,536.266849
508.767016,-222.061783,-9326.594869,766.095498
508.767343,-222.061783,-9326.594869,766.095498
508.767671,-444.123565,-9400.615463,766.095498
508.767999,-296.082377,-9474.636058,842.705048
508.768326,-222.061783,-9030.512492,383.047749
508.768654,-370.102971,-8808.450710,612.876398
508.768981,-370.102971,-8808.450710,612.876398
508.769309,-222.061783,-8808.450710,459.657299
508.769637,-296.082377,-8660.409521,766.095498
508.769964,-148.041188,-8660.409521,612.876398
508.770292,-666.185348,-8808.450710,536.266849
508.770620,-740.205942,-8808.450710,536.266849
508.770947,-592.164754,-9104.533087,536.266849
508.771275,-592.164754,-8956.491898,383.047749
508.771603,-74.020594,-8586.388927,1225.752797
508.771930,0.000000,-8734.430116,153.219100
508.772258,-518.144159,-8882.471304,459.657299
508.772585,-444.123565,-8956.491898,612.876398
508.772913,-370.102971,-8882.471304,383.047749
508.773241,0.000000,-8956.491898,306.438199
508.773568,-666.185348,-8438.347739,689.485948
508.773896,-296.082377,-8956.491898,612.876398
508.774224,-444.123565,-9104.533087,689.485948
508.774551,-592.164754,-9030.512492,612.876398
508.774879,-666.185348,-9252.574275,612.876398
508.775206,-148.041188,-8438.347739,229.828649
508.775534,-296.082377,-8512.368333,689.485948
508.775862,-370.102971,-8438.347739,383.047749
508.776189,-592.164754,-8660.409521,536.266849
508.776517,-592.164754,-8734.430116,306.438199
508.776845,-666.185348,-8290.306550,536.266849
508.777172,-592.164754,-8808.450710,459.657299
508.777500,-740.205942,-8734.430116,536.266849
508.777828,-740.205942,-8956.491898,383.047749
508.778155,-518.144159,-8956.491898,536.266849
508.778483,74.020594,-9030.512492,612.876398
508.778810,-518.144159,-8882.471304,536.266849
508.779138,0.000000,-9326.594869,536.266849
508.779466,0.000000,-9252.574275,459.657299
508.779793,-222.061783,-9400.615463,612.876398
508.780121,74.020594,-9326.594869,919.314598
508.780449,148.041188,-9326.594869,536.266849
508.780776,0.000000,-9548.656652,383.047749
508.781104,0.000000,-9474.636058,383.047749
508.781431,-148.041188,-9400.615463,766.095498
508.781759,0.000000,-8660.409521,689.485948
508.782087,0.000000,-9178.553681,766.095498
508.782414,0.000000,-8734.430116,459.657299
508.782742,-148.041188,-8882.471304,306.438199
508.783070,-370.102971,-9178.553681,459.657299
508.783397,-444.123565,-9178.553681,689.485948
508.783725,-222.061783,-8808.450710,306.438199
508.784053,-370.102971,-9252.574275,459.657299
508.784380,0.000000,-9400.615463,306.438199
508.784708,0.000000,-9474.636058,612.876398
508.785035,148.041188,-9474.636058,842.705048
508.785363,222.061783,-9030.512492,689.485948
508.785691,148.041188,-9326.594869,536.266849
508.786018,0.000000,-9400.615463,612.876398
508.786346,0.000000,-9696.697840,766.095498
508.786674,0.000000,-9696.697840,766.095498
508.787001,0.000000,-9622.677246,766.095498
508.787329,148.041188,-9474.636058,919.314598
508.787657,-148.041188,-9474.636058,919.314598
508.787984,0.000000,-9474.636058,842.705048
508.788312,0.000000,-9030.512492,383.047749
508.788639,74.020594,-9030.512492,689.485948
508.788967,-296.082377,-8882.471304,842.705048
508.789295,0.000000,-9104.533087,612.876398
508.789622,-444.123565,-9104.533087,612.876398
508.789950,-296.082377,-9104.533087,459.657299
508.790278,-222.061783,-9326.594869,612.876398
508.790605,0.000000,-9104.533087,306.438199
508.790933,-222.061783,-9178.553681,612.876398
508.791260,-296.082377,-8734.430116,229.828649
508.791588,-444.123565,-8808.450710,842.705048
508.791916,-370.102971,-9252.574275,306.438199
508.792243,0.000000,-9400.615463,383.047749
508.792571,-370.102971,-9252.574275,612.876398
508.792899,-370.102971,-9474.636058,612.876398
508.793226,-296.082377,-9474.636058,766.095498
508.793554,-296.082377,-9474.636058,689.485948
508.793882,-148.041188,-9474.636058,1225.752797
508.794209,0.000000,-9030.512492,383.047749
508.794537,0.000000,-9104.533087,536.266849
508.794864,0.000000,-9030.512492,536.266849
508.795192,-444.123565,-9030.512492,383.047749
508.795520,-296.082377,-8808.450710,919.314598
508.795847,-222.061783,-8660.409521,612.876398
508.796175,-592.164754,-9104.533087,536.266849
508.796503,-592.164754,-9178.553681,612.876398
508.796830,-444.123565,-9030.512492,612.876398
508.797158,-444.123565,-8956.491898,229.828649
508.797485,0.000000,-9030.512492,459.657299
508.797813,-444.123565,-8734.430116,536.266849
508.798141,-518.144159,-8808.450710,459.657299
508.798468,-296.082377,-9104.533087,306.438199
508.798796,-296.082377,-9178.553681,383.047749
508.799124,-296.082377,-9104.533087,0.000000
508.799451,-148.041188,-9104.533087,766.095498
508.799779,-296.082377,-9252.574275,306.438199
508.800107,-518.144159,-9178.553681,459.657299
508.800434,0.000000,-9104.533087,383.047749
508.800762,-222.061783,-9104.533087,306.438199
508.801089,0.000000,-8956.491898,153.219100
508.801417,-444.123565,-8660.409521,306.438199
508.801745,-222.061783,-8808.450710,459.657299
508.802072,-296.082377,-9030.512492,536.266849
508.802400,-740.205942,-8882.471304,842.705048
508.802728,-370.102971,-8956.491898,612.876398
508.803055,-370.102971,-8808.450710,383.047749
508.803383,-296.082377,-8808.450710,459.657299
508.803711,-222.061783,-8882.471304,612.876398
508.804038,-370.102971,-9030.512492,536.266849
508.804366,0.000000,-8586.388927,689.485948
508.804693,-148.041188,-8956.491898,689.485948
508.805021,-592.164754,-9030.512492,536.266849
508.805349,-592.164754,-9030.512492,612.876398
508.805676,-222.061783,-9178.553681,919.314598
508.806004,-222.061783,-9178.553681,612.876398
508.806332,0.000000,-9178.553681,919.314598
508.806659,-148.041188,-9178.553681,536.266849
508.806987,-296.082377,-9104.533087,612.876398
508.807314,-444.123565,-9252.574275,536.266849
508.807642,-592.164754,-8660.409521,995.924147
508.807970,-518.144159,-8956.491898,459.657299
508.808297,-518.144159,-8808.450710,919.314598
508.808625,-222.061783,-8882.471304,766.095498
508.808953,-296.082377,-8956.491898,536.266849
508.809280,-370.102971,-8882.471304,766.095498
508.809608,-148.041188,-8808.450710,1149.143247
508.809936,-370.102971,-9030.512492,459.657299
508.810263,-370.102971,-9030.512492,612.876398
508.810591,-296.082377,-9326.594869,536.266849
508.810918,0.000000,-9252.574275,766.095498
508.811246,0.000000,-9326.594869,766.095498
508.811574,-148.041188,-9326.594869,459.657299
508.811901,-148.041188,-9474.636058,459.657299
508.812229,0.000000,-9400.615463,306.438199
508.812557,-148.041188,-9400.615463,459.657299
508.812884,0.000000,-9326.594869,766.095498
508.813212,-74.020594,-9474.636058,229.828649
508.813540,-296.082377,-9474.636058,306.438199
508.813867,0.000000,-9474.636058,459.657299
508.814195,-222.061783,-9252.574275,383.047749
508.814522,0.000000,-9400.615463,0.000000
508.814850,-518.144159,-8808.450710,0.000000
508.815178,-370.102971,-9178.553681,383.047749
508.815505,-444.123565,-9178.553681,383.047749
508.815833,-370.102971,-9104.533087,459.657299
508.816161,-148.041188,-9030.512492,383.047749
508.816488,0.000000,-9178.553681,1149.143247
508.816816,-222.061783,-9400.615463,229.828649
508.817143,-370.102971,-9400.615463,459.657299
508.817471,0.000000,-9326.594869,536.266849
508.817799,-222.061783,-9030.512492,306.438199
508.818126,0.000000,-9104.533087,1072.533697
508.818454,0.000000,-9178.553681,689.485948
508.818782,0.000000,-9326.594869,689.485948
508.819109,-222.061783,-9326.594869,536.266849
508.819437,-370.102971,-9400.615463,536.266849
508.819765,-518.144159,-9326.594869,919.314598
508.820092,0.000000,-8956.491898,766.095498
508.820420,-148.041188,-9104.533087,612.876398
508.820747,-296.082377,-8734.430116,689.485948
508.821075,-370.102971,-9030.512492,612.876398
508.821403,0.000000,-8956.491898,689.485948
508.821730,-296.082377,-9252.574275,766.095498
508.822058,-444.123565,-8956.491898,383.047749
508.822386,-444.123565,-9030.512492,612.876398
508.822713,-148.041188,-9030.512492,536.266849
508.823041,-222.061783,-9178.553681,612.876398
508.823368,0.000000,-8734.430116,995.924147
508.823696,0.000000,-9030.512492,842.705048
508.824024,-222.061783,-8882.471304,536.266849
508.824351,0.000000,-9326.594869,612.876398
508.824679,0.000000,-9030.512492,612.876398
508.825007,0.000000,-9178.553681,1608.800546
508.825334,0.000000,-9400.615463,689.485948
508.825662,0.000000,-9104.533087,842.705048
508.825990,-296.082377,-9326.594869,919.314598
508.826317,-148.041188,-9400.615463,919.314598
508.826645,-592.164754,-8882.471304,306.438199
508.826972,-370.102971,-8734.430116,689.485948
508.827300,-296.082377,-9030.512492,612.876398
508.827628,-518.144159,-8882.471304,689.485948
508.827955,-592.164754,-8882.471304,536.266849
508.828283,-740.205942,-8882.471304,383.047749
508.828611,-518.144159,-9030.512492,842.705048
508.828938,-666.185348,-9104.533087,612.876398
508.829266,-592.164754,-9030.512492,612.876398
508.829594,0.000000,-8956.491898,689.485948
508.829921,-296.082377,-8808.450710,383.047749
508.830249,-148.041188,-8808.450710,689.485948
508.830576,-518.144159,-8956.491898,536.266849
508.830904,-518.144159,-9104.533087,842.705048
508.831232,-444.123565,-9252.574275,612.876398
508.831559,-370.102971,-9030.512492,766.095498
508.831887,-222.061783,-8956.491898,689.485948
508.832215,-296.082377,-9252.574275,766.095498
508.832542,-296.082377,-9252.574275,536.266849
508.832870,-370.102971,-9030.512492,536.266849
508.833197,-296.082377,-8882.471304,612.876398
508.833525,-370.102971,-8660.409521,766.095498
508.833853,0.000000,-8882.471304,536.266849
508.834180,-444.123565,-9030.512492,383.047749
508.834508,-370.102971,-8956.491898,459.657299
508.834836,-518.144159,-8956.491898,459.657299
508.835163,-444.123565,-8660.409521,229.828649
508.835491,-222.061783,-8512.368333,842.705048
508.835819,-296.082377,-9104.533087,536.266849
508.836146,-444.123565,-9178.553681,766.095498
508.836474,-296.082377,-8882.471304,536.266849
508.836801,-296.082377,-9030.512492,383.047749
508.837129,-296.082377,-8956.491898,766.095498
508.837457,-148.041188,-9178.553681,536.266849
508.837784,-518.144159,-9178.553681,689.485948
508.838112,-444.123565,-9326.594869,842.705048
508.838440,-444.123565,-9104.533087,459.657299
508.838767,-222.061783,-9104.533087,612.876398
508.839095,-296.082377,-9178.553681,536.266849
508.839422,-296.082377,-9104.533087,536.266849
508.839750,-296.082377,-9104.533087,306.438199
508.840078,-444.123565,-9030.512492,459.657299
508.840405,-518.144159,-8734.430116,612.876398
508.840733,-148.041188,-9104.533087,995.924147
508.841061,-370.102971,-9178.553681,383.047749
508.841388,-296.082377,-9252.574275,459.657299
508.841716,-222.061783,-9400.615463,536.266849
508.842044,-148.041188,-9326.594869,1149.143247
508.842371,0.000000,-8956.491898,842.705048
508.842699,-148.041188,-9252.574275,612.876398
508.843026,0.000000,-9252.574275,536.266849
508.843354,0.000000,-9326.594869,459.657299
508.843682,0.000000,-9178.553681,689.485948
508.844009,296.082377,-9474.636058,459.657299
508.844337,74.020594,-9474.636058,306.438199
508.844665,-222.061783,-9326.594869,383.047749
508.844992,0.000000,-9400.615463,689.485948
508.845320,0.000000,-9400.615463,459.657299
508.845648,74.020594,-9252.574275,76.609550
508.845975,-222.061783,-9178.553681,766.095498
508.846303,0.000000,-9252.574275,536.266849
508.846630,-222.061783,-9178.553681,766.095498
508.846958,-296.082377,-9252.574275,536.266849
508.847286,-444.123565,-9178.553681,1072.533697
508.847613,-370.102971,-9400.615463,459.657299
508.847941,-518.144159,-9104.533087,766.095498
508.848269,0.000000,-9252.574275,536.266849
508.848596,-444.123565,-9400.615463,842.705048
508.848924,-518.144159,-9178.553681,842.705048
508.849251,-518.144159,-9622.677246,766.095498
508.849579,-222.061783,-9178.553681,612.876398
508.849907,-222.061783,-9104.533087,689.485948
508.850234,0.000000,-9104.533087,536.266849
508.850562,-222.061783,-9178.553681,536.266849
508.850890,74.020594,-9030.512492,766.095498
508.851217,0.000000,-9252.574275,612.876398
508.851545,-296.082377,-9104.533087,459.657299
508.851873,-148.041188,-9178.553681,842.705048
508.852200,-444.123565,-9104.533087,383.047749
508.852528,148.041188,-8808.450710,612.876398
508.852855,0.000000,-8882.471304,459.657299
508.853183,-296.082377,-8660.409521,536.266849
508.853511,-296.082377,-8882.471304,459.657299
508.853838,-296.082377,-8882.471304,536.266849
508.854166,-148.041188,-8734.430116,995.924147
508.854494,-148.041188,-8660.409521,536.266849
508.854821,-592.164754,-8956.491898,459.657299
508.855149,-370.102971,-9104.533087,459.657299
508.855476,-370.102971,-8956.491898,459.657299
508.855804,-296.082377,-9104.533087,612.876398
508.856132,222.061783,-9400.615463,383.047749
508.856459,0.000000,-9104.533087,536.266849
508.856787,0.000000,-9030.512492,459.657299
508.857115,0.000000,-9104.533087,612.876398
508.857442,-222.061783,-9178.553681,612.876398
508.857770,-148.041188,-9252.574275,153.219100
508.858098,-518.144159,-9030.512492,766.095498
508.858425,-518.144159,-9178.553681,536.266849
508.858753,-518.144159,-9178.553681,536.266849
508.859080,-370.102971,-8956.491898,766.095498
508.859408,-518.144159,-8882.471304,919.314598
508.859736,-444.123565,-8882.471304,612.876398
508.860063,-444.123565,-8660.409521,459.657299
508.860391,-740.205942,-8512.368333,612.876398
508.860719,-444.123565,-8734.430116,612.876398
508.861046,-592.164754,-8734.430116,1149.143247
508.861374,-592.164754,-8512.368333,842.705048
508.861702,-740.205942,-9030.512492,689.485948
508.862029,-370.102971,-8956.491898,689.485948
508.862357,-444.123565,-9178.553681,612.876398
508.862684,-222.061783,-8808.450710,459.657299
508.863012,0.000000,-8586.388927,612.876398
508.863340,-222.061783,-9400.615463,536.266849
508.863667,-370.102971,-9178.553681,612.876398
508.863995,-518.144159,-9252.574275,459.657299
508.864323,-222.061783,-9474.636058,612.876398
508.864650,0.000000,-9326.594869,612.876398
508.864978,0.000000,-9104.533087,383.047749
508.865305,0.000000,-9400.615463,306.438199
508.865633,0.000000,-8956.491898,153.219100
508.865961,0.000000,-8956.491898,153.219100
508.866288,0.000000,-8660.409521,153.219100
508.866616,0.000000,-8882.471304,306.438199
508.866944,-222.061783,-9178.553681,383.047749
508.867271,-370.102971,-9178.553681,153.219100
508.867599,-296.082377,-9400.615463,229.828649
508.867927,0.000000,-8882.471304,536.266849
508.868254,148.041188,-9326.594869,76.609550
508.868582,222.061783,-9178.553681,306.438199
508.868909,0.000000,-9104.533087,153.219100
508.869237,74.020594,-9178.553681,383.047749
508.869565,74.020594,-9474.636058,536.266849
508.869892,0.000000,-9104.533087,536.266849
508.870220,-296.082377,-9400.615463,459.657299
508.870548,-222.061783,-9474.636058,459.657299
508.870875,-444.123565,-9474.636058,612.876398
508.871203,-296.082377,-9474.636058,766.095498
508.871530,-148.041188,-8956.491898,153.219100
508.871858,0.000000,-9252.574275,612.876398
508.872186,0.000000,-9178.553681,689.485948
508.872513,-222.061783,-8882.471304,689.485948
508.872841,-444.123565,-9030.512492,689.485948
508.873169,-370.102971,-9252.574275,689.485948
508.873496,-740.205942,-9252.574275,536.266849
508.873824,-592.164754,-9178.553681,766.095498
508.874152,-444.123565,-9178.553681,842.705048
508.874479,-222.061783,-9178.553681,459.657299
508.874807,0.000000,-9030.512492,766.095498
508.875134,-222.061783,-8586.388927,689.485948
508.875462,0.000000,-9252.574275,536.266849
508.875790,-148.041188,-8956.491898,766.095498
508.876117,-148.041188,-9400.615463,919.314598
508.876445,-296.082377,-9474.636058,536.266849
508.876773,0.000000,-9474.636058,612.876398
508.877100,-296.082377,-9400.615463,766.095498
508.877428,-148.041188,-9474.636058,612.876398
508.877756,0.000000,-9252.574275,536.266849
508.878083,0.000000,-9030.512492,306.438199
508.878411,296.082377,-8660.409521,229.828649
508.878738,-370.102971,-8882.471304,459.657299
508.879066,-296.082377,-9252.574275,766.095498
508.879394,-592.164754,-9104.533087,536.266849
508.879721,-296.082377,-9104.533087,536.266849
508.880049,-74.020594,-9030.512492,612.876398
508.880376,-296.082377,-8734.430116,689.485948
508.880704,-444.123565,-9104.533087,459.657299
508.881031,-444.123565,-8956.491898,229.828649
508.881359,-518.144159,-8956.491898,536.266849
508.881687,0.000000,-8660.409521,76.609550
508.882014,-370.102971,-8660.409521,919.314598
508.882342,-296.082377,-9104.533087,689.485948
508.882669,-518.144159,-9178.553681,612.876398
508.882997,-592.164754,-9252.574275,612.876398
508.883324,-518.144159,-9178.553681,536.266849
508.883652,0.000000,-8956.491898,536.266849
508.883979,-444.123565,-9030.512492,306.438199
508.884307,-370.102971,-9030.512492,612.876398
508.884635,-222.061783,-8956.491898,383.047749
508.884962,-444.123565,-8808.450710,383.047749
508.885290,-296.082377,-8882.471304,306.438199
508.885617,-518.144159,-8586.388927,536.266849
508.885945,-592.164754,-8808.450710,383.047749
508.886272,-518.144159,-8882.471304,306.438199
508.886600,-518.144159,-8734.430116,383.047749
508.886927,-518.144159,-8808.450710,76.609550
508.887255,-518.144159,-8808.450710,766.095498
508.887583,-148.041188,-8808.450710,229.828649
508.887910,0.000000,-9104.533087,229.828649
508.888238,0.000000,-9178.553681,459.657299
508.888565,0.000000,-9474.636058,919.314598
508.888893,0.000000,-9030.512492,919.314598
508.889220,148.041188,-9252.574275,612.876398
508.889548,0.000000,-9252.574275,459.657299
508.889876,0.000000,-9474.636058,306.438199
508.890203,0.000000,-9326.594869,383.047749
508.890531,148.041188,-8882.471304,229.828649
508.890858,0.000000,-8956.491898,383.047749
508.891186,-148.041188,-9326.594869,229.828649
508.891513,-148.041188,-9326.594869,612.876398
508.891841,-518.144159,-8808.450710,383.047749
508.892168,0.000000,-8290.306550,459.657299
508.892496,-740.205942,-9030.512492,153.219100
508.892824,-592.164754,-9252.574275,383.047749
508.893151,-444.123565,-8882.471304,612.876398
508.893479,-444.123565,-8882.471304,766.095498
508.893806,0.000000,-8956.491898,612.876398
508.894134,-296.082377,-9252.574275,689.485948
508.894461,-444.123565,-9326.594869,842.705048
508.894789,-444.123565,-9178.553681,766.095498
508.895116,-222.061783,-9178.553681,766.095498
508.895444,-518.144159,-9474.636058,612.876398
508.895772,-296.082377,-9622.677246,919.314598
508.896099,-592.164754,-9400.615463,766.095498
508.896427,-370.102971,-9400.615463,689.485948
508.896754,0.000000,-9474.636058,306.438199
508.897082,-370.102971,-9326.594869,459.657299
508.897409,-148.041188,-9252.574275,842.705048
508.897737,-148.041188,-9104.533087,689.485948
508.898065,-222.061783,-9326.594869,536.266849
508.898392,-518.144159,-8882.471304,612.876398
508.898720,-666.185348,-9252.574275,459.657299
508.899047,-148.041188,-9400.615463,153.219100
508.899375,-518.144159,-8808.450710,919.314598
508.899702,-296.082377,-9178.553681,612.876398
508.900030,-370.102971,-9178.553681,689.485948
508.900357,-222.061783,-9326.594869,536.266849
508.900685,0.000000,-9104.533087,459.657299
508.901013,-296.082377,-8660.409521,459.657299
508.901340,0.000000,-9178.553681,689.485948
508.901668,222.061783,-9252.574275,536.266849
508.901995,0.000000,-9252.574275,459.657299
508.902323,0.000000,-9326.594869,689.485948
508.902650,0.000000,-9326.594869,689.485948
508.902978,0.000000,-9400.615463,383.047749
508.903305,-222.061783,-9400.615463,306.438199
508.903633,-74.020594,-9326.594869,612.876398
508.903961,0.000000,-9326.594869,536.266849
508.904288,74.020594,-9252.574275,153.219100
508.904616,-296.082377,-8734.430116,459.657299
508.904943,-370.102971,-9104.533087,612.876398
508.905271,-296.082377,-9030.512492,766.095498
508.905598,-444.123565,-8808.450710,459.657299
508.905926,-222.061783,-8808.450710,536.266849
508.906253,0.000000,-9104.533087,536.266849
508.906581,-296.082377,-9030.512492,459.657299
508.906909,-370.102971,-8956.491898,306.438199
508.907236,-148.041188,-9104.533087,689.485948
508.907564,-222.061783,-8956.491898,919.314598
508.907891,0.000000,-8882.471304,766.095498
508.908219,-222.061783,-9030.512492,459.657299
508.908546,0.000000,-9474.636058,842.705048
508.908874,0.000000,-9326.594869,612.876398
508.909202,0.000000,-9326.594869,612.876398
508.909529,-296.082377,-9326.594869,842.705048
508.909857,-370.102971,-9178.553681,536.266849
508.910184,-222.061783,-9400.615463,536.266849
508.910512,-370.102971,-9030.512492,536.266849
508.910839,-296.082377,-9030.512492,459.657299
508.911167,-148.041188,-8734.430116,1225.752797
508.911494,0.000000,-8956.491898,536.266849
508.911822,-370.102971,-9030.512492,536.266849
508.912150,-444.123565,-8956.491898,459.657299
508.912477,-518.144159,-8956.491898,383.047749
508.912805,0.000000,-8882.471304,383.047749
508.913132,-222.061783,-8734.430116,153.219100
508.913460,-296.082377,-8956.491898,383.047749
508.913787,-222.061783,-8734.430116,383.047749
508.914115,0.000000,-9030.512492,459.657299
508.914442,-296.082377,-9252.574275,612.876398
508.914770,-592.164754,-8438.347739,689.485948
508.915098,-222.061783,-9326.594869,689.485948
508.915425,-222.061783,-9326.594869,459.657299
508.915753,-518.144159,-9326.594869,689.485948
508.916080,-370.102971,-9400.615463,689.485948
508.916408,-296.082377,-8660.409521,842.705048
508.916735,-444.123565,-9178.553681,612.876398
508.917063,-518.144159,-8956.491898,383.047749
508.917391,-518.144159,-8808.450710,383.047749
508.917718,-592.164754,-9030.512492,536.266849
508.918046,-592.164754,-8586.388927,689.485948
508.918373,-444.123565,-8882.471304,383.047749
508.918701,-666.185348,-8882.471304,459.657299
508.919028,-666.185348,-8808.450710,536.266849
508.919356,-518.144159,-8882.471304,459.657299
508.919683,-370.102971,-8660.409521,842.705048
508.920011,-296.082377,-8734.430116,306.438199
508.920339,-222.061783,-8808.450710,612.876398
508.920666,0.000000,-9104.533087,536.266849
508.920994,0.000000,-9104.533087,689.485948
508.921321,0.000000,-8808.450710,612.876398
508.921649,-444.123565,-9104.533087,383.047749
508.921976,-222.061783,-9400.615463,612.876398
508.922304,0.000000,-9474.636058,612.876398
508.922631,-296.082377,-9326.594869,536.266849
508.922959,-148.041188,-9326.594869,842.705048
508.923287,-296.082377,-8882.471304,383.047749
508.923614,-296.082377,-8956.491898,383.047749
508.923942,-148.041188,-8956.491898,536.266849
508.924269,0.000000,-9104.533087,383.047749
508.924597,-222.061783,-8808.450710,459.657299
508.924924,-296.082377,-8956.491898,1072.533697
508.925252,0.000000,-9178.553681,536.266849
508.925580,-296.082377,-9104.533087,536.266849
508.925907,-296.082377,-9252.574275,306.438199
508.926235,-148.041188,-9326.594869,842.705048
508.926562,0.000000,-9252.574275,229.828649
508.926890,148.041188,-9326.594869,766.095498
508.927217,74.020594,-9326.594869,536.266849
508.927545,0.000000,-9252.574275,612.876398
508.927872,-148.041188,-9474.636058,536.266849
508.928200,-148.041188,-9548.656652,689.485948
508.928528,0.000000,-9326.594869,766.095498
508.928855,-296.082377,-9474.636058,766.095498
508.929183,-148.041188,-9400.615463,766.095498
508.929510,-296.082377,-9400.615463,612.876398
508.929838,-296.082377,-9178.553681,459.657299
508.930165,0.000000,-9326.594869,689.485948
508.930493,0.000000,-8808.450710,153.219100
508.930820,-222.061783,-9030.512492,383.047749
508.931148,-222.061783,-9252.574275,383.047749
508.931476,-370.102971,-9252.574275,612.876398
508.931803,0.000000,-8882.471304,842.705048
508.932131,-296.082377,-9178.553681,229.828649
508.932458,-370.102971,-9252.574275,536.266849
508.932786,-148.041188,-9252.574275,383.047749
508.933113,0.000000,-9104.533087,689.485948
508.933441,74.020594,-9104.533087,306.438199
508.933769,148.041188,-8808.450710,383.047749
508.934096,0.000000,-9326.594869,612.876398
508.934424,0.000000,-9400.615463,459.657299
508.934751,-296.082377,-9400.615463,766.095498
508.935079,-296.082377,-9400.615463,459.657299
508.935406,74.020594,-9474.636058,842.705048
508.935734,-518.144159,-9178.553681,459.657299
508.936061,-296.082377,-9178.553681,766.095498
508.936389,-296.082377,-8956.491898,459.657299
508.936717,-222.061783,-8956.491898,459.657299
508.937044,-222.061783,-8808.450710,689.485948
508.937372,-370.102971,-8734.430116,536.266849
508.937699,-370.102971,-8808.450710,459.657299
508.938027,-592.164754,-8660.409521,459.657299
508.938354,-740.205942,-8660.409521,459.657299
508.938682,-518.144159,-8808.450710,536.266849
508.939009,-814.226536,-8734.430116,229.828649
508.939337,-592.164754,-8734.430116,612.876398
508.939665,-592.164754,-8734.430116,612.876398
508.939992,-222.061783,-8808.450710,689.485948
508.940320,0.000000,-9178.553681,0.000000
508.940647,0.000000,-8660.409521,919.314598
508.940975,-370.102971,-9104.533087,612.876398
508.941302,-370.102971,-9178.553681,842.705048
508.941630,-148.041188,-9326.594869,383.047749
508.941957,-148.041188,-9178.553681,766.095498
508.942285,0.000000,-9030.512492,459.657299
508.942613,-222.061783,-9252.574275,383.047749
508.942940,-518.144159,-8956.491898,459.657299
508.943268,-370.102971,-9178.553681,459.657299
508.943595,-518.144159,-8734.430116,459.657299
508.943923,0.000000,-8586.388927,689.485948
508.944250,-444.123565,-8956.491898,536.266849
508.944578,-518.144159,-8882.471304,306.438199
508.944906,-592.164754,-8956.491898,229.828649
508.945233,-296.082377,-9178.553681,536.266849
508.945561,-296.082377,-8882.471304,76.609550
508.945888,0.000000,-9178.553681,689.485948
508.946216,-148.041188,-9030.512492,383.047749
508.946543,-148.041188,-9030.512492,153.219100
508.946871,74.020594,-9326.594869,383.047749
508.947198,-222.061783,-9104.533087,153.219100
508.947526,-296.082377,-9104.533087,612.876398
508.947854,0.000000,-9474.636058,306.438199
508.948181,-148.041188,-9474.636058,306.438199
508.948509,0.000000,-9474.636058,536.266849
508.948836,74.020594,-9400.615463,306.438199
508.949164,222.061783,-9178.553681,76.609550
508.949491,0.000000,-9400.615463,383.047749
508.949819,-148.041188,-9104.533087,306.438199
508.950146,-370.102971,-8956.491898,229.828649
508.950474,-296.082377,-9400.615463,766.095498
508.950802,-370.102971,-8808.450710,1225.752797
508.951129,-740.205942,-8956.491898,689.485948
508.951457,-592.164754,-9400.615463,612.876398
508.951784,-444.123565,-9326.594869,766.095498
508.952112,-444.123565,-8956.491898,766.095498
508.952439,0.000000,-8882.471304,612.876398
508.952767,-296.082377,-8660.409521,919.314598
508.953095,-444.123565,-8956.491898,536.266849
508.953422,-296.082377,-9178.553681,612.876398
