#time,accel_x,accel_y,accel_z
347.384997,0.000000,-9104.533087,459.657299
347.385325,-222.061783,-9104.533087,536.266849
347.385653,-296.082377,-9104.533087,459.657299
347.385980,-222.061783,-9252.574275,536.266849
347.386308,-296.082377,-8956.491898,995.924147
347.386636,0.000000,-8882.471304,766.095498
347.386964,0.000000,-9326.594869,612.876398
347.387291,-222.061783,-9104.533087,766.095498
347.387619,0.000000,-8882.471304,689.485948
347.387947,-222.061783,-8956.491898,306.438199
347.388275,0.000000,-9474.636058,229.828649
347.388602,-222.061783,-9178.553681,689.485948
347.388930,-296.082377,-8956.491898,536.266849
347.389258,-148.041188,-9030.512492,536.266849
347.389586,0.000000,-9178.553681,536.266849
347.389913,0.000000,-9104.533087,536.266849
347.390241,-296.082377,-9104.533087,76.609550
347.390569,-296.082377,-9030.512492,459.657299
347.390897,-148.041188,-9104.533087,536.266849
347.391224,0.000000,-9326.594869,459.657299
347.391552,0.000000,-8956.491898,842.705048
347.391880,0.000000,-8808.450710,612.876398
347.392208,-222.061783,-9252.574275,383.047749
347.392535,-222.061783,-9252.574275,459.657299
347.392863,-222.061783,-9178.553681,229.828649
347.393191,-222.061783,-9030.512492,459.657299
347.393519,0.000000,-8734.430116,536.266849
347.393846,-222.061783,-9030.512492,383.047749
347.394174,-222.061783,-9178.553681,536.266849
347.394502,-222.061783,-9178.553681,229.828649
347.394830,-814.226536,-9400.615463,229.828649
347.395157,-888.247130,-9178.553681,-536.266849
347.395485,-1776.494261,-9474.636058,-306.438199
347.395813,-1406.391290,-9252.574275,-383.047749
347.396141,-740.205942,-8956.491898,-612.876398
347.396468,-518.144159,-8734.430116,-306.438199
347.396796,-296.082377,-9178.553681,-766.095498
347.397124,-1184.329507,-9252.574275,-536.266849
347.397452,-1184.329507,-9400.615463,-1149.143247
347.397779,-1184.329507,-9104.533087,-1378.971896
347.398107,-740.205942,-9104.533087,-1455.581446
347.398435,-296.082377,-9400.615463,-842.705048
347.398763,-444.123565,-9178.553681,-1149.143247
347.399090,-222.061783,-8956.491898,-1378.971896
347.399418,0.000000,-9178.553681,-1302.362347
347.399746,0.000000,-9104.533087,-1532.190996
347.400074,0.000000,-9178.553681,-1532.190996
347.400401,74.020594,-9030.512492,-2374.896044
347.400729,74.020594,-9252.574275,-1762.019645
347.401057,296.082377,-9400.615463,-1762.019645
347.401385,296.082377,-9474.636058,-1838.629195
347.401712,444.123565,-9252.574275,-1915.238745
347.402040,1110.308913,-9474.636058,-1455.581446
347.402368,666.185348,-9030.512492,-1762.019645
347.402696,222.061783,-9400.615463,-1838.629195
347.403023,0.000000,-9252.574275,-1915.238745
347.403351,0.000000,-9400.615463,-1838.629195
347.403679,148.041188,-9400.615463,-1302.362347
347.404007,296.082377,-9326.594869,-1762.019645
347.404334,0.000000,-9400.615463,-1838.629195
347.404662,-518.144159,-9326.594869,-1991.848295
347.404990,-666.185348,-9104.533087,-2221.676944
347.405318,-888.247130,-8882.471304,-1991.848295
347.405645,-740.205942,-8660.409521,-2068.457845
347.405973,-1184.329507,-9104.533087,-2221.676944
347.406301,-1480.411884,-8956.491898,-2451.505594
347.406629,-1406.391290,-9030.512492,-2451.505594
347.406956,-1628.453072,-8956.491898,-2911.162892
347.407284,-1480.411884,-8660.409521,-3217.601092
347.407612,-1850.514855,-8808.450710,-2604.724693
347.407940,-1480.411884,-9178.553681,-2987.772442
347.408267,-1406.391290,-9030.512492,-2987.772442
347.408595,-1036.288319,-8808.450710,-2834.553343
347.408923,-1110.308913,-8364.327145,-2528.115143
347.409251,0.000000,-9030.512492,-2451.505594
347.409578,-370.102971,-9104.533087,-2374.896044
347.409906,74.020594,-9400.615463,-2298.286494
347.410234,592.164754,-9030.512492,-2145.067394
347.410562,1258.350101,-8586.388927,-1608.800546
347.410889,2072.576638,-9178.553681,-1302.362347
347.411217,2294.638420,-9104.533087,-766.095498
347.411545,2294.638420,-9252.574275,-536.266849
347.411872,1998.556043,-9474.636058,-306.438199
347.412200,518.144159,-9622.677246,-766.095498
347.412528,0.000000,-9844.739029,-1149.143247
347.412856,-666.185348,-10140.821405,-1532.190996
347.413183,-1332.370696,-9918.759623,-1915.238745
347.413511,-1480.411884,-9548.656652,-2221.676944
347.413839,-1480.411884,-9326.594869,-2451.505594
347.414167,-1036.288319,-8734.430116,-2068.457845
347.414494,-666.185348,-8068.244768,-2145.067394
347.414822,222.061783,-7550.100608,-1762.019645
347.415150,1036.288319,-7772.162391,-995.924147
347.415478,1628.453072,-7698.141797,-153.219100
347.415805,1480.411884,-7402.059420,306.438199
347.416133,814.226536,-8586.388927,1302.362347
347.416461,518.144159,-9104.533087,1455.581446
347.416789,-518.144159,-9696.697840,1608.800546
347.417116,-1332.370696,-10140.821405,1455.581446
347.417444,-1554.432478,-10288.862594,1455.581446
347.417772,-1628.453072,-9992.780217,1302.362347
347.418100,-1554.432478,-9548.656652,919.314598
347.418427,-666.185348,-9474.636058,689.485948
347.418755,-592.164754,-8734.430116,153.219100
347.419083,222.061783,-8512.368333,459.657299
347.419411,370.102971,-7698.141797,383.047749
347.419738,222.061783,-7994.224174,383.047749
347.420066,518.144159,-8586.388927,995.924147
347.420394,296.082377,-9030.512492,1302.362347
347.420722,-518.144159,-9326.594869,1608.800546
347.421049,-1850.514855,-9918.759623,2068.457845
347.421377,-2812.782580,-10510.924376,1762.019645
347.421705,-3923.091493,-10732.986159,1149.143247
347.422033,-3849.070898,-10362.883188,459.657299
347.422360,-3182.885551,-9770.718434,536.266849
347.422688,-1924.535449,-8734.430116,612.876398
347.423016,-518.144159,-7698.141797,689.485948
347.423344,518.144159,-7179.997637,383.047749
347.423671,1184.329507,-7105.977043,306.438199
347.423999,1776.494261,-7328.038826,383.047749
347.424327,1850.514855,-7772.162391,612.876398
347.424655,1850.514855,-8734.430116,612.876398
347.424982,1850.514855,-9622.677246,1149.143247
347.425310,1258.350101,-10362.883188,1608.800546
347.425638,222.061783,-11473.192101,1838.629195
347.425966,-666.185348,-11843.295072,1685.410096
347.426293,-1628.453072,-11399.171507,1532.190996
347.426621,-2294.638420,-11251.130318,153.219100
347.426949,-2368.659014,-10362.883188,-612.876398
347.427277,-1258.350101,-9622.677246,-612.876398
347.427604,-740.205942,-8734.430116,-919.314598
347.427932,148.041188,-7031.956449,-689.485948
347.428260,1258.350101,-6809.894666,-919.314598
347.428588,1628.453072,-6809.894666,-383.047749
347.428915,1702.473667,-7179.997637,-229.828649
347.429243,1554.432478,-7846.182985,0.000000
347.429571,444.123565,-8512.368333,612.876398
347.429899,0.000000,-9548.656652,995.924147
347.430226,-1332.370696,-10214.842000,459.657299
347.430554,-1998.556043,-10881.027347,383.047749
347.430882,-2072.576638,-10510.924376,229.828649
347.431210,-1628.453072,-9770.718434,-306.438199
347.431537,-814.226536,-8882.471304,76.609550
347.431865,296.082377,-8216.285956,-459.657299
347.432193,1406.391290,-7550.100608,-459.657299
347.432521,2294.638420,-7105.977043,-229.828649
347.432848,2664.741391,-7105.977043,0.000000
347.433176,2442.679609,-7476.080014,383.047749
347.433504,2442.679609,-8660.409521,919.314598
347.433832,1702.473667,-9326.594869,1302.362347
347.434159,518.144159,-10584.944971,1915.238745
347.434487,-888.247130,-10881.027347,1915.238745
347.434815,-1332.370696,-11251.130318,1915.238745
347.435143,-2294.638420,-10955.047942,1455.581446
347.435470,-2590.720797,-10140.821405,995.924147
347.435798,-1924.535449,-9178.553681,842.705048
347.436126,-1184.329507,-7994.224174,842.705048
347.436454,0.000000,-6957.935855,995.924147
347.436781,-296.082377,-6809.894666,383.047749
347.437109,0.000000,-6513.812290,153.219100
347.437437,-148.041188,-6735.874072,229.828649
347.437765,-222.061783,-7105.977043,612.876398
347.438092,0.000000,-7920.203579,1532.190996
347.438420,-666.185348,-9104.533087,1608.800546
347.438748,-1554.432478,-10584.944971,1225.752797
347.439076,-2368.659014,-11177.109724,1149.143247
347.439403,-2960.823768,-11621.233289,842.705048
347.439731,-3108.864956,-11251.130318,306.438199
347.440059,-2146.597232,-10881.027347,0.000000
347.440387,-1554.432478,-9548.656652,0.000000
347.440714,-222.061783,-8660.409521,229.828649
347.441042,1184.329507,-7772.162391,383.047749
347.441370,1998.556043,-7476.080014,306.438199
347.441698,2220.617826,-7624.121203,306.438199
347.442025,2294.638420,-7994.224174,995.924147
347.442353,1998.556043,-8956.491898,1072.533697
347.442681,1184.329507,-9696.697840,1532.190996
347.443009,296.082377,-10510.924376,1455.581446
347.443336,-444.123565,-11029.068536,842.705048
347.443664,-1702.473667,-11399.171507,1455.581446
347.443992,-1332.370696,-11251.130318,766.095498
347.444319,-1332.370696,-10510.924376,306.438199
347.444647,-1332.370696,-9474.636058,0.000000
347.444975,-518.144159,-8956.491898,-306.438199
347.445303,0.000000,-8290.306550,0.000000
347.445630,148.041188,-7920.203579,-612.876398
347.445958,888.247130,-7624.121203,-536.266849
347.446286,666.185348,-7698.141797,-383.047749
347.446614,666.185348,-8068.244768,76.609550
347.446941,444.123565,-8660.409521,383.047749
347.447269,-740.205942,-10066.800811,536.266849
347.447597,-1554.432478,-10807.006753,459.657299
347.447924,-2590.720797,-10955.047942,459.657299
347.448252,-2812.782580,-10881.027347,0.000000
347.448580,-2368.659014,-9844.739029,-229.828649
347.448908,-1554.432478,-9326.594869,-459.657299
347.449235,-148.041188,-8290.306550,-459.657299
347.449563,1110.308913,-7402.059420,229.828649
347.449891,2072.576638,-6809.894666,306.438199
347.450218,2886.803174,-6513.812290,919.314598
347.450546,2886.803174,-7328.038826,1378.971896
347.450874,2516.700203,-7846.182985,1149.143247
347.451202,1628.453072,-8882.471304,1455.581446
347.451529,740.205942,-10140.821405,1838.629195
347.451857,0.000000,-10584.944971,2068.457845
347.452185,-1110.308913,-11103.089130,1608.800546
347.452512,-2072.576638,-10955.047942,1762.019645
347.452840,-1554.432478,-10140.821405,1072.533697
347.453168,-1480.411884,-9770.718434,995.924147
347.453496,-1036.288319,-8290.306550,842.705048
347.453823,-888.247130,-7476.080014,229.828649
347.454151,-370.102971,-7254.018232,383.047749
347.454479,-222.061783,-7402.059420,459.657299
347.454807,74.020594,-7031.956449,766.095498
347.455134,-222.061783,-7328.038826,919.314598
347.455462,-370.102971,-7772.162391,1072.533697
347.455790,-1110.308913,-8808.450710,1685.410096
347.456117,-2220.617826,-9770.718434,1072.533697
347.456445,-2812.782580,-10214.842000,919.314598
347.456773,-3330.926739,-10436.903782,459.657299
347.457101,-3256.906145,-9844.739029,0.000000
347.457428,-2294.638420,-9474.636058,306.438199
347.457756,-1184.329507,-8882.471304,0.000000
347.458084,222.061783,-8142.265362,-229.828649
347.458411,1406.391290,-7920.203579,76.609550
347.458739,2072.576638,-7476.080014,766.095498
347.459067,2294.638420,-7920.203579,459.657299
347.459395,2220.617826,-8512.368333,766.095498
347.459722,1924.535449,-9474.636058,995.924147
347.460050,1628.453072,-10362.883188,1532.190996
347.460378,814.226536,-11251.130318,1762.019645
347.460705,-592.164754,-11399.171507,1838.629195
347.461033,-888.247130,-11473.192101,1072.533697
347.461361,-1998.556043,-11547.212695,612.876398
347.461689,-1258.350101,-10584.944971,0.000000
347.462016,-962.267725,-9622.677246,-383.047749
347.462344,-814.226536,-8438.347739,-306.438199
347.462672,592.164754,-8068.244768,-612.876398
347.462999,518.144159,-7402.059420,-689.485948
347.463327,888.247130,-7476.080014,-612.876398
347.463655,1184.329507,-7402.059420,-229.828649
347.463983,888.247130,-7994.224174,0.000000
347.464310,74.020594,-8660.409521,383.047749
347.464638,-518.144159,-9844.739029,229.828649
347.464966,-1924.535449,-10658.965565,229.828649
347.465294,-2664.741391,-11251.130318,76.609550
347.465621,-2886.803174,-11103.089130,-383.047749
347.465949,-2442.679609,-10066.800811,-306.438199
347.466277,-1480.411884,-9400.615463,-459.657299
347.466604,0.000000,-8438.347739,0.000000
347.466932,1554.432478,-7772.162391,0.000000
347.467260,2442.679609,-7254.018232,229.828649
347.467588,2738.761985,-7031.956449,842.705048
347.467915,2664.741391,-7698.141797,612.876398
347.468243,2294.638420,-8290.306550,1149.143247
347.468571,1850.514855,-9178.553681,1762.019645
347.468898,592.164754,-10214.842000,1991.848295
347.469226,0.000000,-10807.006753,2298.286494
347.469554,-962.267725,-11029.068536,1991.848295
347.469882,-1628.453072,-10658.965565,1915.238745
347.470209,-2220.617826,-9918.759623,919.314598
347.470537,-1702.473667,-9252.574275,689.485948
347.470865,-1184.329507,-8216.285956,306.438199
347.471192,-592.164754,-7698.141797,229.828649
347.471520,0.000000,-6883.915261,76.609550
347.471848,222.061783,-6587.832884,153.219100
347.472176,74.020594,-7105.977043,612.876398
347.472503,222.061783,-7254.018232,612.876398
347.472831,0.000000,-7994.224174,1302.362347
347.473159,-888.247130,-9178.553681,1225.752797
347.473486,-2220.617826,-9992.780217,1302.362347
347.473814,-3404.947333,-10658.965565,1225.752797
347.474142,-3552.988522,-10732.986159,1072.533697
347.474470,-3256.906145,-10066.800811,1072.533697
347.474797,-2442.679609,-9770.718434,459.657299
347.475125,-1036.288319,-8808.450710,459.657299
347.475453,0.000000,-7994.224174,459.657299
347.475781,1258.350101,-7550.100608,306.438199
347.476108,1184.329507,-6957.935855,689.485948
347.476436,1924.535449,-7550.100608,229.828649
347.476764,1776.494261,-8142.265362,919.314598
347.477091,1776.494261,-8956.491898,1225.752797
347.477419,1258.350101,-9770.718434,1838.629195
347.477747,518.144159,-10658.965565,2374.896044
347.478075,-444.123565,-11547.212695,1455.581446
347.478402,-1702.473667,-11547.212695,1072.533697
347.478730,-2072.576638,-11843.295072,1072.533697
347.479058,-2220.617826,-10732.986159,0.000000
347.479385,-2368.659014,-9844.739029,-383.047749
347.479713,-888.247130,-8660.409521,-612.876398
347.480041,-296.082377,-8068.244768,-612.876398
347.480369,222.061783,-7550.100608,-689.485948
347.480696,1110.308913,-7328.038826,-536.266849
347.481024,962.267725,-7624.121203,-153.219100
347.481352,888.247130,-7920.203579,76.609550
347.481679,444.123565,-9178.553681,459.657299
347.482007,-444.123565,-9770.718434,153.219100
347.482335,-1554.432478,-10881.027347,0.000000
347.482663,-2368.659014,-11251.130318,229.828649
347.482990,-2442.679609,-10807.006753,229.828649
347.483318,-2220.617826,-10436.903782,-153.219100
347.483646,-1036.288319,-9622.677246,-536.266849
347.483974,74.020594,-8660.409521,-536.266849
347.484301,1628.453072,-7920.203579,-229.828649
347.484629,2590.720797,-7328.038826,0.000000
347.484957,2812.782580,-7105.977043,229.828649
347.485284,3108.864956,-7550.100608,689.485948
347.485612,2738.761985,-8438.347739,919.314598
347.485940,1998.556043,-9326.594869,1608.800546
347.486268,1036.288319,-10066.800811,2068.457845
347.486595,-222.061783,-10584.944971,2374.896044
347.486923,-1480.411884,-11029.068536,1838.629195
347.487251,-1924.535449,-11325.150913,1762.019645
347.487578,-1850.514855,-10140.821405,995.924147
347.487906,-2072.576638,-9474.636058,919.314598
347.488234,-1036.288319,-8142.265362,536.266849
347.488562,-666.185348,-7179.997637,1149.143247
347.488889,-444.123565,-7105.977043,612.876398
347.489217,0.000000,-6661.853478,153.219100
347.489545,-296.082377,-6587.832884,459.657299
347.489872,-518.144159,-6587.832884,459.657299
347.490200,-592.164754,-7550.100608,1532.190996
347.490528,-1258.350101,-8808.450710,1455.581446
347.490856,-2368.659014,-9622.677246,1455.581446
347.491183,-3034.844362,-10066.800811,1302.362347
347.491511,-3552.988522,-10066.800811,919.314598
347.491839,-3182.885551,-10436.903782,229.828649
347.492166,-3034.844362,-9548.656652,229.828649
347.492494,-1628.453072,-8808.450710,153.219100
347.492822,-370.102971,-7994.224174,0.000000
347.493150,740.205942,-7550.100608,76.609550
347.493477,1776.494261,-7550.100608,383.047749
347.493805,2146.597232,-7624.121203,689.485948
347.494133,2294.638420,-8068.244768,766.095498
347.494461,2368.659014,-8734.430116,1149.143247
347.494788,1776.494261,-9918.759623,1302.362347
347.495116,1184.329507,-10584.944971,1072.533697
347.495444,0.000000,-11251.130318,1915.238745
347.495771,-888.247130,-11621.233289,1225.752797
347.496099,-1406.391290,-11547.212695,995.924147
347.496427,-1480.411884,-10584.944971,76.609550
347.496755,-1036.288319,-9548.656652,459.657299
347.497082,0.000000,-8142.265362,-459.657299
347.497410,222.061783,-7994.224174,-689.485948
347.497738,814.226536,-7698.141797,-689.485948
347.498065,1258.350101,-7328.038826,-766.095498
347.498393,962.267725,-7698.141797,-536.266849
347.498721,444.123565,-7698.141797,-459.657299
347.499049,148.041188,-9104.533087,153.219100
347.499376,-518.144159,-9844.739029,153.219100
347.499704,-1702.473667,-10658.965565,306.438199
347.500032,-2368.659014,-10955.047942,0.000000
347.500359,-2590.720797,-10955.047942,0.000000
347.500687,-2590.720797,-10362.883188,-229.828649
347.501015,-1850.514855,-9548.656652,-536.266849
347.501343,-370.102971,-8734.430116,-689.485948
347.501670,666.185348,-8068.244768,0.000000
347.501998,2146.597232,-7254.018232,383.047749
347.502326,2072.576638,-7328.038826,383.047749
347.502654,2294.638420,-7698.141797,612.876398
347.502981,2072.576638,-8290.306550,919.314598
347.503309,1628.453072,-8956.491898,1302.362347
347.503637,1110.308913,-9770.718434,1838.629195
347.503964,222.061783,-10584.944971,2145.067394
347.504292,-740.205942,-11177.109724,1991.848295
347.504620,-1628.453072,-11251.130318,1455.581446
347.504948,-1776.494261,-10584.944971,1378.971896
347.505275,-1480.411884,-9696.697840,766.095498
347.505603,-1110.308913,-8660.409521,536.266849
347.505931,-370.102971,-7920.203579,76.609550
347.506258,0.000000,-7179.997637,306.438199
347.506586,592.164754,-7105.977043,459.657299
347.506914,740.205942,-7031.956449,459.657299
347.507242,370.102971,-7624.121203,536.266849
347.507569,0.000000,-8068.244768,1149.143247
347.507897,-888.247130,-8956.491898,1072.533697
347.508225,-1702.473667,-9918.759623,1532.190996
347.508552,-2886.803174,-10584.944971,995.924147
347.508880,-2960.823768,-10955.047942,1149.143247
347.509208,-3108.864956,-9770.718434,1072.533697
347.509536,-2368.659014,-9548.656652,766.095498
347.509863,-1110.308913,-8882.471304,383.047749
347.510191,0.000000,-8142.265362,153.219100
347.510519,666.185348,-7698.141797,306.438199
347.510846,1258.350101,-7105.977043,842.705048
347.511174,1406.391290,-7698.141797,612.876398
347.511502,1554.432478,-7994.224174,689.485948
347.511830,1554.432478,-8734.430116,1302.362347
347.512157,1110.308913,-9622.677246,1608.800546
347.512485,74.020594,-10140.821405,1838.629195
347.512813,-518.144159,-11177.109724,1608.800546
347.513141,-1332.370696,-11325.150913,1225.752797
347.513468,-1924.535449,-11177.109724,842.705048
347.513796,-2368.659014,-10807.006753,229.828649
347.514124,-1850.514855,-9770.718434,76.609550
347.514451,-592.164754,-8512.368333,0.000000
347.514779,-148.041188,-7698.141797,-383.047749
347.515107,296.082377,-7254.018232,-536.266849
347.515435,814.226536,-6957.935855,-229.828649
347.515762,888.247130,-7105.977043,76.609550
347.516090,1036.288319,-7772.162391,0.000000
347.516418,296.082377,-8882.471304,306.438199
347.516745,-518.144159,-9770.718434,383.047749
347.517073,-1184.329507,-10510.924376,612.876398
347.517401,-2146.597232,-10807.006753,383.047749
347.517729,-2442.679609,-10436.903782,766.095498
347.518056,-2146.597232,-10510.924376,76.609550
347.518384,-1776.494261,-9548.656652,-689.485948
347.518712,-370.102971,-8956.491898,-306.438199
347.519039,888.247130,-7920.203579,-612.876398
347.519367,2072.576638,-7624.121203,0.000000
347.519695,2368.659014,-7328.038826,76.609550
347.520023,2516.700203,-7920.203579,383.047749
347.520350,2220.617826,-8290.306550,766.095498
347.520678,1998.556043,-9030.512492,1225.752797
347.521006,1258.350101,-9844.739029,2145.067394
347.521334,0.000000,-10732.986159,1838.629195
347.521661,-814.226536,-11251.130318,1762.019645
347.521989,-1554.432478,-10955.047942,1838.629195
347.522317,-1998.556043,-10436.903782,1072.533697
347.522644,-1776.494261,-9770.718434,842.705048
347.522972,-444.123565,-8586.388927,995.924147
347.523300,-370.102971,-7846.182985,229.828649
347.523628,0.000000,-7105.977043,0.000000
347.523955,740.205942,-6957.935855,383.047749
347.524283,0.000000,-6957.935855,689.485948
347.524611,666.185348,-7179.997637,995.924147
347.524938,148.041188,-7994.224174,689.485948
347.525266,-962.267725,-8882.471304,1072.533697
347.525594,-1258.350101,-10140.821405,1608.800546
347.525922,-2146.597232,-10955.047942,1378.971896
347.526249,-2294.638420,-10881.027347,1455.581446
347.526577,-3478.967927,-10584.944971,459.657299
347.526905,-2664.741391,-10214.842000,459.657299
347.527232,-1554.432478,-9178.553681,153.219100
347.527560,-592.164754,-8068.244768,0.000000
347.527888,592.164754,-7550.100608,536.266849
347.528216,1332.370696,-7105.977043,536.266849
347.528543,1702.473667,-7402.059420,766.095498
347.528871,1776.494261,-7402.059420,842.705048
347.529199,1776.494261,-8290.306550,1378.971896
347.529526,1554.432478,-9622.677246,995.924147
347.529854,148.041188,-10140.821405,1762.019645
347.530182,-666.185348,-11251.130318,1838.629195
347.530510,-962.267725,-11399.171507,1685.410096
347.530837,-1406.391290,-11325.150913,1149.143247
347.531165,-1850.514855,-10658.965565,383.047749
347.531493,-1036.288319,-9474.636058,459.657299
347.531821,-444.123565,-9178.553681,0.000000
347.532148,-148.041188,-7772.162391,0.000000
347.532476,740.205942,-7920.203579,-306.438199
347.532804,740.205942,-7031.956449,-306.438199
347.533131,888.247130,-7624.121203,306.438199
347.533459,1258.350101,-7476.080014,0.000000
347.533787,444.123565,-8438.347739,612.876398
347.534115,-518.144159,-9770.718434,459.657299
347.534442,-1332.370696,-10436.903782,919.314598
347.534770,-2368.659014,-10807.006753,612.876398
347.535098,-2516.700203,-11473.192101,0.000000
347.535425,-2812.782580,-10584.944971,0.000000
347.535753,-1850.514855,-10214.842000,-229.828649
347.536081,-740.205942,-8586.388927,-306.438199
347.536409,666.185348,-7846.182985,-306.438199
347.536736,1702.473667,-7031.956449,0.000000
347.537064,1998.556043,-6883.915261,459.657299
347.537392,2294.638420,-7179.997637,536.266849
347.537719,2146.597232,-7772.162391,689.485948
347.538047,1850.514855,-8808.450710,1149.143247
347.538375,1332.370696,-9400.615463,1685.410096
347.538703,148.041188,-10955.047942,1838.629195
347.539030,-740.205942,-11251.130318,1915.238745
347.539358,-1554.432478,-11473.192101,1378.971896
347.539686,-2072.576638,-11103.089130,1225.752797
347.540014,-1332.370696,-10140.821405,919.314598
347.540341,-1110.308913,-9474.636058,153.219100
347.540669,-148.041188,-8290.306550,0.000000
347.540997,0.000000,-7476.080014,0.000000
347.541324,296.082377,-7105.977043,0.000000
347.541652,592.164754,-6957.935855,306.438199
347.541980,814.226536,-7550.100608,842.705048
347.542308,444.123565,-7846.182985,842.705048
347.542635,-444.123565,-8660.409521,995.924147
347.542963,-1110.308913,-9696.697840,1225.752797
347.543291,-2072.576638,-10510.924376,612.876398
347.543618,-2590.720797,-10955.047942,1225.752797
347.543946,-2812.782580,-10362.883188,689.485948
347.544274,-2590.720797,-9918.759623,459.657299
347.544602,-1554.432478,-9104.533087,383.047749
347.544929,-370.102971,-8512.368333,153.219100
347.545255,888.247130,-7772.162391,229.828649
347.545582,1184.329507,-7179.997637,0.000000
347.545910,1554.432478,-7254.018232,229.828649
347.546237,1628.453072,-7698.141797,536.266849
347.546565,1628.453072,-8438.347739,842.705048
347.546892,1332.370696,-9104.533087,1685.410096
347.547220,1110.308913,-10214.842000,1915.238745
347.547548,-444.123565,-11029.068536,1991.848295
347.547875,-1628.453072,-11621.233289,1685.410096
347.548203,-2294.638420,-11251.130318,689.485948
347.548530,-2368.659014,-10584.944971,1302.362347
347.548858,-1480.411884,-9696.697840,536.266849
347.549185,-1184.329507,-9178.553681,0.000000
347.549513,-592.164754,-8068.244768,-229.828649
347.549840,296.082377,-7402.059420,-153.219100
347.550168,1110.308913,-6587.832884,229.828649
347.550495,1184.329507,-6883.915261,0.000000
347.550823,1110.308913,-7624.121203,153.219100
347.551150,518.144159,-8512.368333,306.438199
347.551478,-296.082377,-9548.656652,536.266849
347.551805,-1258.350101,-10362.883188,689.485948
347.552133,-1998.556043,-10732.986159,306.438199
347.552460,-2516.700203,-11547.212695,153.219100
347.552788,-2590.720797,-11103.089130,76.609550
347.553115,-1998.556043,-10214.842000,-306.438199
347.553443,-666.185348,-9030.512492,-536.266849
347.553770,666.185348,-8586.388927,-612.876398
347.554098,1480.411884,-7179.997637,-229.828649
347.554426,1998.556043,-7698.141797,-153.219100
347.554753,2294.638420,-7698.141797,-306.438199
347.555081,2146.597232,-8142.265362,306.438199
347.555408,1850.514855,-8364.327145,766.095498
347.555736,1554.432478,-9326.594869,1378.971896
347.556063,518.144159,-10584.944971,1532.190996
347.556391,-370.102971,-11251.130318,1685.410096
347.556718,-1258.350101,-11325.150913,1302.362347
347.557046,-2146.597232,-11029.068536,1685.410096
347.557373,-1628.453072,-10584.944971,76.609550
347.557701,-1554.432478,-9474.636058,0.000000
347.558028,-1036.288319,-8586.388927,0.000000
347.558356,0.000000,-7920.203579,0.000000
347.558683,592.164754,-7105.977043,-153.219100
347.559011,1036.288319,-6587.832884,229.828649
347.559338,1406.391290,-7031.956449,229.828649
347.559666,740.205942,-7698.141797,689.485948
347.559993,0.000000,-8882.471304,919.314598
347.560321,-1036.288319,-9770.718434,1225.752797
347.560649,-1998.556043,-10362.883188,1378.971896
347.560976,-2442.679609,-11177.109724,1225.752797
347.561304,-2516.700203,-10807.006753,919.314598
347.561631,-2368.659014,-10214.842000,1072.533697
347.561959,-1258.350101,-9178.553681,1072.533697
347.562286,222.061783,-8290.306550,1149.143247
347.562614,814.226536,-7698.141797,612.876398
347.562941,1258.350101,-7254.018232,995.924147
347.563269,1554.432478,-7328.038826,995.924147
347.563596,1554.432478,-7550.100608,1072.533697
347.563924,1406.391290,-8142.265362,1225.752797
347.564251,1258.350101,-8586.388927,1838.629195
347.564579,148.041188,-9770.718434,2451.505594
347.564906,-962.267725,-10658.965565,2298.286494
347.565234,-2072.576638,-10955.047942,1608.800546
347.565561,-2812.782580,-10807.006753,1378.971896
347.565889,-2886.803174,-10066.800811,919.314598
347.566216,-2590.720797,-9622.677246,383.047749
347.566544,-1998.556043,-8734.430116,306.438199
347.566871,-888.247130,-8068.244768,0.000000
347.567199,0.000000,-7402.059420,0.000000
347.567527,444.123565,-7105.977043,459.657299
347.567854,592.164754,-7105.977043,-306.438199
347.568182,296.082377,-7698.141797,229.828649
347.568509,0.000000,-8512.368333,383.047749
347.568837,-592.164754,-9326.594869,842.705048
347.569164,-1036.288319,-9992.780217,919.314598
347.569492,-1332.370696,-11251.130318,536.266849
347.569819,-2220.617826,-11029.068536,536.266849
347.570147,-2220.617826,-10732.986159,229.828649
347.570474,-1480.411884,-10066.800811,0.000000
347.570802,-296.082377,-9178.553681,-306.438199
347.571129,1110.308913,-8586.388927,-229.828649
347.571457,1850.514855,-7550.100608,-153.219100
347.571784,2294.638420,-7550.100608,-153.219100
347.572112,2664.741391,-7698.141797,153.219100
347.572439,2516.700203,-8142.265362,306.438199
347.572767,2294.638420,-8660.409521,1149.143247
347.573094,1480.411884,-9326.594869,1608.800546
347.573422,592.164754,-10955.047942,1378.971896
347.573749,-666.185348,-11177.109724,1225.752797
347.574077,-1628.453072,-11103.089130,689.485948
347.574405,-2368.659014,-10807.006753,383.047749
347.574732,-1406.391290,-10140.821405,229.828649
347.575060,-1924.535449,-9474.636058,-306.438199
347.575387,-1110.308913,-8438.347739,-383.047749
347.575715,0.000000,-7624.121203,-612.876398
347.576042,444.123565,-7179.997637,-153.219100
347.576370,666.185348,-6809.894666,-459.657299
347.576697,740.205942,-7328.038826,0.000000
347.577025,518.144159,-7846.182985,76.609550
347.577352,-148.041188,-8882.471304,689.485948
347.577680,-740.205942,-9622.677246,919.314598
347.578007,-1554.432478,-10658.965565,1225.752797
347.578335,-2220.617826,-10881.027347,1149.143247
347.578662,-2812.782580,-10807.006753,766.095498
347.578990,-2442.679609,-10214.842000,459.657299
347.579317,-1332.370696,-9548.656652,383.047749
347.579645,-222.061783,-8364.327145,919.314598
347.579972,740.205942,-7994.224174,383.047749
347.580300,1554.432478,-7402.059420,536.266849
347.580628,1776.494261,-7031.956449,383.047749
347.580955,1850.514855,-7402.059420,766.095498
347.581283,1850.514855,-7846.182985,1762.019645
347.581610,1628.453072,-8512.368333,1608.800546
347.581938,370.102971,-9844.739029,1915.238745
347.582265,-518.144159,-10658.965565,2221.676944
347.582593,-1628.453072,-10955.047942,2145.067394
347.582920,-2220.617826,-10658.965565,1762.019645
347.583248,-2516.700203,-10362.883188,1378.971896
347.583575,-2146.597232,-9622.677246,689.485948
347.583903,-1776.494261,-8734.430116,383.047749
347.584230,-962.267725,-7994.224174,229.828649
347.584558,0.000000,-7179.997637,0.000000
347.584885,370.102971,-7402.059420,0.000000
347.585213,666.185348,-7031.956449,229.828649
347.585540,518.144159,-7402.059420,229.828649
347.585868,296.082377,-8142.265362,766.095498
347.586195,-222.061783,-9252.574275,919.314598
347.586523,-888.247130,-10214.842000,1225.752797
347.586850,-1480.411884,-10436.903782,766.095498
347.587178,-2516.700203,-11251.130318,612.876398
347.587506,-2442.679609,-11103.089130,229.828649
347.587833,-2146.597232,-10140.821405,76.609550
347.588161,-888.247130,-9252.574275,229.828649
347.588488,666.185348,-8142.265362,76.609550
347.588816,1554.432478,-7920.203579,0.000000
347.589143,2072.576638,-7624.121203,383.047749
347.589471,2516.700203,-7846.182985,383.047749
347.589798,2516.700203,-8142.265362,689.485948
347.590126,2146.597232,-9104.533087,919.314598
347.590453,1184.329507,-9770.718434,1685.410096
347.590781,518.144159,-10584.944971,1302.362347
347.591108,-370.102971,-11399.171507,1685.410096
347.591436,-1850.514855,-11325.150913,1072.533697
347.591763,-2590.720797,-11177.109724,459.657299
347.592091,-1924.535449,-10510.924376,0.000000
347.592418,-2072.576638,-9770.718434,0.000000
347.592746,-1332.370696,-8882.471304,-689.485948
347.593073,-518.144159,-7994.224174,-919.314598
347.593401,0.000000,-7402.059420,-1685.410096
347.593729,592.164754,-7031.956449,-689.485948
347.594056,666.185348,-7254.018232,-536.266849
347.594384,518.144159,-7920.203579,-153.219100
347.594711,148.041188,-8808.450710,229.828649
347.595039,-296.082377,-9474.636058,1225.752797
347.595366,-1480.411884,-10807.006753,383.047749
347.595694,-1628.453072,-11251.130318,612.876398
347.596021,-2516.700203,-11103.089130,536.266849
347.596349,-2146.597232,-10732.986159,153.219100
347.596676,-1036.288319,-9844.739029,0.000000
347.597004,-296.082377,-8586.388927,306.438199
347.597331,1110.308913,-8142.265362,-153.219100
347.597659,1924.535449,-7772.162391,229.828649
347.597986,2220.617826,-7476.080014,153.219100
347.598314,2442.679609,-7624.121203,536.266849
347.598641,2812.782580,-7550.100608,1302.362347
347.598969,2368.659014,-8882.471304,1302.362347
347.599296,1406.391290,-9918.759623,1991.848295
347.599624,0.000000,-10658.965565,1532.190996
347.599951,-1332.370696,-11029.068536,2068.457845
347.600279,-1998.556043,-11029.068536,1991.848295
347.600607,-2516.700203,-10732.986159,1225.752797
347.600934,-2368.659014,-9844.739029,1149.143247
347.601262,-1702.473667,-8956.491898,536.266849
347.601589,-1036.288319,-7846.182985,383.047749
347.601917,-296.082377,-7105.977043,536.266849
347.602244,0.000000,-6439.791695,383.047749
347.602572,296.082377,-6883.915261,306.438199
347.602899,296.082377,-6883.915261,459.657299
347.603227,0.000000,-7550.100608,689.485948
347.603554,-1110.308913,-8586.388927,1149.143247
347.603882,-1406.391290,-9252.574275,1838.629195
347.604209,-2368.659014,-10510.924376,1149.143247
347.604537,-3034.844362,-10881.027347,919.314598
347.604864,-3108.864956,-10881.027347,536.266849
347.605192,-2516.700203,-9992.780217,76.609550
347.605519,-1332.370696,-9178.553681,0.000000
347.605847,222.061783,-8364.327145,0.000000
347.606174,1110.308913,-7698.141797,459.657299
347.606502,2146.597232,-7328.038826,306.438199
347.606830,2442.679609,-7402.059420,383.047749
347.607157,2664.741391,-7698.141797,612.876398
347.607485,2220.617826,-8808.450710,689.485948
347.607812,1850.514855,-9548.656652,1302.362347
347.608140,1036.288319,-10510.924376,1608.800546
347.608467,0.000000,-11251.130318,1455.581446
347.608795,-740.205942,-11917.315666,2068.457845
347.609122,-1036.288319,-11029.068536,306.438199
347.609450,-2220.617826,-10510.924376,459.657299
347.609777,-1332.370696,-9770.718434,153.219100
347.610105,-962.267725,-9178.553681,-383.047749
347.610432,-222.061783,-8364.327145,-612.876398
347.610760,518.144159,-7179.997637,-536.266849
347.611087,666.185348,-7402.059420,-229.828649
347.611415,814.226536,-7402.059420,-383.047749
347.611742,740.205942,-8216.285956,153.219100
347.612070,0.000000,-8882.471304,306.438199
347.612397,-740.205942,-9548.656652,919.314598
347.612725,-666.185348,-10362.883188,919.314598
347.613052,-2220.617826,-10881.027347,766.095498
347.613380,-2442.679609,-10955.047942,536.266849
347.613708,-2590.720797,-10510.924376,229.828649
347.614035,-1554.432478,-10066.800811,229.828649
347.614363,-370.102971,-8956.491898,0.000000
347.614690,222.061783,-8216.285956,76.609550
347.615018,962.267725,-7772.162391,76.609550
347.615345,1554.432478,-7550.100608,306.438199
347.615673,1776.494261,-7698.141797,689.485948
347.616000,1480.411884,-7772.162391,1378.971896
347.616328,1554.432478,-8734.430116,1378.971896
347.616655,666.185348,-9992.780217,1762.019645
347.616983,0.000000,-10510.924376,1915.238745
347.617310,-1110.308913,-10732.986159,1838.629195
347.617638,-1702.473667,-10658.965565,1685.410096
347.617965,-2442.679609,-10436.903782,766.095498
347.618293,-2294.638420,-9696.697840,689.485948
347.618620,-1554.432478,-8660.409521,229.828649
347.618948,-1184.329507,-7920.203579,229.828649
347.619275,0.000000,-7179.997637,76.609550
347.619603,370.102971,-6661.853478,0.000000
347.619931,370.102971,-6883.915261,229.828649
347.620258,888.247130,-7105.977043,536.266849
347.620586,518.144159,-7698.141797,919.314598
347.620913,0.000000,-8586.388927,919.314598
347.621241,-814.226536,-9844.739029,1455.581446
347.621568,-1850.514855,-10140.821405,995.924147
347.621896,-2516.700203,-10955.047942,383.047749
347.622223,-2516.700203,-10436.903782,536.266849
347.622551,-2146.597232,-9918.759623,153.219100
347.622878,-962.267725,-9252.574275,153.219100
347.623206,296.082377,-8438.347739,76.609550
347.623533,1406.391290,-7920.203579,0.000000
347.623861,1998.556043,-7698.141797,229.828649
347.624188,2072.576638,-7550.100608,229.828649
347.624516,1628.453072,-7476.080014,1302.362347
347.624843,1702.473667,-8290.306550,689.485948
347.625171,1184.329507,-9474.636058,1149.143247
347.625498,740.205942,-10584.944971,1608.800546
347.625826,-296.082377,-10881.027347,1838.629195
347.626153,-1628.453072,-10881.027347,1302.362347
347.626481,-1850.514855,-11547.212695,689.485948
347.626809,-2072.576638,-10510.924376,0.000000
347.627136,-1776.494261,-10066.800811,-306.438199
347.627464,-1554.432478,-8808.450710,-536.266849
347.627791,-370.102971,-8438.347739,-689.485948
347.628119,-222.061783,-7179.997637,-459.657299
347.628446,592.164754,-7402.059420,-459.657299
347.628774,962.267725,-7179.997637,0.000000
347.629101,740.205942,-7994.224174,229.828649
347.629429,148.041188,-8586.388927,306.438199
347.629756,148.041188,-9770.718434,1149.143247
347.630084,-1184.329507,-10658.965565,842.705048
347.630411,-2072.576638,-10955.047942,766.095498
347.630739,-2368.659014,-11325.150913,383.047749
347.631066,-2294.638420,-10807.006753,229.828649
347.631394,-1036.288319,-9696.697840,0.000000
347.631721,-296.082377,-8956.491898,-306.438199
347.632049,814.226536,-8364.327145,76.609550
347.632376,1554.432478,-7698.141797,153.219100
347.632704,2146.597232,-7698.141797,229.828649
347.633032,2220.617826,-7550.100608,536.266849
347.633359,2294.638420,-8068.244768,919.314598
347.633687,1998.556043,-8882.471304,1838.629195
347.634014,1110.308913,-9622.677246,1838.629195
347.634342,74.020594,-10362.883188,1991.848295
347.634669,-740.205942,-11029.068536,2145.067394
347.634997,-1998.556043,-10732.986159,1149.143247
347.635324,-2368.659014,-10436.903782,1072.533697
347.635652,-1924.535449,-9770.718434,766.095498
347.635979,-2072.576638,-9178.553681,689.485948
347.636307,-962.267725,-8216.285956,229.828649
347.636634,0.000000,-7254.018232,76.609550
347.636962,0.000000,-6883.915261,229.828649
347.637289,592.164754,-6735.874072,229.828649
347.637617,444.123565,-6957.935855,612.876398
347.637944,222.061783,-7772.162391,689.485948
347.638272,0.000000,-8438.347739,842.705048
347.638599,-1184.329507,-9400.615463,1225.752797
347.638927,-2220.617826,-10288.862594,1149.143247
347.639254,-2664.741391,-10658.965565,1072.533697
347.639582,-2960.823768,-10584.944971,919.314598
347.639910,-2368.659014,-10066.800811,536.266849
347.640237,-1332.370696,-9252.574275,229.828649
347.640565,0.000000,-8216.285956,383.047749
347.640892,962.267725,-7698.141797,459.657299
347.641220,1628.453072,-7179.997637,536.266849
347.641547,1554.432478,-7328.038826,459.657299
347.641875,1924.535449,-7254.018232,842.705048
347.642202,1924.535449,-8364.327145,995.924147
347.642530,1332.370696,-9326.594869,1378.971896
347.642857,666.185348,-9918.759623,1532.190996
347.643185,-296.082377,-10732.986159,1838.629195
347.643512,-814.226536,-11325.150913,1608.800546
347.643840,-2146.597232,-10955.047942,919.314598
347.644168,-2368.659014,-10658.965565,383.047749
347.644495,-2072.576638,-9696.697840,-153.219100
347.644823,-1332.370696,-9030.512492,-536.266849
347.645150,-666.185348,-7994.224174,-1225.752797
347.645478,296.082377,-7328.038826,-689.485948
347.645805,370.102971,-7402.059420,-766.095498
347.646133,666.185348,-7254.018232,-536.266849
347.646461,740.205942,-7476.080014,-153.219100
347.646788,296.082377,-7994.224174,-76.609550
347.647116,-296.082377,-9326.594869,383.047749
347.647443,-962.267725,-10510.924376,229.828649
347.647771,-1776.494261,-11029.068536,306.438199
347.648098,-2220.617826,-11103.089130,306.438199
347.648426,-2220.617826,-11177.109724,76.609550
347.648754,-1628.453072,-10362.883188,-306.438199
347.649081,-740.205942,-9252.574275,-383.047749
347.649409,740.205942,-8586.388927,-76.609550
347.649736,1628.453072,-7846.182985,-306.438199
347.650064,2072.576638,-7698.141797,0.000000
347.650391,2664.741391,-7772.162391,306.438199
347.650719,2516.700203,-7846.182985,766.095498
347.651047,2368.659014,-8438.347739,1225.752797
347.651374,1702.473667,-9622.677246,1608.800546
347.651702,444.123565,-10362.883188,2068.457845
347.652029,0.000000,-10955.047942,2374.896044
347.652357,-1776.494261,-10881.027347,1149.143247
347.652684,-2220.617826,-11029.068536,1072.533697
347.653012,-1998.556043,-9844.739029,842.705048
347.653340,-1776.494261,-9474.636058,536.266849
347.653667,-1036.288319,-8290.306550,536.266849
347.653995,-666.185348,-7476.080014,689.485948
347.654322,-148.041188,-7105.977043,153.219100
347.654650,296.082377,-6883.915261,0.000000
347.654977,0.000000,-7105.977043,536.266849
347.655305,0.000000,-7698.141797,842.705048
347.655633,0.000000,-8660.409521,689.485948
347.655960,-1258.350101,-9474.636058,1149.143247
347.656288,-2294.638420,-10510.924376,1302.362347
347.656615,-2886.803174,-10807.006753,1225.752797
347.656943,-3404.947333,-10881.027347,842.705048
347.657270,-2590.720797,-10510.924376,306.438199
347.657598,-1998.556043,-9400.615463,459.657299
347.657926,-666.185348,-8956.491898,229.828649
347.658253,814.226536,-7846.182985,612.876398
347.658581,1702.473667,-7402.059420,612.876398
347.658908,2368.659014,-7179.997637,995.924147
347.659236,2368.659014,-7698.141797,1225.752797
347.659563,2220.617826,-8364.327145,1378.971896
347.659891,1628.453072,-9400.615463,1532.190996
347.660219,888.247130,-10066.800811,1838.629195
347.660546,370.102971,-11029.068536,2221.676944
347.660874,-1110.308913,-11029.068536,1991.848295
347.661201,-1924.535449,-11177.109724,1455.581446
347.661529,-1702.473667,-10732.986159,995.924147
347.661856,-1702.473667,-9770.718434,459.657299
347.662184,-1406.391290,-9030.512492,76.609550
347.662512,-444.123565,-8142.265362,0.000000
347.662839,0.000000,-7698.141797,-536.266849
347.663167,0.000000,-7698.141797,-306.438199
347.663494,222.061783,-7179.997637,-229.828649
347.663822,0.000000,-7624.121203,-383.047749
347.664149,148.041188,-9104.533087,536.266849
347.664477,0.000000,-9252.574275,229.828649
347.664805,-1406.391290,-10214.842000,612.876398
347.665132,-1998.556043,-10362.883188,536.266849
347.665460,-2664.741391,-10584.944971,76.609550
347.665787,-2368.659014,-10658.965565,153.219100
347.666115,-1628.453072,-10510.924376,-536.266849
347.666442,-1480.411884,-9252.574275,-612.876398
347.666770,74.020594,-8734.430116,-842.705048
347.667098,1406.391290,-7920.203579,-383.047749
347.667425,1924.535449,-7105.977043,153.219100
347.667753,2886.803174,-7328.038826,383.047749
347.668080,3330.926739,-7846.182985,612.876398
347.668408,2812.782580,-9030.512492,842.705048
347.668735,2072.576638,-9696.697840,1532.190996
347.669063,888.247130,-10510.924376,1608.800546
347.669391,0.000000,-11177.109724,2145.067394
347.669718,-666.185348,-11177.109724,1149.143247
347.670046,-1554.432478,-11251.130318,1225.752797
347.670373,-814.226536,-10362.883188,842.705048
347.670701,-444.123565,-9474.636058,689.485948
347.671028,-296.082377,-8290.306550,459.657299
347.671356,370.102971,-7624.121203,0.000000
347.671684,370.102971,-7105.977043,0.000000
347.672011,296.082377,-7179.997637,229.828649
347.672339,592.164754,-7105.977043,306.438199
347.672666,370.102971,-7698.141797,919.314598
347.672994,-222.061783,-8216.285956,766.095498
347.673322,-1036.288319,-9474.636058,1072.533697
347.673649,-2664.741391,-10140.821405,1072.533697
347.673977,-3182.885551,-10584.944971,995.924147
347.674304,-3404.947333,-10584.944971,536.266849
347.674632,-2886.803174,-9844.739029,306.438199
347.674959,-2146.597232,-9400.615463,153.219100
347.675287,-888.247130,-8438.347739,76.609550
347.675615,370.102971,-7550.100608,536.266849
347.675942,1406.391290,-7105.977043,459.657299
347.676270,1628.453072,-7550.100608,612.876398
347.676597,1628.453072,-7698.141797,995.924147
347.676925,1628.453072,-8068.244768,1225.752797
347.677252,1110.308913,-9104.533087,1838.629195
347.677580,740.205942,-9918.759623,2145.067394
347.677908,0.000000,-10955.047942,2451.505594
347.678235,-814.226536,-11029.068536,2451.505594
347.678563,-1554.432478,-10881.027347,1838.629195
347.678890,-1554.432478,-10510.924376,1302.362347
347.679218,-1554.432478,-9770.718434,229.828649
347.679545,-1406.391290,-9030.512492,229.828649
347.679873,74.020594,-7698.141797,0.000000
347.680201,-148.041188,-7402.059420,-306.438199
347.680528,0.000000,-7254.018232,-153.219100
347.680856,444.123565,-7402.059420,-229.828649
347.681183,222.061783,-7920.203579,0.000000
347.681511,0.000000,-7846.182985,76.609550
347.681838,-370.102971,-9326.594869,459.657299
347.682166,-1406.391290,-9992.780217,612.876398
347.682494,-2294.638420,-10584.944971,459.657299
347.682821,-2812.782580,-10732.986159,0.000000
347.683149,-2960.823768,-10066.800811,-612.876398
347.683476,-2516.700203,-10288.862594,-536.266849
347.683804,-1406.391290,-9326.594869,-919.314598
347.684131,0.000000,-8216.285956,-1149.143247
347.684459,1184.329507,-7698.141797,-766.095498
347.684787,2442.679609,-7254.018232,-306.438199
347.685114,2886.803174,-7254.018232,-383.047749
347.685442,3108.864956,-8068.244768,0.000000
347.685769,2886.803174,-8734.430116,459.657299
347.686097,2368.659014,-9696.697840,1149.143247
347.686424,1406.391290,-10584.944971,1378.971896
347.686752,444.123565,-11399.171507,1838.629195
347.687080,-444.123565,-11621.233289,1532.190996
347.687407,-740.205942,-10955.047942,919.314598
347.687735,-1036.288319,-10436.903782,689.485948
347.688062,0.000000,-9548.656652,306.438199
347.688390,222.061783,-8660.409521,306.438199
347.688717,296.082377,-7698.141797,0.000000
347.689045,1036.288319,-7402.059420,0.000000
347.689373,1036.288319,-6957.935855,0.000000
347.689700,592.164754,-7328.038826,229.828649
347.690028,370.102971,-7402.059420,1149.143247
347.690355,74.020594,-8586.388927,1149.143247
347.690683,-1258.350101,-9400.615463,1225.752797
347.691010,-2220.617826,-10140.821405,1455.581446
347.691338,-3552.988522,-10658.965565,1302.362347
347.691666,-3552.988522,-10510.924376,1455.581446
347.691993,-3330.926739,-9992.780217,153.219100
347.692321,-2516.700203,-9326.594869,383.047749
347.692648,-1332.370696,-8364.327145,536.266849
347.692976,74.020594,-7624.121203,766.095498
347.693303,592.164754,-6661.853478,842.705048
347.693631,1554.432478,-6661.853478,1149.143247
347.693959,1554.432478,-7328.038826,1072.533697
347.694286,1406.391290,-7772.162391,1302.362347
347.694614,1036.288319,-8808.450710,2145.067394
347.694941,666.185348,-9844.739029,2374.896044
347.695269,148.041188,-10955.047942,1991.848295
347.695596,-740.205942,-11325.150913,2451.505594
347.695924,-1850.514855,-11325.150913,1991.848295
347.696252,-2368.659014,-10881.027347,1149.143247
347.696579,-1924.535449,-10436.903782,1149.143247
347.696907,-1258.350101,-9104.533087,536.266849
347.697234,-814.226536,-9030.512492,612.876398
347.697562,0.000000,-7402.059420,0.000000
347.697889,518.144159,-7402.059420,153.219100
347.698217,370.102971,-7328.038826,0.000000
347.698545,666.185348,-7254.018232,536.266849
347.698872,370.102971,-7624.121203,383.047749
347.699200,-444.123565,-8882.471304,612.876398
347.699527,-1480.411884,-9992.780217,459.657299
347.699855,-2146.597232,-10658.965565,842.705048
347.700182,-2664.741391,-11103.089130,536.266849
347.700510,-2590.720797,-10955.047942,229.828649
347.700838,-2220.617826,-10066.800811,-459.657299
347.701165,-1480.411884,-9548.656652,-459.657299
347.701493,0.000000,-8512.368333,-689.485948
347.701820,666.185348,-7846.182985,-689.485948
347.702148,1628.453072,-7254.018232,-536.266849
347.702476,1998.556043,-7105.977043,-306.438199
347.702803,2368.659014,-7772.162391,-153.219100
347.703131,2442.679609,-8290.306550,76.609550
347.703458,2220.617826,-9252.574275,689.485948
347.703786,1332.370696,-9770.718434,842.705048
347.704113,222.061783,-11103.089130,1608.800546
347.704441,-666.185348,-11325.150913,1149.143247
347.704769,-1480.411884,-11399.171507,459.657299
347.705096,-1554.432478,-10584.944971,229.828649
347.705424,-962.267725,-9326.594869,-383.047749
347.705751,-666.185348,-9104.533087,-766.095498
347.706079,74.020594,-8068.244768,-612.876398
347.706406,592.164754,-7402.059420,-612.876398
347.706734,888.247130,-7105.977043,-383.047749
347.707062,1332.370696,-6809.894666,-383.047749
347.707389,1110.308913,-7254.018232,536.266849
347.707717,296.082377,-8068.244768,383.047749
347.708044,-296.082377,-8956.491898,919.314598
347.708372,-1258.350101,-9844.739029,689.485948
347.708699,-2368.659014,-10584.944971,536.266849
347.709027,-2294.638420,-10584.944971,306.438199
347.709355,-2516.700203,-10288.862594,612.876398
347.709682,-1702.473667,-9622.677246,612.876398
347.710010,-740.205942,-8956.491898,612.876398
347.710337,444.123565,-7920.203579,536.266849
347.710665,888.247130,-7624.121203,306.438199
347.710992,1776.494261,-7402.059420,995.924147
347.711320,1406.391290,-7772.162391,1072.533697
347.711648,1332.370696,-7994.224174,1225.752797
347.711975,1184.329507,-8660.409521,1838.629195
347.712303,666.185348,-9474.636058,2451.505594
347.712630,-222.061783,-10214.842000,2451.505594
347.712958,-1332.370696,-10955.047942,2145.067394
347.713285,-2368.659014,-11177.109724,1762.019645
347.713613,-2738.761985,-10955.047942,1302.362347
347.713941,-2516.700203,-10288.862594,536.266849
347.714268,-2294.638420,-9400.615463,459.657299
347.714596,-1258.350101,-8438.347739,76.609550
347.714923,-888.247130,-7772.162391,306.438199
347.715251,-222.061783,-7476.080014,153.219100
347.715578,222.061783,-7550.100608,76.609550
347.715906,296.082377,-7772.162391,383.047749
347.716234,222.061783,-8290.306550,229.828649
347.716561,-296.082377,-9400.615463,766.095498
347.716889,-962.267725,-10436.903782,842.705048
347.717216,-1776.494261,-10881.027347,612.876398
347.717544,-2220.617826,-11029.068536,995.924147
347.717871,-2220.617826,-11325.150913,-153.219100
347.718199,-1776.494261,-10807.006753,0.000000
347.718527,-888.247130,-9918.759623,-306.438199
347.718854,148.041188,-9030.512492,-306.438199
347.719182,1480.411884,-8142.265362,-689.485948
347.719509,1924.535449,-7920.203579,76.609550
347.719837,2368.659014,-7920.203579,0.000000
347.720164,2590.720797,-8216.285956,0.000000
347.720492,2738.761985,-8882.471304,612.876398
347.720820,1924.535449,-9400.615463,995.924147
347.721147,1110.308913,-10140.821405,1225.752797
347.721475,0.000000,-11103.089130,1455.581446
347.721802,-740.205942,-11473.192101,1302.362347
347.722130,-1480.411884,-11029.068536,536.266849
347.722457,-1850.514855,-10658.965565,383.047749
347.722785,-1184.329507,-9474.636058,-306.438199
347.723113,-814.226536,-8882.471304,0.000000
347.723440,-222.061783,-7846.182985,-229.828649
347.723768,444.123565,-7328.038826,-229.828649
347.724095,814.226536,-6809.894666,0.000000
347.724423,962.267725,-6809.894666,-229.828649
347.724750,814.226536,-7105.977043,383.047749
347.725078,296.082377,-8142.265362,842.705048
347.725406,-444.123565,-9178.553681,1149.143247
347.725733,-1480.411884,-9992.780217,1149.143247
347.726061,-2368.659014,-10584.944971,1608.800546
347.726388,-2664.741391,-10881.027347,919.314598
347.726716,-2442.679609,-10214.842000,536.266849
347.727043,-1776.494261,-9252.574275,459.657299
347.727371,-444.123565,-8438.347739,612.876398
347.727699,666.185348,-7550.100608,919.314598
347.728026,1184.329507,-6735.874072,995.924147
347.728354,1628.453072,-7105.977043,842.705048
347.728681,1480.411884,-7402.059420,995.924147
347.729009,1406.391290,-7994.224174,1378.971896
347.729336,962.267725,-8808.450710,1991.848295
347.729664,1036.288319,-9696.697840,2298.286494
347.729992,-370.102971,-9844.739029,2451.505594
347.730319,-1554.432478,-10807.006753,1838.629195
347.730647,-2072.576638,-11029.068536,1762.019645
347.730974,-2146.597232,-10584.944971,1149.143247
347.731302,-2368.659014,-9992.780217,766.095498
347.731630,-1184.329507,-8660.409521,0.000000
347.731957,-962.267725,-8216.285956,0.000000
347.732285,-296.082377,-7624.121203,76.609550
347.732612,222.061783,-7254.018232,76.609550
347.732940,74.020594,-6735.874072,153.219100
347.733267,74.020594,-7402.059420,459.657299
347.733595,0.000000,-8290.306550,229.828649
347.733923,-444.123565,-9326.594869,995.924147
347.734250,-1258.350101,-10066.800811,1072.533697
347.734578,-1702.473667,-10807.006753,995.924147
347.734905,-2664.741391,-10881.027347,689.485948
347.735233,-2442.679609,-11103.089130,229.828649
347.735560,-2146.597232,-10510.924376,0.000000
347.735888,-1110.308913,-9622.677246,-229.828649
347.736216,0.000000,-8808.450710,-459.657299
347.736543,1036.288319,-8364.327145,-766.095498
347.736871,1776.494261,-7920.203579,-383.047749
347.737198,1776.494261,-7920.203579,-153.219100
347.737526,2294.638420,-8142.265362,0.000000
347.737853,2220.617826,-8808.450710,306.438199
347.738181,1776.494261,-9548.656652,536.266849
347.738509,740.205942,-10066.800811,1685.410096
347.738836,0.000000,-11177.109724,1072.533697
347.739164,-814.226536,-11399.171507,919.314598
347.739491,-1628.453072,-11177.109724,153.219100
347.739819,-1998.556043,-10658.965565,153.219100
347.740146,-1480.411884,-9178.553681,0.000000
347.740474,-740.205942,-8882.471304,-612.876398
347.740802,0.000000,-7920.203579,-612.876398
347.741129,814.226536,-7476.080014,-689.485948
347.741457,1258.350101,-7254.018232,-459.657299
347.741784,1406.391290,-6513.812290,-459.657299
347.742112,1258.350101,-7402.059420,0.000000
347.742439,814.226536,-8290.306550,612.876398
347.742767,222.061783,-9326.594869,919.314598
347.743095,-1036.288319,-10066.800811,919.314598
347.743422,-1850.514855,-10510.924376,995.924147
347.743750,-2368.659014,-10584.944971,842.705048
347.744077,-2220.617826,-10140.821405,766.095498
347.744405,-1480.411884,-9252.574275,459.657299
347.744732,0.000000,-8586.388927,766.095498
347.745060,1110.308913,-7846.182985,919.314598
347.745387,1924.535449,-7105.977043,1072.533697
347.745715,1702.473667,-7105.977043,1072.533697
347.746042,1554.432478,-7624.121203,1072.533697
347.746370,1258.350101,-7920.203579,1532.190996
347.746697,888.247130,-8586.388927,2145.067394
347.747025,444.123565,-9104.533087,2221.676944
347.747352,-518.144159,-10140.821405,2451.505594
347.747680,-1554.432478,-10584.944971,2451.505594
347.748007,-2368.659014,-10732.986159,1762.019645
347.748335,-3182.885551,-10436.903782,1378.971896
347.748662,-2738.761985,-9474.636058,1149.143247
347.748990,-2516.700203,-9178.553681,229.828649
347.749317,-1776.494261,-7994.224174,306.438199
347.749645,-814.226536,-7328.038826,153.219100
347.749972,-296.082377,-7328.038826,0.000000
347.750300,296.082377,-7105.977043,689.485948
347.750627,518.144159,-7328.038826,842.705048
347.750955,222.061783,-8142.265362,536.266849
347.751282,-222.061783,-9104.533087,995.924147
347.751610,-1036.288319,-9918.759623,1072.533697
347.751937,-1776.494261,-10732.986159,995.924147
347.752265,-2368.659014,-10807.006753,1302.362347
347.752592,-2368.659014,-10881.027347,306.438199
347.752920,-1850.514855,-10584.944971,0.000000
347.753247,-962.267725,-9696.697840,-153.219100
347.753575,370.102971,-9104.533087,0.000000
347.753902,1184.329507,-7994.224174,-919.314598
347.754230,1998.556043,-8068.244768,0.000000
347.754557,2368.659014,-7994.224174,0.000000
347.754884,2368.659014,-8142.265362,0.000000
347.755212,2146.597232,-8586.388927,153.219100
347.755539,1850.514855,-9474.636058,842.705048
347.755867,814.226536,-10362.883188,1072.533697
347.756194,0.000000,-10955.047942,1149.143247
347.756522,-666.185348,-11399.171507,995.924147
347.756849,-1776.494261,-11399.171507,536.266849
347.757177,-1628.453072,-10510.924376,0.000000
347.757504,-1924.535449,-10288.862594,-995.924147
347.757832,-1110.308913,-9104.533087,-612.876398
347.758159,-444.123565,-8068.244768,-919.314598
347.758487,296.082377,-7476.080014,-842.705048
347.758814,740.205942,-6883.915261,-766.095498
347.759142,1628.453072,-6735.874072,-842.705048
347.759469,1406.391290,-7476.080014,0.000000
347.759797,740.205942,-8142.265362,306.438199
347.760124,74.020594,-9400.615463,766.095498
347.760452,-962.267725,-10140.821405,612.876398
347.760779,-1406.391290,-10732.986159,536.266849
347.761107,-2442.679609,-10881.027347,459.657299
347.761434,-2294.638420,-10584.944971,612.876398
347.761762,-1998.556043,-9696.697840,459.657299
347.762089,-666.185348,-9104.533087,459.657299
347.762417,592.164754,-7846.182985,766.095498
347.762744,1110.308913,-6883.915261,842.705048
347.763072,1924.535449,-6957.935855,612.876398
347.763399,1998.556043,-7179.997637,689.485948
347.763727,1924.535449,-7846.182985,1225.752797
347.764054,1554.432478,-8216.285956,1991.848295
347.764382,1110.308913,-8808.450710,1915.238745
347.764709,-296.082377,-9844.739029,2068.457845
347.765037,-1332.370696,-10658.965565,2451.505594
347.765364,-2072.576638,-10881.027347,1991.848295
347.765692,-2738.761985,-10807.006753,1072.533697
347.766019,-2368.659014,-9844.739029,1532.190996
347.766347,-2072.576638,-8956.491898,919.314598
347.766674,-1332.370696,-8364.327145,612.876398
347.767001,-444.123565,-7920.203579,383.047749
347.767329,0.000000,-7179.997637,459.657299
347.767656,148.041188,-7031.956449,536.266849
347.767984,0.000000,-7402.059420,919.314598
347.768311,-370.102971,-8142.265362,842.705048
347.768639,-666.185348,-8956.491898,1225.752797
347.768966,-962.267725,-9770.718434,995.924147
347.769294,-1850.514855,-10658.965565,1149.143247
347.769621,-2368.659014,-10658.965565,612.876398
347.769949,-2812.782580,-11103.089130,536.266849
347.770276,-2664.741391,-10510.924376,0.000000
347.770604,-1998.556043,-9844.739029,-306.438199
347.770931,-740.205942,-9104.533087,-383.047749
347.771259,0.000000,-8068.244768,0.000000
347.771586,1036.288319,-7698.141797,-536.266849
347.771914,1924.535449,-7846.182985,0.000000
347.772241,2220.617826,-7994.224174,76.609550
347.772569,2368.659014,-8660.409521,383.047749
347.772896,1924.535449,-9400.615463,1072.533697
347.773224,1406.391290,-10362.883188,919.314598
347.773551,296.082377,-11029.068536,1072.533697
347.773879,-444.123565,-11399.171507,1149.143247
347.774206,-1480.411884,-11399.171507,689.485948
347.774534,-1554.432478,-11177.109724,306.438199
347.774861,-1406.391290,-9770.718434,0.000000
347.775189,-814.226536,-9400.615463,-689.485948
347.775516,148.041188,-8586.388927,-842.705048
347.775844,888.247130,-7772.162391,-919.314598
347.776171,1258.350101,-7624.121203,-536.266849
347.776499,1628.453072,-7254.018232,-153.219100
347.776826,1480.411884,-7476.080014,0.000000
347.777154,1036.288319,-8290.306550,76.609550
347.777481,370.102971,-9030.512492,383.047749
347.777809,-888.247130,-10214.842000,842.705048
347.778136,-1406.391290,-10436.903782,1149.143247
347.778463,-2442.679609,-10807.006753,919.314598
347.778791,-2738.761985,-10658.965565,689.485948
347.779118,-2072.576638,-9918.759623,306.438199
347.779446,-888.247130,-8734.430116,229.828649
347.779773,296.082377,-7550.100608,612.876398
347.780101,1480.411884,-7328.038826,766.095498
347.780428,1554.432478,-6957.935855,842.705048
347.780756,1776.494261,-6957.935855,766.095498
347.781083,1776.494261,-7402.059420,1225.752797
347.781411,1332.370696,-8068.244768,1608.800546
347.781738,444.123565,-8956.491898,2221.676944
347.782066,0.000000,-10140.821405,2374.896044
347.782393,-1036.288319,-10732.986159,2374.896044
347.782721,-1776.494261,-10732.986159,2298.286494
347.783048,-2368.659014,-10140.821405,1685.410096
347.783376,-2294.638420,-9400.615463,1072.533697
347.783703,-1776.494261,-8956.491898,1225.752797
347.784031,-1184.329507,-8216.285956,919.314598
347.784358,-666.185348,-7550.100608,842.705048
347.784686,0.000000,-7105.977043,612.876398
347.785013,0.000000,-7031.956449,153.219100
347.785341,0.000000,-7254.018232,766.095498
347.785668,-296.082377,-7920.203579,1149.143247
347.785996,-518.144159,-8734.430116,1149.143247
347.786323,-1110.308913,-9696.697840,1378.971896
347.786651,-1702.473667,-10288.862594,2221.676944
347.786978,-2812.782580,-10658.965565,842.705048
347.787306,-2886.803174,-10881.027347,383.047749
347.787633,-2886.803174,-10658.965565,0.000000
347.787961,-2442.679609,-9918.759623,-383.047749
347.788288,-1110.308913,-9178.553681,-383.047749
347.788616,0.000000,-8290.306550,0.000000
347.788943,1110.308913,-7846.182985,-536.266849
347.789271,1850.514855,-7624.121203,-459.657299
347.789598,2072.576638,-7920.203579,0.000000
347.789925,2294.638420,-8142.265362,689.485948
347.790253,2294.638420,-8882.471304,1149.143247
347.790580,1406.391290,-10140.821405,995.924147
347.790908,740.205942,-11103.089130,995.924147
347.791235,-222.061783,-11399.171507,995.924147
347.791563,-888.247130,-11399.171507,766.095498
347.791890,-1332.370696,-11103.089130,153.219100
347.792218,-962.267725,-10436.903782,0.000000
347.792545,-296.082377,-9400.615463,-229.828649
347.792873,148.041188,-8586.388927,-536.266849
347.793200,814.226536,-7698.141797,-919.314598
347.793528,1776.494261,-6957.935855,-766.095498
347.793855,1406.391290,-7402.059420,-612.876398
347.794183,1406.391290,-7550.100608,-306.438199
347.794510,1036.288319,-8068.244768,306.438199
347.794838,296.082377,-8956.491898,306.438199
347.795165,-518.144159,-9918.759623,689.485948
347.795493,-1776.494261,-10732.986159,1072.533697
347.795820,-2664.741391,-10658.965565,766.095498
347.796148,-3034.844362,-10436.903782,306.438199
347.796475,-2590.720797,-10066.800811,0.000000
347.796803,-1776.494261,-9104.533087,0.000000
347.797130,-518.144159,-7772.162391,153.219100
347.797458,814.226536,-7254.018232,229.828649
347.797785,1776.494261,-6809.894666,229.828649
347.798113,1924.535449,-6883.915261,689.485948
347.798440,1998.556043,-7254.018232,766.095498
347.798768,1702.473667,-7254.018232,1608.800546
347.799095,1036.288319,-8734.430116,1685.410096
347.799423,0.000000,-9844.739029,2068.457845
347.799750,-814.226536,-10807.006753,2374.896044
347.800078,-1480.411884,-11029.068536,2374.896044
347.800405,-1628.453072,-10214.842000,2145.067394
347.800733,-1924.535449,-10288.862594,1455.581446
347.801060,-1110.308913,-9252.574275,1072.533697
347.801388,-592.164754,-8586.388927,1072.533697
347.801715,-444.123565,-7476.080014,766.095498
347.802042,444.123565,-7772.162391,1149.143247
347.802370,740.205942,-6957.935855,842.705048
347.802697,148.041188,-7550.100608,536.266849
347.803025,222.061783,-7772.162391,842.705048
347.803352,-370.102971,-8586.388927,1302.362347
347.803680,-962.267725,-9474.636058,1149.143247
347.804007,-1628.453072,-9918.759623,1455.581446
347.804335,-2812.782580,-10881.027347,1072.533697
347.804662,-3034.844362,-10955.047942,536.266849
347.804990,-3182.885551,-10658.965565,459.657299
347.805317,-2368.659014,-10066.800811,0.000000
347.805645,-1332.370696,-9104.533087,-306.438199
347.805972,0.000000,-8364.327145,-306.438199
347.806300,518.144159,-8068.244768,-459.657299
347.806627,1628.453072,-7920.203579,-153.219100
347.806955,1702.473667,-8068.244768,0.000000
347.807282,2072.576638,-7920.203579,383.047749
347.807610,2072.576638,-9178.553681,919.314598
347.807937,1258.350101,-10214.842000,1149.143247
347.808265,296.082377,-11177.109724,1225.752797
347.808592,-518.144159,-11621.233289,1072.533697
347.808920,-1554.432478,-11399.171507,612.876398
347.809247,-1702.473667,-11029.068536,919.314598
347.809575,-1332.370696,-10807.006753,-536.266849
347.809902,-1554.432478,-9548.656652,-689.485948
347.810230,-518.144159,-8586.388927,-1225.752797
347.810557,222.061783,-8216.285956,-995.924147
347.810885,1258.350101,-7254.018232,-612.876398
347.811212,1554.432478,-7105.977043,-536.266849
347.811540,1554.432478,-7624.121203,-306.438199
347.811867,1258.350101,-7994.224174,0.000000
347.812195,592.164754,-8882.471304,383.047749
347.812522,-296.082377,-9696.697840,842.705048
347.812850,-1258.350101,-10732.986159,306.438199
347.813177,-2072.576638,-10881.027347,536.266849
347.813504,-2368.659014,-10658.965565,229.828649
347.813832,-1702.473667,-10066.800811,0.000000
347.814159,-1036.288319,-9030.512492,0.000000
347.814487,296.082377,-8068.244768,306.438199
347.814814,1110.308913,-7698.141797,0.000000
347.815142,1850.514855,-7105.977043,459.657299
347.815469,1924.535449,-7476.080014,536.266849
347.815797,1850.514855,-7476.080014,919.314598
347.816124,1702.473667,-8364.327145,1532.190996
347.816452,1110.308913,-8882.471304,1838.629195
347.816779,296.082377,-9622.677246,2221.676944
347.817107,-592.164754,-10288.862594,2145.067394
347.817434,-1554.432478,-10510.924376,2221.676944
347.817762,-2072.576638,-10584.944971,1838.629195
347.818089,-2146.597232,-9992.780217,1149.143247
347.818417,-1924.535449,-9178.553681,1072.533697
347.818744,-1554.432478,-8216.285956,766.095498
347.819072,-962.267725,-7476.080014,689.485948
347.819399,-370.102971,-7105.977043,612.876398
347.819727,0.000000,-6957.935855,459.657299
347.820054,74.020594,-7031.956449,919.314598
347.820382,0.000000,-7476.080014,919.314598
347.820709,-222.061783,-8290.306550,1302.362347
347.821037,-962.267725,-9030.512492,1762.019645
347.821364,-1258.350101,-10288.862594,1608.800546
347.821692,-2072.576638,-11029.068536,1378.971896
347.822019,-2812.782580,-10881.027347,1072.533697
347.822347,-2960.823768,-10658.965565,842.705048
347.822674,-2146.597232,-9992.780217,306.438199
347.823002,-518.144159,-9474.636058,459.657299
347.823329,0.000000,-8438.347739,229.828649
347.823657,888.247130,-8216.285956,612.876398
347.823984,1110.308913,-7994.224174,229.828649
347.824312,1776.494261,-8216.285956,229.828649
347.824639,2146.597232,-8660.409521,919.314598
347.824967,1332.370696,-9030.512492,842.705048
347.825294,814.226536,-10066.800811,1149.143247
347.825621,296.082377,-10807.006753,919.314598
347.825949,-814.226536,-11325.150913,1149.143247
347.826276,-1332.370696,-11325.150913,842.705048
347.826604,-1406.391290,-10807.006753,153.219100
347.826931,-1924.535449,-10658.965565,-383.047749
347.827259,-1628.453072,-9622.677246,-995.924147
347.827586,-814.226536,-8808.450710,-1149.143247
347.827914,0.000000,-7846.182985,-1608.800546
347.828241,814.226536,-7698.141797,-919.314598
347.828569,1184.329507,-7698.141797,-1072.533697
347.828896,1406.391290,-7624.121203,-766.095498
347.829224,1406.391290,-8142.265362,76.609550
347.829551,814.226536,-9104.533087,229.828649
347.829879,0.000000,-9918.759623,153.219100
347.830206,-592.164754,-10732.986159,459.657299
347.830534,-1628.453072,-10955.047942,459.657299
347.830861,-1776.494261,-10732.986159,76.609550
347.831189,-1184.329507,-10214.842000,76.609550
347.831516,-148.041188,-9474.636058,-153.219100
347.831844,666.185348,-8512.368333,306.438199
347.832171,1776.494261,-7698.141797,229.828649
347.832499,2146.597232,-7476.080014,536.266849
347.832826,2294.638420,-7328.038826,689.485948
347.833154,2146.597232,-7476.080014,919.314598
347.833481,1776.494261,-7920.203579,995.924147
347.833809,1110.308913,-8956.491898,1608.800546
347.834136,222.061783,-9474.636058,2068.457845
347.834464,-814.226536,-10214.842000,1991.848295
347.834791,-1628.453072,-10362.883188,2221.676944
347.835119,-2368.659014,-9844.739029,1685.410096
347.835446,-2590.720797,-9696.697840,1378.971896
347.835774,-2368.659014,-9030.512492,995.924147
347.836101,-1702.473667,-8216.285956,612.876398
347.836429,-1332.370696,-7476.080014,612.876398
347.836756,-444.123565,-7254.018232,459.657299
347.837083,-444.123565,-6957.935855,689.485948
347.837411,-222.061783,-7179.997637,766.095498
347.837738,-444.123565,-7402.059420,919.314598
347.838066,-518.144159,-7994.224174,919.314598
347.838393,-962.267725,-8882.471304,459.657299
347.838721,-1924.535449,-9548.656652,1378.971896
347.839048,-2368.659014,-10436.903782,1302.362347
347.839376,-2812.782580,-10584.944971,1149.143247
347.839703,-2368.659014,-10510.924376,536.266849
347.840031,-1776.494261,-9918.759623,536.266849
347.840358,-592.164754,-9104.533087,459.657299
347.840686,148.041188,-8438.347739,153.219100
347.841013,1258.350101,-8142.265362,76.609550
347.841341,1702.473667,-7920.203579,153.219100
347.841668,1776.494261,-7920.203579,229.828649
347.841996,2294.638420,-8438.347739,459.657299
347.842323,1628.453072,-9326.594869,842.705048
347.842651,1184.329507,-9918.759623,1149.143247
347.842978,518.144159,-10658.965565,1149.143247
347.843306,-518.144159,-11177.109724,842.705048
347.843633,-962.267725,-11325.150913,536.266849
347.843961,-1924.535449,-11177.109724,229.828649
347.844288,-2072.576638,-10288.862594,-383.047749
347.844616,-1628.453072,-9844.739029,-766.095498
347.844943,-888.247130,-9030.512492,-766.095498
347.845271,0.000000,-8586.388927,-1378.971896
347.845598,74.020594,-7624.121203,-612.876398
347.845926,518.144159,-7698.141797,-612.876398
347.846253,888.247130,-7994.224174,-383.047749
347.846581,1036.288319,-8438.347739,-306.438199
347.846908,296.082377,-9030.512492,229.828649
347.847236,0.000000,-9918.759623,306.438199
347.847563,-1110.308913,-10732.986159,306.438199
347.847891,-1776.494261,-11029.068536,536.266849
347.848219,-2294.638420,-10881.027347,0.000000
347.848546,-1924.535449,-10140.821405,-612.876398
347.848874,-1036.288319,-9474.636058,0.000000
347.849201,74.020594,-8808.450710,-153.219100
347.849529,1184.329507,-8142.265362,0.000000
347.849856,1998.556043,-7402.059420,0.000000
347.850184,2368.659014,-7476.080014,229.828649
347.850511,2368.659014,-7254.018232,1302.362347
347.850839,2146.597232,-8364.327145,1225.752797
347.851167,1628.453072,-9252.574275,1991.848295
347.851494,740.205942,-9918.759623,2298.286494
347.851822,-444.123565,-10584.944971,2374.896044
347.852149,-1480.411884,-10658.965565,2298.286494
347.852477,-1702.473667,-10732.986159,1915.238745
347.852804,-1924.535449,-9770.718434,1378.971896
347.853132,-1998.556043,-9252.574275,1072.533697
347.853460,-1628.453072,-8290.306550,766.095498
347.853787,-962.267725,-7550.100608,689.485948
347.854115,-740.205942,-6957.935855,459.657299
347.854442,-222.061783,-7031.956449,229.828649
347.854770,-222.061783,-7031.956449,383.047749
347.855097,-222.061783,-7550.100608,689.485948
347.855425,-222.061783,-8364.327145,1302.362347
347.855753,-666.185348,-8956.491898,1225.752797
347.856080,-1850.514855,-9548.656652,1378.971896
347.856408,-2442.679609,-10288.862594,1302.362347
347.856735,-3108.864956,-10584.944971,995.924147
347.857063,-2738.761985,-10288.862594,383.047749
347.857390,-1924.535449,-9474.636058,459.657299
347.857718,-1036.288319,-8586.388927,383.047749
347.858046,0.000000,-8142.265362,459.657299
347.858373,1110.308913,-7846.182985,229.828649
347.858701,1702.473667,-7698.141797,383.047749
347.859028,2072.576638,-7476.080014,689.485948
347.859356,2146.597232,-8438.347739,612.876398
347.859683,1776.494261,-9252.574275,995.924147
347.860011,1480.411884,-10066.800811,1302.362347
347.860339,888.247130,-10807.006753,1685.410096
347.860666,0.000000,-11103.089130,1225.752797
347.860994,-370.102971,-11769.274478,459.657299
347.861321,-1554.432478,-11103.089130,76.609550
347.861649,-1850.514855,-11029.068536,-153.219100
347.861976,-1702.473667,-9770.718434,-536.266849
347.862304,-888.247130,-9178.553681,-919.314598
347.862631,0.000000,-8512.368333,-536.266849
347.862959,444.123565,-7772.162391,-995.924147
347.863287,1036.288319,-7624.121203,-612.876398
347.863614,1110.308913,-7698.141797,-383.047749
347.863942,888.247130,-8216.285956,0.000000
347.864269,370.102971,-8586.388927,459.657299
347.864597,-444.123565,-9770.718434,459.657299
347.864924,-1036.288319,-10362.883188,459.657299
347.865252,-1924.535449,-10807.006753,306.438199
347.865580,-2220.617826,-10955.047942,76.609550
347.865907,-2072.576638,-10288.862594,306.438199
347.866235,-888.247130,-9400.615463,0.000000
347.866562,296.082377,-8808.450710,0.000000
347.866890,1554.432478,-8142.265362,0.000000
347.867217,2146.597232,-7624.121203,229.828649
347.867545,2590.720797,-7179.997637,536.266849
347.867873,3034.844362,-7624.121203,766.095498
347.868200,2220.617826,-8290.306550,1378.971896
347.868528,1702.473667,-9030.512492,1915.238745
347.868855,1036.288319,-9696.697840,2145.067394
347.869183,-148.041188,-10362.883188,1991.848295
347.869510,-1258.350101,-10658.965565,2221.676944
347.869838,-1776.494261,-10362.883188,2068.457845
347.870166,-2368.659014,-9844.739029,1378.971896
347.870493,-1850.514855,-9030.512492,1149.143247
347.870821,-1628.453072,-8068.244768,842.705048
347.871148,-1036.288319,-7254.018232,689.485948
347.871476,-962.267725,-7031.956449,536.266849
347.871803,-740.205942,-6809.894666,459.657299
347.872131,-740.205942,-6587.832884,459.657299
347.872459,-370.102971,-7105.977043,842.705048
347.872786,-592.164754,-7550.100608,1149.143247
347.873114,-1332.370696,-8734.430116,1378.971896
347.873441,-1554.432478,-9474.636058,1302.362347
347.873769,-2442.679609,-10066.800811,1455.581446
347.874096,-2738.761985,-10362.883188,919.314598
347.874424,-2664.741391,-10510.924376,1072.533697
347.874752,-2368.659014,-9696.697840,842.705048
347.875079,-1258.350101,-9030.512492,306.438199
347.875407,0.000000,-8438.347739,306.438199
347.875734,888.247130,-7920.203579,383.047749
347.876062,1998.556043,-8142.265362,689.485948
347.876389,2220.617826,-7402.059420,919.314598
347.876717,2072.576638,-8142.265362,919.314598
347.877044,1850.514855,-9030.512492,995.924147
347.877372,1480.411884,-9918.759623,1072.533697
347.877700,518.144159,-10436.903782,1532.190996
347.878027,-518.144159,-10955.047942,1608.800546
347.878355,-888.247130,-11473.192101,1149.143247
347.878682,-1554.432478,-11029.068536,459.657299
347.879010,-2072.576638,-10658.965565,76.609550
347.879337,-1628.453072,-9770.718434,-536.266849
347.879665,-1036.288319,-9178.553681,-536.266849
347.879993,-222.061783,-8438.347739,-995.924147
347.880320,-222.061783,-7846.182985,-1302.362347
347.880648,222.061783,-7698.141797,-1072.533697
347.880975,518.144159,-7772.162391,-689.485948
347.881303,592.164754,-7846.182985,-689.485948
347.881630,148.041188,-8512.368333,76.609550
347.881958,-296.082377,-9622.677246,-153.219100
347.882286,-814.226536,-10510.924376,306.438199
347.882613,-1628.453072,-10955.047942,76.609550
347.882941,-2146.597232,-11029.068536,0.000000
347.883268,-1924.535449,-10510.924376,-612.876398
347.883596,-1406.391290,-9992.780217,-919.314598
347.883923,-592.164754,-9252.574275,-842.705048
347.884251,814.226536,-8142.265362,-612.876398
347.884579,2072.576638,-7994.224174,-383.047749
347.884906,2812.782580,-7476.080014,-766.095498
347.885234,3330.926739,-7624.121203,306.438199
347.885561,2812.782580,-7846.182985,766.095498
347.885889,2368.659014,-9030.512492,1149.143247
347.886216,1702.473667,-9992.780217,1915.238745
347.886544,296.082377,-10658.965565,1762.019645
347.886872,-592.164754,-10658.965565,1915.238745
347.887199,-1332.370696,-10881.027347,1915.238745
347.887527,-1332.370696,-10214.842000,1455.581446
347.887854,-1258.350101,-9696.697840,1149.143247
347.888182,-1332.370696,-8734.430116,1072.533697
347.888509,-518.144159,-7624.121203,842.705048
347.888837,-592.164754,-7328.038826,229.828649
347.889165,-296.082377,-7179.997637,459.657299
347.889492,0.000000,-6883.915261,383.047749
347.889820,-148.041188,-7031.956449,919.314598
347.890147,-666.185348,-7402.059420,1685.410096
347.890475,-518.144159,-8364.327145,1225.752797
347.890802,-2294.638420,-9474.636058,1455.581446
347.891130,-2516.700203,-10140.821405,1455.581446
347.891457,-3552.988522,-10436.903782,1302.362347
347.891785,-3701.029710,-10140.821405,1072.533697
347.892113,-2590.720797,-9844.739029,536.266849
347.892440,-1480.411884,-9030.512492,766.095498
347.892768,-296.082377,-8438.347739,919.314598
347.893095,962.267725,-7846.182985,766.095498
347.893423,1480.411884,-7402.059420,1455.581446
347.893750,1924.535449,-7698.141797,766.095498
347.894078,1628.453072,-7994.224174,995.924147
347.894406,1480.411884,-9030.512492,1225.752797
347.894733,1184.329507,-9474.636058,1608.800546
347.895061,814.226536,-10436.903782,1838.629195
347.895388,148.041188,-10732.986159,2221.676944
347.895716,-962.267725,-11399.171507,1302.362347
347.896043,-1554.432478,-11325.150913,842.705048
347.896371,-1702.473667,-10362.883188,0.000000
347.896699,-2368.659014,-10066.800811,-612.876398
347.897026,-1332.370696,-9178.553681,-536.266849
347.897354,-1036.288319,-8438.347739,-1378.971896
347.897681,-518.144159,-7698.141797,-995.924147
347.898009,370.102971,-7179.997637,-919.314598
347.898336,888.247130,-7624.121203,-536.266849
347.898664,1184.329507,-7698.141797,-536.266849
347.898992,740.205942,-8512.368333,-306.438199
347.899319,0.000000,-9622.677246,153.219100
347.899647,-1110.308913,-10436.903782,76.609550
347.899974,-1628.453072,-11251.130318,229.828649
347.900302,-2294.638420,-11103.089130,-383.047749
347.900629,-1628.453072,-10658.965565,-842.705048
347.900957,-814.226536,-9696.697840,-536.266849
347.901285,370.102971,-8956.491898,-306.438199
347.901612,1628.453072,-8216.285956,-306.438199
347.901940,2516.700203,-7994.224174,-153.219100
347.902267,2812.782580,-7254.018232,-76.609550
347.902595,2664.741391,-7772.162391,459.657299
347.902922,2664.741391,-8364.327145,766.095498
347.903250,1998.556043,-9178.553681,1685.410096
347.903578,1702.473667,-10066.800811,1991.848295
347.903905,444.123565,-10288.862594,1762.019645
347.904233,-740.205942,-10807.006753,2374.896044
347.904560,-1998.556043,-11177.109724,1991.848295
347.904888,-1998.556043,-10362.883188,1302.362347
347.905215,-2146.597232,-9548.656652,766.095498
347.905543,-2368.659014,-8734.430116,1149.143247
347.905870,-1036.288319,-7772.162391,536.266849
347.906198,-888.247130,-7105.977043,229.828649
347.906526,-592.164754,-6809.894666,306.438199
347.906853,0.000000,-6661.853478,459.657299
347.907181,-518.144159,-6809.894666,842.705048
347.907508,-296.082377,-7402.059420,1455.581446
347.907836,-962.267725,-8734.430116,1455.581446
347.908163,-1850.514855,-9622.677246,1149.143247
347.908491,-2442.679609,-10362.883188,1455.581446
347.908819,-2812.782580,-10658.965565,919.314598
347.909146,-3034.844362,-10658.965565,842.705048
347.909474,-2368.659014,-10288.862594,766.095498
347.909801,-1258.350101,-9326.594869,689.485948
347.910129,0.000000,-8734.430116,612.876398
347.910456,1036.288319,-7994.224174,536.266849
347.910784,1776.494261,-7698.141797,-76.609550
347.911112,1850.514855,-7698.141797,306.438199
347.911439,2146.597232,-8290.306550,995.924147
347.911767,2072.576638,-8586.388927,995.924147
347.912094,1702.473667,-9474.636058,1532.190996
347.912422,888.247130,-10362.883188,1991.848295
347.912749,370.102971,-10584.944971,1455.581446
347.913077,-592.164754,-11029.068536,1762.019645
347.913405,-1776.494261,-10955.047942,766.095498
347.913732,-2220.617826,-10807.006753,536.266849
347.914060,-1702.473667,-9326.594869,0.000000
347.914387,-1480.411884,-9622.677246,-536.266849
347.914715,-518.144159,-8586.388927,-689.485948
347.915042,74.020594,-7846.182985,-842.705048
347.915370,222.061783,-7624.121203,-766.095498
347.915698,814.226536,-7846.182985,-612.876398
347.916025,814.226536,-7994.224174,76.609550
347.916353,222.061783,-8660.409521,0.000000
347.916680,-148.041188,-9548.656652,383.047749
347.917008,-962.267725,-10214.842000,153.219100
347.917335,-1924.535449,-11325.150913,153.219100
347.917663,-2220.617826,-11325.150913,-76.609550
347.917991,-1850.514855,-10881.027347,-383.047749
347.918318,-1776.494261,-9992.780217,-536.266849
347.918646,-888.247130,-9326.594869,-612.876398
347.918973,222.061783,-8734.430116,-536.266849
347.919301,1184.329507,-7254.018232,-229.828649
347.919628,2590.720797,-7550.100608,306.438199
347.919956,2960.823768,-7402.059420,536.266849
347.920283,2812.782580,-7920.203579,383.047749
347.920611,2516.700203,-8956.491898,1149.143247
347.920939,1850.514855,-9770.718434,2145.067394
347.921266,962.267725,-10288.862594,1685.410096
347.921594,-222.061783,-10955.047942,2068.457845
347.921921,-1036.288319,-11103.089130,2068.457845
347.922249,-1554.432478,-10584.944971,1225.752797
347.922576,-2220.617826,-9770.718434,1302.362347
347.922904,-814.226536,-8808.450710,766.095498
347.923232,-740.205942,-8068.244768,689.485948
347.923559,-370.102971,-7550.100608,383.047749
347.923887,370.102971,-6883.915261,76.609550
347.924214,148.041188,-6957.935855,383.047749
347.924542,370.102971,-6661.853478,842.705048
347.924869,0.000000,-7328.038826,995.924147
347.925197,-740.205942,-8290.306550,1149.143247
347.925525,-1702.473667,-9178.553681,1608.800546
347.925852,-2368.659014,-9992.780217,1378.971896
347.926180,-3256.906145,-10066.800811,1762.019645
347.926507,-3256.906145,-9992.780217,1072.533697
347.926835,-2738.761985,-9770.718434,842.705048
347.927162,-1850.514855,-9104.533087,612.876398
347.927490,-296.082377,-8660.409521,766.095498
347.927818,296.082377,-7698.141797,766.095498
347.928145,1110.308913,-7254.018232,536.266849
347.928473,1628.453072,-7698.141797,536.266849
347.928800,1406.391290,-7698.141797,919.314598
347.929128,1258.350101,-8512.368333,919.314598
347.929455,1258.350101,-9400.615463,1685.410096
347.929783,814.226536,-10066.800811,2298.286494
347.930111,0.000000,-10807.006753,1838.629195
347.930438,-740.205942,-11251.130318,1762.019645
347.930766,-1776.494261,-11103.089130,1072.533697
347.931093,-2368.659014,-10955.047942,383.047749
347.931421,-1776.494261,-10436.903782,76.609550
347.931748,-1628.453072,-8660.409521,-383.047749
347.932076,-962.267725,-8586.388927,-229.828649
347.932403,0.000000,-7698.141797,-766.095498
347.932731,518.144159,-7254.018232,-689.485948
347.933059,740.205942,-7105.977043,-536.266849
347.933386,962.267725,-7550.100608,0.000000
347.933714,740.205942,-8586.388927,0.000000
347.934041,-148.041188,-9474.636058,0.000000
347.934369,-518.144159,-10362.883188,76.609550
347.934696,-1554.432478,-10881.027347,0.000000
347.935024,-2368.659014,-10881.027347,0.000000
347.935352,-2220.617826,-11103.089130,-383.047749
347.935679,-1628.453072,-10362.883188,-612.876398
347.936007,-740.205942,-9548.656652,-995.924147
347.936334,740.205942,-8586.388927,-919.314598
347.936662,2220.617826,-7624.121203,-612.876398
347.936989,2590.720797,-7772.162391,-383.047749
347.937317,2886.803174,-7994.224174,153.219100
347.937645,2812.782580,-7994.224174,383.047749
347.937972,2368.659014,-8586.388927,1225.752797
347.938300,1702.473667,-9474.636058,1455.581446
347.938627,518.144159,-10362.883188,2374.896044
347.938955,-518.144159,-11251.130318,1685.410096
347.939282,-1554.432478,-10955.047942,1762.019645
347.939610,-1850.514855,-10658.965565,1378.971896
347.939938,-2072.576638,-9918.759623,1072.533697
347.940265,-1184.329507,-8808.450710,536.266849
347.940593,-666.185348,-8142.265362,0.000000
347.940920,-370.102971,-7476.080014,229.828649
347.941248,0.000000,-6957.935855,0.000000
347.941575,74.020594,-6809.894666,229.828649
347.941903,888.247130,-6513.812290,842.705048
347.942231,148.041188,-7328.038826,766.095498
347.942558,-592.164754,-8438.347739,1225.752797
347.942886,-1258.350101,-9400.615463,1302.362347
347.943213,-2146.597232,-10214.842000,1302.362347
347.943541,-2368.659014,-10732.986159,1149.143247
347.943868,-2886.803174,-10510.924376,1072.533697
347.944196,-2590.720797,-10214.842000,919.314598
347.944524,-1480.411884,-9474.636058,842.705048
347.944851,-370.102971,-8438.347739,842.705048
347.945179,370.102971,-7402.059420,1532.190996
347.945506,1258.350101,-7402.059420,536.266849
347.945834,1554.432478,-7402.059420,612.876398
347.946161,1332.370696,-7550.100608,842.705048
347.946489,1628.453072,-8290.306550,919.314598
347.946816,1184.329507,-9030.512492,1225.752797
347.947144,370.102971,-9474.636058,1532.190996
347.947472,-148.041188,-10436.903782,1762.019645
347.947799,-1480.411884,-10881.027347,995.924147
347.948127,-2220.617826,-11029.068536,919.314598
347.948454,-1998.556043,-10584.944971,153.219100
347.948782,-1998.556043,-9844.739029,-919.314598
347.949109,-1332.370696,-9252.574275,-306.438199
347.949437,-518.144159,-8734.430116,-612.876398
347.949764,0.000000,-8216.285956,-612.876398
347.950092,518.144159,-7846.182985,-306.438199
347.950419,1184.329507,-7550.100608,-76.609550
347.950747,1036.288319,-8438.347739,0.000000
347.951074,592.164754,-8586.388927,76.609550
347.951402,370.102971,-9474.636058,459.657299
347.951729,-592.164754,-10214.842000,459.657299
347.952057,-888.247130,-10955.047942,612.876398
347.952384,-1998.556043,-11251.130318,0.000000
347.952712,-1998.556043,-10881.027347,229.828649
347.953040,-1554.432478,-10214.842000,-306.438199
347.953367,-888.247130,-9400.615463,-612.876398
347.953695,222.061783,-8734.430116,-536.266849
347.954022,1332.370696,-7550.100608,-306.438199
347.954350,2072.576638,-7772.162391,0.000000
347.954677,2368.659014,-7920.203579,76.609550
347.955005,2368.659014,-7994.224174,383.047749
347.955332,1998.556043,-8808.450710,919.314598
347.955660,1258.350101,-9474.636058,2145.067394
347.955987,666.185348,-10288.862594,2068.457845
347.956315,-592.164754,-11103.089130,1608.800546
347.956642,-1702.473667,-11103.089130,1378.971896
347.956970,-1850.514855,-10881.027347,1225.752797
347.957297,-1998.556043,-9696.697840,1072.533697
347.957625,-1628.453072,-9104.533087,0.000000
347.957952,-814.226536,-8290.306550,76.609550
347.958280,-370.102971,-7476.080014,-306.438199
347.958607,0.000000,-7105.977043,0.000000
347.958935,148.041188,-7031.956449,-306.438199
347.959262,74.020594,-6735.874072,-153.219100
347.959590,0.000000,-7476.080014,995.924147
347.959917,-222.061783,-8512.368333,995.924147
347.960245,-1406.391290,-9252.574275,1149.143247
347.960572,-1850.514855,-10140.821405,1378.971896
347.960900,-2072.576638,-10955.047942,1685.410096
347.961227,-2590.720797,-10584.944971,995.924147
347.961555,-2368.659014,-10066.800811,842.705048
347.961883,-1258.350101,-9474.636058,689.485948
347.962210,-148.041188,-8364.327145,842.705048
347.962538,962.267725,-7624.121203,689.485948
347.962865,1480.411884,-7105.977043,612.876398
347.963193,1628.453072,-7476.080014,536.266849
347.963520,1776.494261,-7550.100608,612.876398
347.963848,1554.432478,-8142.265362,842.705048
347.964175,1480.411884,-8808.450710,1532.190996
347.964503,1036.288319,-9770.718434,2298.286494
347.964830,-222.061783,-10436.903782,1608.800546
347.965158,-888.247130,-11103.089130,1991.848295
347.965485,-1628.453072,-11029.068536,1072.533697
347.965813,-2516.700203,-10881.027347,842.705048
347.966140,-2294.638420,-9918.759623,153.219100
347.966468,-2072.576638,-9326.594869,76.609550
347.966795,-1184.329507,-8660.409521,0.000000
347.967123,-222.061783,-7994.224174,0.000000
347.967450,148.041188,-7402.059420,0.000000
347.967778,296.082377,-7328.038826,0.000000
347.968105,518.144159,-7698.141797,383.047749
347.968433,296.082377,-8586.388927,689.485948
347.968760,-444.123565,-9104.533087,766.095498
347.969088,-1036.288319,-9992.780217,766.095498
347.969415,-1850.514855,-10732.986159,919.314598
347.969743,-2368.659014,-10807.006753,612.876398
347.970071,-2664.741391,-10881.027347,76.609550
347.970398,-2146.597232,-10584.944971,-229.828649
347.970726,-888.247130,-9770.718434,-306.438199
347.971053,148.041188,-8882.471304,0.000000
347.971381,888.247130,-8068.244768,-76.609550
347.971708,1776.494261,-7772.162391,0.000000
347.972036,2220.617826,-7698.141797,0.000000
347.972363,2294.638420,-7772.162391,459.657299
347.972691,2294.638420,-8660.409521,612.876398
347.973018,1554.432478,-8956.491898,1608.800546
347.973346,962.267725,-10140.821405,1608.800546
347.973673,-148.041188,-10510.924376,1532.190996
347.974001,-1110.308913,-10732.986159,1685.410096
347.974328,-1628.453072,-10732.986159,1072.533697
347.974656,-1332.370696,-10436.903782,1532.190996
347.974983,-1406.391290,-9178.553681,306.438199
347.975311,-740.205942,-8586.388927,0.000000
347.975638,-222.061783,-7920.203579,-229.828649
347.975966,0.000000,-7402.059420,-306.438199
347.976293,296.082377,-7105.977043,-383.047749
347.976621,444.123565,-6957.935855,-229.828649
347.976948,296.082377,-7550.100608,0.000000
347.977276,-370.102971,-8068.244768,383.047749
347.977603,-370.102971,-9400.615463,919.314598
347.977931,-888.247130,-9770.718434,919.314598
347.978258,-2072.576638,-9918.759623,1532.190996
347.978586,-2516.700203,-10732.986159,306.438199
347.978914,-2442.679609,-10881.027347,536.266849
347.979241,-1628.453072,-9548.656652,536.266849
347.979569,-1184.329507,-8808.450710,0.000000
347.979896,444.123565,-8216.285956,306.438199
347.980224,666.185348,-7550.100608,229.828649
347.980551,962.267725,-7550.100608,229.828649
347.980879,2294.638420,-7846.182985,306.438199
347.981206,1924.535449,-7698.141797,306.438199
347.981534,1924.535449,-8438.347739,1991.848295
347.981861,1258.350101,-9548.656652,1225.752797
347.982189,148.041188,-10510.924376,1838.629195
347.982516,-740.205942,-11029.068536,1685.410096
347.982844,-1480.411884,-11029.068536,1915.238745
347.983171,-2368.659014,-10436.903782,766.095498
347.983499,-1998.556043,-10214.842000,459.657299
347.983826,-1480.411884,-9178.553681,153.219100
347.984154,-814.226536,-8808.450710,76.609550
347.984481,0.000000,-8216.285956,0.000000
347.984809,444.123565,-7476.080014,-536.266849
347.985136,296.082377,-7550.100608,0.000000
347.985464,1036.288319,-7402.059420,459.657299
347.985791,148.041188,-8512.368333,383.047749
347.986119,0.000000,-9474.636058,766.095498
347.986446,-888.247130,-10214.842000,612.876398
347.986774,-1850.514855,-10881.027347,306.438199
347.987102,-2886.803174,-11547.212695,153.219100
347.987429,-2960.823768,-10807.006753,-153.219100
347.987757,-2812.782580,-11029.068536,-153.219100
347.988084,-1554.432478,-9770.718434,-612.876398
347.988412,-222.061783,-8882.471304,-383.047749
347.988739,-222.061783,-7402.059420,-383.047749
347.989067,1258.350101,-8068.244768,-383.047749
347.989394,2072.576638,-7772.162391,0.000000
347.989722,2442.679609,-7846.182985,306.438199
347.990049,2516.700203,-7772.162391,919.314598
347.990377,1258.350101,-9104.533087,1378.971896
347.990704,888.247130,-10436.903782,1915.238745
347.991032,0.000000,-11473.192101,1378.971896
347.991359,-740.205942,-11325.150913,1532.190996
347.991687,-444.123565,-11399.171507,1455.581446
347.992014,-1036.288319,-10732.986159,536.266849
347.992342,-1036.288319,-9992.780217,766.095498
347.992669,-222.061783,-8660.409521,153.219100
347.992997,-444.123565,-8216.285956,-229.828649
347.993324,444.123565,-8142.265362,76.609550
347.993652,1036.288319,-7105.977043,-306.438199
347.993979,666.185348,-7254.018232,383.047749
347.994307,0.000000,-7624.121203,0.000000
347.994634,370.102971,-8808.450710,1149.143247
347.994962,-666.185348,-9548.656652,995.924147
347.995289,-1776.494261,-9548.656652,1685.410096
347.995617,-2146.597232,-10732.986159,1685.410096
347.995945,-3478.967927,-10510.924376,459.657299
347.996272,-2886.803174,-9844.739029,919.314598
347.996600,-2516.700203,-10140.821405,306.438199
347.996927,-888.247130,-8660.409521,76.609550
347.997255,0.000000,-8216.285956,-153.219100
347.997582,592.164754,-7476.080014,306.438199
347.997910,1184.329507,-6957.935855,766.095498
347.998237,1480.411884,-7254.018232,766.095498
347.998565,1406.391290,-7698.141797,1149.143247
347.998892,1406.391290,-8364.327145,536.266849
347.999220,740.205942,-9474.636058,1608.800546
347.999547,296.082377,-10288.862594,1991.848295
347.999875,-666.185348,-11103.089130,1685.410096
348.000202,-1480.411884,-10881.027347,1302.362347
348.000530,-1036.288319,-10807.006753,1378.971896
348.000857,-1406.391290,-9844.739029,383.047749
348.001185,-296.082377,-9252.574275,536.266849
348.001512,222.061783,-8512.368333,459.657299
348.001840,518.144159,-7920.203579,612.876398
348.002167,962.267725,-7624.121203,459.657299
348.002495,1110.308913,-7031.956449,229.828649
348.002822,444.123565,-7846.182985,459.657299
348.003150,444.123565,-8216.285956,919.314598
348.003477,0.000000,-9104.533087,995.924147
348.003805,-962.267725,-9326.594869,1225.752797
348.004133,-1776.494261,-10214.842000,919.314598
348.004460,-2738.761985,-10510.924376,536.266849
348.004788,-2812.782580,-10510.924376,0.000000
348.005115,-3108.864956,-9992.780217,-536.266849
348.005443,-2220.617826,-8956.491898,-383.047749
348.005770,-592.164754,-8364.327145,-612.876398
348.006098,222.061783,-7772.162391,-919.314598
348.006425,888.247130,-7328.038826,-612.876398
348.006753,1702.473667,-7402.059420,-306.438199
348.007080,1776.494261,-7920.203579,229.828649
348.007408,1776.494261,-8512.368333,153.219100
348.007735,1628.453072,-9326.594869,1072.533697
348.008063,740.205942,-10362.883188,1302.362347
348.008390,0.000000,-11251.130318,1685.410096
348.008718,-666.185348,-11251.130318,1378.971896
348.009045,-888.247130,-10881.027347,1455.581446
348.009373,-814.226536,-10214.842000,306.438199
348.009700,-1036.288319,-9622.677246,153.219100
348.010028,222.061783,-8808.450710,-153.219100
348.010355,370.102971,-8142.265362,-306.438199
348.010683,1184.329507,-7105.977043,-306.438199
348.011010,1258.350101,-7105.977043,0.000000
348.011338,1036.288319,-7402.059420,0.000000
348.011665,592.164754,-7920.203579,153.219100
348.011993,518.144159,-8586.388927,689.485948
348.012320,-444.123565,-9474.636058,995.924147
348.012648,-1406.391290,-10066.800811,766.095498
348.012976,-2294.638420,-10732.986159,1149.143247
348.013303,-2960.823768,-10732.986159,536.266849
348.013631,-3034.844362,-10214.842000,383.047749
348.013958,-2294.638420,-9400.615463,76.609550
348.014286,-1184.329507,-8438.347739,-229.828649
348.014613,-148.041188,-7550.100608,-306.438199
348.014941,370.102971,-7105.977043,0.000000
348.015268,1184.329507,-7105.977043,0.000000
348.015596,1480.411884,-7179.997637,459.657299
348.015923,1628.453072,-7846.182985,1072.533697
348.016251,1258.350101,-8512.368333,1455.581446
348.016578,592.164754,-9696.697840,1762.019645
348.016906,0.000000,-10658.965565,1762.019645
348.017233,-1036.288319,-11103.089130,1838.629195
348.017561,-1406.391290,-11399.171507,1838.629195
348.017888,-2368.659014,-10955.047942,1378.971896
348.018216,-1850.514855,-10140.821405,1302.362347
348.018543,-1036.288319,-9030.512492,306.438199
348.018871,-592.164754,-8438.347739,383.047749
348.019198,296.082377,-7698.141797,76.609550
348.019526,370.102971,-7105.977043,383.047749
348.019853,814.226536,-7105.977043,0.000000
348.020181,666.185348,-7476.080014,306.438199
348.020508,592.164754,-8364.327145,689.485948
348.020836,74.020594,-9104.533087,919.314598
348.021164,-666.185348,-9992.780217,1302.362347
348.021491,-1554.432478,-10881.027347,1149.143247
348.021819,-2738.761985,-10881.027347,612.876398
348.022146,-2738.761985,-10955.047942,76.609550
348.022474,-2886.803174,-10214.842000,0.000000
348.022801,-1702.473667,-9622.677246,-536.266849
348.023129,-370.102971,-8512.368333,-766.095498
348.023456,444.123565,-7772.162391,-306.438199
348.023784,1406.391290,-7328.038826,-306.438199
348.024111,1776.494261,-7476.080014,76.609550
348.024439,1924.535449,-7772.162391,383.047749
348.024766,1776.494261,-8142.265362,689.485948
348.025094,1332.370696,-9400.615463,1302.362347
348.025421,740.205942,-10584.944971,1378.971896
348.025749,-148.041188,-11251.130318,1608.800546
348.026076,-962.267725,-11695.253884,1608.800546
348.026404,-1554.432478,-11251.130318,1378.971896
348.026731,-1776.494261,-10658.965565,459.657299
348.027059,-1036.288319,-9696.697840,0.000000
348.027386,-740.205942,-9252.574275,0.000000
348.027714,296.082377,-8216.285956,-153.219100
348.028041,888.247130,-7624.121203,0.000000
348.028369,1258.350101,-7031.956449,0.000000
348.028696,1258.350101,-7254.018232,0.000000
348.029024,962.267725,-7772.162391,229.828649
348.029351,370.102971,-8586.388927,612.876398
348.029679,0.000000,-9104.533087,1532.190996
348.030007,-740.205942,-10066.800811,919.314598
348.030334,-2294.638420,-10881.027347,766.095498
348.030662,-2516.700203,-11177.109724,919.314598
348.030989,-2590.720797,-10732.986159,536.266849
348.031317,-2442.679609,-9474.636058,383.047749
348.031644,-888.247130,-8956.491898,-306.438199
348.031972,-222.061783,-8068.244768,0.000000
348.032299,444.123565,-7328.038826,0.000000
348.032627,1406.391290,-7031.956449,0.000000
348.032954,1628.453072,-7105.977043,229.828649
348.033282,1628.453072,-7328.038826,536.266849
348.033609,1850.514855,-8290.306550,919.314598
348.033937,962.267725,-9474.636058,1455.581446
348.034264,148.041188,-10214.842000,1915.238745
348.034592,-814.226536,-11029.068536,1838.629195
348.034919,-1554.432478,-11029.068536,2068.457845
348.035247,-1850.514855,-11177.109724,1532.190996
348.035574,-1702.473667,-9918.759623,842.705048
348.035902,-1184.329507,-9178.553681,689.485948
348.036229,-444.123565,-8068.244768,536.266849
348.036557,0.000000,-7254.018232,842.705048
348.036884,888.247130,-6883.915261,76.609550
348.037212,814.226536,-7179.997637,383.047749
348.037539,518.144159,-7476.080014,612.876398
348.037867,518.144159,-7994.224174,689.485948
348.038194,0.000000,-8808.450710,1072.533697
348.038522,-1110.308913,-9400.615463,1302.362347
348.038850,-1776.494261,-10362.883188,1149.143247
348.039177,-2960.823768,-10732.986159,612.876398
348.039505,-3256.906145,-10881.027347,383.047749
348.039832,-3034.844362,-10362.883188,0.000000
348.040160,-2072.576638,-9178.553681,-306.438199
348.040487,-1036.288319,-8512.368333,-383.047749
348.040815,222.061783,-7550.100608,0.000000
348.041142,1110.308913,-7254.018232,0.000000
348.041470,1554.432478,-7105.977043,0.000000
348.041797,1924.535449,-7698.141797,689.485948
348.042125,1850.514855,-8734.430116,842.705048
348.042452,1258.350101,-9178.553681,995.924147
348.042780,740.205942,-10288.862594,1532.190996
348.043107,0.000000,-11325.150913,1532.190996
348.043435,-962.267725,-11547.212695,2068.457845
348.043762,-1332.370696,-10807.006753,919.314598
348.044090,-1332.370696,-11029.068536,1072.533697
348.044417,-1036.288319,-9992.780217,76.609550
348.044745,-814.226536,-9474.636058,76.609550
348.045072,444.123565,-8512.368333,0.000000
348.045400,518.144159,-7328.038826,0.000000
348.045727,1036.288319,-7328.038826,-383.047749
348.046055,1258.350101,-7772.162391,-383.047749
348.046382,740.205942,-7772.162391,536.266849
348.046710,444.123565,-8512.368333,536.266849
348.047038,0.000000,-8808.450710,1072.533697
348.047365,-1184.329507,-10362.883188,995.924147
348.047693,-1850.514855,-11029.068536,919.314598
348.048020,-2368.659014,-11029.068536,536.266849
348.048348,-2738.761985,-10658.965565,306.438199
348.048675,-2516.700203,-9918.759623,536.266849
348.049003,-1110.308913,-9178.553681,-229.828649
348.049330,-296.082377,-8068.244768,-229.828649
348.049658,962.267725,-7550.100608,0.000000
348.049985,1332.370696,-7105.977043,0.000000
348.050313,1628.453072,-7476.080014,536.266849
348.050641,1998.556043,-7550.100608,842.705048
348.050968,1628.453072,-8364.327145,995.924147
348.051296,1110.308913,-9474.636058,1455.581446
348.051624,222.061783,-10436.903782,1838.629195
348.051951,-1036.288319,-11103.089130,1608.800546
348.052279,-1110.308913,-10881.027347,1608.800546
348.052607,-1850.514855,-10584.944971,1455.581446
348.052934,-1924.535449,-10288.862594,842.705048
348.053262,-1332.370696,-9474.636058,229.828649
348.053589,-370.102971,-8438.347739,153.219100
348.053917,222.061783,-7402.059420,689.485948
348.054245,592.164754,-7179.997637,306.438199
348.054572,592.164754,-7254.018232,383.047749
348.054900,814.226536,-7476.080014,229.828649
348.055228,962.267725,-7846.182985,995.924147
348.055555,444.123565,-8586.388927,995.924147
348.055883,-592.164754,-9622.677246,995.924147
348.056211,-1702.473667,-10510.924376,1225.752797
348.056538,-2442.679609,-10732.986159,1225.752797
348.056866,-3108.864956,-10807.006753,306.438199
348.057193,-2516.700203,-9918.759623,0.000000
348.057521,-1776.494261,-9844.739029,0.000000
348.057849,-1036.288319,-8660.409521,0.000000
348.058176,518.144159,-7846.182985,0.000000
348.058504,1258.350101,-7031.956449,153.219100
348.058832,1702.473667,-7105.977043,153.219100
348.059159,1998.556043,-7550.100608,306.438199
348.059487,1628.453072,-8142.265362,536.266849
348.059815,1332.370696,-8956.491898,1455.581446
348.060142,814.226536,-9844.739029,1762.019645
348.060470,0.000000,-11177.109724,1915.238745
348.060797,-814.226536,-11177.109724,1915.238745
348.061125,-1998.556043,-11029.068536,1302.362347
348.061453,-1850.514855,-10955.047942,995.924147
348.061780,-1406.391290,-9918.759623,229.828649
348.062108,-1036.288319,-9474.636058,76.609550
348.062436,0.000000,-8216.285956,153.219100
348.062763,592.164754,-7624.121203,-459.657299
348.063091,666.185348,-7402.059420,-306.438199
348.063419,666.185348,-7476.080014,0.000000
348.063746,518.144159,-8068.244768,76.609550
348.064074,592.164754,-8290.306550,459.657299
348.064401,-592.164754,-8734.430116,1072.533697
348.064729,-1110.308913,-9844.739029,689.485948
348.065057,-1924.535449,-10658.965565,612.876398
348.065384,-2368.659014,-10807.006753,459.657299
348.065712,-2516.700203,-10510.924376,0.000000
348.066040,-1924.535449,-9770.718434,0.000000
348.066367,-1480.411884,-9030.512492,-229.828649
348.066695,-148.041188,-8512.368333,-459.657299
348.067023,666.185348,-7624.121203,-689.485948
348.067350,1702.473667,-7328.038826,-612.876398
348.067678,1850.514855,-7179.997637,0.000000
348.068005,2146.597232,-7624.121203,76.609550
348.068333,2146.597232,-8438.347739,842.705048
348.068661,1850.514855,-9252.574275,1225.752797
348.068988,666.185348,-9992.780217,842.705048
348.069316,74.020594,-11325.150913,766.095498
348.069644,-740.205942,-11251.130318,1302.362347
348.069971,-1776.494261,-11103.089130,919.314598
348.070299,-1332.370696,-10584.944971,612.876398
348.070627,-962.267725,-9400.615463,153.219100
348.070954,0.000000,-8586.388927,306.438199
348.071282,444.123565,-7698.141797,0.000000
348.071609,740.205942,-7550.100608,229.828649
348.071937,962.267725,-6809.894666,76.609550
348.072265,962.267725,-7476.080014,459.657299
348.072592,666.185348,-7698.141797,689.485948
348.072920,444.123565,-8142.265362,1762.019645
348.073248,-962.267725,-9696.697840,995.924147
348.073575,-1258.350101,-10658.965565,1455.581446
348.073903,-2738.761985,-10658.965565,1149.143247
348.074231,-2886.803174,-10807.006753,1072.533697
348.074558,-2442.679609,-10214.842000,459.657299
348.074886,-2368.659014,-9696.697840,459.657299
348.075213,-1406.391290,-8586.388927,0.000000
348.075541,444.123565,-7772.162391,153.219100
348.075869,1554.432478,-7476.080014,0.000000
348.076196,1850.514855,-7624.121203,612.876398
348.076524,2220.617826,-7550.100608,459.657299
348.076852,1332.370696,-7994.224174,1225.752797
348.077179,222.061783,-8956.491898,1225.752797
348.077507,0.000000,-10362.883188,1915.238745
348.077834,-296.082377,-11177.109724,2068.457845
348.078162,-1258.350101,-11251.130318,1762.019645
348.078490,-1258.350101,-11473.192101,1532.190996
348.078817,-2072.576638,-11103.089130,1455.581446
348.079145,-1998.556043,-9918.759623,766.095498
348.079473,-1332.370696,-9104.533087,612.876398
348.079800,-370.102971,-8068.244768,536.266849
348.080128,518.144159,-8438.347739,153.219100
348.080456,518.144159,-7254.018232,76.609550
348.080783,592.164754,-7624.121203,153.219100
348.081111,518.144159,-7624.121203,383.047749
348.081438,148.041188,-8068.244768,1225.752797
348.081766,0.000000,-9548.656652,459.657299
348.082094,-1184.329507,-9918.759623,1149.143247
348.082421,-1850.514855,-11103.089130,842.705048
348.082749,-2146.597232,-11029.068536,689.485948
348.083077,-2294.638420,-10362.883188,306.438199
348.083404,-2220.617826,-10140.821405,-306.438199
348.083732,-592.164754,-9622.677246,0.000000
348.084060,-370.102971,-8068.244768,-459.657299
348.084387,888.247130,-7254.018232,-536.266849
348.084715,1776.494261,-7550.100608,-306.438199
348.085042,2442.679609,-6957.935855,-306.438199
348.085370,2368.659014,-7846.182985,229.828649
348.085698,2368.659014,-8216.285956,459.657299
348.086025,1628.453072,-9548.656652,1302.362347
348.086353,962.267725,-10214.842000,1685.410096
348.086681,0.000000,-10955.047942,1915.238745
348.087008,-888.247130,-10955.047942,1378.971896
348.087336,-1480.411884,-11251.130318,1225.752797
348.087664,-962.267725,-10510.924376,612.876398
348.087991,-740.205942,-9696.697840,229.828649
348.088319,222.061783,-8512.368333,383.047749
348.088646,740.205942,-7994.224174,0.000000
348.088974,592.164754,-7476.080014,0.000000
348.089302,814.226536,-7105.977043,0.000000
348.089629,740.205942,-7402.059420,0.000000
348.089957,814.226536,-7624.121203,842.705048
348.090285,0.000000,-8512.368333,1378.971896
348.090612,-1036.288319,-9326.594869,1072.533697
348.090940,-2368.659014,-9770.718434,1072.533697
348.091268,-2516.700203,-10362.883188,842.705048
348.091595,-3627.009116,-10362.883188,459.657299
348.091923,-3108.864956,-9770.718434,459.657299
348.092250,-2590.720797,-9474.636058,0.000000
348.092578,-1480.411884,-8364.327145,-383.047749
348.092906,0.000000,-7476.080014,0.000000
348.093233,962.267725,-6957.935855,229.828649
348.093561,1776.494261,-7105.977043,612.876398
348.093889,1924.535449,-7179.997637,842.705048
348.094216,1776.494261,-8216.285956,842.705048
348.094544,1332.370696,-9030.512492,1608.800546
348.094872,592.164754,-9992.780217,1532.190996
348.095199,0.000000,-11029.068536,1838.629195
348.095527,-592.164754,-11473.192101,1915.238745
348.095854,-1480.411884,-11399.171507,1685.410096
348.096182,-1480.411884,-11029.068536,1149.143247
348.096510,-1332.370696,-10066.800811,306.438199
348.096837,-962.267725,-9252.574275,383.047749
348.097165,0.000000,-8290.306550,306.438199
348.097493,222.061783,-7772.162391,229.828649
348.097820,444.123565,-7698.141797,0.000000
348.098148,814.226536,-7402.059420,-153.219100
348.098476,370.102971,-7846.182985,153.219100
348.098803,888.247130,-8586.388927,612.876398
348.099131,-296.082377,-9104.533087,919.314598
348.099458,-962.267725,-10140.821405,1072.533697
348.099786,-1628.453072,-10510.924376,919.314598
348.100114,-2516.700203,-10807.006753,689.485948
348.100441,-2664.741391,-10658.965565,153.219100
348.100769,-2590.720797,-9696.697840,-459.657299
348.101097,-1850.514855,-9326.594869,-766.095498
348.101424,-592.164754,-8438.347739,-612.876398
348.101752,444.123565,-7846.182985,-536.266849
348.102080,1480.411884,-7402.059420,-459.657299
348.102407,1850.514855,-6883.915261,153.219100
348.102735,2220.617826,-7772.162391,229.828649
348.103062,1998.556043,-8438.347739,536.266849
348.103390,1702.473667,-9474.636058,1072.533697
348.103718,740.205942,-10584.944971,1378.971896
348.104045,0.000000,-11177.109724,1302.362347
348.104373,-1110.308913,-11473.192101,1455.581446
348.104701,-1332.370696,-11177.109724,842.705048
348.105028,-1480.411884,-10436.903782,766.095498
348.105356,-444.123565,-9474.636058,383.047749
348.105684,148.041188,-9030.512492,459.657299
348.106011,296.082377,-7550.100608,0.000000
348.106339,1110.308913,-7476.080014,0.000000
348.106666,888.247130,-6883.915261,0.000000
348.106994,1036.288319,-7254.018232,76.609550
348.107322,740.205942,-7550.100608,842.705048
348.107649,74.020594,-8586.388927,842.705048
348.107977,-592.164754,-9252.574275,1378.971896
348.108305,-1480.411884,-10066.800811,1608.800546
348.108632,-2590.720797,-10584.944971,1072.533697
348.108960,-3256.906145,-10584.944971,383.047749
348.109288,-2960.823768,-9770.718434,383.047749
348.109615,-2368.659014,-9326.594869,0.000000
348.109943,-1258.350101,-8290.306550,153.219100
348.110270,0.000000,-7550.100608,0.000000
348.110598,1184.329507,-6883.915261,536.266849
348.110926,1998.556043,-6661.853478,766.095498
348.111253,1776.494261,-7105.977043,766.095498
348.111581,1480.411884,-7920.203579,1149.143247
348.111909,962.267725,-8956.491898,1455.581446
348.112236,370.102971,-9992.780217,1915.238745
348.112564,296.082377,-10955.047942,2145.067394
348.112892,-814.226536,-11399.171507,1991.848295
348.113219,-1554.432478,-11621.233289,1838.629195
348.113547,-1850.514855,-11177.109724,1378.971896
348.113874,-2294.638420,-10214.842000,689.485948
348.114202,-1184.329507,-9178.553681,0.000000
348.114530,-814.226536,-8290.306550,536.266849
348.114857,-296.082377,-7698.141797,76.609550
348.115185,370.102971,-7698.141797,0.000000
348.115513,592.164754,-7476.080014,0.000000
348.115840,444.123565,-7550.100608,0.000000
348.116168,444.123565,-8290.306550,229.828649
348.116496,-222.061783,-9252.574275,995.924147
348.116823,-888.247130,-9918.759623,995.924147
348.117151,-1850.514855,-10807.006753,919.314598
348.117478,-2368.659014,-11103.089130,689.485948
348.117806,-2590.720797,-10436.903782,383.047749
348.118134,-2590.720797,-10362.883188,-306.438199
348.118461,-1628.453072,-9548.656652,-536.266849
348.118789,-296.082377,-8734.430116,-766.095498
348.119117,666.185348,-7772.162391,-1072.533697
348.119444,1628.453072,-7105.977043,-612.876398
348.119772,2590.720797,-7328.038826,-383.047749
348.120100,2590.720797,-7846.182985,0.000000
348.120427,2442.679609,-8512.368333,306.438199
348.120755,1924.535449,-9474.636058,612.876398
348.121082,1184.329507,-10140.821405,1378.971896
348.121410,666.185348,-11399.171507,1532.190996
348.121738,-740.205942,-11843.295072,1302.362347
348.122065,-1184.329507,-11695.253884,1149.143247
348.122393,-1406.391290,-10807.006753,766.095498
348.122721,-1036.288319,-9696.697840,76.609550
348.123048,-296.082377,-8734.430116,0.000000
348.123376,0.000000,-7994.224174,0.000000
348.123704,518.144159,-7254.018232,-153.219100
348.124031,1258.350101,-6957.935855,-229.828649
348.124359,814.226536,-7105.977043,153.219100
348.124686,888.247130,-7254.018232,459.657299
348.125014,296.082377,-8438.347739,919.314598
348.125342,-740.205942,-9252.574275,1149.143247
348.125669,-1702.473667,-10066.800811,1302.362347
348.125997,-2664.741391,-10732.986159,1225.752797
348.126325,-3478.967927,-10584.944971,995.924147
348.126652,-3182.885551,-10066.800811,306.438199
348.126980,-2516.700203,-9474.636058,383.047749
348.127308,-1258.350101,-8586.388927,0.000000
348.127635,0.000000,-7698.141797,383.047749
348.127963,1036.288319,-6735.874072,766.095498
348.128290,1776.494261,-6883.915261,536.266849
348.128618,1776.494261,-7031.956449,995.924147
348.128946,1628.453072,-7772.162391,1378.971896
348.129273,1332.370696,-8734.430116,1915.238745
348.129601,370.102971,-9326.594869,2374.896044
348.129929,0.000000,-10362.883188,2451.505594
348.130256,-1036.288319,-11029.068536,2451.505594
348.130584,-1924.535449,-11029.068536,2068.457845
348.130912,-1924.535449,-10807.006753,1762.019645
348.131239,-1924.535449,-9992.780217,1072.533697
348.131567,-1332.370696,-8956.491898,1072.533697
348.131894,-666.185348,-7994.224174,153.219100
348.132222,-222.061783,-7402.059420,153.219100
348.132550,74.020594,-7031.956449,76.609550
348.132877,370.102971,-7031.956449,0.000000
348.133205,444.123565,-7179.997637,459.657299
348.133533,0.000000,-7994.224174,459.657299
348.133860,0.000000,-9474.636058,612.876398
348.134188,-888.247130,-10066.800811,612.876398
348.134516,-1850.514855,-10732.986159,612.876398
348.134843,-2442.679609,-10881.027347,612.876398
348.135171,-2738.761985,-10658.965565,0.000000
348.135498,-2590.720797,-10658.965565,-383.047749
348.135826,-1702.473667,-9918.759623,-919.314598
348.136154,-370.102971,-8808.450710,-1225.752797
348.136481,888.247130,-8216.285956,-1225.752797
348.136809,1924.535449,-7476.080014,-995.924147
348.137137,2294.638420,-7476.080014,-995.924147
348.137464,2590.720797,-7994.224174,-229.828649
348.137792,2590.720797,-8290.306550,0.000000
348.138120,2220.617826,-9326.594869,612.876398
348.138447,1406.391290,-10436.903782,1532.190996
348.138775,666.185348,-11473.192101,1378.971896
348.139102,-296.082377,-11769.274478,1149.143247
348.139430,-888.247130,-11547.212695,1225.752797
348.139758,-1480.411884,-10955.047942,306.438199
348.140085,-888.247130,-10288.862594,536.266849
348.140413,-444.123565,-8438.347739,0.000000
348.140741,370.102971,-8290.306550,0.000000
348.141068,888.247130,-7254.018232,0.000000
348.141396,1332.370696,-7105.977043,76.609550
348.141724,888.247130,-7105.977043,229.828649
348.142051,962.267725,-7624.121203,306.438199
348.142379,444.123565,-8364.327145,1225.752797
348.142706,-518.144159,-9252.574275,995.924147
348.143034,-1332.370696,-9992.780217,1302.362347
348.143362,-2738.761985,-10436.903782,1608.800546
348.143689,-2960.823768,-10732.986159,1991.848295
348.144017,-3404.947333,-10066.800811,995.924147
348.144345,-2886.803174,-9474.636058,612.876398
348.144672,-1554.432478,-8586.388927,306.438199
348.145000,-370.102971,-7698.141797,536.266849
348.145328,592.164754,-6883.915261,612.876398
348.145655,1258.350101,-6957.935855,612.876398
348.145983,1480.411884,-7105.977043,919.314598
348.146310,1406.391290,-7846.182985,1225.752797
348.146638,1184.329507,-8586.388927,1532.190996
348.146966,370.102971,-9030.512492,2221.676944
348.147293,0.000000,-10288.862594,2451.505594
348.147621,-1258.350101,-10955.047942,2298.286494
348.147949,-1998.556043,-11325.150913,1915.238745
348.148276,-2146.597232,-10732.986159,1149.143247
348.148604,-2146.597232,-9770.718434,919.314598
348.148931,-1332.370696,-9104.533087,229.828649
348.149259,-740.205942,-8586.388927,0.000000
348.149587,0.000000,-7624.121203,-153.219100
348.149914,518.144159,-7476.080014,0.000000
348.150242,888.247130,-7105.977043,0.000000
348.150569,592.164754,-7624.121203,-383.047749
348.150897,740.205942,-8438.347739,76.609550
348.151225,0.000000,-9252.574275,689.485948
348.151552,-740.205942,-10066.800811,536.266849
348.151880,-1480.411884,-10658.965565,536.266849
348.152207,-1850.514855,-10955.047942,0.000000
348.152535,-2072.576638,-11251.130318,229.828649
348.152862,-1924.535449,-10436.903782,-306.438199
348.153190,-1036.288319,-9622.677246,-306.438199
348.153518,-74.020594,-8734.430116,-689.485948
348.153845,814.226536,-7920.203579,-536.266849
348.154173,1406.391290,-7402.059420,-536.266849
348.154500,1998.556043,-7550.100608,-383.047749
348.154828,2072.576638,-8142.265362,-306.438199
348.155156,2146.597232,-8734.430116,0.000000
348.155483,1702.473667,-9400.615463,919.314598
348.155811,888.247130,-10140.821405,1072.533697
348.156138,0.000000,-10955.047942,1455.581446
348.156466,-1184.329507,-11473.192101,1225.752797
348.156794,-1702.473667,-11621.233289,995.924147
348.157121,-1850.514855,-10955.047942,229.828649
348.157449,-1480.411884,-9770.718434,459.657299
348.157776,-1110.308913,-9104.533087,-383.047749
348.158104,-148.041188,-8364.327145,-383.047749
348.158432,518.144159,-7550.100608,-383.047749
348.158759,962.267725,-6883.915261,-229.828649
348.159087,1406.391290,-6661.853478,229.828649
348.159414,1184.329507,-7254.018232,459.657299
348.159742,666.185348,-8142.265362,995.924147
348.160070,-296.082377,-8882.471304,766.095498
348.160397,-1258.350101,-10140.821405,1225.752797
348.160725,-1998.556043,-10510.924376,1149.143247
348.161052,-2368.659014,-10732.986159,919.314598
348.161380,-2442.679609,-10140.821405,612.876398
348.161707,-1628.453072,-9474.636058,689.485948
348.162035,-370.102971,-8808.450710,689.485948
348.162363,444.123565,-7698.141797,919.314598
348.162690,1998.556043,-7698.141797,919.314598
348.163018,1702.473667,-7254.018232,919.314598
348.163345,1628.453072,-7328.038826,1072.533697
348.163673,1480.411884,-7994.224174,1225.752797
348.164001,1036.288319,-8734.430116,1838.629195
348.164328,666.185348,-9400.615463,2451.505594
348.164656,-296.082377,-10066.800811,2374.896044
348.164983,-1110.308913,-10881.027347,2604.724693
348.165311,-2442.679609,-10807.006753,1838.629195
348.165639,-2812.782580,-10955.047942,1532.190996
348.165966,-2812.782580,-9622.677246,766.095498
348.166294,-2590.720797,-8956.491898,612.876398
348.166621,-1702.473667,-8142.265362,229.828649
348.166949,-518.144159,-7698.141797,0.000000
348.167277,0.000000,-7254.018232,0.000000
348.167604,148.041188,-6587.832884,153.219100
348.167932,296.082377,-7105.977043,306.438199
348.168259,296.082377,-7994.224174,536.266849
348.168587,0.000000,-8734.430116,612.876398
348.168915,-592.164754,-9844.739029,842.705048
348.169242,-1258.350101,-10288.862594,1072.533697
348.169570,-1184.329507,-11399.171507,766.095498
348.169897,-2072.576638,-11029.068536,459.657299
348.170225,-1776.494261,-10732.986159,153.219100
348.170552,-1036.288319,-9770.718434,-306.438199
348.170880,0.000000,-8660.409521,-536.266849
348.171208,1110.308913,-7994.224174,-766.095498
348.171535,1702.473667,-7772.162391,-306.438199
348.171863,2072.576638,-7698.141797,-536.266849
348.172190,2294.638420,-7846.182985,-229.828649
348.172518,2146.597232,-8290.306550,153.219100
348.172846,1998.556043,-9030.512492,919.314598
348.173173,1332.370696,-9844.739029,995.924147
348.173501,0.000000,-10955.047942,995.924147
348.173828,-888.247130,-11251.130318,919.314598
348.174156,-1924.535449,-11325.150913,766.095498
348.174484,-1998.556043,-10658.965565,306.438199
348.174811,-2146.597232,-9844.739029,153.219100
348.175139,-1258.350101,-8882.471304,-536.266849
348.175466,-666.185348,-8216.285956,-919.314598
348.175794,148.041188,-7476.080014,-383.047749
348.176122,666.185348,-6957.935855,-689.485948
348.176449,1258.350101,-6883.915261,-459.657299
348.176777,1110.308913,-7254.018232,-153.219100
348.177104,370.102971,-8290.306550,536.266849
348.177432,148.041188,-9178.553681,919.314598
348.177759,-1036.288319,-9844.739029,1072.533697
348.178087,-1554.432478,-10881.027347,842.705048
348.178415,-2516.700203,-10955.047942,1072.533697
348.178742,-2442.679609,-10807.006753,842.705048
348.179070,-1850.514855,-9844.739029,689.485948
348.179397,-592.164754,-8956.491898,689.485948
348.179725,370.102971,-8068.244768,842.705048
348.180053,1332.370696,-7550.100608,842.705048
348.180380,1924.535449,-7254.018232,1149.143247
348.180708,1924.535449,-7328.038826,1072.533697
348.181035,1628.453072,-7994.224174,1455.581446
348.181363,1554.432478,-8586.388927,1915.238745
348.181691,592.164754,-9474.636058,2451.505594
348.182018,-222.061783,-10066.800811,2604.724693
348.182346,-888.247130,-10658.965565,2221.676944
348.182673,-2294.638420,-11177.109724,2298.286494
348.183001,-2516.700203,-10658.965565,1685.410096
348.183329,-2886.803174,-10066.800811,1378.971896
348.183656,-2442.679609,-9252.574275,459.657299
348.183984,-1850.514855,-8586.388927,76.609550
348.184311,-1110.308913,-7846.182985,153.219100
348.184639,-370.102971,-7105.977043,0.000000
348.184967,74.020594,-6883.915261,306.438199
348.185294,296.082377,-7031.956449,229.828649
348.185622,370.102971,-7846.182985,459.657299
348.185949,74.020594,-8660.409521,612.876398
348.186277,-740.205942,-9696.697840,995.924147
348.186604,-1332.370696,-10436.903782,1378.971896
348.186932,-1850.514855,-11251.130318,153.219100
348.187260,-2220.617826,-11103.089130,306.438199
348.187587,-2146.597232,-10881.027347,0.000000
348.187915,-1258.350101,-10140.821405,-306.438199
348.188242,0.000000,-9252.574275,-383.047749
348.188570,962.267725,-8438.347739,-1762.019645
348.188898,1480.411884,-7920.203579,-842.705048
348.189225,2220.617826,-7846.182985,-689.485948
348.189553,2220.617826,-8216.285956,-536.266849
348.189880,2072.576638,-8660.409521,0.000000
348.190208,2368.659014,-9104.533087,689.485948
348.190536,1184.329507,-9992.780217,612.876398
348.190863,74.020594,-10732.986159,1072.533697
348.191191,-444.123565,-11251.130318,919.314598
348.191518,-1628.453072,-11399.171507,689.485948
348.191846,-1628.453072,-10658.965565,383.047749
348.192174,-1924.535449,-10214.842000,0.000000
348.192501,-1628.453072,-9326.594869,-766.095498
348.192829,-1258.350101,-8512.368333,-766.095498
348.193156,74.020594,-7698.141797,-995.924147
348.193484,222.061783,-6439.791695,-383.047749
348.193812,1332.370696,-6809.894666,-689.485948
348.194139,1406.391290,-7105.977043,0.000000
348.194467,1110.308913,-7772.162391,229.828649
348.194794,370.102971,-8808.450710,766.095498
348.195122,-740.205942,-9696.697840,1685.410096
348.195449,-1406.391290,-10658.965565,1378.971896
348.195777,-2220.617826,-11103.089130,919.314598
348.196105,-2368.659014,-10807.006753,995.924147
348.196432,-1554.432478,-10066.800811,842.705048
348.196760,-518.144159,-9474.636058,919.314598
348.197087,814.226536,-8364.327145,383.047749
348.197415,1258.350101,-7254.018232,995.924147
348.197743,1924.535449,-7179.997637,1072.533697
348.198070,1850.514855,-7476.080014,1225.752797
348.198398,1480.411884,-7920.203579,1378.971896
348.198725,888.247130,-8364.327145,1915.238745
348.199053,592.164754,-9178.553681,2451.505594
348.199381,-222.061783,-10066.800811,2528.115143
348.199708,-1406.391290,-10584.944971,2374.896044
348.200036,-2590.720797,-10807.006753,2374.896044
348.200363,-2516.700203,-10584.944971,1685.410096
348.200691,-3330.926739,-9844.739029,1532.190996
348.201019,-2516.700203,-9030.512492,536.266849
348.201346,-1776.494261,-8290.306550,383.047749
348.201674,-1036.288319,-7698.141797,459.657299
348.202001,-222.061783,-6957.935855,76.609550
348.202329,148.041188,-6809.894666,459.657299
348.202657,370.102971,-6957.935855,536.266849
348.202984,0.000000,-7698.141797,612.876398
348.203312,0.000000,-8512.368333,919.314598
348.203639,-592.164754,-9696.697840,1072.533697
348.203967,-1258.350101,-10436.903782,1378.971896
348.204294,-1776.494261,-11251.130318,1225.752797
348.204622,-2220.617826,-11251.130318,536.266849
348.204950,-1850.514855,-10807.006753,76.609550
348.205277,-1036.288319,-9918.759623,-229.828649
348.205605,-370.102971,-9178.553681,0.000000
348.205932,666.185348,-7846.182985,-689.485948
348.206260,1406.391290,-7920.203579,-689.485948
348.206588,1850.514855,-7846.182985,-842.705048
348.206915,1924.535449,-7846.182985,-536.266849
348.207243,2220.617826,-8438.347739,0.000000
348.207570,1850.514855,-8956.491898,919.314598
348.207898,1184.329507,-9696.697840,766.095498
348.208226,370.102971,-10658.965565,919.314598
348.208553,-592.164754,-11103.089130,1302.362347
348.208881,-1554.432478,-10955.047942,459.657299
348.209208,-1554.432478,-10881.027347,0.000000
348.209536,-2072.576638,-10066.800811,-842.705048
348.209864,-1406.391290,-9178.553681,-766.095498
348.210191,-814.226536,-8438.347739,-995.924147
348.210519,370.102971,-7328.038826,-1072.533697
348.210846,1406.391290,-7031.956449,-383.047749
348.211174,1480.411884,-7031.956449,-229.828649
348.211502,1702.473667,-7031.956449,0.000000
