#time,accel_x,accel_y,accel_z
517.043122,0.000000,-8882.471304,536.266849
517.043450,-296.082377,-9030.512492,612.876398
517.043778,-370.102971,-9178.553681,536.266849
517.044106,-222.061783,-9178.553681,383.047749
517.044434,-296.082377,-9178.553681,842.705048
517.044761,-296.082377,-8734.430116,766.095498
517.045089,-444.123565,-9252.574275,689.485948
517.045417,-296.082377,-9178.553681,536.266849
517.045745,0.000000,-9104.533087,766.095498
517.046073,-222.061783,-8956.491898,689.485948
517.046400,-148.041188,-8882.471304,766.095498
517.046728,-296.082377,-9030.512492,459.657299
517.047056,-296.082377,-9252.574275,536.266849
517.047384,-370.102971,-9178.553681,612.876398
517.047712,-296.082377,-9178.553681,459.657299
517.048040,0.000000,-9030.512492,306.438199
517.048367,-222.061783,-8882.471304,536.266849
517.048695,-370.102971,-8956.491898,612.876398
517.049023,-444.123565,-8956.491898,383.047749
517.049351,-370.102971,-9326.594869,612.876398
517.049679,-296.082377,-9326.594869,1072.533697
517.050006,0.000000,-8734.430116,459.657299
517.050334,-222.061783,-9178.553681,612.876398
517.050662,0.000000,-9178.553681,612.876398
517.050990,-296.082377,-9252.574275,536.266849
517.051318,-222.061783,-8660.409521,229.828649
517.051645,-592.164754,-8956.491898,383.047749
517.051973,-296.082377,-9252.574275,459.657299
517.052301,-222.061783,-9252.574275,536.266849
517.052629,-296.082377,-8956.491898,306.438199
517.052957,0.000000,-9252.574275,459.657299
517.053284,-444.123565,-8660.409521,766.095498
517.053612,-814.226536,-9178.553681,76.609550
517.053940,-1258.350101,-9474.636058,-153.219100
517.054268,-1628.453072,-9548.656652,-383.047749
517.054596,-1258.350101,-9252.574275,-306.438199
517.054923,-370.102971,-8660.409521,0.000000
517.055251,-148.041188,-8808.450710,-612.876398
517.055579,-592.164754,-9252.574275,-766.095498
517.055907,-740.205942,-9326.594869,-842.705048
517.056235,-1184.329507,-9252.574275,-995.924147
517.056562,-1184.329507,-8808.450710,-1149.143247
517.056890,-740.205942,-9030.512492,-1455.581446
517.057218,-740.205942,-9400.615463,-1225.752797
517.057546,-444.123565,-9474.636058,-1225.752797
517.057874,-148.041188,-9252.574275,-1378.971896
517.058201,-148.041188,-9104.533087,-1072.533697
517.058529,0.000000,-8734.430116,-1149.143247
517.058857,148.041188,-9178.553681,-1685.410096
517.059185,222.061783,-9252.574275,-1608.800546
517.059513,74.020594,-9178.553681,-1608.800546
517.059841,148.041188,-9400.615463,-1915.238745
517.060168,0.000000,-9030.512492,-1455.581446
517.060496,296.082377,-9474.636058,-1991.848295
517.060824,740.205942,-9178.553681,-1532.190996
517.061152,962.267725,-9104.533087,-1685.410096
517.061480,592.164754,-9326.594869,-1915.238745
517.061807,0.000000,-8956.491898,-1302.362347
517.062135,222.061783,-9326.594869,-1685.410096
517.062463,0.000000,-9400.615463,-1762.019645
517.062791,0.000000,-9400.615463,-1608.800546
517.063119,-222.061783,-9326.594869,-1685.410096
517.063446,-296.082377,-9474.636058,-1685.410096
517.063774,-888.247130,-8956.491898,-1072.533697
517.064102,-962.267725,-9252.574275,-1915.238745
517.064430,-1406.391290,-9030.512492,-2451.505594
517.064758,-1480.411884,-9326.594869,-2604.724693
517.065085,-1924.535449,-9474.636058,-2604.724693
517.065413,-2072.576638,-8882.471304,-2757.943793
517.065741,-2294.638420,-8808.450710,-3677.258390
517.066069,-2072.576638,-8808.450710,-3294.210641
517.066397,-2072.576638,-9030.512492,-3907.087040
517.066724,-1924.535449,-8882.471304,-3907.087040
517.067052,-1480.411884,-8586.388927,-4443.353888
517.067380,-1480.411884,-8882.471304,-4060.306139
517.067708,-1332.370696,-8956.491898,-3907.087040
517.068036,-740.205942,-9104.533087,-3753.867940
517.068363,148.041188,-8956.491898,-3600.648841
517.068691,1332.370696,-8808.450710,-3140.991542
517.069019,1702.473667,-8512.368333,-2604.724693
517.069347,2072.576638,-8882.471304,-2221.676944
517.069675,2442.679609,-9252.574275,-1991.848295
517.070002,2146.597232,-9474.636058,-1838.629195
517.070330,1850.514855,-9770.718434,-2145.067394
517.070658,666.185348,-9992.780217,-1991.848295
517.070986,-666.185348,-10510.924376,-2757.943793
517.071314,-1480.411884,-10658.965565,-3524.039291
517.071641,-1850.514855,-10362.883188,-4443.353888
517.071969,-2294.638420,-9918.759623,-4903.011187
517.072297,-1036.288319,-8882.471304,-4596.572988
517.072625,-148.041188,-8290.306550,-4749.792088
517.072953,1406.391290,-7328.038826,-4213.525239
517.073281,2738.761985,-6883.915261,-3217.601092
517.073608,3034.844362,-7105.977043,-2374.896044
517.073936,2442.679609,-7846.182985,-919.314598
517.074264,370.102971,-9252.574275,-1838.629195
517.074592,-1554.432478,-10214.842000,-1762.019645
517.074920,-3552.988522,-10881.027347,-2451.505594
517.075247,-4293.194464,-11103.089130,-2451.505594
517.075575,-2960.823768,-10140.821405,-2298.286494
517.075903,1332.370696,-8438.347739,-1225.752797
517.076231,6513.812290,-6217.729913,1378.971896
517.076559,10658.965565,-5107.421000,3600.648841
517.076886,10807.006753,-6069.688724,4596.572988
517.077214,6809.894666,-8586.388927,4136.915689
517.077542,888.247130,-10807.006753,2374.896044
517.077870,-5107.421000,-12953.603985,919.314598
517.078198,-9622.677246,-14211.954086,-1149.143247
517.078525,-12065.356855,-14359.995275,-2757.943793
517.078853,-11991.336260,-13027.624579,-3753.867940
517.079181,-10214.842000,-11251.130318,-3677.258390
517.079509,-4367.215058,-7179.997637,-2834.553343
517.079837,-3034.844362,-4885.359217,-3907.087040
517.080164,666.185348,-3775.050304,-3830.477490
517.080492,-1184.329507,-5255.462188,-5132.839837
517.080820,-5033.400406,-6291.750507,-6052.154434
517.081148,-8734.430116,-8142.265362,-7814.174080
517.081476,-12213.398043,-9474.636058,-9193.145976
517.081803,-9918.759623,-9548.656652,-8197.221829
517.082131,-7105.977043,-8956.491898,-7277.907231
517.082459,-888.247130,-7846.182985,-5745.716235
517.082787,5033.400406,-6735.874072,-3983.696590
517.083115,8216.285956,-7254.018232,-3217.601092
517.083442,8290.306550,-8956.491898,-3830.477490
517.083770,5625.565159,-10214.842000,-5286.058936
517.084098,4663.297435,-11695.253884,-5822.325785
517.084426,5625.565159,-11325.150913,-5975.544884
517.084754,9030.512492,-10140.821405,-4366.744339
517.085082,12583.501014,-8956.491898,-2145.067394
517.085409,13175.665768,-9548.656652,-229.828649
517.085737,11917.315666,-9992.780217,153.219100
517.086065,9548.656652,-9992.780217,-1991.848295
517.086393,5699.585753,-10881.027347,-2298.286494
517.086721,6957.935855,-11029.068536,-1838.629195
517.087048,5033.400406,-10732.986159,-1455.581446
517.087376,-666.185348,-12139.377449,-2451.505594
517.087704,-6439.791695,-13323.706956,-4519.963438
517.088032,-12805.562797,-11843.295072,-7124.688131
517.088360,-13693.809927,-8068.244768,-7967.393179
517.088687,-9178.553681,-3923.091493,-7354.516781
517.089015,-2220.617826,-1184.329507,-6052.154434
517.089343,2072.576638,-888.247130,-2681.334243
517.089671,2738.761985,-1628.453072,-2528.115143
517.089999,1258.350101,-3923.091493,-766.095498
517.090326,-2220.617826,-4737.318029,-1378.971896
517.090654,-3034.844362,-6957.935855,-689.485948
517.090982,-4293.194464,-9918.759623,76.609550
517.091310,-3775.050304,-11473.192101,1378.971896
517.091638,-4441.235652,-11917.315666,2911.162892
517.091965,-2368.659014,-11769.274478,5132.839837
517.092293,1110.308913,-10288.862594,5822.325785
517.092621,2886.803174,-9770.718434,5056.230287
517.092949,3404.947333,-10881.027347,3524.039291
517.093277,222.061783,-11917.315666,919.314598
517.093604,-2368.659014,-12213.398043,-383.047749
517.093932,-2516.700203,-9326.594869,0.000000
517.094260,-296.082377,-7698.141797,76.609550
517.094588,1554.432478,-7105.977043,766.095498
517.094916,1184.329507,-9252.574275,1762.019645
517.095243,-1776.494261,-10436.903782,2068.457845
517.095571,-4737.318029,-8512.368333,76.609550
517.095899,-5403.503377,-9326.594869,1302.362347
517.096227,-3478.967927,-9992.780217,76.609550
517.096555,-4737.318029,-10955.047942,-536.266849
517.096883,-6217.729913,-10955.047942,-1991.848295
517.097210,-4959.379811,-9104.533087,-2298.286494
517.097538,-4441.235652,-6291.750507,-1608.800546
517.097866,-1258.350101,-5329.482782,-1072.533697
517.098194,444.123565,-6513.812290,-2604.724693
517.098522,148.041188,-7402.059420,-4060.306139
517.098849,2738.761985,-8734.430116,-3600.648841
517.099177,3404.947333,-8290.306550,-3217.601092
517.099505,4441.235652,-8660.409521,-2451.505594
517.099833,4885.359217,-12065.356855,-1455.581446
517.100161,3404.947333,-14434.015869,-1149.143247
517.100488,1924.535449,-14137.933492,-1838.629195
517.100816,3108.864956,-12583.501014,-612.876398
517.101144,2960.823768,-11621.233289,-153.219100
517.101472,2294.638420,-11769.274478,766.095498
517.101800,2590.720797,-11843.295072,0.000000
517.102127,4071.132681,-9992.780217,383.047749
517.102455,5477.523971,-8068.244768,766.095498
517.102783,3775.050304,-7550.100608,766.095498
517.103111,518.144159,-7698.141797,-995.924147
517.103439,-370.102971,-8364.327145,-1685.410096
517.103766,-1332.370696,-7402.059420,-2604.724693
517.104094,-2220.617826,-5921.647536,-1072.533697
517.104422,-1110.308913,-5477.523971,-1225.752797
517.104750,-2220.617826,-7179.997637,0.000000
517.105078,-1850.514855,-6513.812290,689.485948
517.105406,-222.061783,-7698.141797,995.924147
517.105733,-666.185348,-8068.244768,1225.752797
517.106061,-2368.659014,-9252.574275,536.266849
517.106389,-4737.318029,-10362.883188,153.219100
517.106717,-6587.832884,-9400.615463,229.828649
517.107045,-4145.153275,-8512.368333,306.438199
517.107372,-1628.453072,-7698.141797,995.924147
517.107700,-592.164754,-7550.100608,1225.752797
517.108028,-296.082377,-8660.409521,1915.238745
517.108356,0.000000,-8290.306550,3294.210641
517.108684,814.226536,-8438.347739,1838.629195
517.109012,0.000000,-9104.533087,1149.143247
517.109339,-2368.659014,-10584.944971,153.219100
517.109667,-3478.967927,-10288.862594,-383.047749
517.109995,-2812.782580,-8808.450710,0.000000
517.110323,-222.061783,-7624.121203,919.314598
517.110651,518.144159,-6883.915261,1302.362347
517.110978,1258.350101,-7846.182985,1608.800546
517.111306,2072.576638,-8068.244768,2145.067394
517.111634,1036.288319,-7402.059420,1378.971896
517.111962,444.123565,-7846.182985,1915.238745
517.112290,0.000000,-9326.594869,153.219100
517.112618,-888.247130,-9918.759623,0.000000
517.112945,370.102971,-9918.759623,-229.828649
517.113273,1850.514855,-9474.636058,1455.581446
517.113601,2960.823768,-8068.244768,1838.629195
517.113929,1628.453072,-10288.862594,2374.896044
517.114257,1850.514855,-10881.027347,2221.676944
517.114584,1258.350101,-10732.986159,1838.629195
517.114912,962.267725,-11325.150913,1532.190996
517.115240,0.000000,-11473.192101,842.705048
517.115568,-2368.659014,-11843.295072,-306.438199
517.115896,-2960.823768,-11547.212695,-229.828649
517.116223,-1998.556043,-9992.780217,-153.219100
517.116551,-888.247130,-8882.471304,153.219100
517.116879,-1258.350101,-7698.141797,-153.219100
517.117207,-1184.329507,-8068.244768,459.657299
517.117535,-1776.494261,-7550.100608,0.000000
517.117863,-1480.411884,-7179.997637,306.438199
517.118190,-1184.329507,-8808.450710,76.609550
517.118518,-2220.617826,-10214.842000,76.609550
517.118846,-3478.967927,-9622.677246,-229.828649
517.119174,-2590.720797,-9992.780217,612.876398
517.119502,-1258.350101,-9104.533087,536.266849
517.119829,-592.164754,-8660.409521,612.876398
517.120157,740.205942,-9770.718434,1072.533697
517.120485,1406.391290,-9400.615463,1225.752797
517.120813,1628.453072,-8586.388927,1072.533697
517.121141,1480.411884,-9622.677246,1302.362347
517.121469,518.144159,-10436.903782,612.876398
517.121796,-814.226536,-10881.027347,76.609550
517.122124,-370.102971,-10732.986159,-306.438199
517.122452,-592.164754,-9844.739029,0.000000
517.122780,518.144159,-9622.677246,919.314598
517.123108,518.144159,-9178.553681,229.828649
517.123435,-148.041188,-9030.512492,766.095498
517.123763,1702.473667,-8586.388927,766.095498
517.124091,1702.473667,-8290.306550,1225.752797
517.124419,296.082377,-8734.430116,459.657299
517.124747,-370.102971,-8956.491898,-153.219100
517.125075,-962.267725,-8956.491898,0.000000
517.125402,-1258.350101,-8068.244768,0.000000
517.125730,148.041188,-6661.853478,306.438199
517.126058,518.144159,-7105.977043,459.657299
517.126386,444.123565,-7328.038826,689.485948
517.126714,1110.308913,-7254.018232,766.095498
517.127041,1184.329507,-6957.935855,612.876398
517.127369,444.123565,-7698.141797,612.876398
517.127697,-1850.514855,-9844.739029,0.000000
517.128025,-2960.823768,-10510.924376,-612.876398
517.128353,-2960.823768,-9696.697840,-689.485948
517.128680,-1110.308913,-9030.512492,153.219100
517.129008,0.000000,-8882.471304,612.876398
517.129336,148.041188,-9252.574275,459.657299
517.129664,74.020594,-9030.512492,689.485948
517.129992,1184.329507,-7846.182985,766.095498
517.130320,962.267725,-7994.224174,995.924147
517.130647,0.000000,-9252.574275,612.876398
517.130975,-888.247130,-10066.800811,612.876398
517.131303,-1110.308913,-9474.636058,229.828649
517.131631,-222.061783,-8216.285956,919.314598
517.131959,444.123565,-7994.224174,1378.971896
517.132286,740.205942,-8438.347739,1302.362347
517.132614,518.144159,-8586.388927,1608.800546
517.132942,1702.473667,-8068.244768,1608.800546
517.133270,1628.453072,-8512.368333,1991.848295
517.133598,888.247130,-9326.594869,1455.581446
517.133926,-592.164754,-10658.965565,689.485948
517.134253,-1628.453072,-10955.047942,919.314598
517.134581,-1628.453072,-10288.862594,766.095498
517.134909,-962.267725,-9770.718434,919.314598
517.135237,-1628.453072,-9844.739029,459.657299
517.135565,-1776.494261,-9992.780217,383.047749
517.135892,-1110.308913,-9548.656652,0.000000
517.136220,222.061783,-8882.471304,536.266849
517.136548,370.102971,-8586.388927,612.876398
517.136876,-814.226536,-9918.759623,689.485948
517.137204,-2738.761985,-10807.006753,0.000000
517.137532,-3552.988522,-10362.883188,229.828649
517.137859,-3627.009116,-9252.574275,612.876398
517.138187,-2442.679609,-8882.471304,383.047749
517.138515,-2294.638420,-9326.594869,153.219100
517.138843,-1258.350101,-9178.553681,536.266849
517.139171,370.102971,-8290.306550,1378.971896
517.139498,1480.411884,-7476.080014,1608.800546
517.139826,1258.350101,-9030.512492,1149.143247
517.140154,74.020594,-10066.800811,536.266849
517.140482,-444.123565,-10214.842000,0.000000
517.140810,-370.102971,-8882.471304,459.657299
517.141137,444.123565,-8364.327145,842.705048
517.141465,1110.308913,-9474.636058,842.705048
517.141793,1332.370696,-9844.739029,1302.362347
517.142121,2072.576638,-9474.636058,1455.581446
517.142449,2960.823768,-9030.512492,2298.286494
517.142777,2368.659014,-9696.697840,2221.676944
517.143104,-296.082377,-11251.130318,1149.143247
517.143432,-1702.473667,-10807.006753,536.266849
517.143760,-1554.432478,-9474.636058,153.219100
517.144088,-1184.329507,-8216.285956,76.609550
517.144416,-296.082377,-7846.182985,0.000000
517.144743,0.000000,-7328.038826,306.438199
517.145071,444.123565,-7772.162391,153.219100
517.145399,888.247130,-6883.915261,459.657299
517.145727,1480.411884,-7550.100608,612.876398
517.146055,0.000000,-8882.471304,0.000000
517.146383,-1776.494261,-9992.780217,0.000000
517.146710,-2220.617826,-9992.780217,0.000000
517.147038,-2368.659014,-9178.553681,0.000000
517.147366,-1406.391290,-9474.636058,383.047749
517.147694,-1036.288319,-9474.636058,0.000000
517.148022,-222.061783,-9770.718434,383.047749
517.148349,740.205942,-9104.533087,383.047749
517.148677,1924.535449,-7994.224174,766.095498
517.149005,2368.659014,-8512.368333,612.876398
517.149333,370.102971,-9548.656652,0.000000
517.149661,-148.041188,-10584.944971,0.000000
517.149989,-296.082377,-9474.636058,76.609550
517.150316,0.000000,-8808.450710,306.438199
517.150644,-370.102971,-9178.553681,229.828649
517.150972,-296.082377,-9918.759623,536.266849
517.151300,-148.041188,-9030.512492,842.705048
517.151628,962.267725,-8438.347739,1685.410096
517.151955,518.144159,-8586.388927,995.924147
517.152283,-666.185348,-9548.656652,612.876398
517.152611,-2220.617826,-10140.821405,153.219100
517.152939,-2368.659014,-9474.636058,0.000000
517.153267,-1480.411884,-8142.265362,0.000000
517.153594,-666.185348,-7698.141797,153.219100
517.153922,74.020594,-7920.203579,689.485948
517.154250,962.267725,-7698.141797,919.314598
517.154578,1332.370696,-8068.244768,1762.019645
517.154906,1406.391290,-8660.409521,2145.067394
517.155234,-444.123565,-10214.842000,995.924147
517.155561,-2368.659014,-11325.150913,153.219100
517.155889,-3478.967927,-11621.233289,76.609550
517.156217,-2886.803174,-10436.903782,306.438199
517.156545,-1406.391290,-9474.636058,842.705048
517.156873,-518.144159,-9030.512492,306.438199
517.157200,148.041188,-8290.306550,612.876398
517.157528,1110.308913,-7772.162391,842.705048
517.157856,1258.350101,-7328.038826,995.924147
517.158184,814.226536,-7402.059420,229.828649
517.158512,-962.267725,-9252.574275,0.000000
517.158840,-1628.453072,-10214.842000,0.000000
517.159167,-1628.453072,-9474.636058,229.828649
517.159495,-370.102971,-9252.574275,919.314598
517.159823,814.226536,-9326.594869,1685.410096
517.160151,1258.350101,-8734.430116,1915.238745
517.160479,2368.659014,-9104.533087,2374.896044
517.160806,2294.638420,-8734.430116,2068.457845
517.161134,1480.411884,-8660.409521,1838.629195
517.161462,296.082377,-9844.739029,1225.752797
517.161790,-1258.350101,-10881.027347,1302.362347
517.162118,-1776.494261,-9696.697840,0.000000
517.162446,-666.185348,-9326.594869,229.828649
517.162773,0.000000,-8808.450710,306.438199
517.163101,-666.185348,-7994.224174,76.609550
517.163429,0.000000,-8808.450710,383.047749
517.163757,296.082377,-7920.203579,306.438199
517.164085,-296.082377,-7772.162391,229.828649
517.164412,-1184.329507,-9252.574275,383.047749
517.164740,-2590.720797,-9622.677246,-536.266849
517.165068,-3701.029710,-10140.821405,-536.266849
517.165396,-2516.700203,-8586.388927,0.000000
517.165724,-1628.453072,-7476.080014,0.000000
517.166051,-370.102971,-7846.182985,383.047749
517.166379,148.041188,-7624.121203,612.876398
517.166707,962.267725,-7550.100608,1149.143247
517.167035,2072.576638,-7402.059420,1685.410096
517.167363,1776.494261,-7994.224174,1302.362347
517.167691,74.020594,-9474.636058,689.485948
517.168018,-1110.308913,-10732.986159,229.828649
517.168346,-1406.391290,-10214.842000,306.438199
517.168674,-222.061783,-9326.594869,919.314598
517.169002,296.082377,-9030.512492,306.438199
517.169330,666.185348,-9770.718434,383.047749
517.169657,370.102971,-9696.697840,459.657299
517.169985,1628.453072,-8882.471304,995.924147
517.170313,2220.617826,-8660.409521,1149.143247
517.170641,1258.350101,-9622.677246,612.876398
517.170969,-962.267725,-10955.047942,536.266849
517.171297,-1776.494261,-10584.944971,76.609550
517.171624,-2072.576638,-9622.677246,383.047749
517.171952,-1110.308913,-9178.553681,766.095498
517.172280,-666.185348,-8956.491898,842.705048
517.172608,-296.082377,-8512.368333,919.314598
517.172936,740.205942,-8068.244768,1072.533697
517.173263,1776.494261,-8438.347739,1685.410096
517.173591,666.185348,-8882.471304,1455.581446
517.173919,-1258.350101,-9992.780217,1225.752797
517.174247,-2294.638420,-11547.212695,0.000000
517.174575,-2590.720797,-10510.924376,-306.438199
517.174903,-2590.720797,-9844.739029,-153.219100
517.175230,-1924.535449,-9548.656652,-153.219100
517.175558,-1776.494261,-9696.697840,-153.219100
517.175886,-666.185348,-9770.718434,-153.219100
517.176214,74.020594,-8364.327145,229.828649
517.176542,740.205942,-8290.306550,0.000000
517.176869,-296.082377,-9548.656652,-383.047749
517.177197,-1702.473667,-10288.862594,-919.314598
517.177525,-2072.576638,-8808.450710,-383.047749
517.177853,-666.185348,-8290.306550,76.609550
517.178181,740.205942,-7624.121203,842.705048
517.178508,1258.350101,-7698.141797,1225.752797
517.178836,2812.782580,-7994.224174,2298.286494
517.179164,3034.844362,-7105.977043,3140.991542
517.179492,4145.153275,-7031.956449,2911.162892
517.179820,3330.926739,-8364.327145,2681.334243
517.180148,740.205942,-9992.780217,1838.629195
517.180475,-592.164754,-10288.862594,1225.752797
517.180803,-888.247130,-8956.491898,1302.362347
517.181131,-1110.308913,-8512.368333,1225.752797
517.181459,-1554.432478,-9178.553681,842.705048
517.181787,-1332.370696,-9326.594869,612.876398
517.182114,-592.164754,-8512.368333,536.266849
517.182442,-518.144159,-7550.100608,459.657299
517.182770,-370.102971,-8142.265362,842.705048
517.183098,-2886.803174,-9400.615463,-383.047749
517.183426,-4737.318029,-10066.800811,-842.705048
517.183754,-4441.235652,-8734.430116,-766.095498
517.184081,-3849.070898,-7624.121203,-919.314598
517.184409,-2368.659014,-6809.894666,76.609550
517.184737,-1554.432478,-7179.997637,153.219100
517.185065,-814.226536,-7698.141797,459.657299
517.185393,296.082377,-6957.935855,1378.971896
517.185720,1258.350101,-6291.750507,1532.190996
517.186048,1480.411884,-7772.162391,1762.019645
517.186376,-370.102971,-9770.718434,612.876398
517.186704,-1110.308913,-10732.986159,229.828649
517.187032,-296.082377,-10288.862594,229.828649
517.187360,518.144159,-10066.800811,229.828649
517.187687,1554.432478,-10510.924376,536.266849
517.188015,1554.432478,-10584.944971,-306.438199
517.188343,2294.638420,-10881.027347,153.219100
517.188671,2960.823768,-9918.759623,306.438199
517.188999,1554.432478,-10658.965565,-689.485948
517.189326,0.000000,-12213.398043,-1149.143247
517.189654,-962.267725,-11843.295072,-995.924147
517.189982,-1554.432478,-11251.130318,-1378.971896
517.190310,-296.082377,-9548.656652,-612.876398
517.190638,1258.350101,-9178.553681,0.000000
517.190965,1036.288319,-9326.594869,306.438199
517.191293,2442.679609,-9178.553681,1378.971896
517.191621,2368.659014,-8882.471304,1838.629195
517.191949,1702.473667,-9030.512492,2221.676944
517.192277,-148.041188,-9918.759623,1072.533697
517.192605,-1332.370696,-11029.068536,689.485948
517.192932,-1184.329507,-10288.862594,306.438199
517.193260,-1184.329507,-8882.471304,1149.143247
517.193588,-222.061783,-8882.471304,1378.971896
517.193916,0.000000,-9252.574275,1072.533697
517.194244,-814.226536,-9252.574275,842.705048
517.194571,-370.102971,-9400.615463,1455.581446
517.194899,-888.247130,-9400.615463,1149.143247
517.195227,-2516.700203,-10584.944971,76.609550
517.195555,-3849.070898,-11695.253884,-383.047749
517.195883,-3923.091493,-11399.171507,0.000000
517.196211,-3404.947333,-9326.594869,153.219100
517.196538,-1480.411884,-7920.203579,1149.143247
517.196866,0.000000,-7846.182985,1302.362347
517.197194,518.144159,-7402.059420,1762.019645
517.197522,1110.308913,-6883.915261,2068.457845
517.197850,1554.432478,-6291.750507,2451.505594
517.198177,1480.411884,-6883.915261,2145.067394
517.198505,296.082377,-8068.244768,2068.457845
517.198833,-888.247130,-8512.368333,1608.800546
517.199161,-370.102971,-7624.121203,1915.238745
517.199489,1184.329507,-6883.915261,2451.505594
517.199817,1702.473667,-6735.874072,2145.067394
517.200144,814.226536,-7772.162391,1532.190996
517.200472,1406.391290,-7772.162391,1302.362347
517.200799,814.226536,-7994.224174,1225.752797
517.201127,592.164754,-8808.450710,536.266849
517.201454,-1554.432478,-9844.739029,-612.876398
517.201782,-3701.029710,-11103.089130,-842.705048
517.202109,-3849.070898,-10214.842000,-1532.190996
517.202437,-2664.741391,-8882.471304,-1149.143247
517.202765,-1184.329507,-7476.080014,-995.924147
517.203092,-666.185348,-7624.121203,-766.095498
517.203420,-296.082377,-7476.080014,-459.657299
517.203747,592.164754,-7476.080014,0.000000
517.204075,592.164754,-7179.997637,383.047749
517.204402,740.205942,-8142.265362,383.047749
517.204730,-1036.288319,-9474.636058,-153.219100
517.205057,-888.247130,-10362.883188,536.266849
517.205385,-592.164754,-9104.533087,842.705048
517.205713,814.226536,-8586.388927,1072.533697
517.206040,1184.329507,-8438.347739,612.876398
517.206368,1184.329507,-9696.697840,306.438199
517.206695,1480.411884,-9474.636058,0.000000
517.207023,2368.659014,-9400.615463,153.219100
517.207350,2368.659014,-9474.636058,0.000000
517.207678,592.164754,-10881.027347,-536.266849
517.208005,-592.164754,-12213.398043,-766.095498
517.208333,-1110.308913,-11991.336260,-306.438199
517.208661,-592.164754,-10510.924376,76.609550
517.208988,-370.102971,-10214.842000,0.000000
517.209316,-370.102971,-11177.109724,153.219100
517.209643,0.000000,-10955.047942,689.485948
517.209971,814.226536,-10066.800811,1378.971896
517.210298,1702.473667,-9178.553681,2145.067394
517.210626,1110.308913,-9696.697840,1915.238745
517.210954,-444.123565,-10658.965565,1762.019645
517.211281,-1628.453072,-10584.944971,1302.362347
517.211609,-1480.411884,-9104.533087,1608.800546
517.211936,-1406.391290,-8142.265362,1149.143247
517.212264,-2072.576638,-7994.224174,1149.143247
517.212591,-2146.597232,-8956.491898,842.705048
517.212919,-1110.308913,-8586.388927,1149.143247
517.213246,-518.144159,-7920.203579,1302.362347
517.213574,-518.144159,-8512.368333,1302.362347
517.213902,-1850.514855,-10214.842000,229.828649
517.214229,-3627.009116,-10436.903782,-459.657299
517.214557,-3478.967927,-9622.677246,-229.828649
517.214884,-2590.720797,-8512.368333,0.000000
517.215212,-1480.411884,-8364.327145,612.876398
517.215539,-962.267725,-9474.636058,919.314598
517.215867,-222.061783,-8512.368333,1685.410096
517.216194,1184.329507,-7772.162391,2298.286494
517.216522,2220.617826,-8142.265362,2681.334243
517.216850,1628.453072,-8586.388927,2145.067394
517.217177,-370.102971,-9622.677246,2068.457845
517.217505,0.000000,-8956.491898,1532.190996
517.217832,-148.041188,-7254.018232,1455.581446
517.218160,444.123565,-6735.874072,1532.190996
517.218487,0.000000,-7254.018232,995.924147
517.218815,592.164754,-7402.059420,1225.752797
517.219142,1258.350101,-6661.853478,842.705048
517.219470,962.267725,-6883.915261,766.095498
517.219798,592.164754,-8068.244768,0.000000
517.220125,-1480.411884,-9770.718434,-766.095498
517.220453,-2516.700203,-10214.842000,-919.314598
517.220780,-2738.761985,-9104.533087,-1149.143247
517.221108,-1702.473667,-8660.409521,-1378.971896
517.221435,-1850.514855,-8956.491898,-1378.971896
517.221763,-1406.391290,-9104.533087,-1225.752797
517.222090,74.020594,-9104.533087,-995.924147
517.222418,1554.432478,-7846.182985,76.609550
517.222746,2220.617826,-7994.224174,383.047749
517.223073,1776.494261,-9474.636058,76.609550
517.223401,518.144159,-10288.862594,0.000000
517.223728,74.020594,-9474.636058,153.219100
517.224056,1332.370696,-9178.553681,766.095498
517.224383,1184.329507,-9030.512492,842.705048
517.224711,1110.308913,-9844.739029,1149.143247
517.225039,1554.432478,-9622.677246,1072.533697
517.225366,2072.576638,-9252.574275,1302.362347
517.225694,2294.638420,-9030.512492,1302.362347
517.226021,0.000000,-10658.965565,0.000000
517.226349,-1776.494261,-11695.253884,-306.438199
517.226676,-2146.597232,-11251.130318,-1072.533697
517.227004,-2146.597232,-9844.739029,-842.705048
517.227331,-444.123565,-9030.512492,0.000000
517.227659,74.020594,-9104.533087,-229.828649
517.227987,148.041188,-9696.697840,459.657299
517.228314,592.164754,-9178.553681,1532.190996
517.228642,888.247130,-8808.450710,1915.238745
517.228969,74.020594,-9474.636058,1685.410096
517.229297,-1776.494261,-11177.109724,1608.800546
517.229624,-3330.926739,-11325.150913,919.314598
517.229952,-3108.864956,-10066.800811,919.314598
517.230279,-2146.597232,-8808.450710,1685.410096
517.230607,-1036.288319,-8068.244768,1532.190996
517.230935,-1258.350101,-7994.224174,1378.971896
517.231262,-148.041188,-7772.162391,1378.971896
517.231590,0.000000,-7105.977043,995.924147
517.231917,0.000000,-7254.018232,459.657299
517.232245,-1332.370696,-8808.450710,-229.828649
517.232572,-3256.906145,-10732.986159,-536.266849
517.232900,-3330.926739,-10362.883188,-459.657299
517.233227,-2664.741391,-8882.471304,-306.438199
517.233555,-1110.308913,-8734.430116,229.828649
517.233883,-592.164754,-9178.553681,0.000000
517.234210,740.205942,-8660.409521,689.485948
517.234538,1850.514855,-8068.244768,1455.581446
517.234865,2738.761985,-7920.203579,1915.238745
517.235193,2442.679609,-8068.244768,1532.190996
517.235520,1702.473667,-9474.636058,1455.581446
517.235848,962.267725,-9844.739029,1378.971896
517.236176,74.020594,-8660.409521,1302.362347
517.236503,1406.391290,-8438.347739,1532.190996
517.236831,1036.288319,-8660.409521,1378.971896
517.237158,1036.288319,-8882.471304,1149.143247
517.237486,2072.576638,-8512.368333,1532.190996
517.237813,1776.494261,-7994.224174,1302.362347
517.238141,1258.350101,-8734.430116,536.266849
517.238468,-296.082377,-10362.883188,0.000000
517.238796,-2590.720797,-10732.986159,-995.924147
517.239124,-3330.926739,-9696.697840,-1378.971896
517.239451,-2220.617826,-9326.594869,-1149.143247
517.239779,-2294.638420,-8882.471304,-1225.752797
517.240106,-2294.638420,-9030.512492,-1378.971896
517.240434,-1036.288319,-8586.388927,-383.047749
517.240761,74.020594,-7402.059420,-383.047749
517.241089,1480.411884,-7772.162391,459.657299
517.241416,1110.308913,-8364.327145,842.705048
517.241744,-296.082377,-9992.780217,459.657299
517.242072,-1332.370696,-10140.821405,306.438199
517.242399,-888.247130,-9622.677246,1072.533697
517.242727,-666.185348,-9474.636058,1225.752797
517.243054,370.102971,-9474.636058,1685.410096
517.243382,1258.350101,-9696.697840,1762.019645
517.243709,1998.556043,-9326.594869,2068.457845
517.244037,2886.803174,-8734.430116,2374.896044
517.244364,1850.514855,-9400.615463,1838.629195
517.244692,-296.082377,-10510.924376,1072.533697
517.245020,-2072.576638,-10881.027347,153.219100
517.245347,-2886.803174,-9918.759623,-459.657299
517.245675,-2590.720797,-9178.553681,-383.047749
517.246002,-2516.700203,-8586.388927,-766.095498
517.246330,-1850.514855,-8808.450710,-153.219100
517.246657,-1258.350101,-7994.224174,76.609550
517.246985,148.041188,-7402.059420,1072.533697
517.247313,592.164754,-7402.059420,1149.143247
517.247640,-444.123565,-8142.265362,612.876398
517.247968,-2738.761985,-9918.759623,306.438199
517.248295,-2368.659014,-9400.615463,766.095498
517.248623,-2146.597232,-7920.203579,306.438199
517.248950,-740.205942,-8142.265362,689.485948
517.249278,444.123565,-8512.368333,1302.362347
517.249605,740.205942,-8512.368333,1149.143247
517.249933,1850.514855,-7772.162391,1991.848295
517.250261,2220.617826,-8216.285956,1762.019645
517.250588,518.144159,-8956.491898,383.047749
517.250916,-1258.350101,-10955.047942,-153.219100
517.251243,-1924.535449,-10881.027347,-1072.533697
517.251571,-1628.453072,-9252.574275,-1302.362347
517.251898,296.082377,-9030.512492,-536.266849
517.252226,1036.288319,-9474.636058,0.000000
517.252553,1110.308913,-9622.677246,76.609550
517.252881,2146.597232,-8660.409521,766.095498
517.253209,2812.782580,-8586.388927,1685.410096
517.253536,2294.638420,-9474.636058,1608.800546
517.253864,0.000000,-10955.047942,842.705048
517.254191,-1332.370696,-11547.212695,766.095498
517.254519,-1702.473667,-9622.677246,689.485948
517.254846,-592.164754,-8882.471304,1302.362347
517.255174,814.226536,-8438.347739,1149.143247
517.255501,1480.411884,-8142.265362,1532.190996
517.255829,1998.556043,-7772.162391,1455.581446
517.256157,1554.432478,-7698.141797,1762.019645
517.256484,814.226536,-7772.162391,1302.362347
517.256812,-1110.308913,-9326.594869,306.438199
517.257139,-3478.967927,-10436.903782,-689.485948
517.257467,-3330.926739,-10436.903782,-919.314598
517.257794,-2812.782580,-9474.636058,-689.485948
517.258122,-2368.659014,-8660.409521,-536.266849
517.258449,-1036.288319,-8956.491898,76.609550
517.258777,-1258.350101,-9400.615463,229.828649
517.259105,-370.102971,-8882.471304,689.485948
517.259432,74.020594,-8882.471304,766.095498
517.259760,-296.082377,-9178.553681,689.485948
517.260087,-1850.514855,-10510.924376,1532.190996
517.260415,-2368.659014,-10807.006753,919.314598
517.260742,-1998.556043,-9548.656652,919.314598
517.261070,-296.082377,-8660.409521,1378.971896
517.261398,666.185348,-7994.224174,1532.190996
517.261725,1332.370696,-8808.450710,1991.848295
517.262053,1850.514855,-8956.491898,1378.971896
517.262380,1924.535449,-8216.285956,1838.629195
517.262708,1850.514855,-8734.430116,1838.629195
517.263035,0.000000,-9770.718434,612.876398
517.263363,-1554.432478,-11473.192101,0.000000
517.263690,-1702.473667,-10362.883188,-153.219100
517.264018,-1480.411884,-9326.594869,-229.828649
517.264346,-1258.350101,-9178.553681,0.000000
517.264673,-814.226536,-9400.615463,0.000000
517.265001,-814.226536,-9326.594869,-229.828649
517.265328,666.185348,-7846.182985,306.438199
517.265656,1110.308913,-7624.121203,612.876398
517.265983,1036.288319,-8438.347739,612.876398
517.266311,-888.247130,-9696.697840,0.000000
517.266638,-2072.576638,-9844.739029,0.000000
517.266966,-1480.411884,-8364.327145,459.657299
517.267294,-740.205942,-7846.182985,919.314598
517.267621,0.000000,-8438.347739,689.485948
517.267949,222.061783,-8586.388927,459.657299
517.268276,1480.411884,-8068.244768,1302.362347
517.268604,2146.597232,-7698.141797,1302.362347
517.268931,2590.720797,-8290.306550,1149.143247
517.269259,740.205942,-9474.636058,536.266849
517.269586,-1110.308913,-10658.965565,0.000000
517.269914,-1184.329507,-10288.862594,-229.828649
517.270242,-1036.288319,-9252.574275,0.000000
517.270569,-148.041188,-9622.677246,-612.876398
517.270897,-222.061783,-9474.636058,306.438199
517.271224,814.226536,-9474.636058,612.876398
517.271552,740.205942,-9474.636058,766.095498
517.271879,1184.329507,-9252.574275,1149.143247
517.272207,148.041188,-9622.677246,766.095498
517.272535,-1702.473667,-10510.924376,306.438199
517.272862,-2516.700203,-10140.821405,0.000000
517.273190,-1702.473667,-8808.450710,229.828649
517.273517,-666.185348,-7402.059420,459.657299
517.273845,222.061783,-7105.977043,1225.752797
517.274172,962.267725,-6883.915261,1072.533697
517.274500,1406.391290,-7254.018232,1225.752797
517.274827,1554.432478,-7624.121203,1455.581446
517.275155,0.000000,-8438.347739,995.924147
517.275483,-1406.391290,-9844.739029,153.219100
517.275810,-2516.700203,-10510.924376,229.828649
517.276138,-2516.700203,-9474.636058,76.609550
517.276465,-962.267725,-8882.471304,995.924147
517.276793,148.041188,-8956.491898,1302.362347
517.277120,-666.185348,-9030.512492,766.095498
517.277448,222.061783,-9104.533087,766.095498
517.277775,148.041188,-8290.306550,1225.752797
517.278103,0.000000,-8364.327145,842.705048
517.278431,-1036.288319,-10214.842000,383.047749
517.278758,-2368.659014,-10807.006753,-229.828649
517.279086,-3034.844362,-9474.636058,-612.876398
517.279413,-1184.329507,-8734.430116,306.438199
517.279741,518.144159,-7698.141797,766.095498
517.280068,666.185348,-7772.162391,842.705048
517.280396,1406.391290,-8808.450710,1455.581446
517.280723,1184.329507,-8438.347739,1838.629195
517.281051,0.000000,-8068.244768,1072.533697
517.281379,-370.102971,-9030.512492,842.705048
517.281706,-1702.473667,-10584.944971,76.609550
517.282034,-2146.597232,-10362.883188,-383.047749
517.282361,-1184.329507,-9252.574275,-229.828649
517.282689,222.061783,-8438.347739,536.266849
517.283016,814.226536,-8660.409521,383.047749
517.283344,814.226536,-9474.636058,0.000000
517.283672,1406.391290,-9474.636058,76.609550
517.283999,1406.391290,-9770.718434,383.047749
517.284327,888.247130,-9770.718434,0.000000
517.284654,-296.082377,-11547.212695,0.000000
517.284982,-1480.411884,-11769.274478,-153.219100
517.285309,-1924.535449,-11103.089130,-383.047749
517.285637,-592.164754,-10066.800811,153.219100
517.285964,444.123565,-9252.574275,306.438199
517.286292,444.123565,-9548.656652,153.219100
517.286620,888.247130,-8956.491898,612.876398
517.286947,1110.308913,-9030.512492,995.924147
517.287275,1332.370696,-8586.388927,1149.143247
517.287602,0.000000,-9770.718434,689.485948
517.287930,-518.144159,-10288.862594,689.485948
517.288257,-740.205942,-9770.718434,536.266849
517.288585,-518.144159,-9474.636058,919.314598
517.288912,-296.082377,-8512.368333,536.266849
517.289240,0.000000,-9104.533087,689.485948
517.289568,0.000000,-9474.636058,842.705048
517.289895,666.185348,-8956.491898,1532.190996
517.290223,1258.350101,-8660.409521,1838.629195
517.290550,666.185348,-9252.574275,1532.190996
517.290878,-962.267725,-10955.047942,1532.190996
517.291205,-2368.659014,-10510.924376,766.095498
517.291533,-2664.741391,-9844.739029,536.266849
517.291860,-2442.679609,-8734.430116,689.485948
517.292188,-1850.514855,-8364.327145,459.657299
517.292516,-1702.473667,-8882.471304,842.705048
517.292843,-1110.308913,-7994.224174,1378.971896
517.293171,-592.164754,-7254.018232,1072.533697
517.293498,74.020594,-7105.977043,1302.362347
517.293826,-1258.350101,-7920.203579,459.657299
517.294153,-2294.638420,-9104.533087,76.609550
517.294481,-2368.659014,-8364.327145,0.000000
517.294808,-1628.453072,-7328.038826,0.000000
517.295136,-962.267725,-7179.997637,306.438199
517.295464,-518.144159,-7920.203579,383.047749
517.295791,296.082377,-8068.244768,459.657299
517.296119,1332.370696,-7624.121203,919.314598
517.296446,2146.597232,-7772.162391,995.924147
517.296774,962.267725,-8956.491898,612.876398
517.297101,-740.205942,-10362.883188,0.000000
517.297429,-1554.432478,-10584.944971,-766.095498
517.297757,-666.185348,-9474.636058,-306.438199
517.298084,814.226536,-8512.368333,0.000000
517.298412,1554.432478,-9030.512492,153.219100
517.298739,1184.329507,-9400.615463,229.828649
517.299067,1998.556043,-9030.512492,612.876398
517.299394,1998.556043,-8364.327145,842.705048
517.299722,2368.659014,-7920.203579,689.485948
517.300049,370.102971,-9770.718434,383.047749
517.300377,-370.102971,-10436.903782,-229.828649
517.300705,-1184.329507,-9622.677246,0.000000
517.301032,-888.247130,-7994.224174,459.657299
517.301360,0.000000,-8216.285956,306.438199
517.301687,222.061783,-8882.471304,612.876398
517.302015,444.123565,-8216.285956,536.266849
517.302343,370.102971,-8216.285956,1149.143247
517.302670,962.267725,-8438.347739,1455.581446
517.302998,-666.185348,-9030.512492,612.876398
517.303325,-2072.576638,-10658.965565,995.924147
517.303653,-2368.659014,-10288.862594,306.438199
517.303981,-2590.720797,-9474.636058,0.000000
517.304308,-1776.494261,-9252.574275,459.657299
517.304636,-1332.370696,-9326.594869,612.876398
517.304964,-1850.514855,-8882.471304,383.047749
517.305291,-148.041188,-8734.430116,842.705048
517.305619,-222.061783,-8734.430116,919.314598
517.305947,-518.144159,-9104.533087,766.095498
517.306274,-1924.535449,-10362.883188,0.000000
517.306602,-2072.576638,-9770.718434,-306.438199
517.306929,-888.247130,-9178.553681,612.876398
517.307257,444.123565,-8290.306550,842.705048
517.307585,1554.432478,-7920.203579,1225.752797
517.307912,1628.453072,-8660.409521,1532.190996
517.308240,2368.659014,-8660.409521,2068.457845
517.308568,2220.617826,-9326.594869,2528.115143
517.308895,1850.514855,-9474.636058,2221.676944
517.309223,-444.123565,-11473.192101,1532.190996
517.309551,-2368.659014,-12361.439231,766.095498
517.309878,-2738.761985,-11621.233289,306.438199
517.310206,-1702.473667,-9622.677246,383.047749
517.310533,-296.082377,-8956.491898,766.095498
517.310861,0.000000,-9252.574275,306.438199
517.311189,-296.082377,-9030.512492,76.609550
517.311516,-592.164754,-8290.306550,-383.047749
517.311844,-222.061783,-8068.244768,0.000000
517.312172,-962.267725,-8364.327145,-919.314598
517.312499,-2812.782580,-10066.800811,-1455.581446
517.312827,-3330.926739,-9770.718434,-1685.410096
517.313155,-2368.659014,-9178.553681,-995.924147
517.313482,-1258.350101,-8438.347739,0.000000
517.313810,-222.061783,-8586.388927,306.438199
517.314137,222.061783,-9030.512492,306.438199
517.314465,1554.432478,-8216.285956,842.705048
517.314793,2220.617826,-8216.285956,1378.971896
517.315120,2072.576638,-8660.409521,1302.362347
517.315448,888.247130,-10214.842000,1072.533697
517.315776,0.000000,-10584.944971,995.924147
517.316103,296.082377,-9844.739029,689.485948
517.316431,666.185348,-9104.533087,459.657299
517.316759,1184.329507,-9030.512492,153.219100
517.317086,1184.329507,-9030.512492,689.485948
517.317414,1776.494261,-8956.491898,383.047749
517.317741,2146.597232,-9178.553681,1225.752797
517.318069,2072.576638,-9252.574275,1149.143247
517.318397,888.247130,-10066.800811,842.705048
517.318724,-666.185348,-10807.006753,229.828649
517.319052,-1554.432478,-9548.656652,689.485948
517.319380,-1480.411884,-8512.368333,612.876398
517.319707,-1406.391290,-8734.430116,919.314598
517.320035,-1110.308913,-8882.471304,1072.533697
517.320363,-962.267725,-8364.327145,1072.533697
517.320690,0.000000,-7402.059420,1991.848295
517.321018,1332.370696,-7328.038826,2221.676944
517.321345,0.000000,-8290.306550,1838.629195
517.321673,-1702.473667,-9696.697840,1302.362347
517.322001,-2664.741391,-9622.677246,689.485948
517.322328,-3330.926739,-8364.327145,229.828649
517.322656,-2442.679609,-8586.388927,0.000000
517.322984,-2146.597232,-8808.450710,76.609550
517.323311,-2072.576638,-9030.512492,-306.438199
517.323639,-740.205942,-9030.512492,153.219100
517.323967,0.000000,-8734.430116,229.828649
517.324294,222.061783,-9104.533087,383.047749
517.324622,-1184.329507,-10584.944971,-153.219100
517.324949,-1924.535449,-11251.130318,-459.657299
517.325277,-2146.597232,-10584.944971,-689.485948
517.325605,-888.247130,-8660.409521,153.219100
517.325932,518.144159,-7476.080014,0.000000
517.326260,1406.391290,-8142.265362,459.657299
517.326588,2664.741391,-7698.141797,1149.143247
517.326915,3627.009116,-7105.977043,1608.800546
517.327243,3108.864956,-7920.203579,2374.896044
517.327571,1776.494261,-8808.450710,2068.457845
517.327898,-740.205942,-10732.986159,612.876398
517.328226,-1332.370696,-10288.862594,459.657299
517.328553,-592.164754,-9622.677246,612.876398
517.328881,370.102971,-8882.471304,766.095498
517.329209,1110.308913,-9104.533087,689.485948
517.329536,814.226536,-8882.471304,306.438199
517.329864,814.226536,-8364.327145,383.047749
517.330192,444.123565,-7920.203579,-153.219100
517.330519,-148.041188,-8734.430116,-459.657299
517.330847,-2516.700203,-10288.862594,-995.924147
517.331175,-3627.009116,-10436.903782,-1149.143247
517.331502,-3108.864956,-9252.574275,-1302.362347
517.331830,-2072.576638,-8586.388927,-383.047749
517.332157,-592.164754,-8808.450710,306.438199
517.332485,370.102971,-9400.615463,995.924147
517.332813,814.226536,-8808.450710,919.314598
517.333140,1332.370696,-8512.368333,1608.800546
517.333468,1332.370696,-8956.491898,2068.457845
517.333796,0.000000,-10066.800811,1302.362347
517.334123,-1036.288319,-10881.027347,842.705048
517.334451,-1480.411884,-9992.780217,995.924147
517.334779,-148.041188,-8956.491898,612.876398
517.335106,666.185348,-8660.409521,1072.533697
517.335434,1480.411884,-9104.533087,1532.190996
517.335761,1110.308913,-9030.512492,612.876398
517.336089,148.041188,-9252.574275,1149.143247
517.336417,1036.288319,-9770.718434,766.095498
517.336744,-444.123565,-10140.821405,0.000000
517.337072,-2442.679609,-11399.171507,0.000000
517.337400,-3182.885551,-10807.006753,-383.047749
517.337727,-2368.659014,-9622.677246,0.000000
517.338055,-888.247130,-8808.450710,0.000000
517.338383,222.061783,-8142.265362,1072.533697
517.338710,0.000000,-8290.306550,1072.533697
517.339038,666.185348,-8068.244768,1685.410096
517.339365,1036.288319,-7105.977043,2298.286494
517.339693,1184.329507,-7698.141797,1838.629195
517.340021,-222.061783,-9104.533087,1455.581446
517.340348,-1332.370696,-9474.636058,1225.752797
517.340676,-2072.576638,-8956.491898,536.266849
517.341004,-1332.370696,-8068.244768,383.047749
517.341331,-222.061783,-8586.388927,919.314598
517.341659,-962.267725,-8216.285956,0.000000
517.341987,0.000000,-8586.388927,76.609550
517.342314,148.041188,-8290.306550,76.609550
517.342642,518.144159,-8660.409521,0.000000
517.342969,0.000000,-9696.697840,76.609550
517.343297,-1406.391290,-10658.965565,-383.047749
517.343625,-1998.556043,-10584.944971,-689.485948
517.343952,-1480.411884,-9474.636058,-383.047749
517.344280,-888.247130,-8660.409521,-459.657299
517.344608,0.000000,-8734.430116,842.705048
517.344935,962.267725,-8882.471304,229.828649
517.345263,1702.473667,-8290.306550,1378.971896
517.345591,2368.659014,-7846.182985,1991.848295
517.345918,2146.597232,-8512.368333,1991.848295
517.346246,814.226536,-9548.656652,1685.410096
517.346573,0.000000,-9622.677246,1072.533697
517.346901,-814.226536,-9474.636058,689.485948
517.347229,-962.267725,-8734.430116,689.485948
517.347556,-148.041188,-8586.388927,536.266849
517.347884,-666.185348,-9030.512492,229.828649
517.348212,0.000000,-8660.409521,536.266849
517.348539,444.123565,-8586.388927,383.047749
517.348867,296.082377,-8216.285956,306.438199
517.349194,-1036.288319,-9400.615463,-306.438199
517.349522,-2368.659014,-10436.903782,-766.095498
517.349850,-3034.844362,-9844.739029,-842.705048
517.350177,-2812.782580,-9252.574275,-459.657299
517.350505,-2294.638420,-8882.471304,-229.828649
517.350833,-1480.411884,-9104.533087,0.000000
517.351160,0.000000,-8882.471304,689.485948
517.351488,888.247130,-7994.224174,919.314598
517.351816,2146.597232,-7994.224174,2068.457845
517.352143,1924.535449,-8660.409521,1532.190996
517.352471,148.041188,-9844.739029,919.314598
517.352798,0.000000,-9844.739029,766.095498
517.353126,0.000000,-9326.594869,919.314598
517.353454,444.123565,-8586.388927,1378.971896
517.353781,1110.308913,-9104.533087,1149.143247
517.354109,1036.288319,-9622.677246,1225.752797
517.354437,518.144159,-9252.574275,919.314598
517.354764,592.164754,-9178.553681,995.924147
517.355092,0.000000,-9178.553681,459.657299
517.355420,-2220.617826,-11029.068536,-689.485948
517.355747,-2960.823768,-11399.171507,-766.095498
517.356075,-2960.823768,-10140.821405,-1225.752797
517.356402,-2072.576638,-8586.388927,-919.314598
517.356730,0.000000,-7994.224174,0.000000
517.357058,444.123565,-8734.430116,0.000000
517.357385,1258.350101,-8438.347739,919.314598
517.357713,1850.514855,-7994.224174,1455.581446
517.358041,962.267725,-8882.471304,1685.410096
517.358368,518.144159,-9696.697840,1915.238745
517.358696,-1258.350101,-10584.944971,919.314598
517.359024,-962.267725,-10436.903782,1225.752797
517.359351,0.000000,-9548.656652,1455.581446
517.359679,666.185348,-9030.512492,1991.848295
517.360006,296.082377,-9104.533087,1838.629195
517.360334,0.000000,-9178.553681,1608.800546
517.360662,0.000000,-8660.409521,459.657299
517.360989,74.020594,-8734.430116,383.047749
517.361317,-444.123565,-9178.553681,0.000000
517.361645,-2442.679609,-10584.944971,-689.485948
517.361972,-2812.782580,-10732.986159,-383.047749
517.362300,-2590.720797,-9622.677246,-536.266849
517.362628,-1406.391290,-8290.306550,0.000000
517.362955,0.000000,-7994.224174,383.047749
517.363283,296.082377,-8068.244768,766.095498
517.363610,592.164754,-8068.244768,1685.410096
517.363938,666.185348,-7846.182985,1608.800546
517.364266,592.164754,-8216.285956,1915.238745
517.364593,74.020594,-9030.512492,1685.410096
517.364921,-740.205942,-9992.780217,1532.190996
517.365249,-370.102971,-9326.594869,1532.190996
517.365576,296.082377,-7846.182985,1072.533697
517.365904,296.082377,-7476.080014,1378.971896
517.366232,0.000000,-7698.141797,919.314598
517.366559,296.082377,-8512.368333,383.047749
517.366887,148.041188,-8142.265362,76.609550
517.367214,222.061783,-8142.265362,0.000000
517.367542,0.000000,-8882.471304,0.000000
517.367870,-1776.494261,-10214.842000,-689.485948
517.368197,-2664.741391,-10362.883188,-1072.533697
517.368525,-2368.659014,-9474.636058,-1149.143247
517.368853,-2072.576638,-8290.306550,-842.705048
517.369180,-740.205942,-8586.388927,-153.219100
517.369508,-740.205942,-8586.388927,-153.219100
517.369836,814.226536,-8586.388927,612.876398
517.370163,1702.473667,-8586.388927,1532.190996
517.370491,1924.535449,-8364.327145,2221.676944
517.370818,740.205942,-9178.553681,1072.533697
517.371146,-148.041188,-10140.821405,842.705048
517.371474,-518.144159,-9696.697840,689.485948
517.371801,148.041188,-8586.388927,842.705048
517.372129,518.144159,-8142.265362,1072.533697
517.372457,1406.391290,-8956.491898,1149.143247
517.372784,1184.329507,-9252.574275,612.876398
517.373112,1110.308913,-8956.491898,383.047749
517.373440,814.226536,-9030.512492,229.828649
517.373767,0.000000,-10140.821405,0.000000
517.374095,-2368.659014,-11103.089130,-1149.143247
517.374422,-3256.906145,-10288.862594,-1302.362347
517.374750,-2960.823768,-9400.615463,-1225.752797
517.375078,-2146.597232,-8512.368333,-995.924147
517.375405,-1480.411884,-8438.347739,-536.266849
517.375733,-888.247130,-8364.327145,229.828649
517.376061,740.205942,-8438.347739,383.047749
517.376388,1554.432478,-7476.080014,1072.533697
517.376716,1554.432478,-8142.265362,1302.362347
517.377044,0.000000,-9992.780217,1072.533697
517.377371,-444.123565,-10584.944971,766.095498
517.377699,-1036.288319,-9326.594869,995.924147
517.378026,-370.102971,-8956.491898,1225.752797
517.378354,518.144159,-8808.450710,1225.752797
517.378682,814.226536,-9770.718434,1225.752797
517.379009,962.267725,-9474.636058,612.876398
517.379337,888.247130,-8364.327145,995.924147
517.379665,1406.391290,-9400.615463,919.314598
517.379992,-888.247130,-10362.883188,-153.219100
517.380320,-2442.679609,-11177.109724,-842.705048
517.380648,-2516.700203,-10510.924376,-919.314598
517.380975,-1924.535449,-9030.512492,-229.828649
517.381303,-740.205942,-9030.512492,0.000000
517.381630,0.000000,-9474.636058,766.095498
517.381958,296.082377,-9474.636058,1149.143247
517.382286,1332.370696,-8586.388927,1838.629195
517.382613,1924.535449,-8734.430116,1991.848295
517.382941,1036.288319,-9770.718434,1915.238745
517.383269,-740.205942,-10658.965565,1532.190996
517.383596,-1036.288319,-10214.842000,1455.581446
517.383924,-962.267725,-8808.450710,1685.410096
517.384252,-222.061783,-8216.285956,1991.848295
517.384579,0.000000,-8364.327145,1685.410096
517.384907,-222.061783,-8882.471304,1225.752797
517.385234,518.144159,-8660.409521,1302.362347
517.385562,74.020594,-8882.471304,919.314598
517.385890,-296.082377,-9770.718434,536.266849
517.386217,-2368.659014,-11251.130318,-383.047749
517.386545,-3701.029710,-11843.295072,-995.924147
517.386873,-3404.947333,-10214.842000,-1149.143247
517.387200,-2072.576638,-9030.512492,-766.095498
517.387528,-592.164754,-8512.368333,-383.047749
517.387856,296.082377,-8882.471304,-459.657299
517.388183,888.247130,-8290.306550,459.657299
517.388511,1554.432478,-7624.121203,689.485948
517.388838,1924.535449,-7772.162391,919.314598
517.389166,1036.288319,-8882.471304,995.924147
517.389494,0.000000,-9918.759623,766.095498
517.389821,-222.061783,-9474.636058,1072.533697
517.390149,-148.041188,-8512.368333,766.095498
517.390477,1332.370696,-8364.327145,1302.362347
517.390804,1110.308913,-7920.203579,689.485948
517.391132,2072.576638,-8068.244768,995.924147
517.391460,1702.473667,-7772.162391,842.705048
517.391787,1628.453072,-7624.121203,229.828649
517.392115,1332.370696,-8882.471304,459.657299
517.392442,-444.123565,-10066.800811,-229.828649
517.392770,-2294.638420,-9474.636058,-995.924147
517.393098,-2294.638420,-8512.368333,-842.705048
517.393425,-1776.494261,-8438.347739,-1149.143247
517.393753,-2146.597232,-9030.512492,-995.924147
517.394081,-2294.638420,-8586.388927,-689.485948
517.394408,-962.267725,-8438.347739,0.000000
517.394736,370.102971,-7846.182985,689.485948
517.395064,370.102971,-6883.915261,919.314598
517.395391,740.205942,-8586.388927,919.314598
517.395719,-222.061783,-9030.512492,842.705048
517.396046,-962.267725,-8438.347739,689.485948
517.396374,-222.061783,-8364.327145,1378.971896
517.396702,296.082377,-7772.162391,612.876398
517.397029,148.041188,-8660.409521,842.705048
517.397357,1258.350101,-8660.409521,1302.362347
517.397685,2368.659014,-8216.285956,1838.629195
517.398012,2294.638420,-7846.182985,2068.457845
517.398340,962.267725,-9696.697840,1378.971896
517.398668,-1184.329507,-11103.089130,0.000000
517.398995,-2220.617826,-10658.965565,-306.438199
517.399323,-2516.700203,-9770.718434,-612.876398
517.399650,-2442.679609,-9400.615463,-153.219100
517.399978,-1628.453072,-9400.615463,76.609550
517.400306,-1110.308913,-9770.718434,459.657299
517.400633,0.000000,-8882.471304,995.924147
517.400961,814.226536,-8438.347739,1532.190996
517.401289,814.226536,-9252.574275,1991.848295
517.401616,-1332.370696,-10214.842000,1685.410096
517.401944,-1850.514855,-10436.903782,919.314598
517.402272,-2368.659014,-9770.718434,612.876398
517.402599,-1480.411884,-8882.471304,1149.143247
517.402927,-666.185348,-8364.327145,1455.581446
517.403254,0.000000,-8364.327145,1838.629195
517.403582,296.082377,-7994.224174,1685.410096
517.403910,888.247130,-7550.100608,1532.190996
517.404237,814.226536,-8290.306550,1302.362347
517.404565,-592.164754,-9400.615463,383.047749
517.404893,-2072.576638,-11103.089130,-306.438199
517.405220,-2368.659014,-11029.068536,-766.095498
517.405548,-2368.659014,-10288.862594,-766.095498
517.405876,-1850.514855,-10140.821405,-383.047749
517.406203,-1184.329507,-9992.780217,-229.828649
517.406531,0.000000,-9622.677246,0.000000
517.406858,1480.411884,-8882.471304,1149.143247
517.407186,2368.659014,-8660.409521,1302.362347
517.407514,1850.514855,-9400.615463,1072.533697
517.407841,444.123565,-10214.842000,766.095498
517.408169,-370.102971,-10140.821405,612.876398
517.408497,-370.102971,-9474.636058,919.314598
517.408824,148.041188,-8512.368333,1455.581446
517.409152,740.205942,-8956.491898,1455.581446
517.409480,888.247130,-8882.471304,1378.971896
517.409807,1702.473667,-8142.265362,1608.800546
517.410135,1924.535449,-7772.162391,1608.800546
517.410462,1480.411884,-8142.265362,1149.143247
517.410790,-666.185348,-10362.883188,153.219100
517.411118,-2294.638420,-11325.150913,-459.657299
517.411445,-2516.700203,-9400.615463,-1072.533697
517.411773,-1776.494261,-8586.388927,-612.876398
517.412101,-962.267725,-8586.388927,-1225.752797
517.412428,-814.226536,-8142.265362,0.000000
517.412756,296.082377,-7772.162391,76.609550
517.413084,444.123565,-7105.977043,306.438199
517.413411,592.164754,-7698.141797,919.314598
517.413739,-518.144159,-9030.512492,1149.143247
517.414066,-2220.617826,-10584.944971,153.219100
517.414394,-2368.659014,-9548.656652,76.609550
517.414722,-1110.308913,-8586.388927,229.828649
517.415049,0.000000,-8068.244768,842.705048
517.415377,1406.391290,-7179.997637,1608.800546
517.415705,2516.700203,-7772.162391,1838.629195
517.416032,2590.720797,-7402.059420,1762.019645
517.416360,1924.535449,-7328.038826,1455.581446
517.416688,962.267725,-9548.656652,1149.143247
517.417015,-1036.288319,-10436.903782,0.000000
517.417343,-2368.659014,-10807.006753,-842.705048
517.417670,-2146.597232,-10066.800811,-919.314598
517.417998,-1554.432478,-9474.636058,-229.828649
517.418326,-592.164754,-9474.636058,0.000000
517.418653,0.000000,-9770.718434,229.828649
517.418981,296.082377,-8216.285956,459.657299
517.419309,74.020594,-8734.430116,766.095498
517.419636,148.041188,-9918.759623,766.095498
517.419964,-1480.411884,-10584.944971,0.000000
517.420292,-2368.659014,-10658.965565,-76.609550
517.420619,-1480.411884,-9030.512492,919.314598
517.420947,-592.164754,-7846.182985,306.438199
517.421274,740.205942,-7772.162391,689.485948
517.421602,1332.370696,-7698.141797,1149.143247
517.421930,1554.432478,-7772.162391,1225.752797
517.422257,1480.411884,-8068.244768,1838.629195
517.422585,1110.308913,-8808.450710,1532.190996
517.422913,-814.226536,-10140.821405,766.095498
517.423240,-2072.576638,-11621.233289,383.047749
517.423568,-1776.494261,-10584.944971,0.000000
517.423896,-1406.391290,-9326.594869,0.000000
517.424223,-370.102971,-9474.636058,0.000000
517.424551,518.144159,-9548.656652,536.266849
517.424878,222.061783,-9030.512492,612.876398
517.425206,962.267725,-7920.203579,689.485948
517.425534,1332.370696,-8734.430116,1378.971896
517.425861,666.185348,-9992.780217,1072.533697
517.426189,-1480.411884,-10584.944971,689.485948
517.426517,-1998.556043,-10881.027347,995.924147
517.426844,-1406.391290,-9548.656652,1149.143247
517.427172,-1480.411884,-9104.533087,1302.362347
517.427500,-814.226536,-9104.533087,1991.848295
517.427827,-592.164754,-8438.347739,1302.362347
517.428155,370.102971,-7920.203579,1455.581446
517.428482,1110.308913,-7772.162391,1685.410096
517.428810,888.247130,-8364.327145,1378.971896
517.429138,0.000000,-9178.553681,1302.362347
517.429465,-888.247130,-9696.697840,306.438199
517.429793,-1776.494261,-8956.491898,153.219100
517.430121,-1332.370696,-8290.306550,-306.438199
517.430448,-814.226536,-8438.347739,306.438199
517.430776,-666.185348,-9030.512492,0.000000
517.431104,-1184.329507,-8882.471304,0.000000
517.431431,0.000000,-8438.347739,383.047749
517.431759,370.102971,-8882.471304,689.485948
517.432086,222.061783,-9326.594869,612.876398
517.432414,-1036.288319,-10584.944971,0.000000
517.432742,-1924.535449,-9992.780217,0.000000
517.433069,-1554.432478,-8808.450710,0.000000
517.433397,-592.164754,-8512.368333,0.000000
517.433725,0.000000,-8882.471304,459.657299
517.434052,518.144159,-8512.368333,536.266849
517.434380,1776.494261,-7476.080014,842.705048
517.434708,2590.720797,-7105.977043,1149.143247
517.435035,2442.679609,-7994.224174,1302.362347
517.435363,888.247130,-9104.533087,612.876398
517.435690,-962.267725,-9844.739029,76.609550
517.436018,-888.247130,-8734.430116,-229.828649
517.436346,-1184.329507,-8512.368333,153.219100
517.436673,-962.267725,-9178.553681,306.438199
517.437001,-1258.350101,-9252.574275,76.609550
517.437329,-592.164754,-9030.512492,153.219100
517.437656,296.082377,-8216.285956,689.485948
517.437984,814.226536,-8734.430116,612.876398
517.438312,0.000000,-9474.636058,306.438199
517.438639,-1554.432478,-10436.903782,0.000000
517.438967,-2146.597232,-9474.636058,-229.828649
517.439294,-1924.535449,-8438.347739,-306.438199
517.439622,-1036.288319,-8290.306550,536.266849
517.439950,-296.082377,-8808.450710,459.657299
517.440277,0.000000,-8956.491898,689.485948
517.440605,740.205942,-7772.162391,1455.581446
517.440933,1184.329507,-8438.347739,1378.971896
517.441260,1554.432478,-9326.594869,1685.410096
517.441588,-666.185348,-10436.903782,689.485948
517.441916,-1776.494261,-9992.780217,229.828649
517.442243,-592.164754,-8956.491898,306.438199
517.442571,-518.144159,-7994.224174,153.219100
517.442898,592.164754,-8364.327145,383.047749
517.443226,888.247130,-9178.553681,766.095498
517.443554,1184.329507,-8438.347739,1072.533697
517.443881,1924.535449,-8364.327145,1532.190996
517.444209,962.267725,-9992.780217,1302.362347
517.444537,-814.226536,-11325.150913,995.924147
517.444864,-2738.761985,-11991.336260,76.609550
517.445192,-2516.700203,-11177.109724,383.047749
517.445520,-1628.453072,-9696.697840,306.438199
517.445847,-888.247130,-9400.615463,766.095498
517.446175,-444.123565,-9252.574275,536.266849
517.446502,444.123565,-8660.409521,1455.581446
517.446830,814.226536,-7550.100608,689.485948
517.447158,592.164754,-7476.080014,842.705048
517.447485,74.020594,-8660.409521,306.438199
517.447813,-1480.411884,-9844.739029,0.000000
517.448141,-1406.391290,-9622.677246,0.000000
517.448468,-1258.350101,-8734.430116,229.828649
517.448796,-666.185348,-9104.533087,842.705048
517.449124,-666.185348,-9474.636058,919.314598
517.449451,-148.041188,-9474.636058,766.095498
517.449779,888.247130,-8882.471304,1302.362347
517.450106,1110.308913,-8734.430116,689.485948
517.450434,1406.391290,-9252.574275,919.314598
517.450762,0.000000,-10436.903782,766.095498
517.451089,-962.267725,-10510.924376,306.438199
517.451417,-1406.391290,-9400.615463,76.609550
517.451745,-370.102971,-8512.368333,229.828649
517.452072,-962.267725,-8956.491898,229.828649
517.452400,-370.102971,-9474.636058,153.219100
517.452728,-148.041188,-9030.512492,383.047749
517.453055,296.082377,-8438.347739,919.314598
517.453383,814.226536,-8438.347739,1762.019645
517.453710,148.041188,-9326.594869,1149.143247
517.454038,-1184.329507,-10288.862594,383.047749
517.454366,-1480.411884,-9548.656652,229.828649
517.454693,-1258.350101,-8586.388927,76.609550
517.455021,-1184.329507,-7698.141797,383.047749
517.455349,0.000000,-8956.491898,383.047749
517.455676,-444.123565,-8660.409521,76.609550
517.456004,666.185348,-7105.977043,459.657299
517.456332,1702.473667,-7624.121203,1149.143247
517.456659,1998.556043,-9030.512492,1149.143247
517.456987,0.000000,-9992.780217,536.266849
517.457314,-814.226536,-9918.759623,153.219100
517.457642,-1184.329507,-9104.533087,0.000000
517.457970,-1110.308913,-9104.533087,306.438199
517.458297,-814.226536,-9400.615463,383.047749
517.458625,-592.164754,-9474.636058,459.657299
517.458953,0.000000,-8882.471304,612.876398
517.459280,1036.288319,-8364.327145,1149.143247
517.459608,1332.370696,-8586.388927,1302.362347
517.459936,74.020594,-9474.636058,766.095498
517.460263,-740.205942,-9918.759623,383.047749
517.460591,-1850.514855,-9030.512492,229.828649
517.460918,-1554.432478,-8438.347739,76.609550
517.461246,-1110.308913,-9030.512492,612.876398
517.461574,-888.247130,-8734.430116,536.266849
517.461901,0.000000,-8216.285956,995.924147
517.462229,1332.370696,-7698.141797,995.924147
517.462557,1554.432478,-8290.306550,1455.581446
517.462884,814.226536,-8882.471304,1378.971896
517.463212,-518.144159,-9992.780217,766.095498
517.463540,-1036.288319,-9622.677246,536.266849
517.463867,-814.226536,-9104.533087,306.438199
517.464195,-1184.329507,-9178.553681,459.657299
517.464522,-1110.308913,-9400.615463,76.609550
517.464850,-1036.288319,-9474.636058,306.438199
517.465178,148.041188,-8586.388927,612.876398
517.465505,666.185348,-8438.347739,766.095498
517.465833,370.102971,-9326.594869,536.266849
517.466161,-740.205942,-10436.903782,76.609550
517.466488,-2294.638420,-10807.006753,-459.657299
517.466816,-1924.535449,-9548.656652,-612.876398
517.467144,-888.247130,-9252.574275,153.219100
517.467471,-148.041188,-9030.512492,612.876398
517.467799,222.061783,-8734.430116,612.876398
517.468126,1184.329507,-8068.244768,1072.533697
517.468454,1924.535449,-7550.100608,1149.143247
517.468782,1924.535449,-8216.285956,1838.629195
517.469109,1628.453072,-9844.739029,919.314598
517.469437,-814.226536,-10732.986159,229.828649
517.469765,-1406.391290,-10288.862594,229.828649
517.470092,-1406.391290,-9548.656652,306.438199
517.470420,-592.164754,-9548.656652,842.705048
517.470748,-666.185348,-9474.636058,766.095498
517.471075,-296.082377,-9030.512492,306.438199
517.471403,296.082377,-8216.285956,153.219100
517.471730,814.226536,-8438.347739,459.657299
517.472058,444.123565,-9252.574275,0.000000
517.472386,-888.247130,-9622.677246,-383.047749
517.472713,-1628.453072,-10436.903782,-459.657299
517.473041,-1702.473667,-9474.636058,0.000000
517.473369,-666.185348,-9400.615463,383.047749
517.473696,-222.061783,-9030.512492,919.314598
517.474024,74.020594,-8512.368333,1378.971896
517.474352,1406.391290,-8068.244768,1838.629195
517.474679,1628.453072,-7476.080014,1991.848295
517.475007,1184.329507,-8216.285956,1838.629195
517.475334,148.041188,-9474.636058,1685.410096
517.475662,-1406.391290,-9918.759623,153.219100
517.475990,-2072.576638,-9696.697840,1225.752797
517.476317,-1406.391290,-8956.491898,689.485948
517.476645,-962.267725,-9030.512492,766.095498
517.476973,-518.144159,-9252.574275,995.924147
517.477300,-370.102971,-8364.327145,612.876398
517.477628,592.164754,-7772.162391,995.924147
517.477956,296.082377,-8290.306550,919.314598
517.478283,-1036.288319,-9178.553681,0.000000
517.478611,-2442.679609,-10362.883188,-536.266849
517.478938,-2664.741391,-10066.800811,-689.485948
517.479266,-2146.597232,-8290.306550,0.000000
517.479594,-962.267725,-8216.285956,306.438199
517.479921,0.000000,-8290.306550,689.485948
517.480249,0.000000,-8142.265362,842.705048
517.480577,1554.432478,-7846.182985,1991.848295
517.480904,1702.473667,-7550.100608,1762.019645
517.481232,1184.329507,-8956.491898,2145.067394
517.481560,148.041188,-10140.821405,995.924147
517.481887,-1184.329507,-10140.821405,229.828649
517.482215,-962.267725,-9548.656652,153.219100
517.482542,-518.144159,-8882.471304,689.485948
517.482870,296.082377,-9030.512492,0.000000
517.483198,0.000000,-8956.491898,0.000000
517.483525,370.102971,-8586.388927,0.000000
517.483853,1480.411884,-8216.285956,306.438199
517.484181,1628.453072,-8808.450710,383.047749
517.484508,666.185348,-9696.697840,0.000000
517.484836,-518.144159,-10955.047942,0.000000
517.485164,-1110.308913,-9992.780217,0.000000
517.485491,-1184.329507,-9400.615463,229.828649
517.485819,-814.226536,-9326.594869,383.047749
517.486146,-296.082377,-8956.491898,153.219100
517.486474,0.000000,-8364.327145,1302.362347
517.486802,1184.329507,-7920.203579,1455.581446
517.487129,1850.514855,-7698.141797,1685.410096
517.487457,1850.514855,-8734.430116,1915.238745
517.487785,0.000000,-9770.718434,1762.019645
517.488112,-962.267725,-9844.739029,689.485948
517.488440,-1036.288319,-8956.491898,459.657299
517.488768,-1554.432478,-9252.574275,306.438199
517.489095,-1776.494261,-9400.615463,0.000000
517.489423,-1776.494261,-9918.759623,229.828649
517.489750,-1110.308913,-9030.512492,76.609550
517.490078,-296.082377,-8438.347739,766.095498
517.490406,0.000000,-8438.347739,689.485948
517.490733,-740.205942,-9622.677246,153.219100
517.491061,-2220.617826,-10584.944971,-306.438199
517.491389,-2146.597232,-9252.574275,-306.438199
517.491716,-2146.597232,-9030.512492,0.000000
517.492044,-1332.370696,-9030.512492,459.657299
517.492372,-888.247130,-9104.533087,919.314598
517.492699,740.205942,-8808.450710,1302.362347
517.493027,1924.535449,-7624.121203,1838.629195
517.493354,2664.741391,-8290.306550,2298.286494
517.493682,2146.597232,-9104.533087,2068.457845
517.494010,666.185348,-10362.883188,1225.752797
517.494337,-296.082377,-10584.944971,919.314598
517.494665,-740.205942,-9548.656652,612.876398
517.494993,-592.164754,-9474.636058,536.266849
517.495320,-1036.288319,-9992.780217,153.219100
517.495648,-814.226536,-9696.697840,229.828649
517.495976,518.144159,-9400.615463,612.876398
517.496303,814.226536,-8586.388927,459.657299
517.496631,0.000000,-9252.574275,0.000000
517.496958,-1110.308913,-10510.924376,-536.266849
517.497286,-2738.761985,-10658.965565,-842.705048
517.497614,-2664.741391,-9104.533087,-995.924147
517.497941,-1702.473667,-8142.265362,-842.705048
517.498269,0.000000,-8438.347739,-536.266849
517.498597,0.000000,-8512.368333,536.266849
517.498924,888.247130,-7254.018232,1149.143247
517.499252,1702.473667,-7179.997637,1685.410096
517.499580,1776.494261,-8142.265362,2145.067394
517.499907,370.102971,-9992.780217,1685.410096
517.500235,-1258.350101,-10510.924376,1072.533697
517.500562,-1332.370696,-10066.800811,612.876398
517.500890,-888.247130,-9030.512492,536.266849
517.501218,0.000000,-9030.512492,536.266849
517.501545,222.061783,-8808.450710,536.266849
517.501873,444.123565,-8290.306550,153.219100
517.502201,1184.329507,-8068.244768,766.095498
517.502528,962.267725,-8142.265362,383.047749
517.502856,-370.102971,-9178.553681,0.000000
517.503184,-1332.370696,-11177.109724,0.000000
517.503511,-2738.761985,-10510.924376,-689.485948
517.503839,-2442.679609,-8956.491898,-766.095498
517.504166,-1110.308913,-8290.306550,0.000000
517.504494,148.041188,-8290.306550,919.314598
517.504822,518.144159,-8216.285956,1378.971896
517.505150,1258.350101,-7179.997637,2068.457845
517.505477,1406.391290,-7402.059420,2145.067394
517.505805,1184.329507,-8290.306550,2374.896044
517.506133,-444.123565,-9400.615463,1608.800546
517.506460,-1332.370696,-10066.800811,1149.143247
517.506788,-740.205942,-8660.409521,1149.143247
517.507116,0.000000,-8068.244768,1455.581446
517.507443,296.082377,-8068.244768,1455.581446
517.507771,370.102971,-8808.450710,766.095498
517.508099,0.000000,-9030.512492,766.095498
517.508427,0.000000,-8142.265362,536.266849
517.508754,0.000000,-8438.347739,0.000000
517.509082,-1332.370696,-10140.821405,76.609550
517.509410,-2886.803174,-11473.192101,-459.657299
517.509737,-3034.844362,-10510.924376,-536.266849
517.510065,-2220.617826,-8364.327145,-459.657299
517.510393,-888.247130,-8142.265362,229.828649
517.510720,0.000000,-8068.244768,459.657299
517.511048,444.123565,-7994.224174,995.924147
517.511376,1776.494261,-6957.935855,1608.800546
517.511704,2368.659014,-7031.956449,2374.896044
517.512031,2442.679609,-7846.182985,3140.991542
517.512359,888.247130,-10140.821405,2604.724693
517.512687,-592.164754,-10955.047942,2298.286494
517.513014,-888.247130,-9918.759623,2068.457845
517.513342,-444.123565,-9326.594869,2374.896044
517.513670,74.020594,-9326.594869,2451.505594
517.513997,74.020594,-10066.800811,2451.505594
517.514325,444.123565,-9400.615463,2145.067394
517.514653,296.082377,-8586.388927,1915.238745
517.514981,296.082377,-8660.409521,1378.971896
517.515308,0.000000,-9770.718434,1225.752797
517.515636,-2146.597232,-11251.130318,689.485948
517.515964,-3182.885551,-11325.150913,0.000000
517.516291,-3775.050304,-10362.883188,229.828649
517.516619,-1998.556043,-9326.594869,1072.533697
517.516947,-666.185348,-9400.615463,1762.019645
517.517274,0.000000,-9474.636058,2221.676944
517.517602,-148.041188,-9326.594869,2221.676944
517.517930,518.144159,-9104.533087,2987.772442
517.518258,1110.308913,-8586.388927,3064.381992
517.518585,1480.411884,-8956.491898,3370.820191
517.518913,814.226536,-9844.739029,2987.772442
517.519241,0.000000,-9548.656652,3217.601092
517.519568,-296.082377,-8882.471304,3294.210641
517.519896,888.247130,-8364.327145,3447.429741
517.520224,1702.473667,-8290.306550,3677.258390
517.520551,1332.370696,-9400.615463,3370.820191
517.520879,370.102971,-10436.903782,2757.943793
517.521207,444.123565,-10066.800811,2834.553343
517.521535,1332.370696,-9696.697840,3677.258390
517.521862,1998.556043,-10140.821405,3983.696590
517.522190,814.226536,-11103.089130,3907.087040
517.522518,-1554.432478,-11621.233289,3294.210641
517.522845,-3552.988522,-11177.109724,3064.381992
517.523173,-3775.050304,-9104.533087,2834.553343
517.523501,-2072.576638,-8216.285956,3064.381992
517.523828,-962.267725,-8068.244768,3217.601092
517.524156,-1110.308913,-8364.327145,2757.943793
517.524484,-2220.617826,-8142.265362,2911.162892
517.524812,-1406.391290,-7254.018232,2911.162892
517.525139,0.000000,-6217.729913,3140.991542
517.525467,1850.514855,-6587.832884,4443.353888
517.525795,1702.473667,-7402.059420,4979.620737
517.526122,0.000000,-8660.409521,4366.744339
517.526450,-1702.473667,-9326.594869,3983.696590
517.526778,-2294.638420,-9400.615463,3830.477490
517.527105,-740.205942,-9104.533087,3753.867940
517.527433,1332.370696,-9474.636058,4673.182538
517.527761,2072.576638,-10288.862594,4213.525239
517.528089,444.123565,-11029.068536,4136.915689
517.528416,-962.267725,-10584.944971,3370.820191
517.528744,-1258.350101,-9400.615463,2987.772442
517.529072,0.000000,-8142.265362,2145.067394
517.529399,1776.494261,-8364.327145,3600.648841
517.529727,2072.576638,-8660.409521,3370.820191
517.530055,222.061783,-9252.574275,3907.087040
517.530383,-2146.597232,-9548.656652,3140.991542
517.530710,-3330.926739,-9622.677246,2528.115143
517.531038,-3034.844362,-9548.656652,1838.629195
517.531366,-1406.391290,-9104.533087,2298.286494
517.531693,518.144159,-8142.265362,2451.505594
517.532021,1110.308913,-7402.059420,3524.039291
517.532349,296.082377,-7179.997637,3524.039291
517.532676,-666.185348,-7846.182985,3677.258390
517.533004,-2146.597232,-8808.450710,1685.410096
517.533332,-2146.597232,-9178.553681,919.314598
517.533660,-222.061783,-8956.491898,1455.581446
517.533987,1406.391290,-8216.285956,2757.943793
517.534315,3552.988522,-8364.327145,4749.792088
517.534643,4219.173869,-9030.512492,5286.058936
517.534970,3256.906145,-10214.842000,4979.620737
517.535298,1036.288319,-11325.150913,4136.915689
517.535626,-1554.432478,-11843.295072,3064.381992
517.535953,-2812.782580,-11621.233289,2987.772442
517.536281,-1332.370696,-10955.047942,3447.429741
517.536609,1110.308913,-10214.842000,4673.182538
517.536937,3330.926739,-9400.615463,5669.106685
517.537264,3404.947333,-9104.533087,5745.716235
517.537592,740.205942,-9178.553681,4903.011187
517.537920,-2960.823768,-9178.553681,3370.820191
517.538247,-5403.503377,-9252.574275,1991.848295
517.538575,-5551.544565,-9252.574275,1225.752797
517.538903,-3775.050304,-8364.327145,1532.190996
517.539230,-1110.308913,-7328.038826,2911.162892
517.539558,1332.370696,-6291.750507,4903.011187
517.539886,1628.453072,-6735.874072,5286.058936
517.540214,370.102971,-7772.162391,4596.572988
517.540541,-1332.370696,-9030.512492,3600.648841
517.540869,-3478.967927,-9992.780217,2145.067394
517.541197,-4219.173869,-10807.006753,919.314598
517.541524,-3478.967927,-10362.883188,1762.019645
517.541852,-1332.370696,-10066.800811,2987.772442
517.542180,1332.370696,-9178.553681,3830.477490
517.542507,3256.906145,-8512.368333,4443.353888
517.542835,3627.009116,-8438.347739,4749.792088
517.543163,2368.659014,-8882.471304,3217.601092
517.543491,1036.288319,-9622.677246,2757.943793
517.543818,74.020594,-10436.903782,2221.676944
517.544146,0.000000,-10436.903782,2374.896044
517.544474,0.000000,-10140.821405,2911.162892
517.544801,370.102971,-9622.677246,4060.306139
517.545129,296.082377,-8808.450710,3907.087040
517.545457,0.000000,-8660.409521,3830.477490
517.545784,0.000000,-8142.265362,3217.601092
517.546112,-444.123565,-8068.244768,2374.896044
517.546440,0.000000,-7994.224174,1838.629195
517.546768,740.205942,-7476.080014,1991.848295
517.547095,666.185348,-7624.121203,2757.943793
517.547423,1258.350101,-7550.100608,3753.867940
517.547751,1554.432478,-8364.327145,4366.744339
517.548078,592.164754,-9104.533087,4749.792088
517.548406,148.041188,-9918.759623,4903.011187
517.548734,-1036.288319,-9844.739029,3370.820191
517.549061,-1850.514855,-10066.800811,3140.991542
517.549389,-1480.411884,-10584.944971,3217.601092
517.549717,-1554.432478,-10066.800811,3140.991542
517.550045,-370.102971,-9548.656652,3140.991542
517.550372,0.000000,-9326.594869,3370.820191
517.550700,148.041188,-8512.368333,3294.210641
517.551028,-296.082377,-8290.306550,3447.429741
517.551355,-888.247130,-8216.285956,2987.772442
517.551683,-1924.535449,-8068.244768,2987.772442
517.552011,-1554.432478,-8364.327145,2834.553343
517.552338,-1628.453072,-8660.409521,2834.553343
517.552666,-666.185348,-8734.430116,3600.648841
517.552994,0.000000,-8956.491898,3907.087040
517.553322,444.123565,-9030.512492,4596.572988
517.553649,74.020594,-9696.697840,4213.525239
517.553977,-666.185348,-9770.718434,4136.915689
517.554305,-1258.350101,-9474.636058,3600.648841
517.554632,-1332.370696,-9178.553681,3140.991542
517.554960,-296.082377,-9178.553681,3294.210641
517.555288,888.247130,-9030.512492,3294.210641
517.555615,1036.288319,-9252.574275,2987.772442
517.555943,888.247130,-9474.636058,2681.334243
517.556271,0.000000,-9918.759623,2911.162892
517.556599,-518.144159,-10658.965565,2451.505594
517.556926,-814.226536,-10288.862594,2068.457845
517.557254,-740.205942,-9918.759623,1838.629195
517.557582,-518.144159,-9770.718434,2068.457845
517.557909,-444.123565,-9474.636058,2298.286494
517.558237,-370.102971,-9474.636058,1991.848295
517.558565,-296.082377,-9474.636058,1915.238745
517.558892,-962.267725,-9400.615463,2145.067394
517.559220,-1184.329507,-8882.471304,1532.190996
517.559548,-1184.329507,-8586.388927,1225.752797
517.559876,-370.102971,-8290.306550,1225.752797
517.560203,74.020594,-7994.224174,1149.143247
517.560531,444.123565,-7846.182985,995.924147
517.560859,888.247130,-8438.347739,1072.533697
517.561186,296.082377,-8734.430116,1225.752797
517.561514,222.061783,-9474.636058,1302.362347
517.561842,74.020594,-9918.759623,1225.752797
517.562169,444.123565,-9992.780217,1225.752797
517.562497,1036.288319,-10140.821405,1302.362347
517.562825,1110.308913,-10066.800811,1532.190996
517.563153,1036.288319,-10066.800811,1685.410096
517.563480,814.226536,-9548.656652,1608.800546
517.563808,592.164754,-9474.636058,1685.410096
517.564136,-444.123565,-9400.615463,1072.533697
517.564463,-740.205942,-9326.594869,842.705048
517.564791,-888.247130,-9030.512492,919.314598
517.565119,-592.164754,-8660.409521,842.705048
517.565446,0.000000,-8364.327145,1302.362347
517.565774,-1036.288319,-8142.265362,612.876398
517.566102,-740.205942,-8364.327145,459.657299
517.566430,-1036.288319,-7846.182985,459.657299
517.566757,-814.226536,-7698.141797,459.657299
517.567085,-740.205942,-7254.018232,536.266849
517.567413,-666.185348,-8290.306550,536.266849
517.567740,-592.164754,-8808.450710,766.095498
517.568068,-444.123565,-9104.533087,995.924147
517.568396,-666.185348,-8808.450710,1072.533697
517.568724,-444.123565,-8808.450710,1072.533697
517.569051,0.000000,-8956.491898,612.876398
517.569379,74.020594,-9178.553681,689.485948
517.569707,296.082377,-9178.553681,919.314598
517.570034,222.061783,-8882.471304,919.314598
517.570362,222.061783,-9252.574275,919.314598
517.570690,222.061783,-9622.677246,1225.752797
517.571017,0.000000,-9474.636058,1225.752797
517.571345,0.000000,-9548.656652,1532.190996
517.571673,-370.102971,-9326.594869,842.705048
517.572001,-222.061783,-9400.615463,766.095498
517.572328,-518.144159,-8956.491898,1149.143247
517.572656,-296.082377,-8808.450710,842.705048
517.572984,-370.102971,-8734.430116,1072.533697
517.573311,-666.185348,-8882.471304,995.924147
517.573639,-888.247130,-8882.471304,842.705048
517.573967,-888.247130,-8660.409521,1225.752797
517.574294,-962.267725,-8660.409521,766.095498
517.574622,-1184.329507,-8956.491898,536.266849
517.574950,-1036.288319,-9030.512492,383.047749
517.575278,-666.185348,-9252.574275,306.438199
517.575605,-370.102971,-9770.718434,919.314598
517.575933,-370.102971,-8808.450710,689.485948
517.576261,0.000000,-9400.615463,459.657299
517.576588,0.000000,-9844.739029,536.266849
517.576916,0.000000,-9770.718434,459.657299
517.577244,-222.061783,-9770.718434,153.219100
517.577571,0.000000,-9696.697840,842.705048
517.577899,-296.082377,-10362.883188,689.485948
517.578227,-296.082377,-9992.780217,689.485948
517.578555,0.000000,-9696.697840,612.876398
517.578882,370.102971,-9474.636058,306.438199
517.579210,518.144159,-9030.512492,995.924147
517.579538,444.123565,-9030.512492,612.876398
517.579865,518.144159,-9030.512492,612.876398
517.580193,74.020594,-9030.512492,383.047749
517.580521,0.000000,-9326.594869,536.266849
517.580848,0.000000,-9104.533087,229.828649
517.581176,-148.041188,-9104.533087,842.705048
517.581504,74.020594,-9104.533087,459.657299
517.581832,74.020594,-9252.574275,459.657299
517.582159,0.000000,-9030.512492,0.000000
517.582487,0.000000,-8808.450710,76.609550
517.582815,0.000000,-8586.388927,76.609550
517.583142,-370.102971,-8438.347739,229.828649
517.583470,-518.144159,-8882.471304,229.828649
517.583798,-592.164754,-8808.450710,306.438199
517.584125,-740.205942,-9178.553681,229.828649
517.584453,-666.185348,-8956.491898,229.828649
517.584781,-740.205942,-8882.471304,229.828649
517.585109,-666.185348,-8882.471304,229.828649
517.585436,-518.144159,-8586.388927,383.047749
517.585764,-444.123565,-8438.347739,459.657299
517.586092,0.000000,-8808.450710,153.219100
517.586419,-518.144159,-8216.285956,766.095498
517.586747,-592.164754,-8882.471304,689.485948
517.587075,-1036.288319,-9104.533087,842.705048
517.587402,-888.247130,-9252.574275,766.095498
517.587730,-666.185348,-9104.533087,689.485948
517.588058,-592.164754,-8808.450710,1378.971896
517.588386,-444.123565,-8882.471304,612.876398
517.588713,-222.061783,-8586.388927,459.657299
517.589041,0.000000,-8734.430116,612.876398
517.589369,-148.041188,-8808.450710,459.657299
517.589696,-370.102971,-8956.491898,1072.533697
517.590024,-518.144159,-9548.656652,766.095498
517.590352,-962.267725,-9474.636058,689.485948
517.590679,-592.164754,-9400.615463,612.876398
517.591007,-296.082377,-9548.656652,536.266849
517.591335,370.102971,-9252.574275,383.047749
517.591663,0.000000,-9030.512492,459.657299
517.591990,-370.102971,-9030.512492,536.266849
517.592318,-444.123565,-9104.533087,766.095498
517.592646,-518.144159,-9178.553681,766.095498
517.592973,-740.205942,-9104.533087,689.485948
517.593301,-148.041188,-9326.594869,612.876398
517.593629,-444.123565,-9326.594869,536.266849
517.593956,-148.041188,-9326.594869,536.266849
517.594284,-296.082377,-8882.471304,459.657299
517.594612,0.000000,-8808.450710,0.000000
517.594940,0.000000,-8734.430116,842.705048
517.595267,-296.082377,-9030.512492,459.657299
517.595595,-518.144159,-9326.594869,612.876398
517.595923,-444.123565,-9474.636058,536.266849
517.596250,-592.164754,-9696.697840,536.266849
517.596578,-296.082377,-9400.615463,842.705048
517.596906,-296.082377,-9400.615463,689.485948
517.597233,-370.102971,-9104.533087,459.657299
517.597561,-370.102971,-8808.450710,306.438199
517.597889,-666.185348,-8660.409521,306.438199
517.598217,-888.247130,-8586.388927,306.438199
517.598544,-1258.350101,-8734.430116,76.609550
517.598872,-1184.329507,-9030.512492,459.657299
517.599200,-740.205942,-9252.574275,612.876398
517.599527,-592.164754,-8882.471304,459.657299
517.599855,0.000000,-8808.450710,612.876398
517.600183,222.061783,-8438.347739,842.705048
517.600510,296.082377,-8660.409521,459.657299
517.600838,222.061783,-8808.450710,459.657299
517.601166,74.020594,-9178.553681,536.266849
517.601494,-444.123565,-9474.636058,76.609550
517.601821,-370.102971,-9696.697840,459.657299
517.602149,-148.041188,-9622.677246,766.095498
517.602477,0.000000,-9400.615463,919.314598
517.602804,222.061783,-9030.512492,612.876398
517.603131,296.082377,-8364.327145,459.657299
517.603459,592.164754,-8068.244768,689.485948
517.603786,296.082377,-7846.182985,76.609550
517.604114,74.020594,-8438.347739,229.828649
517.604442,-222.061783,-8586.388927,229.828649
517.604769,-740.205942,-9252.574275,612.876398
517.605097,-444.123565,-9400.615463,995.924147
517.605424,-518.144159,-8956.491898,689.485948
517.605752,-148.041188,-9030.512492,459.657299
517.606080,0.000000,-8734.430116,229.828649
517.606407,148.041188,-8438.347739,153.219100
517.606735,296.082377,-8290.306550,153.219100
517.607062,518.144159,-8216.285956,459.657299
517.607390,-222.061783,-8956.491898,536.266849
517.607718,-444.123565,-9474.636058,229.828649
517.608045,-444.123565,-9548.656652,766.095498
517.608373,-518.144159,-9474.636058,306.438199
517.608700,-296.082377,-9326.594869,0.000000
517.609028,0.000000,-9104.533087,229.828649
517.609356,0.000000,-9252.574275,0.000000
517.609683,0.000000,-9030.512492,306.438199
517.610011,370.102971,-9178.553681,306.438199
517.610338,444.123565,-9622.677246,919.314598
517.610666,0.000000,-9622.677246,919.314598
517.610994,222.061783,-10066.800811,689.485948
517.611321,0.000000,-9992.780217,766.095498
517.611649,0.000000,-9770.718434,459.657299
517.611976,0.000000,-9548.656652,1149.143247
517.612304,0.000000,-9030.512492,383.047749
517.612632,-222.061783,-9474.636058,536.266849
517.612959,-222.061783,-9252.574275,536.266849
517.613287,-296.082377,-9548.656652,842.705048
517.613614,-296.082377,-9252.574275,612.876398
517.613942,-222.061783,-9474.636058,689.485948
517.614269,-148.041188,-9474.636058,612.876398
517.614597,-222.061783,-9474.636058,766.095498
517.614925,-592.164754,-9104.533087,306.438199
517.615252,-518.144159,-9326.594869,612.876398
517.615580,-666.185348,-8956.491898,383.047749
517.615907,-962.267725,-9474.636058,689.485948
517.616235,-888.247130,-9622.677246,689.485948
517.616563,-592.164754,-9770.718434,842.705048
517.616890,-666.185348,-9622.677246,842.705048
517.617218,-444.123565,-9326.594869,689.485948
517.617545,-518.144159,-8808.450710,383.047749
517.617873,-444.123565,-9030.512492,536.266849
517.618201,-518.144159,-8808.450710,459.657299
517.618528,-666.185348,-8734.430116,536.266849
517.618856,-740.205942,-8586.388927,919.314598
517.619183,-888.247130,-9104.533087,995.924147
517.619511,-740.205942,-9178.553681,689.485948
517.619839,-740.205942,-8956.491898,919.314598
517.620166,-370.102971,-8586.388927,459.657299
517.620494,-444.123565,-8216.285956,536.266849
517.620821,-518.144159,-8438.347739,306.438199
517.621149,-444.123565,-8364.327145,153.219100
517.621477,-444.123565,-8364.327145,459.657299
517.621804,-592.164754,-8882.471304,842.705048
517.622132,-518.144159,-9104.533087,536.266849
517.622459,-592.164754,-8882.471304,0.000000
517.622787,0.000000,-9178.553681,612.876398
517.623115,0.000000,-9030.512492,306.438199
517.623442,0.000000,-8956.491898,459.657299
517.623770,222.061783,-8808.450710,153.219100
517.624097,518.144159,-9030.512492,229.828649
517.624425,444.123565,-8956.491898,459.657299
517.624753,0.000000,-9252.574275,459.657299
517.625080,-296.082377,-9474.636058,612.876398
517.625408,-222.061783,-9326.594869,842.705048
517.625735,0.000000,-9548.656652,1532.190996
517.626063,0.000000,-8734.430116,306.438199
517.626391,0.000000,-8660.409521,459.657299
517.626718,0.000000,-8586.388927,306.438199
517.627046,0.000000,-8660.409521,306.438199
517.627373,-296.082377,-8364.327145,153.219100
517.627701,-296.082377,-8512.368333,689.485948
517.628029,-592.164754,-9104.533087,383.047749
517.628356,-592.164754,-9178.553681,459.657299
517.628684,-444.123565,-9030.512492,842.705048
517.629011,0.000000,-9400.615463,383.047749
517.629339,0.000000,-8882.471304,0.000000
517.629667,0.000000,-9104.533087,383.047749
517.629994,74.020594,-9104.533087,689.485948
517.630322,222.061783,-9326.594869,536.266849
517.630649,74.020594,-9622.677246,689.485948
517.630977,0.000000,-9770.718434,306.438199
517.631305,-74.020594,-9548.656652,919.314598
517.631632,-222.061783,-9622.677246,689.485948
517.631960,-222.061783,-9474.636058,842.705048
517.632287,0.000000,-9326.594869,766.095498
517.632615,518.144159,-9252.574275,612.876398
517.632943,74.020594,-9178.553681,229.828649
517.633270,0.000000,-9030.512492,459.657299
517.633598,-148.041188,-9104.533087,612.876398
517.633925,0.000000,-9104.533087,612.876398
517.634253,0.000000,-9474.636058,919.314598
517.634581,-296.082377,-9400.615463,766.095498
517.634908,0.000000,-9474.636058,612.876398
517.635236,-222.061783,-9326.594869,306.438199
517.635563,0.000000,-9326.594869,459.657299
517.635891,74.020594,-9252.574275,229.828649
517.636219,0.000000,-8660.409521,842.705048
517.636546,148.041188,-9474.636058,459.657299
517.636874,-222.061783,-9474.636058,689.485948
517.637201,-370.102971,-9474.636058,383.047749
517.637529,-518.144159,-9474.636058,536.266849
517.637857,-370.102971,-9474.636058,459.657299
517.638184,-370.102971,-9252.574275,612.876398
517.638512,-296.082377,-9252.574275,536.266849
517.638839,0.000000,-8956.491898,459.657299
517.639167,-296.082377,-8882.471304,306.438199
517.639495,-370.102971,-8882.471304,459.657299
517.639822,-148.041188,-9030.512492,536.266849
517.640150,-518.144159,-8882.471304,612.876398
517.640477,-518.144159,-8882.471304,766.095498
517.640805,-518.144159,-8734.430116,612.876398
517.641133,-444.123565,-9030.512492,689.485948
517.641460,0.000000,-9104.533087,766.095498
517.641788,-370.102971,-8808.450710,689.485948
517.642115,-222.061783,-8956.491898,459.657299
517.642443,0.000000,-9030.512492,689.485948
517.642771,-296.082377,-9178.553681,689.485948
517.643098,74.020594,-9252.574275,612.876398
517.643426,-148.041188,-9104.533087,612.876398
517.643753,-148.041188,-9252.574275,919.314598
517.644081,-148.041188,-9400.615463,919.314598
517.644409,-444.123565,-9178.553681,612.876398
517.644736,-444.123565,-8734.430116,842.705048
517.645064,-296.082377,-8956.491898,536.266849
517.645391,-296.082377,-8586.388927,536.266849
517.645719,-222.061783,-8882.471304,383.047749
517.646047,-592.164754,-8956.491898,766.095498
517.646374,-518.144159,-8808.450710,766.095498
517.646702,-222.061783,-8882.471304,919.314598
517.647029,-222.061783,-8882.471304,689.485948
517.647357,-296.082377,-9030.512492,536.266849
517.647685,-296.082377,-9178.553681,536.266849
517.648012,-370.102971,-9252.574275,536.266849
517.648340,-296.082377,-9104.533087,689.485948
517.648667,-222.061783,-9030.512492,766.095498
517.648995,-148.041188,-9104.533087,306.438199
517.649323,-296.082377,-9400.615463,536.266849
517.649650,-370.102971,-9252.574275,536.266849
517.649978,74.020594,-9104.533087,612.876398
517.650305,-444.123565,-8956.491898,536.266849
517.650633,-518.144159,-9252.574275,459.657299
517.650961,-666.185348,-9178.553681,536.266849
517.651288,-814.226536,-9104.533087,383.047749
517.651616,-444.123565,-8882.471304,842.705048
517.651943,-222.061783,-8882.471304,383.047749
517.652271,-518.144159,-8808.450710,536.266849
517.652599,-666.185348,-8956.491898,306.438199
517.652926,-592.164754,-8512.368333,459.657299
517.653254,-444.123565,-8068.244768,459.657299
517.653581,-444.123565,-8660.409521,306.438199
517.653909,-666.185348,-9104.533087,459.657299
517.654237,-370.102971,-9104.533087,536.266849
517.654564,-296.082377,-9104.533087,383.047749
517.654892,-222.061783,-9400.615463,689.485948
517.655219,-222.061783,-9030.512492,306.438199
517.655547,-222.061783,-9104.533087,612.876398
517.655875,0.000000,-9030.512492,612.876398
517.656202,0.000000,-9178.553681,536.266849
517.656530,-370.102971,-9104.533087,459.657299
517.656857,-370.102971,-9104.533087,306.438199
517.657185,-666.185348,-9104.533087,306.438199
517.657513,-370.102971,-9178.553681,459.657299
517.657840,-592.164754,-8660.409521,689.485948
517.658168,-296.082377,-8586.388927,383.047749
517.658495,0.000000,-8512.368333,459.657299
517.658823,-296.082377,-8438.347739,612.876398
517.659150,-518.144159,-8438.347739,229.828649
517.659478,-592.164754,-8586.388927,383.047749
517.659806,-518.144159,-8956.491898,383.047749
517.660133,-592.164754,-8882.471304,612.876398
517.660461,-444.123565,-8734.430116,383.047749
517.660788,0.000000,-9178.553681,536.266849
517.661116,-222.061783,-8956.491898,612.876398
517.661444,0.000000,-8956.491898,459.657299
517.661771,0.000000,-9178.553681,459.657299
517.662099,0.000000,-8808.450710,0.000000
517.662426,222.061783,-9104.533087,536.266849
517.662754,0.000000,-9400.615463,383.047749
517.663082,0.000000,-9696.697840,612.876398
517.663409,0.000000,-9844.739029,842.705048
517.663737,74.020594,-9178.553681,919.314598
517.664064,-296.082377,-8808.450710,612.876398
517.664392,0.000000,-9252.574275,536.266849
517.664720,0.000000,-9326.594869,153.219100
517.665047,0.000000,-9178.553681,383.047749
517.665375,0.000000,-9400.615463,1149.143247
517.665702,0.000000,-9030.512492,536.266849
517.666030,-222.061783,-9548.656652,536.266849
517.666358,-370.102971,-9548.656652,612.876398
517.666685,-222.061783,-9548.656652,766.095498
517.667013,0.000000,-9326.594869,766.095498
517.667340,0.000000,-9178.553681,689.485948
517.667668,74.020594,-9474.636058,842.705048
517.667996,0.000000,-9326.594869,536.266849
517.668323,0.000000,-9400.615463,612.876398
517.668651,-296.082377,-9474.636058,689.485948
517.668978,-296.082377,-9622.677246,1072.533697
517.669306,-666.185348,-9844.739029,689.485948
517.669634,-592.164754,-9696.697840,689.485948
517.669961,-296.082377,-9326.594869,536.266849
517.670289,-296.082377,-9178.553681,689.485948
517.670616,0.000000,-9252.574275,-76.609550
517.670944,-148.041188,-8956.491898,536.266849
517.671272,-370.102971,-8882.471304,383.047749
517.671599,-444.123565,-9030.512492,612.876398
517.671927,-518.144159,-9474.636058,612.876398
517.672254,-370.102971,-9770.718434,995.924147
517.672582,-370.102971,-9030.512492,536.266849
517.672910,-296.082377,-9104.533087,459.657299
517.673237,-370.102971,-9030.512492,536.266849
517.673565,0.000000,-8882.471304,306.438199
517.673892,0.000000,-8734.430116,306.438199
517.674220,74.020594,-9104.533087,536.266849
517.674548,-222.061783,-8956.491898,459.657299
517.674875,-296.082377,-9326.594869,536.266849
517.675203,-666.185348,-9252.574275,612.876398
517.675530,-666.185348,-9252.574275,459.657299
517.675858,0.000000,-8808.450710,689.485948
517.676186,-444.123565,-8734.430116,229.828649
517.676513,-370.102971,-8586.388927,153.219100
517.676841,-518.144159,-8586.388927,306.438199
517.677168,-444.123565,-8734.430116,153.219100
517.677496,-222.061783,-8808.450710,0.000000
517.677824,0.000000,-8290.306550,229.828649
517.678151,-518.144159,-8956.491898,536.266849
517.678479,-518.144159,-8956.491898,459.657299
517.678806,-444.123565,-8734.430116,459.657299
517.679134,-592.164754,-8068.244768,536.266849
517.679462,-592.164754,-8438.347739,919.314598
517.679789,-222.061783,-8882.471304,536.266849
517.680117,-444.123565,-8734.430116,459.657299
517.680444,-592.164754,-8808.450710,612.876398
517.680772,-592.164754,-9400.615463,1378.971896
517.681100,-592.164754,-8882.471304,995.924147
517.681427,-444.123565,-9030.512492,766.095498
517.681755,-296.082377,-9104.533087,536.266849
517.682082,-370.102971,-8734.430116,612.876398
517.682410,-370.102971,-8734.430116,536.266849
517.682738,-518.144159,-8808.450710,306.438199
517.683065,-592.164754,-8734.430116,383.047749
517.683393,-592.164754,-8956.491898,383.047749
517.683720,-592.164754,-9104.533087,612.876398
517.684048,-444.123565,-9474.636058,689.485948
517.684376,-740.205942,-8882.471304,689.485948
517.684703,-518.144159,-9104.533087,229.828649
517.685031,-444.123565,-9104.533087,383.047749
517.685358,0.000000,-8660.409521,459.657299
517.685686,74.020594,-8734.430116,306.438199
517.686014,222.061783,-9030.512492,766.095498
517.686341,0.000000,-8956.491898,842.705048
517.686669,-370.102971,-9400.615463,689.485948
517.686996,-148.041188,-9770.718434,766.095498
517.687324,-296.082377,-9696.697840,536.266849
517.687652,-148.041188,-9844.739029,536.266849
517.687979,0.000000,-9474.636058,229.828649
517.688307,222.061783,-9474.636058,612.876398
517.688634,148.041188,-9474.636058,383.047749
517.688962,74.020594,-9030.512492,229.828649
517.689290,0.000000,-9474.636058,459.657299
517.689617,296.082377,-9474.636058,383.047749
517.689945,0.000000,-9474.636058,842.705048
517.690272,-296.082377,-9770.718434,536.266849
517.690600,-222.061783,-9474.636058,536.266849
517.690928,-296.082377,-9400.615463,766.095498
517.691255,0.000000,-9400.615463,919.314598
517.691583,222.061783,-8882.471304,689.485948
517.691910,0.000000,-9030.512492,612.876398
517.692238,-296.082377,-8956.491898,612.876398
517.692566,0.000000,-9400.615463,766.095498
517.692893,-148.041188,-9326.594869,1072.533697
517.693221,0.000000,-9178.553681,1302.362347
517.693548,-296.082377,-9474.636058,919.314598
517.693876,-444.123565,-9474.636058,612.876398
517.694204,0.000000,-9400.615463,766.095498
517.694531,-222.061783,-9178.553681,536.266849
517.694859,0.000000,-8438.347739,229.828649
517.695186,0.000000,-8882.471304,536.266849
517.695514,-148.041188,-9252.574275,459.657299
517.695842,-296.082377,-9178.553681,536.266849
517.696169,-444.123565,-9104.533087,689.485948
517.696497,-370.102971,-9178.553681,689.485948
517.696824,-518.144159,-9178.553681,766.095498
517.697152,-296.082377,-9178.553681,383.047749
517.697480,-296.082377,-9030.512492,536.266849
517.697807,0.000000,-8956.491898,383.047749
517.698135,0.000000,-8882.471304,383.047749
517.698462,0.000000,-9030.512492,0.000000
517.698790,-296.082377,-9178.553681,383.047749
517.699118,-148.041188,-9252.574275,459.657299
517.699445,-296.082377,-9252.574275,459.657299
517.699773,-296.082377,-8956.491898,536.266849
517.700100,0.000000,-9104.533087,536.266849
517.700428,74.020594,-9030.512492,0.000000
517.700756,0.000000,-8808.450710,229.828649
517.701083,222.061783,-8882.471304,306.438199
517.701411,0.000000,-8956.491898,306.438199
517.701738,-592.164754,-8734.430116,383.047749
517.702066,-370.102971,-9252.574275,153.219100
517.702394,-370.102971,-9104.533087,612.876398
517.702721,-518.144159,-9104.533087,153.219100
517.703049,-444.123565,-9178.553681,689.485948
517.703376,-222.061783,-9030.512492,229.828649
517.703704,-296.082377,-8956.491898,612.876398
517.704031,0.000000,-8882.471304,536.266849
517.704359,-444.123565,-8882.471304,459.657299
517.704687,-444.123565,-9178.553681,459.657299
517.705014,-592.164754,-8882.471304,459.657299
517.705342,-444.123565,-9030.512492,459.657299
517.705669,-592.164754,-9326.594869,766.095498
517.705997,-740.205942,-9104.533087,919.314598
517.706325,-666.185348,-9252.574275,842.705048
517.706652,-296.082377,-8882.471304,689.485948
517.706980,-222.061783,-8216.285956,1072.533697
517.707307,-370.102971,-8734.430116,689.485948
517.707635,-518.144159,-8956.491898,842.705048
517.707962,-666.185348,-9104.533087,766.095498
517.708290,-888.247130,-9252.574275,689.485948
517.708617,-740.205942,-8956.491898,842.705048
517.708945,-518.144159,-9104.533087,842.705048
517.709273,-444.123565,-9252.574275,612.876398
517.709600,-370.102971,-9104.533087,842.705048
517.709928,-296.082377,-8956.491898,536.266849
517.710255,0.000000,-8882.471304,612.876398
517.710583,0.000000,-9178.553681,76.609550
517.710910,-370.102971,-9178.553681,459.657299
517.711238,-296.082377,-9252.574275,536.266849
517.711566,-222.061783,-9252.574275,612.876398
517.711893,-740.205942,-9252.574275,995.924147
517.712221,0.000000,-9252.574275,306.438199
517.712548,-148.041188,-9030.512492,229.828649
517.712876,0.000000,-8808.450710,306.438199
517.713203,0.000000,-8956.491898,383.047749
517.713531,-370.102971,-8734.430116,306.438199
517.713859,74.020594,-8956.491898,612.876398
517.714186,-444.123565,-8956.491898,383.047749
517.714514,-518.144159,-9178.553681,459.657299
517.714841,-370.102971,-9252.574275,612.876398
517.715169,-296.082377,-9178.553681,459.657299
517.715496,0.000000,-8956.491898,766.095498
517.715824,0.000000,-9030.512492,536.266849
517.716152,0.000000,-9178.553681,306.438199
517.716479,0.000000,-8956.491898,459.657299
517.716807,0.000000,-9178.553681,536.266849
517.717134,0.000000,-9030.512492,612.876398
517.717462,-222.061783,-9178.553681,229.828649
517.717789,-370.102971,-9400.615463,689.485948
517.718117,-518.144159,-9178.553681,766.095498
517.718445,-518.144159,-9178.553681,689.485948
517.718772,-222.061783,-8956.491898,919.314598
517.719100,0.000000,-8882.471304,0.000000
517.719427,-296.082377,-8882.471304,536.266849
517.719755,-370.102971,-8808.450710,459.657299
517.720082,-444.123565,-9178.553681,689.485948
517.720410,-666.185348,-9400.615463,689.485948
517.720738,-444.123565,-9400.615463,459.657299
517.721065,-444.123565,-9252.574275,383.047749
517.721393,0.000000,-9326.594869,306.438199
517.721720,-222.061783,-9326.594869,383.047749
517.722048,0.000000,-9326.594869,153.219100
517.722375,0.000000,-8882.471304,612.876398
517.722703,0.000000,-9548.656652,689.485948
517.723030,0.000000,-9622.677246,459.657299
517.723358,74.020594,-9548.656652,612.876398
517.723686,0.000000,-9548.656652,459.657299
517.724013,518.144159,-9622.677246,459.657299
517.724341,0.000000,-9104.533087,536.266849
517.724668,0.000000,-9474.636058,306.438199
517.724996,0.000000,-9252.574275,383.047749
517.725323,-222.061783,-9178.553681,536.266849
517.725651,0.000000,-9030.512492,612.876398
517.725979,-296.082377,-8956.491898,536.266849
517.726306,-222.061783,-9178.553681,536.266849
517.726634,-296.082377,-9030.512492,689.485948
517.726961,-592.164754,-9326.594869,383.047749
517.727289,-518.144159,-9400.615463,536.266849
517.727616,0.000000,-9770.718434,536.266849
517.727944,-222.061783,-9030.512492,459.657299
517.728272,0.000000,-8956.491898,536.266849
517.728599,-370.102971,-9178.553681,536.266849
517.728927,-296.082377,-9252.574275,766.095498
517.729254,0.000000,-9178.553681,612.876398
517.729582,0.000000,-9104.533087,766.095498
517.729909,-518.144159,-9178.553681,612.876398
517.730237,-444.123565,-8956.491898,689.485948
517.730565,-370.102971,-9104.533087,689.485948
517.730892,-370.102971,-8956.491898,1149.143247
517.731220,-444.123565,-8586.388927,689.485948
517.731547,-296.082377,-8956.491898,612.876398
517.731875,-444.123565,-8956.491898,842.705048
517.732202,-518.144159,-8660.409521,612.876398
517.732530,-444.123565,-8734.430116,766.095498
517.732858,-222.061783,-8512.368333,842.705048
517.733185,-148.041188,-8734.430116,383.047749
517.733513,-518.144159,-8956.491898,612.876398
517.733840,-370.102971,-8956.491898,612.876398
517.734168,-444.123565,-9104.533087,459.657299
517.734495,-444.123565,-9178.553681,229.828649
517.734823,0.000000,-9178.553681,536.266849
517.735151,0.000000,-8956.491898,383.047749
517.735478,-222.061783,-8882.471304,536.266849
517.735806,-296.082377,-9030.512492,383.047749
517.736133,-814.226536,-8586.388927,536.266849
517.736461,-370.102971,-9104.533087,766.095498
517.736788,-518.144159,-8956.491898,306.438199
517.737116,-518.144159,-8956.491898,306.438199
517.737444,-518.144159,-9030.512492,536.266849
517.737771,-222.061783,-8956.491898,-306.438199
517.738099,-444.123565,-8216.285956,842.705048
517.738426,-444.123565,-8734.430116,612.876398
517.738754,-592.164754,-8956.491898,383.047749
517.739081,-592.164754,-8882.471304,459.657299
517.739409,-518.144159,-8808.450710,306.438199
517.739736,-222.061783,-8956.491898,995.924147
517.740064,-370.102971,-9104.533087,689.485948
517.740392,-370.102971,-9326.594869,612.876398
517.740719,-370.102971,-9178.553681,689.485948
517.741047,-370.102971,-9030.512492,536.266849
517.741374,0.000000,-9104.533087,689.485948
517.741702,-296.082377,-8956.491898,383.047749
517.742029,-148.041188,-8882.471304,612.876398
517.742357,-370.102971,-9030.512492,689.485948
517.742685,-518.144159,-9178.553681,689.485948
517.743012,-666.185348,-9474.636058,536.266849
517.743340,-592.164754,-8734.430116,995.924147
517.743667,-444.123565,-9252.574275,689.485948
517.743995,-444.123565,-9178.553681,536.266849
517.744322,-370.102971,-9030.512492,612.876398
517.744650,-296.082377,-8660.409521,459.657299
517.744978,-444.123565,-8660.409521,766.095498
517.745305,-370.102971,-9030.512492,536.266849
517.745633,-444.123565,-9178.553681,612.876398
517.745960,-370.102971,-9400.615463,536.266849
517.746288,-370.102971,-9474.636058,612.876398
517.746615,-222.061783,-9178.553681,766.095498
517.746943,0.000000,-9622.677246,383.047749
517.747271,296.082377,-9326.594869,459.657299
517.747598,0.000000,-9252.574275,306.438199
517.747926,0.000000,-9400.615463,383.047749
517.748253,0.000000,-8808.450710,229.828649
517.748581,0.000000,-9474.636058,459.657299
517.748908,0.000000,-9474.636058,536.266849
517.749236,-296.082377,-9400.615463,536.266849
517.749564,-370.102971,-9252.574275,536.266849
517.749891,0.000000,-8956.491898,459.657299
517.750219,0.000000,-8808.450710,383.047749
517.750546,0.000000,-8956.491898,536.266849
517.750874,0.000000,-8882.471304,459.657299
517.751201,-222.061783,-8956.491898,536.266849
517.751529,0.000000,-8734.430116,153.219100
517.751857,0.000000,-9178.553681,689.485948
517.752184,-444.123565,-9326.594869,612.876398
517.752512,-296.082377,-9326.594869,842.705048
517.752839,-296.082377,-9474.636058,612.876398
517.753167,0.000000,-9326.594869,689.485948
517.753494,-148.041188,-8512.368333,306.438199
517.753822,0.000000,-9252.574275,689.485948
517.754150,0.000000,-9400.615463,383.047749
517.754477,0.000000,-9326.594869,842.705048
517.754805,-370.102971,-9400.615463,536.266849
517.755132,-222.061783,-9474.636058,842.705048
517.755460,-444.123565,-9548.656652,536.266849
517.755787,-444.123565,-9252.574275,383.047749
517.756115,-370.102971,-9030.512492,383.047749
517.756442,-296.082377,-8808.450710,306.438199
517.756770,-296.082377,-8512.368333,689.485948
517.757098,0.000000,-8290.306550,842.705048
517.757425,-518.144159,-8734.430116,459.657299
517.757753,-444.123565,-8956.491898,689.485948
517.758080,-518.144159,-9104.533087,459.657299
517.758408,-666.185348,-8808.450710,919.314598
517.758735,-444.123565,-8808.450710,612.876398
517.759063,-222.061783,-8882.471304,689.485948
517.759391,-222.061783,-9030.512492,383.047749
517.759718,-222.061783,-8882.471304,383.047749
517.760046,-222.061783,-8956.491898,536.266849
517.760373,-592.164754,-8734.430116,766.095498
517.760701,-148.041188,-9400.615463,612.876398
517.761028,-518.144159,-9252.574275,459.657299
517.761356,-518.144159,-9326.594869,612.876398
517.761684,-444.123565,-9178.553681,612.876398
517.762011,-148.041188,-8808.450710,766.095498
517.762339,0.000000,-8734.430116,383.047749
517.762666,0.000000,-8586.388927,306.438199
517.762994,-148.041188,-8660.409521,689.485948
517.763321,-592.164754,-8438.347739,306.438199
517.763649,-296.082377,-8734.430116,459.657299
517.763977,-370.102971,-8586.388927,612.876398
517.764304,-444.123565,-9104.533087,766.095498
517.764632,-296.082377,-9104.533087,612.876398
517.764959,-444.123565,-8882.471304,536.266849
517.765287,0.000000,-8512.368333,536.266849
517.765614,0.000000,-8512.368333,0.000000
517.765942,0.000000,-8882.471304,536.266849
517.766270,0.000000,-9104.533087,383.047749
517.766597,-148.041188,-9252.574275,536.266849
517.766925,-222.061783,-9474.636058,689.485948
517.767252,-444.123565,-9252.574275,306.438199
517.767580,-666.185348,-8956.491898,689.485948
517.767907,-296.082377,-9400.615463,612.876398
517.768235,-296.082377,-9104.533087,459.657299
517.768563,0.000000,-8956.491898,229.828649
517.768890,-148.041188,-8660.409521,766.095498
517.769218,-296.082377,-9030.512492,459.657299
517.769545,-592.164754,-8956.491898,536.266849
517.769873,-518.144159,-9326.594869,842.705048
517.770200,-592.164754,-9326.594869,919.314598
517.770528,-148.041188,-9178.553681,995.924147
517.770855,0.000000,-9104.533087,229.828649
517.771183,-148.041188,-9326.594869,612.876398
517.771511,0.000000,-9030.512492,459.657299
517.771838,148.041188,-9252.574275,536.266849
517.772166,0.000000,-9178.553681,1072.533697
517.772493,0.000000,-9252.574275,842.705048
517.772821,0.000000,-9696.697840,536.266849
517.773148,-222.061783,-9548.656652,766.095498
517.773476,-296.082377,-9474.636058,612.876398
517.773804,-148.041188,-9548.656652,459.657299
517.774131,-148.041188,-9178.553681,536.266849
517.774459,0.000000,-8882.471304,229.828649
517.774786,-148.041188,-9178.553681,229.828649
517.775114,-518.144159,-8734.430116,459.657299
517.775441,-296.082377,-9030.512492,306.438199
517.775769,-296.082377,-9030.512492,536.266849
517.776097,0.000000,-9178.553681,689.485948
517.776424,-370.102971,-9252.574275,459.657299
517.776752,-518.144159,-9104.533087,612.876398
517.777079,-222.061783,-9252.574275,612.876398
517.777407,-148.041188,-8512.368333,459.657299
517.777734,0.000000,-8956.491898,919.314598
517.778062,-148.041188,-9104.533087,612.876398
517.778390,-148.041188,-9252.574275,383.047749
517.778717,-370.102971,-9400.615463,612.876398
517.779045,-148.041188,-9474.636058,612.876398
517.779372,-222.061783,-8956.491898,612.876398
517.779700,-370.102971,-9178.553681,383.047749
517.780027,-222.061783,-9252.574275,383.047749
517.780355,-222.061783,-9104.533087,612.876398
517.780683,-296.082377,-8882.471304,383.047749
517.781010,74.020594,-8882.471304,842.705048
517.781338,-370.102971,-8660.409521,383.047749
517.781665,-444.123565,-8882.471304,459.657299
517.781993,-370.102971,-9104.533087,383.047749
517.782320,-296.082377,-9252.574275,766.095498
517.782648,-666.185348,-8808.450710,689.485948
517.782976,0.000000,-9104.533087,306.438199
517.783303,-370.102971,-9178.553681,689.485948
517.783631,0.000000,-8882.471304,612.876398
517.783958,-222.061783,-9030.512492,383.047749
517.784286,0.000000,-9030.512492,-459.657299
517.784613,0.000000,-8808.450710,306.438199
517.784941,0.000000,-9178.553681,383.047749
517.785269,-74.020594,-9178.553681,536.266849
517.785596,0.000000,-9400.615463,612.876398
517.785924,-518.144159,-9326.594869,536.266849
517.786251,222.061783,-9400.615463,459.657299
517.786579,-296.082377,-9178.553681,536.266849
517.786906,-222.061783,-8956.491898,306.438199
517.787234,-444.123565,-9104.533087,306.438199
517.787561,-222.061783,-8956.491898,766.095498
517.787889,-296.082377,-8808.450710,612.876398
517.788217,0.000000,-8882.471304,612.876398
517.788544,-444.123565,-9178.553681,766.095498
517.788872,-518.144159,-9326.594869,766.095498
517.789199,-296.082377,-9030.512492,536.266849
517.789527,-370.102971,-8586.388927,612.876398
517.789854,0.000000,-8956.491898,766.095498
517.790182,-148.041188,-9104.533087,766.095498
517.790510,-222.061783,-9178.553681,612.876398
517.790837,-148.041188,-9178.553681,612.876398
517.791165,-592.164754,-8956.491898,383.047749
517.791492,-370.102971,-9178.553681,153.219100
517.791820,-222.061783,-9326.594869,919.314598
517.792147,-148.041188,-9252.574275,689.485948
517.792475,-296.082377,-9178.553681,612.876398
517.792803,-370.102971,-9104.533087,306.438199
517.793130,-518.144159,-8882.471304,536.266849
517.793458,-518.144159,-9030.512492,459.657299
517.793785,-592.164754,-8956.491898,459.657299
517.794113,-592.164754,-8956.491898,536.266849
517.794440,-518.144159,-9030.512492,536.266849
517.794768,-370.102971,-8808.450710,766.095498
517.795096,-592.164754,-9104.533087,842.705048
517.795423,-222.061783,-9104.533087,306.438199
517.795751,-370.102971,-9030.512492,229.828649
517.796078,-222.061783,-9178.553681,459.657299
517.796406,-148.041188,-9030.512492,842.705048
517.796733,0.000000,-9400.615463,0.000000
517.797061,0.000000,-8956.491898,459.657299
517.797389,0.000000,-8956.491898,383.047749
517.797716,-370.102971,-9178.553681,306.438199
517.798044,-592.164754,-9178.553681,383.047749
517.798371,-444.123565,-8882.471304,-536.266849
517.798699,-222.061783,-8956.491898,306.438199
517.799026,-444.123565,-8734.430116,459.657299
517.799354,-370.102971,-9030.512492,229.828649
517.799682,-444.123565,-8882.471304,383.047749
517.800009,-370.102971,-8512.368333,536.266849
517.800337,-444.123565,-8734.430116,459.657299
517.800664,-592.164754,-8882.471304,689.485948
517.800992,-592.164754,-9178.553681,612.876398
517.801319,-592.164754,-9030.512492,459.657299
517.801647,-222.061783,-8808.450710,919.314598
517.801975,-444.123565,-8956.491898,383.047749
517.802302,-370.102971,-9178.553681,536.266849
517.802630,-370.102971,-8956.491898,689.485948
517.802957,0.000000,-9104.533087,612.876398
517.803285,0.000000,-9030.512492,919.314598
517.803612,0.000000,-9400.615463,229.828649
517.803940,0.000000,-9252.574275,612.876398
517.804267,-296.082377,-9178.553681,459.657299
517.804595,-444.123565,-9326.594869,153.219100
517.804923,-296.082377,-9474.636058,689.485948
517.805250,0.000000,-8956.491898,995.924147
517.805578,0.000000,-9178.553681,689.485948
517.805905,0.000000,-9104.533087,306.438199
517.806233,0.000000,-9104.533087,383.047749
517.806561,-222.061783,-9178.553681,383.047749
517.806888,0.000000,-8882.471304,689.485948
517.807216,74.020594,-9400.615463,459.657299
517.807543,0.000000,-9474.636058,229.828649
517.807871,-74.020594,-9474.636058,459.657299
517.808199,0.000000,-9474.636058,383.047749
517.808526,296.082377,-9104.533087,76.609550
517.808854,370.102971,-9326.594869,536.266849
517.809181,0.000000,-9326.594869,612.876398
517.809509,0.000000,-9474.636058,766.095498
517.809837,0.000000,-9326.594869,459.657299
517.810164,0.000000,-9252.574275,383.047749
517.810492,-444.123565,-9030.512492,76.609550
517.810819,-370.102971,-9400.615463,766.095498
517.811147,-296.082377,-9400.615463,766.095498
517.811475,-444.123565,-9400.615463,536.266849
517.811802,-444.123565,-9326.594869,689.485948
517.812130,-592.164754,-8734.430116,919.314598
517.812458,-518.144159,-8882.471304,766.095498
517.812785,-370.102971,-8956.491898,459.657299
517.813113,-370.102971,-8882.471304,842.705048
517.813440,-370.102971,-8956.491898,689.485948
517.813768,-592.164754,-8956.491898,229.828649
517.814096,-370.102971,-9252.574275,1225.752797
517.814423,-296.082377,-9104.533087,689.485948
517.814751,-222.061783,-8808.450710,842.705048
517.815078,-296.082377,-8956.491898,612.876398
517.815406,-296.082377,-9030.512492,0.000000
517.815734,-592.164754,-8660.409521,1225.752797
517.816061,-444.123565,-8956.491898,689.485948
517.816389,-518.144159,-8956.491898,536.266849
517.816716,-592.164754,-9178.553681,459.657299
517.817044,-444.123565,-9030.512492,766.095498
517.817372,0.000000,-8586.388927,689.485948
517.817699,-370.102971,-8808.450710,306.438199
517.818027,-148.041188,-8586.388927,383.047749
517.818355,-370.102971,-8512.368333,229.828649
517.818682,-222.061783,-8734.430116,153.219100
517.819010,0.000000,-8364.327145,536.266849
517.819337,-666.185348,-8586.388927,229.828649
517.819665,-518.144159,-9178.553681,536.266849
517.819993,-518.144159,-9178.553681,459.657299
517.820320,-222.061783,-9104.533087,306.438199
517.820648,148.041188,-8956.491898,306.438199
517.820975,296.082377,-8882.471304,459.657299
517.821303,0.000000,-9252.574275,306.438199
517.821631,0.000000,-9030.512492,306.438199
517.821958,-148.041188,-9104.533087,383.047749
517.822286,0.000000,-9030.512492,153.219100
517.822613,-444.123565,-8956.491898,536.266849
517.822941,-296.082377,-9178.553681,689.485948
517.823269,-444.123565,-9474.636058,383.047749
517.823596,-518.144159,-9104.533087,536.266849
517.823924,-592.164754,-8586.388927,383.047749
517.824252,-444.123565,-7994.224174,459.657299
517.824579,-222.061783,-8808.450710,383.047749
517.824907,-296.082377,-9030.512492,612.876398
517.825234,-518.144159,-9178.553681,536.266849
517.825562,-666.185348,-9104.533087,459.657299
517.825890,-370.102971,-9400.615463,1149.143247
517.826217,-518.144159,-9252.574275,689.485948
517.826545,-148.041188,-9326.594869,689.485948
517.826872,0.000000,-9030.512492,459.657299
517.827200,148.041188,-9326.594869,689.485948
517.827528,74.020594,-9400.615463,842.705048
517.827855,74.020594,-9030.512492,919.314598
517.828183,0.000000,-9548.656652,689.485948
517.828510,-296.082377,-9696.697840,689.485948
517.828838,-444.123565,-9622.677246,766.095498
517.829166,0.000000,-9548.656652,842.705048
517.829493,-222.061783,-9400.615463,842.705048
517.829821,0.000000,-9178.553681,612.876398
517.830148,-222.061783,-9030.512492,689.485948
517.830476,0.000000,-9178.553681,383.047749
517.830804,-222.061783,-9030.512492,306.438199
517.831131,148.041188,-9474.636058,536.266849
517.831459,-370.102971,-8882.471304,689.485948
517.831787,-592.164754,-9104.533087,612.876398
517.832114,-444.123565,-9474.636058,689.485948
517.832442,-370.102971,-9474.636058,919.314598
517.832769,-370.102971,-9030.512492,1455.581446
517.833097,-222.061783,-9030.512492,612.876398
517.833425,-222.061783,-9104.533087,612.876398
517.833752,0.000000,-8882.471304,536.266849
517.834080,-148.041188,-9030.512492,842.705048
517.834407,0.000000,-9178.553681,1072.533697
517.834735,-444.123565,-9326.594869,536.266849
517.835063,-444.123565,-9474.636058,842.705048
517.835390,-296.082377,-9400.615463,536.266849
517.835718,-222.061783,-9104.533087,536.266849
517.836045,0.000000,-9400.615463,383.047749
517.836373,-370.102971,-8956.491898,766.095498
517.836701,-444.123565,-8586.388927,689.485948
517.837028,-222.061783,-8882.471304,536.266849
517.837356,-296.082377,-8882.471304,536.266849
517.837684,-518.144159,-9178.553681,536.266849
517.838011,-296.082377,-9030.512492,459.657299
517.838339,-518.144159,-9178.553681,459.657299
517.838666,0.000000,-9030.512492,306.438199
517.838994,0.000000,-8882.471304,229.828649
517.839322,296.082377,-9030.512492,229.828649
517.839649,0.000000,-8512.368333,229.828649
517.839977,0.000000,-8586.388927,76.609550
517.840304,-222.061783,-9104.533087,306.438199
517.840632,0.000000,-9474.636058,536.266849
517.840960,0.000000,-9474.636058,383.047749
517.841287,0.000000,-9400.615463,153.219100
517.841615,296.082377,-9400.615463,229.828649
517.841942,-222.061783,-9252.574275,383.047749
517.842270,-148.041188,-9030.512492,612.876398
517.842598,-148.041188,-8882.471304,229.828649
517.842925,-518.144159,-8586.388927,229.828649
517.843253,0.000000,-8956.491898,459.657299
517.843581,-222.061783,-8882.471304,689.485948
517.843908,-592.164754,-9178.553681,459.657299
517.844236,-666.185348,-9252.574275,536.266849
517.844563,-666.185348,-9178.553681,383.047749
517.844891,-222.061783,-9104.533087,612.876398
517.845219,-296.082377,-8956.491898,612.876398
517.845546,-296.082377,-8734.430116,536.266849
517.845874,-370.102971,-8808.450710,536.266849
517.846201,-444.123565,-8808.450710,689.485948
517.846529,-592.164754,-8660.409521,766.095498
517.846857,-1036.288319,-8956.491898,919.314598
517.847184,-592.164754,-9104.533087,766.095498
517.847512,-740.205942,-9030.512492,536.266849
517.847839,-740.205942,-9178.553681,536.266849
517.848167,-370.102971,-9030.512492,459.657299
517.848495,-370.102971,-8586.388927,383.047749
517.848822,-370.102971,-8586.388927,536.266849
517.849150,-296.082377,-8882.471304,612.876398
517.849477,-592.164754,-8956.491898,536.266849
517.849805,-592.164754,-9178.553681,766.095498
517.850133,-296.082377,-8956.491898,383.047749
517.850460,-444.123565,-9474.636058,383.047749
517.850788,-370.102971,-9326.594869,612.876398
517.851116,-222.061783,-8956.491898,459.657299
517.851443,74.020594,-8882.471304,383.047749
517.851771,222.061783,-8734.430116,383.047749
517.852098,-148.041188,-8882.471304,306.438199
517.852426,-148.041188,-9104.533087,459.657299
517.852754,-296.082377,-9252.574275,383.047749
517.853081,-148.041188,-9474.636058,689.485948
517.853409,-222.061783,-9178.553681,766.095498
517.853736,-370.102971,-9252.574275,919.314598
517.854064,-222.061783,-9104.533087,459.657299
517.854392,-148.041188,-9178.553681,536.266849
517.854719,0.000000,-9104.533087,229.828649
517.855047,0.000000,-8956.491898,306.438199
517.855374,-444.123565,-9104.533087,153.219100
517.855702,-296.082377,-9030.512492,612.876398
517.856030,-370.102971,-9178.553681,536.266849
517.856357,-370.102971,-9326.594869,689.485948
517.856685,-740.205942,-9400.615463,459.657299
517.857013,0.000000,-8956.491898,0.000000
517.857340,0.000000,-9178.553681,383.047749
517.857668,-148.041188,-9030.512492,306.438199
517.857995,0.000000,-9252.574275,612.876398
517.858323,-296.082377,-9252.574275,459.657299
517.858651,370.102971,-9326.594869,1149.143247
517.858978,-148.041188,-9548.656652,689.485948
517.859306,-444.123565,-9400.615463,919.314598
517.859633,-518.144159,-9474.636058,612.876398
517.859961,-148.041188,-9326.594869,612.876398
517.860289,74.020594,-9252.574275,842.705048
517.860616,0.000000,-8512.368333,306.438199
517.860944,0.000000,-9030.512492,306.438199
517.861271,-296.082377,-9030.512492,229.828649
517.861599,-370.102971,-9104.533087,459.657299
517.861927,-370.102971,-8956.491898,766.095498
517.862254,-222.061783,-8882.471304,612.876398
517.862582,-444.123565,-9178.553681,612.876398
517.862910,-222.061783,-9326.594869,536.266849
517.863237,-222.061783,-9252.574275,536.266849
517.863565,-296.082377,-9252.574275,842.705048
517.863892,0.000000,-8882.471304,0.000000
517.864220,-148.041188,-9178.553681,306.438199
517.864548,74.020594,-9252.574275,536.266849
517.864875,0.000000,-9252.574275,766.095498
517.865203,0.000000,-9326.594869,689.485948
517.865530,0.000000,-9474.636058,383.047749
517.865858,-444.123565,-9252.574275,842.705048
517.866186,-444.123565,-9104.533087,689.485948
517.866513,-444.123565,-8956.491898,536.266849
517.866841,-370.102971,-8734.430116,536.266849
517.867168,-518.144159,-8734.430116,919.314598
517.867496,-296.082377,-8734.430116,306.438199
517.867824,-592.164754,-9030.512492,689.485948
517.868151,-740.205942,-8882.471304,536.266849
517.868479,-666.185348,-8882.471304,459.657299
517.868807,-518.144159,-8660.409521,766.095498
517.869134,0.000000,-8660.409521,689.485948
517.869462,-296.082377,-9030.512492,383.047749
517.869789,-296.082377,-9178.553681,536.266849
517.870117,-148.041188,-9104.533087,383.047749
517.870445,0.000000,-9030.512492,842.705048
517.870772,-370.102971,-8882.471304,689.485948
517.871100,-222.061783,-9326.594869,689.485948
517.871427,-222.061783,-9252.574275,612.876398
517.871755,0.000000,-9326.594869,612.876398
517.872083,-222.061783,-9252.574275,383.047749
517.872410,-370.102971,-8734.430116,459.657299
517.872738,0.000000,-8956.491898,229.828649
517.873065,-148.041188,-8808.450710,306.438199
517.873393,0.000000,-9104.533087,459.657299
517.873721,-444.123565,-8808.450710,306.438199
517.874048,-222.061783,-8808.450710,383.047749
517.874376,0.000000,-9030.512492,766.095498
517.874703,-444.123565,-8882.471304,536.266849
517.875031,-518.144159,-9252.574275,459.657299
517.875359,-518.144159,-9178.553681,383.047749
517.875686,-370.102971,-8808.450710,153.219100
517.876014,-592.164754,-8882.471304,612.876398
517.876342,-296.082377,-8956.491898,612.876398
517.876669,0.000000,-9030.512492,766.095498
517.876997,-296.082377,-9178.553681,689.485948
517.877324,-296.082377,-9252.574275,459.657299
517.877652,-296.082377,-9104.533087,612.876398
517.877980,-518.144159,-9252.574275,766.095498
517.878307,-592.164754,-9252.574275,766.095498
517.878635,-518.144159,-9400.615463,689.485948
