#time,accel_x,accel_y,accel_z
286.895303,-148.041188,-9030.512492,536.266849
286.895631,0.000000,-9104.533087,766.095498
286.895959,-222.061783,-9030.512492,459.657299
286.896287,-370.102971,-9178.553681,612.876398
286.896615,-370.102971,-9030.512492,459.657299
286.896942,-444.123565,-9030.512492,536.266849
286.897270,0.000000,-9178.553681,612.876398
286.897598,0.000000,-8734.430116,1378.971896
286.897926,-518.144159,-8956.491898,459.657299
286.898254,-518.144159,-9104.533087,536.266849
286.898582,-148.041188,-9104.533087,612.876398
286.898910,-148.041188,-8956.491898,612.876398
286.899238,-222.061783,-9104.533087,536.266849
286.899566,0.000000,-9326.594869,459.657299
286.899894,-444.123565,-9178.553681,612.876398
286.900222,-444.123565,-9178.553681,612.876398
286.900550,-148.041188,-9104.533087,459.657299
286.900877,0.000000,-9178.553681,612.876398
286.901205,-222.061783,-8882.471304,76.609550
286.901533,-296.082377,-9104.533087,612.876398
286.901861,-296.082377,-9030.512492,536.266849
286.902189,-222.061783,-9104.533087,383.047749
286.902517,-370.102971,-9178.553681,766.095498
286.902845,0.000000,-9178.553681,612.876398
286.903173,-296.082377,-9104.533087,459.657299
286.903501,0.000000,-9104.533087,459.657299
286.903829,-296.082377,-9104.533087,536.266849
286.904157,-370.102971,-9178.553681,689.485948
286.904485,74.020594,-9178.553681,0.000000
286.904812,-370.102971,-8882.471304,536.266849
286.905140,-370.102971,-8956.491898,383.047749
286.905468,-370.102971,-9252.574275,459.657299
286.905796,-888.247130,-9252.574275,459.657299
286.906124,-814.226536,-9178.553681,76.609550
286.906452,-1406.391290,-9326.594869,229.828649
286.906780,-1036.288319,-9400.615463,-383.047749
286.907108,-814.226536,-9030.512492,-459.657299
286.907436,-740.205942,-8956.491898,-536.266849
286.907764,-666.185348,-9104.533087,-459.657299
286.908092,-962.267725,-8956.491898,-842.705048
286.908420,-1258.350101,-9326.594869,-1149.143247
286.908748,-1332.370696,-8956.491898,-1455.581446
286.909075,-962.267725,-9252.574275,-1378.971896
286.909403,-814.226536,-9252.574275,-919.314598
286.909731,74.020594,-9400.615463,-1378.971896
286.910059,0.000000,-9030.512492,-1608.800546
286.910387,0.000000,-9178.553681,-1455.581446
286.910715,0.000000,-9326.594869,-1302.362347
286.911043,0.000000,-9178.553681,-1532.190996
286.911371,370.102971,-9696.697840,-1838.629195
286.911699,666.185348,-9178.553681,-1532.190996
286.912027,666.185348,-9326.594869,-1455.581446
286.912355,592.164754,-9474.636058,-1225.752797
286.912683,592.164754,-9400.615463,-1225.752797
286.913010,592.164754,-9104.533087,-995.924147
286.913338,1110.308913,-8808.450710,-1455.581446
286.913666,518.144159,-9400.615463,-1378.971896
286.913994,518.144159,-9548.656652,-1378.971896
286.914322,370.102971,-9400.615463,-1149.143247
286.914650,740.205942,-8956.491898,-995.924147
286.914978,518.144159,-9030.512492,-1149.143247
286.915306,74.020594,-9252.574275,-1149.143247
286.915634,-148.041188,-9030.512492,-1072.533697
286.915962,-370.102971,-9030.512492,-995.924147
286.916290,-740.205942,-9030.512492,-766.095498
286.916618,-814.226536,-8734.430116,-842.705048
286.916946,-1110.308913,-8734.430116,-1072.533697
286.917273,-1480.411884,-8882.471304,-1072.533697
286.917601,-1702.473667,-8956.491898,-1225.752797
286.917929,-1998.556043,-8956.491898,-1455.581446
286.918257,-1776.494261,-8734.430116,-536.266849
286.918585,-1850.514855,-8734.430116,-1608.800546
286.918913,-1702.473667,-8660.409521,-1762.019645
286.919241,-1554.432478,-8882.471304,-1838.629195
286.919569,-1554.432478,-8734.430116,-1608.800546
286.919897,-1332.370696,-8438.347739,-1302.362347
286.920225,-518.144159,-8956.491898,-1378.971896
286.920553,-296.082377,-8808.450710,-1149.143247
286.920881,74.020594,-9178.553681,-995.924147
286.921208,370.102971,-9326.594869,-612.876398
286.921536,444.123565,-8660.409521,-536.266849
286.921864,962.267725,-9178.553681,-459.657299
286.922192,1110.308913,-9326.594869,-306.438199
286.922520,1554.432478,-9326.594869,0.000000
286.922848,1702.473667,-9400.615463,229.828649
286.923176,1924.535449,-9178.553681,306.438199
286.923504,1924.535449,-9474.636058,612.876398
286.923832,1702.473667,-9178.553681,766.095498
286.924160,1406.391290,-9326.594869,919.314598
286.924488,814.226536,-9326.594869,842.705048
286.924816,370.102971,-9474.636058,919.314598
286.925143,-370.102971,-9622.677246,229.828649
286.925471,-1406.391290,-9474.636058,76.609550
286.925799,-1998.556043,-9474.636058,0.000000
286.926127,-2294.638420,-9474.636058,0.000000
286.926455,-2590.720797,-9178.553681,-612.876398
286.926783,-2886.803174,-8586.388927,-536.266849
286.927111,-2590.720797,-8364.327145,-612.876398
286.927439,-2294.638420,-8216.285956,-689.485948
286.927767,-1924.535449,-8068.244768,-689.485948
286.928095,-1998.556043,-8290.306550,-536.266849
286.928423,-1850.514855,-8216.285956,-306.438199
286.928751,-1332.370696,-8586.388927,0.000000
286.929079,-740.205942,-8586.388927,76.609550
286.929406,222.061783,-8734.430116,612.876398
286.929734,1184.329507,-8808.450710,1455.581446
286.930062,1924.535449,-9030.512492,2068.457845
286.930390,2146.597232,-9104.533087,1915.238745
286.930718,2516.700203,-9474.636058,2374.896044
286.931046,2072.576638,-9770.718434,2451.505594
286.931374,1554.432478,-10066.800811,2221.676944
286.931702,1184.329507,-10288.862594,1915.238745
286.932030,444.123565,-10066.800811,1915.238745
286.932358,888.247130,-10214.842000,2068.457845
286.932686,296.082377,-9548.656652,1532.190996
286.933014,-444.123565,-9548.656652,919.314598
286.933341,-222.061783,-9474.636058,459.657299
286.933669,-888.247130,-9104.533087,76.609550
286.933997,-1406.391290,-9104.533087,0.000000
286.934325,-1850.514855,-8734.430116,0.000000
286.934653,-1998.556043,-8808.450710,153.219100
286.934981,-2368.659014,-8364.327145,0.000000
286.935309,-1998.556043,-8364.327145,229.828649
286.935637,-2146.597232,-8660.409521,383.047749
286.935965,-1850.514855,-8142.265362,153.219100
286.936293,-1702.473667,-8142.265362,383.047749
286.936621,-1258.350101,-8290.306550,229.828649
286.936949,-444.123565,-8216.285956,612.876398
286.937277,0.000000,-7920.203579,995.924147
286.937604,296.082377,-8438.347739,689.485948
286.937932,592.164754,-8956.491898,995.924147
286.938260,370.102971,-9326.594869,995.924147
286.938588,74.020594,-9844.739029,766.095498
286.938916,518.144159,-10066.800811,76.609550
286.939244,370.102971,-10066.800811,306.438199
286.939572,0.000000,-10214.842000,0.000000
286.939900,0.000000,-10140.821405,0.000000
286.940228,222.061783,-9992.780217,76.609550
286.940556,444.123565,-9474.636058,-229.828649
286.940884,592.164754,-9178.553681,306.438199
286.941212,666.185348,-8808.450710,0.000000
286.941539,0.000000,-8808.450710,-153.219100
286.941867,592.164754,-8586.388927,-229.828649
286.942195,74.020594,-8364.327145,0.000000
286.942523,444.123565,-8586.388927,229.828649
286.942851,370.102971,-8290.306550,383.047749
286.943179,592.164754,-8438.347739,919.314598
286.943507,666.185348,-8586.388927,842.705048
286.943835,1110.308913,-8438.347739,842.705048
286.944163,1036.288319,-8734.430116,842.705048
286.944491,592.164754,-8586.388927,1225.752797
286.944819,0.000000,-9030.512492,842.705048
286.945147,-592.164754,-9400.615463,459.657299
286.945475,-888.247130,-9622.677246,229.828649
286.945802,-1258.350101,-9474.636058,306.438199
286.946130,-1554.432478,-9844.739029,76.609550
286.946458,-1924.535449,-9918.759623,0.000000
286.946786,-1628.453072,-9400.615463,-153.219100
286.947114,-1702.473667,-9252.574275,-383.047749
286.947442,-1332.370696,-8956.491898,0.000000
286.947770,-1702.473667,-9252.574275,-383.047749
286.948098,-1628.453072,-8808.450710,-306.438199
286.948426,-1406.391290,-8586.388927,0.000000
286.948754,-1184.329507,-8586.388927,76.609550
286.949082,-518.144159,-8216.285956,919.314598
286.949410,74.020594,-8068.244768,842.705048
286.949737,666.185348,-8142.265362,1072.533697
286.950065,1110.308913,-8364.327145,1225.752797
286.950393,1480.411884,-8438.347739,1532.190996
286.950721,1776.494261,-8438.347739,1378.971896
286.951049,2072.576638,-9178.553681,1608.800546
286.951377,1554.432478,-9252.574275,1762.019645
286.951705,1036.288319,-9918.759623,1532.190996
286.952033,296.082377,-10214.842000,1225.752797
286.952361,0.000000,-10140.821405,842.705048
286.952689,0.000000,-10362.883188,766.095498
286.953017,-370.102971,-9844.739029,229.828649
286.953345,-888.247130,-9770.718434,76.609550
286.953672,-1110.308913,-9770.718434,-153.219100
286.954000,-888.247130,-9770.718434,0.000000
286.954328,-1036.288319,-8808.450710,-229.828649
286.954656,-1332.370696,-8216.285956,153.219100
286.954984,-1184.329507,-8512.368333,0.000000
286.955312,-1258.350101,-8512.368333,229.828649
286.955639,-1036.288319,-8216.285956,229.828649
286.955967,-888.247130,-7772.162391,612.876398
286.956295,-296.082377,-7772.162391,766.095498
286.956623,0.000000,-7846.182985,1838.629195
286.956950,444.123565,-8216.285956,1762.019645
286.957278,370.102971,-8290.306550,1685.410096
286.957606,740.205942,-8734.430116,1915.238745
286.957934,814.226536,-9400.615463,1532.190996
286.958261,296.082377,-9548.656652,1608.800546
286.958589,-148.041188,-9918.759623,1532.190996
286.958917,0.000000,-10214.842000,1302.362347
286.959245,-222.061783,-10140.821405,842.705048
286.959572,-666.185348,-10140.821405,689.485948
286.959900,-666.185348,-10066.800811,1072.533697
286.960228,-370.102971,-9918.759623,459.657299
286.960556,-1110.308913,-9770.718434,536.266849
286.960883,-888.247130,-9474.636058,229.828649
286.961211,-962.267725,-9474.636058,153.219100
286.961539,-1628.453072,-8734.430116,76.609550
286.961867,-1406.391290,-8734.430116,76.609550
286.962194,-1480.411884,-8364.327145,0.000000
286.962522,-1036.288319,-8216.285956,306.438199
286.962850,-592.164754,-7920.203579,383.047749
286.963178,296.082377,-7846.182985,612.876398
286.963505,222.061783,-7624.121203,766.095498
286.963833,740.205942,-7920.203579,919.314598
286.964161,814.226536,-8068.244768,1072.533697
286.964489,962.267725,-8808.450710,842.705048
286.964816,444.123565,-8956.491898,459.657299
286.965144,222.061783,-9770.718434,536.266849
286.965472,0.000000,-10066.800811,0.000000
286.965800,-296.082377,-10362.883188,76.609550
286.966128,-444.123565,-10510.924376,0.000000
286.966455,-222.061783,-10658.965565,0.000000
286.966783,-222.061783,-10214.842000,-76.609550
286.967111,-518.144159,-10140.821405,-383.047749
286.967439,-370.102971,-9622.677246,-306.438199
286.967766,-296.082377,-9326.594869,-306.438199
286.968094,-370.102971,-8882.471304,-383.047749
286.968422,-444.123565,-8364.327145,76.609550
286.968750,0.000000,-8586.388927,229.828649
286.969077,0.000000,-8142.265362,459.657299
286.969405,0.000000,-7920.203579,766.095498
286.969733,222.061783,-7994.224174,995.924147
286.970061,444.123565,-7624.121203,1608.800546
286.970388,1110.308913,-8216.285956,1378.971896
286.970716,1036.288319,-8290.306550,1455.581446
286.971044,888.247130,-8808.450710,1455.581446
286.971372,444.123565,-9104.533087,1302.362347
286.971699,148.041188,-9474.636058,1149.143247
286.972027,-444.123565,-9622.677246,459.657299
286.972355,-1036.288319,-9992.780217,306.438199
286.972683,-1258.350101,-10214.842000,153.219100
286.973010,-1406.391290,-10140.821405,76.609550
286.973338,-1702.473667,-9844.739029,-229.828649
286.973666,-1628.453072,-9622.677246,0.000000
286.973994,-1554.432478,-9770.718434,0.000000
286.974321,-1702.473667,-9474.636058,0.000000
286.974649,-1924.535449,-9178.553681,0.000000
286.974977,-1776.494261,-9030.512492,0.000000
286.975305,-1480.411884,-8734.430116,0.000000
286.975632,-1184.329507,-8216.285956,306.438199
286.975960,-666.185348,-7846.182985,229.828649
286.976288,-148.041188,-7772.162391,536.266849
286.976616,370.102971,-7624.121203,995.924147
286.976943,666.185348,-7698.141797,1455.581446
286.977271,1554.432478,-8142.265362,1225.752797
286.977599,1628.453072,-8438.347739,1378.971896
286.977927,1480.411884,-8808.450710,1378.971896
286.978254,1332.370696,-9474.636058,1455.581446
286.978582,1110.308913,-9474.636058,995.924147
286.978910,296.082377,-10436.903782,536.266849
286.979238,74.020594,-10510.924376,459.657299
286.979565,0.000000,-10732.986159,0.000000
286.979893,-370.102971,-10658.965565,0.000000
286.980221,-370.102971,-9918.759623,0.000000
286.980549,-740.205942,-9992.780217,0.000000
286.980876,-740.205942,-9622.677246,0.000000
286.981204,-962.267725,-9400.615463,0.000000
286.981532,-888.247130,-8586.388927,0.000000
286.981860,-1036.288319,-8142.265362,383.047749
286.982188,-1110.308913,-8068.244768,383.047749
286.982515,-888.247130,-7994.224174,689.485948
286.982843,-814.226536,-7698.141797,689.485948
286.983171,-296.082377,-7624.121203,1072.533697
286.983499,148.041188,-7772.162391,1302.362347
286.983826,0.000000,-7254.018232,1378.971896
286.984154,592.164754,-8586.388927,1838.629195
286.984482,444.123565,-8660.409521,1685.410096
286.984810,296.082377,-9030.512492,1455.581446
286.985137,-222.061783,-9844.739029,1302.362347
286.985465,-296.082377,-9696.697840,1532.190996
286.985793,-592.164754,-9992.780217,1072.533697
286.986121,-666.185348,-10140.821405,689.485948
286.986448,-666.185348,-10288.862594,459.657299
286.986776,-740.205942,-10362.883188,383.047749
286.987104,-814.226536,-9844.739029,0.000000
286.987432,-1110.308913,-9474.636058,153.219100
286.987759,-1036.288319,-9474.636058,459.657299
286.988087,-1480.411884,-9326.594869,229.828649
286.988415,-1332.370696,-9178.553681,153.219100
286.988743,-1258.350101,-8586.388927,306.438199
286.989070,-518.144159,-8216.285956,919.314598
286.989398,-666.185348,-7772.162391,842.705048
286.989726,-296.082377,-7846.182985,995.924147
286.990054,74.020594,-7846.182985,1149.143247
286.990381,296.082377,-7698.141797,1225.752797
286.990709,962.267725,-7624.121203,995.924147
286.991037,888.247130,-8364.327145,995.924147
286.991365,740.205942,-8956.491898,842.705048
286.991692,444.123565,-9326.594869,536.266849
286.992020,0.000000,-9770.718434,536.266849
286.992348,0.000000,-10140.821405,76.609550
286.992676,0.000000,-10362.883188,0.000000
286.993003,-592.164754,-10436.903782,-229.828649
286.993331,-592.164754,-10436.903782,-459.657299
286.993659,-592.164754,-10214.842000,-306.438199
286.993987,-444.123565,-10066.800811,-459.657299
286.994314,-518.144159,-9474.636058,-306.438199
286.994642,-148.041188,-9400.615463,0.000000
286.994970,-444.123565,-8882.471304,0.000000
286.995298,-592.164754,-8660.409521,0.000000
286.995625,-666.185348,-8290.306550,76.609550
286.995953,-222.061783,-7846.182985,306.438199
286.996281,74.020594,-7698.141797,459.657299
286.996609,444.123565,-7550.100608,919.314598
286.996936,814.226536,-7698.141797,1149.143247
286.997264,962.267725,-7994.224174,1149.143247
286.997592,962.267725,-8068.244768,1532.190996
286.997920,666.185348,-8586.388927,1302.362347
286.998248,148.041188,-9178.553681,1072.533697
286.998575,0.000000,-9622.677246,919.314598
286.998903,-592.164754,-10214.842000,459.657299
286.999231,-814.226536,-10214.842000,229.828649
286.999559,-1332.370696,-10214.842000,612.876398
286.999886,-1332.370696,-10288.862594,76.609550
287.000214,-1332.370696,-10362.883188,0.000000
287.000542,-1406.391290,-9696.697840,0.000000
287.000870,-1480.411884,-10066.800811,-153.219100
287.001197,-1702.473667,-8956.491898,0.000000
287.001525,-1628.453072,-8734.430116,0.000000
287.001853,-1554.432478,-8512.368333,153.219100
287.002181,-1258.350101,-8290.306550,76.609550
287.002508,-814.226536,-7994.224174,306.438199
287.002836,-370.102971,-7254.018232,766.095498
287.003164,148.041188,-7698.141797,766.095498
287.003492,592.164754,-7698.141797,995.924147
287.003819,962.267725,-7920.203579,1302.362347
287.004147,1110.308913,-8068.244768,1455.581446
287.004475,1110.308913,-8734.430116,1762.019645
287.004803,1110.308913,-8808.450710,995.924147
287.005130,666.185348,-9770.718434,1072.533697
287.005458,148.041188,-10288.862594,612.876398
287.005786,0.000000,-10584.944971,306.438199
287.006114,0.000000,-10510.924376,153.219100
287.006441,0.000000,-10584.944971,0.000000
287.006769,-740.205942,-10140.821405,-306.438199
287.007097,-370.102971,-9918.759623,-306.438199
287.007425,-518.144159,-9770.718434,0.000000
287.007752,-592.164754,-9400.615463,0.000000
287.008080,-148.041188,-8660.409521,-229.828649
287.008408,-296.082377,-8586.388927,383.047749
287.008736,-666.185348,-8438.347739,459.657299
287.009063,-296.082377,-8068.244768,612.876398
287.009391,-296.082377,-7920.203579,842.705048
287.009719,148.041188,-7698.141797,2068.457845
287.010047,222.061783,-7550.100608,1378.971896
287.010374,444.123565,-7772.162391,1532.190996
287.010702,740.205942,-8068.244768,1915.238745
287.011030,518.144159,-8512.368333,1455.581446
287.011358,296.082377,-8808.450710,1685.410096
287.011685,0.000000,-9178.553681,1225.752797
287.012013,-296.082377,-9770.718434,995.924147
287.012341,-888.247130,-9918.759623,459.657299
287.012669,-962.267725,-10214.842000,612.876398
287.012996,-962.267725,-10510.924376,459.657299
287.013324,-1332.370696,-10066.800811,383.047749
287.013652,-1258.350101,-10214.842000,0.000000
287.013980,-1332.370696,-9770.718434,76.609550
287.014308,-1406.391290,-9770.718434,0.000000
287.014635,-1480.411884,-9326.594869,229.828649
287.014963,-1776.494261,-8364.327145,229.828649
287.015291,-1406.391290,-8660.409521,229.828649
287.015619,-888.247130,-8438.347739,306.438199
287.015946,-666.185348,-7698.141797,842.705048
287.016274,0.000000,-7624.121203,689.485948
287.016602,222.061783,-7328.038826,1608.800546
287.016930,1258.350101,-7772.162391,1072.533697
287.017257,1036.288319,-7698.141797,1225.752797
287.017585,1110.308913,-8216.285956,1378.971896
287.017913,1036.288319,-8808.450710,1455.581446
287.018241,962.267725,-9696.697840,1378.971896
287.018568,296.082377,-10140.821405,1149.143247
287.018896,-148.041188,-10362.883188,459.657299
287.019224,-444.123565,-10658.965565,306.438199
287.019552,-444.123565,-10732.986159,229.828649
287.019879,-666.185348,-10658.965565,0.000000
287.020207,-518.144159,-9918.759623,-153.219100
287.020535,-666.185348,-9918.759623,0.000000
287.020863,-518.144159,-9622.677246,-229.828649
287.021190,-666.185348,-9252.574275,0.000000
287.021518,-666.185348,-8882.471304,0.000000
287.021846,-444.123565,-8956.491898,536.266849
287.022174,-444.123565,-8364.327145,0.000000
287.022501,-888.247130,-8142.265362,383.047749
287.022829,-666.185348,-7994.224174,689.485948
287.023157,-148.041188,-7698.141797,1072.533697
287.023485,296.082377,-7550.100608,1455.581446
287.023812,518.144159,-7920.203579,1378.971896
287.024140,592.164754,-8068.244768,1532.190996
287.024468,814.226536,-8586.388927,1532.190996
287.024796,222.061783,-8882.471304,1072.533697
287.025123,148.041188,-9178.553681,919.314598
287.025451,-518.144159,-9770.718434,1072.533697
287.025779,-592.164754,-10066.800811,536.266849
287.026107,-888.247130,-10288.862594,306.438199
287.026434,-1110.308913,-10584.944971,306.438199
287.026762,-1258.350101,-10288.862594,0.000000
287.027090,-740.205942,-10214.842000,383.047749
287.027418,-1258.350101,-9844.739029,0.000000
287.027745,-1406.391290,-9474.636058,0.000000
287.028073,-1406.391290,-9104.533087,0.000000
287.028401,-1184.329507,-9030.512492,0.000000
287.028729,-888.247130,-8364.327145,153.219100
287.029056,-962.267725,-8068.244768,0.000000
287.029384,-370.102971,-7846.182985,383.047749
287.029712,148.041188,-7698.141797,459.657299
287.030040,518.144159,-7476.080014,842.705048
287.030368,962.267725,-7550.100608,919.314598
287.030695,1184.329507,-7994.224174,1072.533697
287.031023,1480.411884,-8734.430116,1149.143247
287.031351,1110.308913,-9030.512492,1072.533697
287.031679,888.247130,-9770.718434,919.314598
287.032006,370.102971,-9918.759623,689.485948
287.032334,0.000000,-10584.944971,76.609550
287.032662,-148.041188,-10881.027347,153.219100
287.032990,-370.102971,-10807.006753,0.000000
287.033317,-740.205942,-10584.944971,-153.219100
287.033645,-592.164754,-10288.862594,-306.438199
287.033973,-518.144159,-10066.800811,-689.485948
287.034301,-444.123565,-9622.677246,-153.219100
287.034628,-444.123565,-9104.533087,-383.047749
287.034956,-592.164754,-8956.491898,76.609550
287.035284,-444.123565,-8438.347739,229.828649
287.035612,-666.185348,-8290.306550,0.000000
287.035939,-444.123565,-7772.162391,995.924147
287.036267,-444.123565,-7698.141797,995.924147
287.036595,0.000000,-7772.162391,1608.800546
287.036923,296.082377,-7698.141797,1608.800546
287.037250,888.247130,-7772.162391,1608.800546
287.037578,518.144159,-8290.306550,2221.676944
287.037906,444.123565,-8660.409521,1915.238745
287.038234,74.020594,-9326.594869,1378.971896
287.038561,-296.082377,-9474.636058,1378.971896
287.038889,-296.082377,-10214.842000,1225.752797
287.039217,-962.267725,-9622.677246,689.485948
287.039545,-1184.329507,-10436.903782,306.438199
287.039872,-1258.350101,-10436.903782,459.657299
287.040200,-1258.350101,-10214.842000,229.828649
287.040528,-1554.432478,-9918.759623,153.219100
287.040856,-1258.350101,-9992.780217,229.828649
287.041183,-1554.432478,-9474.636058,76.609550
287.041511,-1850.514855,-9400.615463,229.828649
287.041839,-1628.453072,-9030.512492,229.828649
287.042167,-1554.432478,-8142.265362,153.219100
287.042494,-1036.288319,-7994.224174,766.095498
287.042822,-148.041188,-7698.141797,612.876398
287.043150,74.020594,-7772.162391,842.705048
287.043478,518.144159,-7476.080014,1072.533697
287.043805,888.247130,-7698.141797,1149.143247
287.044133,1702.473667,-8068.244768,1378.971896
287.044461,1480.411884,-8068.244768,1225.752797
287.044789,1036.288319,-9252.574275,1072.533697
287.045116,666.185348,-9770.718434,919.314598
287.045444,296.082377,-10362.883188,612.876398
287.045772,74.020594,-10362.883188,536.266849
287.046100,-592.164754,-10214.842000,689.485948
287.046428,-370.102971,-10658.965565,306.438199
287.046755,-666.185348,-10732.986159,-229.828649
287.047083,-444.123565,-10362.883188,-153.219100
287.047411,-592.164754,-10066.800811,-306.438199
287.047739,-444.123565,-9548.656652,612.876398
287.048066,-666.185348,-9252.574275,-229.828649
287.048394,-444.123565,-8734.430116,0.000000
287.048722,-518.144159,-8290.306550,0.000000
287.049050,-592.164754,-8068.244768,383.047749
287.049377,-148.041188,-7846.182985,459.657299
287.049705,-296.082377,-7846.182985,766.095498
287.050033,148.041188,-7624.121203,766.095498
287.050361,518.144159,-7698.141797,995.924147
287.050688,888.247130,-7698.141797,1225.752797
287.051016,666.185348,-8290.306550,1225.752797
287.051344,962.267725,-8586.388927,766.095498
287.051672,370.102971,-9030.512492,919.314598
287.051999,0.000000,-9622.677246,842.705048
287.052327,-666.185348,-9918.759623,383.047749
287.052655,-814.226536,-10362.883188,306.438199
287.052982,-962.267725,-10288.862594,459.657299
287.053310,-1036.288319,-10214.842000,0.000000
287.053638,-1480.411884,-10140.821405,76.609550
287.053965,-1258.350101,-9992.780217,-229.828649
287.054293,-1258.350101,-9696.697840,-383.047749
287.054621,-1110.308913,-9474.636058,-536.266849
287.054948,-1406.391290,-9030.512492,-153.219100
287.055276,-1258.350101,-8660.409521,-153.219100
287.055603,-1258.350101,-8438.347739,76.609550
287.055931,-666.185348,-7994.224174,306.438199
287.056259,-518.144159,-7476.080014,919.314598
287.056586,148.041188,-7105.977043,612.876398
287.056914,592.164754,-7698.141797,919.314598
287.057242,814.226536,-7772.162391,995.924147
287.057569,1036.288319,-8142.265362,1685.410096
287.057897,1480.411884,-8364.327145,1378.971896
287.058225,962.267725,-9030.512492,1378.971896
287.058552,518.144159,-9622.677246,919.314598
287.058880,148.041188,-10288.862594,842.705048
287.059207,-148.041188,-10436.903782,383.047749
287.059535,-370.102971,-10658.965565,153.219100
287.059863,-592.164754,-10288.862594,153.219100
287.060190,-740.205942,-10288.862594,-229.828649
287.060518,-666.185348,-9992.780217,0.000000
287.060846,-518.144159,-9770.718434,-229.828649
287.061173,-666.185348,-9400.615463,0.000000
287.061501,-444.123565,-8734.430116,612.876398
287.061828,-444.123565,-8660.409521,229.828649
287.062156,-592.164754,-8660.409521,536.266849
287.062484,-740.205942,-8290.306550,612.876398
287.062811,-518.144159,-7846.182985,1072.533697
287.063139,370.102971,-8290.306550,1608.800546
287.063467,148.041188,-7698.141797,1302.362347
287.063794,666.185348,-8068.244768,1915.238745
287.064122,814.226536,-8068.244768,1838.629195
287.064449,888.247130,-8438.347739,1532.190996
287.064777,444.123565,-9104.533087,1685.410096
287.065105,74.020594,-9548.656652,1302.362347
287.065432,-296.082377,-9770.718434,1072.533697
287.065760,-740.205942,-10066.800811,459.657299
287.066088,-962.267725,-10214.842000,383.047749
287.066415,-962.267725,-10510.924376,383.047749
287.066743,-888.247130,-10362.883188,76.609550
287.067070,-1110.308913,-10140.821405,76.609550
287.067398,-1184.329507,-10066.800811,0.000000
287.067726,-1184.329507,-9696.697840,0.000000
287.068053,-1554.432478,-9474.636058,229.828649
287.068381,-962.267725,-8808.450710,383.047749
287.068709,-1332.370696,-8438.347739,306.438199
287.069036,-1036.288319,-8216.285956,383.047749
287.069364,-592.164754,-8068.244768,689.485948
287.069691,0.000000,-7920.203579,536.266849
287.070019,814.226536,-7402.059420,1149.143247
287.070347,888.247130,-7402.059420,1302.362347
287.070674,962.267725,-7846.182985,1072.533697
287.071002,1184.329507,-8512.368333,1302.362347
287.071330,962.267725,-9178.553681,919.314598
287.071657,962.267725,-9474.636058,1149.143247
287.071985,518.144159,-9992.780217,766.095498
287.072312,0.000000,-10288.862594,612.876398
287.072640,-518.144159,-10584.944971,306.438199
287.072968,-222.061783,-10584.944971,0.000000
287.073295,-592.164754,-10584.944971,0.000000
287.073623,74.020594,-9992.780217,-153.219100
287.073951,-370.102971,-10288.862594,-229.828649
287.074278,-592.164754,-9696.697840,0.000000
287.074606,-592.164754,-9252.574275,76.609550
287.074933,-666.185348,-8956.491898,0.000000
287.075261,-518.144159,-8290.306550,0.000000
287.075589,-888.247130,-8068.244768,536.266849
287.075916,-666.185348,-8068.244768,612.876398
287.076244,-592.164754,-7624.121203,919.314598
287.076572,-296.082377,-7550.100608,1225.752797
287.076899,0.000000,-7698.141797,1225.752797
287.077227,222.061783,-7772.162391,1608.800546
287.077554,444.123565,-7624.121203,1685.410096
287.077882,666.185348,-8364.327145,1378.971896
287.078210,296.082377,-9030.512492,1225.752797
287.078537,-222.061783,-9844.739029,1455.581446
287.078865,-444.123565,-9548.656652,1149.143247
287.079193,-518.144159,-9992.780217,383.047749
287.079520,-1036.288319,-10362.883188,76.609550
287.079848,-1184.329507,-10436.903782,153.219100
287.080175,-962.267725,-10214.842000,0.000000
287.080503,-740.205942,-9918.759623,0.000000
287.080831,-888.247130,-9696.697840,0.000000
287.081158,-1258.350101,-9622.677246,0.000000
287.081486,-1406.391290,-9400.615463,0.000000
287.081814,-1184.329507,-9178.553681,-229.828649
287.082141,-1036.288319,-8438.347739,229.828649
287.082469,-1110.308913,-8068.244768,0.000000
287.082796,-296.082377,-7920.203579,229.828649
287.083124,74.020594,-7624.121203,383.047749
287.083452,370.102971,-7402.059420,612.876398
287.083779,1184.329507,-7772.162391,1225.752797
287.084107,1480.411884,-7994.224174,1225.752797
287.084435,1332.370696,-8438.347739,1225.752797
287.084762,1036.288319,-8882.471304,1072.533697
287.085090,666.185348,-9474.636058,995.924147
287.085417,296.082377,-9992.780217,766.095498
287.085745,0.000000,-9992.780217,536.266849
287.086073,-592.164754,-10584.944971,-229.828649
287.086400,-592.164754,-10955.047942,0.000000
287.086728,-740.205942,-10732.986159,-612.876398
287.087056,-666.185348,-10436.903782,-306.438199
287.087383,-518.144159,-9918.759623,612.876398
287.087711,-666.185348,-9474.636058,-536.266849
287.088038,-592.164754,-9178.553681,-306.438199
287.088366,-370.102971,-9178.553681,76.609550
287.088694,-444.123565,-8586.388927,536.266849
287.089021,-444.123565,-8068.244768,766.095498
287.089349,-296.082377,-8068.244768,383.047749
287.089677,-444.123565,-7994.224174,612.876398
287.090004,148.041188,-7920.203579,1302.362347
287.090332,666.185348,-7846.182985,1455.581446
287.090659,814.226536,-7846.182985,1378.971896
287.090987,592.164754,-8364.327145,1991.848295
287.091315,444.123565,-8734.430116,1608.800546
287.091642,222.061783,-9178.553681,1455.581446
287.091970,0.000000,-9400.615463,1072.533697
287.092298,-518.144159,-9918.759623,842.705048
287.092625,-814.226536,-10288.862594,612.876398
287.092953,-1036.288319,-10362.883188,459.657299
287.093280,-740.205942,-10436.903782,612.876398
287.093608,-1036.288319,-10362.883188,229.828649
287.093936,-1184.329507,-10066.800811,229.828649
287.094263,-1480.411884,-9844.739029,459.657299
287.094591,-1702.473667,-9474.636058,229.828649
287.094919,-1628.453072,-9178.553681,0.000000
287.095246,-1702.473667,-8808.450710,0.000000
287.095574,-1702.473667,-8512.368333,76.609550
287.095901,-1110.308913,-8290.306550,766.095498
287.096229,-222.061783,-7402.059420,612.876398
287.096557,148.041188,-7328.038826,919.314598
287.096884,518.144159,-7476.080014,1072.533697
287.097212,888.247130,-7624.121203,995.924147
287.097540,962.267725,-7624.121203,1302.362347
287.097867,1258.350101,-8660.409521,1072.533697
287.098195,962.267725,-9178.553681,1072.533697
287.098522,740.205942,-9548.656652,842.705048
287.098850,518.144159,-10510.924376,919.314598
287.099178,0.000000,-9992.780217,536.266849
287.099505,370.102971,-11177.109724,153.219100
287.099833,-370.102971,-10066.800811,306.438199
287.100161,-444.123565,-10362.883188,0.000000
287.100488,-370.102971,-10584.944971,0.000000
287.100816,-296.082377,-9474.636058,-153.219100
287.101143,-296.082377,-10140.821405,-306.438199
287.101471,-592.164754,-8882.471304,0.000000
287.101799,-666.185348,-9178.553681,0.000000
287.102126,-370.102971,-8364.327145,153.219100
287.102454,-740.205942,-8364.327145,459.657299
287.102782,-666.185348,-7698.141797,842.705048
287.103109,-296.082377,-7772.162391,1149.143247
287.103437,222.061783,-7846.182985,995.924147
287.103764,0.000000,-7402.059420,919.314598
287.104092,518.144159,-8142.265362,1378.971896
287.104420,518.144159,-7846.182985,1302.362347
287.104747,740.205942,-8512.368333,1378.971896
287.105075,-370.102971,-8956.491898,766.095498
287.105403,-444.123565,-9474.636058,689.485948
287.105730,-740.205942,-9770.718434,383.047749
287.106058,-1036.288319,-10288.862594,612.876398
287.106386,-962.267725,-9918.759623,0.000000
287.106713,-740.205942,-10362.883188,76.609550
287.107041,-1480.411884,-9992.780217,-229.828649
287.107368,-1110.308913,-10436.903782,0.000000
287.107696,-666.185348,-9696.697840,0.000000
287.108024,-962.267725,-9178.553681,-612.876398
287.108351,-888.247130,-9326.594869,0.000000
287.108679,-1110.308913,-9252.574275,153.219100
287.109007,-1110.308913,-8364.327145,229.828649
287.109334,-592.164754,-7920.203579,383.047749
287.109662,296.082377,-8142.265362,689.485948
287.109989,222.061783,-7550.100608,842.705048
287.110317,962.267725,-7624.121203,1149.143247
287.110645,1258.350101,-7698.141797,995.924147
287.110972,1184.329507,-8068.244768,1302.362347
287.111300,962.267725,-8808.450710,1302.362347
287.111628,888.247130,-9178.553681,1072.533697
287.111955,296.082377,-9770.718434,995.924147
287.112283,0.000000,-10066.800811,689.485948
287.112610,-222.061783,-10584.944971,459.657299
287.112938,-666.185348,-10881.027347,153.219100
287.113266,-888.247130,-10362.883188,-459.657299
287.113593,-1110.308913,-9992.780217,-76.609550
287.113921,-888.247130,-10436.903782,-383.047749
287.114249,-592.164754,-9400.615463,-306.438199
287.114576,-740.205942,-9474.636058,-229.828649
287.114904,-222.061783,-9030.512492,306.438199
287.115231,-444.123565,-8956.491898,612.876398
287.115559,-814.226536,-8216.285956,536.266849
287.115887,-518.144159,-8364.327145,689.485948
287.116214,-592.164754,-7846.182985,995.924147
287.116542,-370.102971,-7476.080014,1915.238745
287.116870,0.000000,-7402.059420,1532.190996
287.117197,740.205942,-7772.162391,1762.019645
287.117525,814.226536,-7994.224174,1838.629195
287.117852,666.185348,-8290.306550,1762.019645
287.118180,370.102971,-9030.512492,1608.800546
287.118508,-148.041188,-9030.512492,1455.581446
287.118835,-296.082377,-9696.697840,1072.533697
287.119163,-666.185348,-9992.780217,842.705048
287.119491,-1036.288319,-10362.883188,536.266849
287.119818,-1036.288319,-10436.903782,459.657299
287.120146,-888.247130,-10214.842000,536.266849
287.120473,-1110.308913,-10140.821405,0.000000
287.120801,-1332.370696,-10066.800811,-153.219100
287.121129,-1480.411884,-9474.636058,-153.219100
287.121456,-1702.473667,-9770.718434,-153.219100
287.121784,-1110.308913,-8734.430116,76.609550
287.122112,-1480.411884,-8512.368333,0.000000
287.122439,-1258.350101,-8142.265362,0.000000
287.122767,-444.123565,-7920.203579,306.438199
287.123094,0.000000,-7698.141797,612.876398
287.123422,592.164754,-7328.038826,766.095498
287.123750,1110.308913,-7624.121203,1532.190996
287.124077,1036.288319,-7846.182985,995.924147
287.124405,1258.350101,-8512.368333,1072.533697
287.124733,1258.350101,-9030.512492,1149.143247
287.125060,962.267725,-9400.615463,919.314598
287.125388,1036.288319,-9474.636058,919.314598
287.125715,666.185348,-10436.903782,459.657299
287.126043,74.020594,-10584.944971,459.657299
287.126371,0.000000,-10807.006753,153.219100
287.126698,0.000000,-10584.944971,153.219100
287.127026,-592.164754,-10288.862594,229.828649
287.127354,-370.102971,-10140.821405,0.000000
287.127681,-370.102971,-9918.759623,-229.828649
287.128009,-592.164754,-9400.615463,0.000000
287.128336,-666.185348,-8956.491898,0.000000
287.128664,-444.123565,-8734.430116,536.266849
287.128992,-888.247130,-8512.368333,689.485948
287.129319,-962.267725,-8142.265362,536.266849
287.129647,-888.247130,-7624.121203,536.266849
287.129975,-444.123565,-7846.182985,842.705048
287.130302,0.000000,-7772.162391,1532.190996
287.130630,444.123565,-8142.265362,1378.971896
287.130957,518.144159,-7994.224174,1302.362347
287.131285,296.082377,-8364.327145,1455.581446
287.131613,222.061783,-9030.512492,1149.143247
287.131940,0.000000,-9474.636058,1072.533697
287.132268,-370.102971,-9400.615463,919.314598
287.132596,-814.226536,-9992.780217,612.876398
287.132923,-1036.288319,-10436.903782,383.047749
287.133251,-962.267725,-10510.924376,306.438199
287.133578,-962.267725,-10436.903782,306.438199
287.133906,-222.061783,-10140.821405,76.609550
287.134234,-888.247130,-9918.759623,0.000000
287.134561,-1110.308913,-9918.759623,76.609550
287.134889,-1110.308913,-9548.656652,-229.828649
287.135217,-1332.370696,-9104.533087,0.000000
287.135544,-740.205942,-8364.327145,0.000000
287.135872,-740.205942,-7994.224174,306.438199
287.136199,0.000000,-7920.203579,612.876398
287.136527,0.000000,-7402.059420,995.924147
287.136855,740.205942,-7624.121203,995.924147
287.137182,1110.308913,-7476.080014,1378.971896
287.137510,1110.308913,-8068.244768,1378.971896
287.137838,1036.288319,-8586.388927,1378.971896
287.138165,740.205942,-8882.471304,1225.752797
287.138493,518.144159,-9474.636058,919.314598
287.138820,74.020594,-10140.821405,612.876398
287.139148,0.000000,-10436.903782,459.657299
287.139476,-740.205942,-10584.944971,0.000000
287.139803,-740.205942,-10584.944971,-306.438199
287.140131,-814.226536,-10510.924376,-459.657299
287.140459,-962.267725,-10436.903782,-612.876398
287.140786,-370.102971,-10066.800811,-612.876398
287.141114,-962.267725,-9178.553681,0.000000
287.141441,-740.205942,-9252.574275,-153.219100
287.141769,-444.123565,-8882.471304,0.000000
287.142097,-370.102971,-8734.430116,153.219100
287.142424,-740.205942,-8216.285956,0.000000
287.142752,-962.267725,-7920.203579,1072.533697
287.143080,-296.082377,-7846.182985,842.705048
287.143407,296.082377,-7920.203579,919.314598
287.143735,666.185348,-8142.265362,1225.752797
287.144062,1184.329507,-8586.388927,1991.848295
287.144390,1036.288319,-8142.265362,1685.410096
287.144718,888.247130,-8364.327145,1455.581446
287.145045,444.123565,-9104.533087,1378.971896
287.145373,148.041188,-9844.739029,1225.752797
287.145701,-296.082377,-10140.821405,766.095498
287.146028,-370.102971,-10140.821405,229.828649
287.146356,-888.247130,-10510.924376,306.438199
287.146683,-888.247130,-10584.944971,76.609550
287.147011,-1110.308913,-10510.924376,0.000000
287.147339,-1184.329507,-10066.800811,0.000000
287.147666,-1184.329507,-9844.739029,306.438199
287.147994,-1480.411884,-9548.656652,0.000000
287.148322,-1628.453072,-9326.594869,76.609550
287.148649,-1480.411884,-8734.430116,0.000000
287.148977,-1258.350101,-8290.306550,306.438199
287.149304,-666.185348,-7772.162391,612.876398
287.149632,-222.061783,-7846.182985,842.705048
287.149960,0.000000,-7328.038826,689.485948
287.150287,518.144159,-7476.080014,1149.143247
287.150615,1184.329507,-7624.121203,1378.971896
287.150943,1036.288319,-8068.244768,1302.362347
287.151270,1036.288319,-8290.306550,1685.410096
287.151598,740.205942,-9400.615463,1225.752797
287.151926,370.102971,-9548.656652,1072.533697
287.152253,222.061783,-10214.842000,995.924147
287.152581,-148.041188,-10436.903782,842.705048
287.152908,-370.102971,-10362.883188,1378.971896
287.153236,-370.102971,-10510.924376,0.000000
287.153564,-74.020594,-10436.903782,76.609550
287.153891,-592.164754,-10140.821405,-229.828649
287.154219,-370.102971,-9770.718434,153.219100
287.154546,-518.144159,-9104.533087,536.266849
287.154874,-592.164754,-9178.553681,153.219100
287.155201,-814.226536,-8808.450710,306.438199
287.155529,-666.185348,-8438.347739,766.095498
287.155856,-814.226536,-8364.327145,766.095498
287.156184,-666.185348,-7846.182985,612.876398
287.156511,-444.123565,-7698.141797,1378.971896
287.156838,-222.061783,-7624.121203,1378.971896
287.157166,74.020594,-7624.121203,1455.581446
287.157493,444.123565,-7698.141797,1532.190996
287.157821,296.082377,-8068.244768,1685.410096
287.158148,296.082377,-8586.388927,1149.143247
287.158476,0.000000,-9252.574275,1225.752797
287.158803,-666.185348,-9474.636058,842.705048
287.159131,-814.226536,-9770.718434,536.266849
287.159458,-962.267725,-10288.862594,383.047749
287.159786,-1332.370696,-9696.697840,229.828649
287.160113,-814.226536,-10510.924376,-153.219100
287.160440,-1184.329507,-10066.800811,0.000000
287.160768,-814.226536,-10140.821405,153.219100
287.161095,-1332.370696,-9844.739029,0.000000
287.161423,-1184.329507,-9474.636058,-306.438199
287.161750,-1554.432478,-8364.327145,0.000000
287.162078,-1258.350101,-8882.471304,0.000000
287.162405,-962.267725,-8438.347739,0.000000
287.162733,-370.102971,-7994.224174,383.047749
287.163060,222.061783,-7698.141797,689.485948
287.163387,666.185348,-7698.141797,842.705048
287.163715,1184.329507,-7772.162391,1072.533697
287.164042,1258.350101,-7920.203579,1149.143247
287.164370,1258.350101,-8438.347739,995.924147
287.164697,1258.350101,-8956.491898,1072.533697
287.165025,814.226536,-9770.718434,1225.752797
287.165352,444.123565,-9696.697840,229.828649
287.165680,0.000000,-10362.883188,459.657299
287.166007,-222.061783,-10436.903782,153.219100
287.166334,-518.144159,-10658.965565,0.000000
287.166662,-592.164754,-10510.924376,76.609550
287.166989,-888.247130,-9918.759623,-153.219100
287.167317,-740.205942,-9992.780217,-536.266849
287.167644,-740.205942,-9622.677246,-383.047749
287.167972,-444.123565,-9474.636058,0.000000
287.168299,-592.164754,-8956.491898,-383.047749
287.168627,-740.205942,-8586.388927,459.657299
287.168954,-518.144159,-8364.327145,612.876398
287.169282,-666.185348,-8142.265362,306.438199
287.169609,-592.164754,-7698.141797,842.705048
287.169936,0.000000,-7772.162391,995.924147
287.170264,518.144159,-7254.018232,1608.800546
287.170591,666.185348,-7994.224174,1608.800546
287.170919,888.247130,-8068.244768,1685.410096
287.171246,740.205942,-8438.347739,1685.410096
287.171574,148.041188,-9030.512492,1455.581446
287.171901,0.000000,-9178.553681,1072.533697
287.172229,-592.164754,-9918.759623,689.485948
287.172556,-962.267725,-10140.821405,612.876398
287.172883,-962.267725,-10288.862594,383.047749
287.173211,-1332.370696,-10214.842000,76.609550
287.173538,-1110.308913,-9696.697840,229.828649
287.173866,-962.267725,-10066.800811,0.000000
287.174193,-1110.308913,-9696.697840,76.609550
287.174521,-1406.391290,-9474.636058,0.000000
287.174848,-1554.432478,-9474.636058,0.000000
287.175176,-1554.432478,-8956.491898,0.000000
287.175503,-1332.370696,-8438.347739,153.219100
287.175830,-1036.288319,-8068.244768,689.485948
287.176158,-222.061783,-7846.182985,612.876398
287.176485,148.041188,-7698.141797,842.705048
287.176813,444.123565,-7698.141797,919.314598
287.177140,740.205942,-7402.059420,1149.143247
287.177468,888.247130,-8142.265362,1302.362347
287.177795,1184.329507,-8586.388927,1378.971896
287.178123,1036.288319,-8956.491898,1149.143247
287.178450,740.205942,-9474.636058,1072.533697
287.178778,592.164754,-9770.718434,1225.752797
287.179105,518.144159,-10362.883188,383.047749
287.179432,0.000000,-10510.924376,306.438199
287.179760,-518.144159,-10732.986159,153.219100
287.180087,-518.144159,-10584.944971,0.000000
287.180415,-518.144159,-10214.842000,0.000000
287.180742,-666.185348,-9696.697840,-459.657299
287.181070,-888.247130,-9770.718434,0.000000
287.181397,-888.247130,-9400.615463,0.000000
287.181725,-1036.288319,-8956.491898,306.438199
287.182052,-1110.308913,-8364.327145,459.657299
287.182379,-814.226536,-8364.327145,0.000000
287.182707,-740.205942,-8068.244768,766.095498
287.183034,-444.123565,-7698.141797,842.705048
287.183362,-148.041188,-7772.162391,919.314598
287.183689,74.020594,-7550.100608,1072.533697
287.184017,1184.329507,-7994.224174,1991.848295
287.184344,740.205942,-8290.306550,1302.362347
287.184672,592.164754,-8512.368333,1532.190996
287.184999,296.082377,-9030.512492,1302.362347
287.185327,0.000000,-9548.656652,919.314598
287.185654,0.000000,-10288.862594,1072.533697
287.185981,-370.102971,-9992.780217,306.438199
287.186309,-592.164754,-10436.903782,536.266849
287.186636,-888.247130,-10214.842000,306.438199
287.186964,-814.226536,-10436.903782,153.219100
287.187291,-888.247130,-10066.800811,229.828649
287.187619,-740.205942,-9474.636058,0.000000
287.187946,-1036.288319,-9474.636058,0.000000
287.188274,-1184.329507,-9326.594869,0.000000
287.188601,-1480.411884,-9030.512492,76.609550
287.188928,-1110.308913,-8438.347739,383.047749
287.189256,-888.247130,-7698.141797,0.000000
287.189583,-222.061783,-7698.141797,536.266849
287.189911,0.000000,-7550.100608,689.485948
287.190238,370.102971,-7476.080014,995.924147
287.190566,592.164754,-7698.141797,1225.752797
287.190893,888.247130,-7994.224174,995.924147
287.191221,740.205942,-8216.285956,1302.362347
287.191548,666.185348,-9030.512492,842.705048
287.191875,370.102971,-9622.677246,766.095498
287.192203,0.000000,-9770.718434,536.266849
287.192530,-370.102971,-10436.903782,919.314598
287.192858,0.000000,-10658.965565,153.219100
287.193185,-814.226536,-10584.944971,76.609550
287.193513,-888.247130,-10362.883188,0.000000
287.193840,-592.164754,-10214.842000,-229.828649
287.194168,-518.144159,-9770.718434,-306.438199
287.194495,-370.102971,-9400.615463,0.000000
287.194823,-518.144159,-9030.512492,0.000000
287.195150,-148.041188,-8660.409521,229.828649
287.195477,-222.061783,-8586.388927,536.266849
287.195805,-296.082377,-8364.327145,612.876398
287.196132,148.041188,-7994.224174,1378.971896
287.196460,0.000000,-7920.203579,1072.533697
287.196787,0.000000,-7920.203579,1225.752797
287.197115,592.164754,-8068.244768,1378.971896
287.197442,740.205942,-8290.306550,1685.410096
287.197770,666.185348,-8512.368333,1838.629195
287.198097,666.185348,-8734.430116,1378.971896
287.198424,296.082377,-9474.636058,1302.362347
287.198752,-222.061783,-9622.677246,919.314598
287.199079,-962.267725,-10140.821405,689.485948
287.199407,-1332.370696,-9992.780217,612.876398
287.199734,-962.267725,-10658.965565,536.266849
287.200062,-1554.432478,-10510.924376,0.000000
287.200389,-1332.370696,-10436.903782,0.000000
287.200717,-1554.432478,-9844.739029,-383.047749
287.201044,-1110.308913,-9622.677246,0.000000
287.201371,-1554.432478,-9474.636058,0.000000
287.201699,-1776.494261,-9178.553681,0.000000
287.202026,-1554.432478,-8734.430116,0.000000
287.202354,-1036.288319,-8586.388927,0.000000
287.202681,-592.164754,-8068.244768,153.219100
287.203009,148.041188,-7772.162391,229.828649
287.203336,592.164754,-7476.080014,995.924147
287.203664,1036.288319,-7846.182985,689.485948
287.203991,1406.391290,-8142.265362,1225.752797
287.204319,1406.391290,-8364.327145,1149.143247
287.204646,1480.411884,-8364.327145,1225.752797
287.204973,1258.350101,-9326.594869,1072.533697
287.205301,1036.288319,-9844.739029,842.705048
287.205628,518.144159,-10436.903782,612.876398
287.205956,74.020594,-10510.924376,153.219100
287.206283,0.000000,-10436.903782,459.657299
287.206611,-296.082377,-10658.965565,-306.438199
287.206938,-740.205942,-10288.862594,-153.219100
287.207266,-740.205942,-9992.780217,-306.438199
287.207593,-888.247130,-9622.677246,-306.438199
287.207920,-962.267725,-8882.471304,-459.657299
287.208248,-592.164754,-8882.471304,-689.485948
287.208575,-666.185348,-8364.327145,0.000000
287.208903,-740.205942,-8438.347739,306.438199
287.209230,-962.267725,-7920.203579,612.876398
287.209558,-814.226536,-7920.203579,689.485948
287.209885,-444.123565,-7105.977043,1149.143247
287.210213,74.020594,-7772.162391,1149.143247
287.210540,222.061783,-7402.059420,1378.971896
287.210868,296.082377,-7846.182985,1455.581446
287.211195,518.144159,-8290.306550,1838.629195
287.211522,370.102971,-8660.409521,1608.800546
287.211850,74.020594,-9400.615463,1608.800546
287.212177,-370.102971,-9622.677246,919.314598
287.212505,-888.247130,-9696.697840,612.876398
287.212832,-518.144159,-10362.883188,919.314598
287.213160,-592.164754,-10436.903782,766.095498
287.213487,-888.247130,-9844.739029,383.047749
287.213815,-740.205942,-10288.862594,383.047749
287.214142,-888.247130,-9992.780217,459.657299
287.214469,-1184.329507,-9770.718434,0.000000
287.214797,-1184.329507,-9474.636058,459.657299
287.215124,-1110.308913,-8956.491898,383.047749
287.215452,-1554.432478,-8734.430116,383.047749
287.215779,-1184.329507,-8364.327145,459.657299
287.216107,-592.164754,-7772.162391,689.485948
287.216434,-222.061783,-7772.162391,995.924147
287.216762,518.144159,-7550.100608,1608.800546
287.217089,740.205942,-7550.100608,995.924147
287.217416,740.205942,-7846.182985,1455.581446
287.217744,740.205942,-8216.285956,1225.752797
287.218071,740.205942,-8734.430116,1302.362347
287.218399,222.061783,-9104.533087,766.095498
287.218726,222.061783,-10140.821405,995.924147
287.219054,-370.102971,-10436.903782,536.266849
287.219381,-740.205942,-10510.924376,76.609550
287.219709,-814.226536,-10807.006753,0.000000
287.220036,-666.185348,-10436.903782,-689.485948
287.220364,-370.102971,-10288.862594,-306.438199
287.220691,-444.123565,-10140.821405,-306.438199
287.221018,-518.144159,-9844.739029,-306.438199
287.221346,0.000000,-9326.594869,0.000000
287.221673,-370.102971,-8438.347739,0.000000
287.222001,74.020594,-8364.327145,536.266849
287.222328,-148.041188,-8364.327145,459.657299
287.222656,0.000000,-8586.388927,842.705048
287.222983,0.000000,-8216.285956,995.924147
287.223311,148.041188,-8068.244768,1225.752797
287.223638,888.247130,-8068.244768,1455.581446
287.223965,1036.288319,-8068.244768,1532.190996
287.224293,814.226536,-8512.368333,1608.800546
287.224620,888.247130,-8586.388927,1532.190996
287.224948,370.102971,-9030.512492,1149.143247
287.225275,0.000000,-9104.533087,995.924147
287.225603,-444.123565,-9474.636058,383.047749
287.225930,-666.185348,-10066.800811,459.657299
287.226258,-1036.288319,-10214.842000,0.000000
287.226585,-1110.308913,-9992.780217,76.609550
287.226912,-1184.329507,-10066.800811,-459.657299
287.227240,-1258.350101,-9400.615463,0.000000
287.227567,-1110.308913,-9770.718434,0.000000
287.227895,-1332.370696,-9474.636058,0.000000
287.228222,-1480.411884,-9252.574275,153.219100
287.228550,-1480.411884,-8882.471304,0.000000
287.228877,-1184.329507,-8512.368333,306.438199
287.229205,-740.205942,-8290.306550,306.438199
287.229532,-592.164754,-7698.141797,536.266849
287.229860,0.000000,-7402.059420,842.705048
287.230187,518.144159,-7698.141797,842.705048
287.230514,1110.308913,-8142.265362,919.314598
287.230842,1258.350101,-7994.224174,1072.533697
287.231169,1184.329507,-8586.388927,1302.362347
287.231497,1036.288319,-9178.553681,1072.533697
287.231824,814.226536,-9548.656652,919.314598
287.232152,222.061783,-9622.677246,842.705048
287.232479,0.000000,-10140.821405,459.657299
287.232807,-444.123565,-10436.903782,459.657299
287.233134,-296.082377,-10436.903782,229.828649
287.233461,-444.123565,-10436.903782,0.000000
287.233789,0.000000,-9844.739029,-536.266849
287.234116,-592.164754,-9622.677246,383.047749
287.234444,-518.144159,-9474.636058,0.000000
287.234771,-888.247130,-9030.512492,0.000000
287.235099,-592.164754,-8956.491898,76.609550
287.235426,-814.226536,-8660.409521,229.828649
287.235754,-740.205942,-8068.244768,689.485948
287.236081,-814.226536,-8216.285956,306.438199
287.236408,-444.123565,-7994.224174,919.314598
287.236736,0.000000,-7846.182985,1072.533697
287.237063,296.082377,-7994.224174,1302.362347
287.237391,1110.308913,-7772.162391,1608.800546
287.237718,666.185348,-8438.347739,1378.971896
287.238046,296.082377,-8734.430116,1378.971896
287.238373,0.000000,-9104.533087,1378.971896
287.238701,-370.102971,-9696.697840,919.314598
287.239028,-370.102971,-9770.718434,459.657299
287.239356,-814.226536,-10066.800811,536.266849
287.239683,-740.205942,-10362.883188,229.828649
287.240010,-1036.288319,-10140.821405,306.438199
287.240338,-814.226536,-10214.842000,306.438199
287.240665,-666.185348,-10066.800811,0.000000
287.240993,-962.267725,-9696.697840,995.924147
287.241320,-1332.370696,-9474.636058,153.219100
287.241648,-1184.329507,-9326.594869,0.000000
287.241975,-1332.370696,-9104.533087,0.000000
287.242303,-1332.370696,-8586.388927,76.609550
287.242630,-740.205942,-7550.100608,689.485948
287.242957,0.000000,-7698.141797,612.876398
287.243285,148.041188,-7476.080014,919.314598
287.243612,518.144159,-7772.162391,842.705048
287.243940,888.247130,-7994.224174,1149.143247
287.244267,1258.350101,-7846.182985,1302.362347
287.244595,962.267725,-8808.450710,1149.143247
287.244922,814.226536,-9178.553681,919.314598
287.245250,444.123565,-9844.739029,766.095498
287.245577,0.000000,-10214.842000,536.266849
287.245905,0.000000,-10214.842000,306.438199
287.246232,0.000000,-10140.821405,153.219100
287.246559,-518.144159,-10584.944971,229.828649
287.246887,-444.123565,-10362.883188,-153.219100
287.247214,-740.205942,-10288.862594,0.000000
287.247542,-740.205942,-9844.739029,76.609550
287.247869,0.000000,-9696.697840,-76.609550
287.248197,-518.144159,-9030.512492,76.609550
287.248524,-444.123565,-8808.450710,76.609550
287.248852,-444.123565,-8586.388927,306.438199
287.249179,-592.164754,-8216.285956,612.876398
287.249506,-666.185348,-7698.141797,766.095498
287.249834,-222.061783,-7698.141797,919.314598
287.250161,296.082377,-7994.224174,995.924147
287.250489,444.123565,-7772.162391,1378.971896
287.250816,740.205942,-7994.224174,1455.581446
287.251144,888.247130,-7920.203579,1838.629195
287.251471,444.123565,-8660.409521,1225.752797
287.251799,-148.041188,-9104.533087,1149.143247
287.252126,-444.123565,-9770.718434,766.095498
287.252453,-740.205942,-10066.800811,766.095498
287.252781,-1036.288319,-9696.697840,306.438199
287.253108,-1332.370696,-9992.780217,229.828649
287.253436,-1110.308913,-10214.842000,229.828649
287.253763,-1110.308913,-10436.903782,153.219100
287.254091,-1184.329507,-9844.739029,0.000000
287.254418,-888.247130,-9992.780217,153.219100
287.254746,-1036.288319,-9548.656652,0.000000
287.255073,-1554.432478,-9104.533087,-306.438199
287.255401,-1406.391290,-9178.553681,0.000000
287.255728,-888.247130,-8438.347739,153.219100
287.256055,-592.164754,-7772.162391,383.047749
287.256383,296.082377,-8068.244768,1225.752797
287.256710,444.123565,-7698.141797,1302.362347
287.257038,888.247130,-7994.224174,1149.143247
287.257365,1110.308913,-8068.244768,1302.362347
287.257693,1036.288319,-8512.368333,1072.533697
287.258020,1332.370696,-9326.594869,1455.581446
287.258348,1258.350101,-9474.636058,919.314598
287.258675,518.144159,-9696.697840,842.705048
287.259003,148.041188,-10436.903782,229.828649
287.259330,0.000000,-10436.903782,0.000000
287.259658,0.000000,-10510.924376,153.219100
287.259986,-592.164754,-10584.944971,0.000000
287.260313,-666.185348,-10436.903782,0.000000
287.260641,-592.164754,-10140.821405,0.000000
287.260968,-666.185348,-9770.718434,-229.828649
287.261296,-962.267725,-9400.615463,0.000000
287.261623,-444.123565,-8734.430116,612.876398
287.261951,-814.226536,-8586.388927,383.047749
287.262278,-666.185348,-8364.327145,383.047749
287.262606,-592.164754,-7994.224174,842.705048
287.262933,-444.123565,-8068.244768,919.314598
287.263261,-296.082377,-7550.100608,1072.533697
287.263588,0.000000,-7476.080014,1302.362347
287.263916,592.164754,-7846.182985,1608.800546
287.264243,666.185348,-8216.285956,1685.410096
287.264571,370.102971,-8364.327145,1532.190996
287.264898,-518.144159,-8290.306550,1455.581446
287.265226,222.061783,-9326.594869,1149.143247
287.265553,0.000000,-9770.718434,1149.143247
287.265881,-592.164754,-9992.780217,612.876398
287.266208,-888.247130,-10140.821405,306.438199
287.266536,-666.185348,-10066.800811,459.657299
287.266863,-740.205942,-9992.780217,612.876398
287.267191,-888.247130,-9844.739029,0.000000
287.267518,-1036.288319,-9696.697840,153.219100
287.267846,-1332.370696,-9548.656652,306.438199
287.268173,-1554.432478,-9326.594869,76.609550
287.268501,-1332.370696,-8808.450710,0.000000
287.268828,-1332.370696,-8512.368333,153.219100
287.269156,-1036.288319,-8142.265362,459.657299
287.269483,-518.144159,-7846.182985,766.095498
287.269811,0.000000,-7624.121203,919.314598
287.270138,444.123565,-7179.997637,995.924147
287.270466,962.267725,-7624.121203,1455.581446
287.270793,814.226536,-7920.203579,1225.752797
287.271121,592.164754,-8216.285956,995.924147
287.271448,666.185348,-8956.491898,1455.581446
287.271776,296.082377,-9030.512492,1149.143247
287.272103,74.020594,-9844.739029,536.266849
287.272431,0.000000,-10140.821405,459.657299
287.272758,-444.123565,-10288.862594,153.219100
287.273086,-518.144159,-10658.965565,0.000000
287.273413,-740.205942,-10288.862594,76.609550
287.273741,-222.061783,-9992.780217,-536.266849
287.274068,-370.102971,-9992.780217,-229.828649
287.274396,-370.102971,-9400.615463,0.000000
287.274723,-444.123565,-9400.615463,0.000000
287.275051,-222.061783,-9104.533087,229.828649
287.275378,-222.061783,-8660.409521,536.266849
287.275706,-222.061783,-8438.347739,689.485948
287.276033,-296.082377,-8216.285956,842.705048
287.276361,-222.061783,-7994.224174,1225.752797
287.276688,148.041188,-8068.244768,1532.190996
287.277016,444.123565,-7920.203579,1532.190996
287.277343,518.144159,-7772.162391,1455.581446
287.277671,518.144159,-8216.285956,1532.190996
287.277998,444.123565,-8882.471304,1532.190996
287.278326,148.041188,-9030.512492,1225.752797
287.278653,0.000000,-9474.636058,1225.752797
287.278981,-666.185348,-9474.636058,766.095498
287.279308,-1258.350101,-10140.821405,306.438199
287.279636,-1184.329507,-10510.924376,76.609550
287.279963,-1258.350101,-10362.883188,76.609550
287.280291,-1184.329507,-10066.800811,229.828649
287.280618,-888.247130,-9696.697840,0.000000
287.280946,-1332.370696,-9844.739029,0.000000
287.281273,-1776.494261,-9474.636058,0.000000
287.281601,-1628.453072,-9030.512492,0.000000
287.281928,-1480.411884,-8660.409521,0.000000
287.282256,-1258.350101,-7994.224174,-229.828649
287.282583,-740.205942,-8142.265362,153.219100
287.282911,-296.082377,-7550.100608,229.828649
287.283238,296.082377,-7476.080014,536.266849
287.283566,962.267725,-7550.100608,842.705048
287.283893,1110.308913,-7772.162391,1225.752797
287.284221,1332.370696,-7994.224174,919.314598
287.284548,1332.370696,-8586.388927,1149.143247
287.284876,1480.411884,-9252.574275,842.705048
287.285203,1036.288319,-9622.677246,995.924147
287.285531,740.205942,-10066.800811,766.095498
287.285858,222.061783,-10066.800811,383.047749
287.286186,-370.102971,-10584.944971,76.609550
287.286513,-444.123565,-10584.944971,0.000000
287.286841,-518.144159,-10140.821405,-306.438199
287.287168,-666.185348,-9992.780217,-536.266849
287.287496,-740.205942,-9770.718434,-612.876398
287.287823,-666.185348,-9400.615463,-306.438199
287.288151,-740.205942,-9030.512492,-153.219100
287.288478,-814.226536,-8512.368333,-153.219100
287.288806,-814.226536,-8364.327145,76.609550
287.289133,-370.102971,-8364.327145,459.657299
287.289461,-592.164754,-7994.224174,383.047749
287.289788,-370.102971,-7550.100608,689.485948
287.290116,0.000000,-7920.203579,995.924147
287.290443,444.123565,-7698.141797,1149.143247
287.290771,740.205942,-7994.224174,1378.971896
287.291098,962.267725,-8438.347739,1225.752797
287.291426,814.226536,-9104.533087,1608.800546
287.291753,148.041188,-9252.574275,1455.581446
287.292081,0.000000,-9770.718434,1072.533697
287.292408,-148.041188,-9992.780217,1455.581446
287.292736,-814.226536,-9992.780217,919.314598
287.293063,-518.144159,-10436.903782,459.657299
287.293391,-888.247130,-10288.862594,612.876398
287.293718,-814.226536,-10288.862594,306.438199
287.294046,-962.267725,-10214.842000,229.828649
287.294373,-888.247130,-9474.636058,383.047749
287.294701,-1332.370696,-9400.615463,383.047749
287.295028,-1776.494261,-9252.574275,229.828649
287.295356,-1998.556043,-8660.409521,306.438199
287.295683,-1628.453072,-8438.347739,306.438199
287.296011,-888.247130,-7698.141797,459.657299
287.296338,-740.205942,-7550.100608,766.095498
287.296666,-296.082377,-7476.080014,919.314598
287.296993,370.102971,-7698.141797,995.924147
287.297321,370.102971,-7698.141797,1225.752797
287.297648,962.267725,-8586.388927,1455.581446
287.297976,592.164754,-8364.327145,612.876398
287.298303,592.164754,-9400.615463,1225.752797
287.298631,296.082377,-9992.780217,766.095498
287.298958,0.000000,-10362.883188,536.266849
287.299286,0.000000,-10510.924376,306.438199
287.299613,0.000000,-10510.924376,229.828649
287.299941,-370.102971,-10881.027347,153.219100
287.300268,-296.082377,-10436.903782,0.000000
287.300596,-222.061783,-10362.883188,-229.828649
287.300923,0.000000,-9696.697840,-383.047749
287.301251,0.000000,-9474.636058,229.828649
287.301578,0.000000,-9326.594869,0.000000
287.301906,0.000000,-8882.471304,383.047749
287.302233,-148.041188,-8660.409521,536.266849
287.302561,-296.082377,-8142.265362,919.314598
287.302888,148.041188,-7846.182985,919.314598
287.303216,296.082377,-7846.182985,1378.971896
287.303543,518.144159,-7994.224174,1455.581446
287.303871,592.164754,-7846.182985,1685.410096
287.304198,814.226536,-8216.285956,1532.190996
287.304526,814.226536,-8290.306550,1685.410096
287.304853,222.061783,-8512.368333,1225.752797
287.305181,-296.082377,-9252.574275,1149.143247
287.305508,-740.205942,-9548.656652,612.876398
287.305836,-1110.308913,-9992.780217,306.438199
287.306163,-1332.370696,-10066.800811,153.219100
287.306491,-1998.556043,-9844.739029,76.609550
287.306818,-1776.494261,-10140.821405,0.000000
287.307146,-1332.370696,-9844.739029,0.000000
287.307473,-1480.411884,-9844.739029,-383.047749
287.307801,-1406.391290,-9696.697840,-383.047749
287.308128,-1776.494261,-9252.574275,-766.095498
287.308456,-1332.370696,-8808.450710,0.000000
287.308783,-1480.411884,-8808.450710,0.000000
287.309111,-1258.350101,-8216.285956,0.000000
287.309438,-518.144159,-8068.244768,229.828649
287.309766,592.164754,-8290.306550,0.000000
287.310093,1036.288319,-7920.203579,536.266849
287.310421,888.247130,-7698.141797,919.314598
287.310748,1554.432478,-8216.285956,1072.533697
287.311076,1776.494261,-8512.368333,1149.143247
287.311403,1480.411884,-8882.471304,995.924147
287.311731,1776.494261,-9178.553681,919.314598
287.312058,962.267725,-9844.739029,842.705048
287.312386,222.061783,-9992.780217,536.266849
287.312713,296.082377,-11029.068536,153.219100
287.313041,0.000000,-10732.986159,0.000000
287.313368,0.000000,-10288.862594,0.000000
287.313696,-518.144159,-10732.986159,-229.828649
287.314023,-666.185348,-10140.821405,-459.657299
287.314351,-666.185348,-9622.677246,0.000000
287.314678,-962.267725,-9474.636058,-153.219100
287.315006,-444.123565,-9030.512492,0.000000
287.315333,-814.226536,-8660.409521,76.609550
287.315661,-1258.350101,-8142.265362,229.828649
287.315988,-592.164754,-8142.265362,459.657299
287.316316,-592.164754,-7846.182985,919.314598
287.316643,-296.082377,-7698.141797,919.314598
287.316971,0.000000,-7402.059420,1838.629195
287.317298,296.082377,-7994.224174,1378.971896
287.317626,222.061783,-8068.244768,1685.410096
287.317953,666.185348,-8882.471304,1532.190996
287.318281,148.041188,-9030.512492,1685.410096
287.318608,222.061783,-9474.636058,1149.143247
287.318936,-740.205942,-9992.780217,995.924147
287.319264,-740.205942,-10140.821405,766.095498
287.319591,-814.226536,-10362.883188,612.876398
287.319919,-962.267725,-10436.903782,229.828649
287.320246,-444.123565,-10436.903782,306.438199
287.320574,-518.144159,-9844.739029,689.485948
287.320901,-1332.370696,-9696.697840,459.657299
287.321229,-962.267725,-9622.677246,229.828649
287.321556,-1258.350101,-9474.636058,229.828649
287.321884,-1406.391290,-8216.285956,689.485948
287.322211,-1258.350101,-8586.388927,383.047749
287.322539,-962.267725,-8216.285956,766.095498
287.322866,-370.102971,-8068.244768,1072.533697
287.323194,148.041188,-7550.100608,1302.362347
287.323521,296.082377,-7476.080014,1532.190996
287.323849,592.164754,-7772.162391,1915.238745
287.324176,888.247130,-8068.244768,1455.581446
287.324504,666.185348,-8364.327145,1225.752797
287.324831,518.144159,-8956.491898,1149.143247
287.325159,518.144159,-9474.636058,1149.143247
287.325486,0.000000,-9474.636058,612.876398
287.325814,-444.123565,-10140.821405,306.438199
287.326141,-592.164754,-10436.903782,0.000000
287.326469,-666.185348,-10288.862594,153.219100
287.326796,-814.226536,-10436.903782,0.000000
287.327124,-296.082377,-9844.739029,-536.266849
287.327451,-370.102971,-9992.780217,-229.828649
287.327779,-444.123565,-9474.636058,-383.047749
287.328106,-518.144159,-9178.553681,306.438199
287.328434,-370.102971,-8660.409521,229.828649
287.328761,-296.082377,-8660.409521,459.657299
287.329089,-444.123565,-8290.306550,612.876398
287.329416,-296.082377,-7994.224174,689.485948
287.329744,0.000000,-7920.203579,1149.143247
287.330071,296.082377,-7920.203579,1302.362347
287.330399,888.247130,-7994.224174,1455.581446
287.330726,1332.370696,-7846.182985,1302.362347
287.331054,888.247130,-8142.265362,1378.971896
287.331381,518.144159,-8660.409521,1149.143247
287.331709,0.000000,-9252.574275,995.924147
287.332036,0.000000,-9474.636058,919.314598
287.332364,-518.144159,-9918.759623,995.924147
287.332691,-962.267725,-9992.780217,459.657299
287.333019,-1332.370696,-10362.883188,0.000000
287.333346,-1184.329507,-10436.903782,0.000000
287.333674,-1406.391290,-10066.800811,0.000000
287.334001,-1628.453072,-9918.759623,0.000000
287.334329,-1332.370696,-9770.718434,-306.438199
287.334656,-1554.432478,-9474.636058,-229.828649
287.334984,-1554.432478,-9178.553681,-229.828649
287.335311,-1480.411884,-8660.409521,-153.219100
287.335639,-962.267725,-8216.285956,-306.438199
287.335966,-888.247130,-7550.100608,229.828649
287.336294,0.000000,-7698.141797,229.828649
287.336621,444.123565,-7550.100608,612.876398
287.336949,962.267725,-7698.141797,919.314598
287.337276,1628.453072,-8364.327145,919.314598
287.337604,1850.514855,-7920.203579,995.924147
287.337931,1406.391290,-8660.409521,1149.143247
287.338259,1184.329507,-9252.574275,1302.362347
287.338586,962.267725,-9918.759623,1072.533697
287.338914,666.185348,-10066.800811,842.705048
287.339241,222.061783,-10510.924376,689.485948
287.339569,-148.041188,-10658.965565,229.828649
287.339896,-666.185348,-10658.965565,0.000000
287.340224,-592.164754,-10140.821405,-153.219100
287.340551,-814.226536,-10288.862594,-536.266849
287.340879,-666.185348,-9252.574275,-306.438199
287.341206,-888.247130,-9252.574275,-383.047749
287.341534,-740.205942,-8956.491898,-229.828649
287.341861,-740.205942,-8586.388927,153.219100
287.342189,-740.205942,-8586.388927,229.828649
287.342516,-666.185348,-8290.306550,229.828649
287.342844,-740.205942,-7772.162391,612.876398
287.343171,-370.102971,-7772.162391,689.485948
287.343499,74.020594,-7920.203579,1149.143247
287.343826,296.082377,-7846.182985,1302.362347
287.344154,814.226536,-8216.285956,1072.533697
287.344481,814.226536,-8290.306550,2145.067394
287.344809,370.102971,-8882.471304,1302.362347
287.345136,0.000000,-9252.574275,1149.143247
287.345464,0.000000,-9548.656652,1225.752797
287.345791,0.000000,-10140.821405,919.314598
287.346119,-962.267725,-10436.903782,766.095498
287.346446,-592.164754,-10584.944971,536.266849
287.346774,-814.226536,-10140.821405,383.047749
287.347101,-740.205942,-10140.821405,76.609550
287.347429,-1110.308913,-10066.800811,459.657299
287.347756,-1406.391290,-9326.594869,383.047749
287.348084,-1406.391290,-9548.656652,536.266849
287.348411,-1554.432478,-9030.512492,153.219100
287.348739,-1332.370696,-8808.450710,459.657299
287.349066,-1110.308913,-8216.285956,536.266849
287.349394,-444.123565,-7550.100608,919.314598
287.349721,-296.082377,-7254.018232,766.095498
287.350049,0.000000,-7402.059420,1149.143247
287.350376,814.226536,-7402.059420,1072.533697
287.350704,666.185348,-7624.121203,1225.752797
287.351031,814.226536,-8216.285956,1838.629195
287.351359,1036.288319,-8586.388927,1532.190996
287.351686,592.164754,-9252.574275,842.705048
287.352014,444.123565,-9844.739029,995.924147
287.352341,0.000000,-10214.842000,612.876398
287.352669,0.000000,-10658.965565,919.314598
287.352996,0.000000,-10732.986159,842.705048
287.353324,-370.102971,-10584.944971,76.609550
287.353651,-740.205942,-10214.842000,76.609550
287.353979,0.000000,-10066.800811,0.000000
287.354306,-222.061783,-9844.739029,0.000000
287.354634,0.000000,-9474.636058,0.000000
287.354961,-148.041188,-8882.471304,153.219100
287.355289,-296.082377,-8734.430116,459.657299
287.355616,-444.123565,-8438.347739,306.438199
287.355944,-444.123565,-8216.285956,689.485948
287.356271,-370.102971,-7920.203579,1072.533697
287.356599,222.061783,-8068.244768,1302.362347
287.356926,74.020594,-7920.203579,1302.362347
287.357254,296.082377,-7846.182985,1378.971896
287.357581,518.144159,-8068.244768,1532.190996
287.357909,666.185348,-7846.182985,1225.752797
287.358236,148.041188,-8808.450710,919.314598
287.358564,-444.123565,-9474.636058,995.924147
287.358891,-666.185348,-9548.656652,689.485948
287.359218,-962.267725,-10140.821405,306.438199
287.359546,-1406.391290,-10362.883188,306.438199
287.359873,-1258.350101,-9918.759623,612.876398
287.360201,-1332.370696,-10436.903782,383.047749
287.360528,-1184.329507,-10140.821405,76.609550
287.360856,-1332.370696,-9918.759623,0.000000
287.361183,-1184.329507,-9770.718434,0.000000
287.361510,-1184.329507,-9252.574275,306.438199
287.361838,-1406.391290,-8808.450710,0.000000
287.362165,-962.267725,-8734.430116,229.828649
287.362493,-740.205942,-8364.327145,306.438199
287.362820,0.000000,-7846.182985,459.657299
287.363148,444.123565,-7328.038826,612.876398
287.363475,1036.288319,-7476.080014,766.095498
287.363803,888.247130,-7624.121203,1072.533697
287.364130,962.267725,-7994.224174,995.924147
287.364457,1258.350101,-8290.306550,1072.533697
287.364785,1406.391290,-8512.368333,1072.533697
287.365112,888.247130,-9326.594869,612.876398
287.365440,518.144159,-9770.718434,1072.533697
287.365767,0.000000,-10214.842000,306.438199
287.366095,-296.082377,-10436.903782,0.000000
287.366422,-518.144159,-10436.903782,0.000000
287.366749,-444.123565,-10288.862594,-306.438199
287.367077,-1036.288319,-10066.800811,-229.828649
287.367404,-814.226536,-9918.759623,-536.266849
287.367732,-962.267725,-9474.636058,-306.438199
287.368059,-666.185348,-9178.553681,-383.047749
287.368387,-814.226536,-8586.388927,153.219100
287.368714,-740.205942,-7920.203579,306.438199
287.369041,-814.226536,-8068.244768,153.219100
287.369369,-592.164754,-8142.265362,229.828649
287.369696,-370.102971,-7772.162391,536.266849
287.370024,0.000000,-7772.162391,1149.143247
287.370351,518.144159,-7846.182985,1532.190996
287.370679,888.247130,-7994.224174,1532.190996
287.371006,814.226536,-8290.306550,1302.362347
287.371334,814.226536,-8660.409521,1455.581446
287.371661,814.226536,-8808.450710,1685.410096
287.371988,592.164754,-9548.656652,1608.800546
287.372316,-148.041188,-10066.800811,689.485948
287.372643,-444.123565,-10436.903782,612.876398
287.372971,-962.267725,-10214.842000,306.438199
287.373298,-888.247130,-10510.924376,153.219100
287.373626,-148.041188,-10140.821405,383.047749
287.373953,-814.226536,-10288.862594,229.828649
287.374280,-1258.350101,-9844.739029,76.609550
287.374608,-1480.411884,-9622.677246,0.000000
287.374935,-1850.514855,-9400.615463,0.000000
287.375263,-1628.453072,-9104.533087,-153.219100
287.375590,-962.267725,-8808.450710,0.000000
287.375918,-1184.329507,-8142.265362,153.219100
287.376245,-592.164754,-7846.182985,229.828649
287.376572,0.000000,-7846.182985,612.876398
287.376900,592.164754,-7328.038826,766.095498
287.377227,962.267725,-7624.121203,1608.800546
287.377555,1036.288319,-7994.224174,1149.143247
287.377882,1036.288319,-8660.409521,1149.143247
287.378210,888.247130,-9252.574275,919.314598
287.378537,666.185348,-9474.636058,1225.752797
287.378865,444.123565,-9622.677246,919.314598
287.379192,74.020594,-10584.944971,612.876398
287.379519,-222.061783,-10658.965565,383.047749
287.379847,0.000000,-10955.047942,76.609550
287.380174,-296.082377,-10658.965565,0.000000
287.380502,-222.061783,-9918.759623,536.266849
287.380829,-148.041188,-9992.780217,0.000000
287.381157,-518.144159,-9622.677246,0.000000
287.381484,-370.102971,-9474.636058,229.828649
287.381811,-666.185348,-8956.491898,229.828649
287.382139,-814.226536,-8882.471304,995.924147
287.382466,-444.123565,-8216.285956,76.609550
287.382794,-592.164754,-8142.265362,919.314598
287.383121,-296.082377,-7846.182985,919.314598
287.383449,222.061783,-7624.121203,1302.362347
287.383776,74.020594,-7550.100608,995.924147
287.384103,370.102971,-7254.018232,1532.190996
287.384431,518.144159,-8216.285956,1608.800546
287.384758,222.061783,-8586.388927,1455.581446
287.385086,148.041188,-9104.533087,1225.752797
287.385413,-148.041188,-9400.615463,1149.143247
287.385741,-370.102971,-10140.821405,766.095498
287.386068,-962.267725,-10288.862594,229.828649
287.386396,-962.267725,-10362.883188,383.047749
287.386723,-1406.391290,-10140.821405,306.438199
287.387050,-1036.288319,-10140.821405,153.219100
287.387378,-1554.432478,-10066.800811,-306.438199
287.387705,-1332.370696,-9918.759623,0.000000
287.388033,-1332.370696,-9400.615463,-229.828649
287.388360,-1258.350101,-9252.574275,0.000000
287.388688,-1184.329507,-9030.512492,229.828649
287.389015,-740.205942,-8734.430116,536.266849
287.389342,-222.061783,-7846.182985,0.000000
287.389670,-296.082377,-7772.162391,536.266849
287.389997,0.000000,-7698.141797,459.657299
287.390325,370.102971,-7846.182985,612.876398
287.390652,666.185348,-7698.141797,1149.143247
287.390980,1184.329507,-8364.327145,842.705048
287.391307,1036.288319,-8512.368333,689.485948
287.391634,1036.288319,-9400.615463,842.705048
287.391962,148.041188,-9696.697840,612.876398
287.392289,74.020594,-9992.780217,306.438199
287.392617,-148.041188,-10214.842000,0.000000
287.392944,-148.041188,-10807.006753,-229.828649
287.393272,-518.144159,-10807.006753,-229.828649
287.393599,-666.185348,-10510.924376,-229.828649
287.393927,-444.123565,-10214.842000,-306.438199
287.394254,0.000000,-9992.780217,-995.924147
287.394581,-592.164754,-9474.636058,-459.657299
287.394909,-592.164754,-9178.553681,-383.047749
287.395236,-740.205942,-9030.512492,0.000000
287.395564,-592.164754,-8808.450710,0.000000
287.395891,-592.164754,-8290.306550,229.828649
287.396219,0.000000,-7994.224174,766.095498
287.396546,222.061783,-7846.182985,536.266849
287.396873,666.185348,-7772.162391,1225.752797
287.397201,740.205942,-7846.182985,1455.581446
287.397528,1332.370696,-8512.368333,1991.848295
287.397856,1036.288319,-8512.368333,1685.410096
287.398183,518.144159,-8734.430116,995.924147
287.398511,0.000000,-9400.615463,1149.143247
287.398838,-444.123565,-10066.800811,612.876398
287.399165,-666.185348,-10288.862594,919.314598
287.399493,-962.267725,-9992.780217,612.876398
287.399820,-888.247130,-10362.883188,536.266849
287.400148,-962.267725,-10140.821405,383.047749
287.400475,-1036.288319,-10066.800811,153.219100
287.400803,-1184.329507,-9918.759623,76.609550
287.401130,-1332.370696,-9622.677246,383.047749
287.401458,-888.247130,-9622.677246,536.266849
287.401785,-1258.350101,-8956.491898,612.876398
287.402112,-1628.453072,-8660.409521,306.438199
287.402440,-1258.350101,-8290.306550,689.485948
287.402767,-740.205942,-7846.182985,1225.752797
287.403095,-222.061783,-7550.100608,1378.971896
287.403422,0.000000,-7328.038826,1072.533697
287.403750,370.102971,-7698.141797,1302.362347
287.404077,592.164754,-7846.182985,1302.362347
287.404404,740.205942,-8290.306550,1762.019645
287.404732,592.164754,-8586.388927,1532.190996
287.405059,296.082377,-9474.636058,995.924147
287.405387,0.000000,-9696.697840,766.095498
287.405714,-370.102971,-10140.821405,612.876398
287.406042,-444.123565,-10510.924376,383.047749
287.406369,0.000000,-10658.965565,766.095498
287.406696,-148.041188,-10436.903782,76.609550
287.407024,-592.164754,-10140.821405,0.000000
287.407351,-370.102971,-9918.759623,0.000000
287.407679,-296.082377,-9696.697840,0.000000
287.408006,-444.123565,-9326.594869,459.657299
287.408334,-592.164754,-9178.553681,229.828649
287.408661,-666.185348,-8956.491898,306.438199
287.408989,-518.144159,-8734.430116,689.485948
287.409316,-370.102971,-8142.265362,612.876398
287.409643,148.041188,-8142.265362,995.924147
287.409971,592.164754,-7846.182985,612.876398
287.410298,592.164754,-7772.162391,1302.362347
287.410626,592.164754,-7846.182985,1455.581446
287.410953,592.164754,-8142.265362,1225.752797
287.411281,370.102971,-8586.388927,1225.752797
287.411608,370.102971,-9030.512492,919.314598
287.411935,-370.102971,-9474.636058,919.314598
287.412263,-666.185348,-9622.677246,459.657299
287.412590,-740.205942,-9992.780217,612.876398
287.412918,-1036.288319,-10288.862594,0.000000
287.413245,-1110.308913,-10288.862594,612.876398
287.413573,-814.226536,-10288.862594,0.000000
287.413900,-962.267725,-9918.759623,0.000000
287.414227,-1258.350101,-9622.677246,76.609550
287.414555,-1258.350101,-9474.636058,0.000000
287.414882,-740.205942,-9326.594869,153.219100
287.415210,-740.205942,-9104.533087,0.000000
287.415537,-888.247130,-8586.388927,306.438199
287.415865,-666.185348,-8290.306550,229.828649
287.416192,-296.082377,-8068.244768,536.266849
287.416520,-296.082377,-7920.203579,689.485948
287.416847,74.020594,-7476.080014,1149.143247
287.417174,666.185348,-7846.182985,1225.752797
287.417502,814.226536,-7920.203579,1378.971896
287.417829,888.247130,-8512.368333,995.924147
287.418157,740.205942,-9030.512492,995.924147
287.418484,518.144159,-8956.491898,919.314598
287.418812,0.000000,-10066.800811,612.876398
287.419139,-370.102971,-10214.842000,229.828649
287.419466,-666.185348,-10362.883188,0.000000
287.419794,-814.226536,-10362.883188,0.000000
287.420121,-296.082377,-10584.944971,0.000000
287.420449,-888.247130,-9844.739029,-459.657299
287.420776,-814.226536,-9696.697840,-612.876398
287.421104,-740.205942,-9474.636058,-536.266849
287.421431,-666.185348,-9178.553681,-306.438199
287.421758,-666.185348,-8586.388927,-153.219100
287.422086,-518.144159,-8660.409521,153.219100
287.422413,-444.123565,-8290.306550,153.219100
287.422741,0.000000,-8068.244768,306.438199
287.423068,0.000000,-7846.182985,459.657299
287.423396,518.144159,-7846.182985,919.314598
287.423723,1184.329507,-7698.141797,1149.143247
287.424051,962.267725,-8142.265362,1225.752797
287.424378,1110.308913,-8438.347739,1302.362347
287.424705,814.226536,-9030.512492,1302.362347
287.425033,296.082377,-9696.697840,1072.533697
287.425360,222.061783,-9474.636058,1608.800546
287.425688,-296.082377,-9992.780217,689.485948
287.426015,-444.123565,-10362.883188,459.657299
287.426343,-962.267725,-10362.883188,306.438199
287.426670,-666.185348,-10140.821405,0.000000
287.426997,-1036.288319,-10214.842000,383.047749
287.427325,-1110.308913,-9696.697840,0.000000
287.427652,-1036.288319,-9770.718434,0.000000
287.427980,-1480.411884,-9252.574275,76.609550
287.428307,-1332.370696,-9030.512492,153.219100
287.428635,-1332.370696,-8882.471304,0.000000
287.428962,-1406.391290,-7846.182985,459.657299
287.429289,-1110.308913,-8142.265362,459.657299
287.429617,-740.205942,-7920.203579,919.314598
287.429944,0.000000,-7624.121203,919.314598
287.430272,148.041188,-7254.018232,1608.800546
287.430599,592.164754,-7772.162391,1378.971896
287.430927,740.205942,-8216.285956,1225.752797
287.431254,666.185348,-8808.450710,1149.143247
287.431582,518.144159,-9178.553681,1225.752797
287.431909,296.082377,-9474.636058,919.314598
287.432236,-370.102971,-9918.759623,766.095498
287.432564,0.000000,-10288.862594,306.438199
287.432891,-518.144159,-10510.924376,459.657299
287.433219,-370.102971,-10362.883188,459.657299
287.433546,-148.041188,-10362.883188,0.000000
287.433874,0.000000,-9622.677246,0.000000
287.434201,0.000000,-9770.718434,153.219100
287.434528,-518.144159,-9326.594869,76.609550
287.434856,-518.144159,-9252.574275,306.438199
287.435183,-666.185348,-8882.471304,306.438199
287.435511,-222.061783,-8512.368333,842.705048
287.435838,-148.041188,-8216.285956,919.314598
287.436166,-148.041188,-8068.244768,995.924147
287.436493,0.000000,-7846.182985,1225.752797
287.436820,148.041188,-7994.224174,1608.800546
287.437148,444.123565,-7772.162391,1608.800546
287.437475,222.061783,-7698.141797,1532.190996
287.437803,296.082377,-8364.327145,1532.190996
287.438130,0.000000,-8734.430116,1532.190996
287.438458,-444.123565,-8956.491898,1072.533697
287.438785,-518.144159,-9622.677246,689.485948
287.439112,-1184.329507,-9400.615463,459.657299
287.439440,-962.267725,-10066.800811,459.657299
287.439767,-1258.350101,-10214.842000,229.828649
287.440095,-1332.370696,-10140.821405,0.000000
287.440422,-1184.329507,-9844.739029,306.438199
287.440750,-1110.308913,-9474.636058,1072.533697
287.441077,-1184.329507,-9548.656652,-153.219100
287.441405,-1184.329507,-9252.574275,76.609550
287.441732,-888.247130,-9178.553681,536.266849
287.442059,-888.247130,-8882.471304,536.266849
287.442387,-444.123565,-8216.285956,689.485948
287.442714,0.000000,-8438.347739,1072.533697
287.443042,0.000000,-8068.244768,536.266849
287.443369,222.061783,-7994.224174,842.705048
287.443697,814.226536,-7920.203579,1225.752797
287.444024,1110.308913,-8216.285956,1149.143247
287.444351,1184.329507,-8142.265362,919.314598
287.444679,888.247130,-8882.471304,766.095498
287.445006,370.102971,-9030.512492,689.485948
287.445334,222.061783,-9844.739029,536.266849
287.445661,-222.061783,-10066.800811,229.828649
287.445989,-222.061783,-10732.986159,76.609550
287.446316,-814.226536,-10584.944971,0.000000
287.446643,-888.247130,-10362.883188,-383.047749
287.446971,-888.247130,-10066.800811,-536.266849
287.447298,-814.226536,-9696.697840,-536.266849
287.447626,-666.185348,-9474.636058,-689.485948
287.447953,-370.102971,-9252.574275,-536.266849
287.448281,-666.185348,-8882.471304,-459.657299
287.448608,-666.185348,-8586.388927,0.000000
287.448936,-666.185348,-7994.224174,0.000000
287.449263,-370.102971,-7920.203579,383.047749
287.449590,0.000000,-7624.121203,766.095498
287.449918,518.144159,-7772.162391,689.485948
287.450245,888.247130,-7698.141797,1072.533697
287.450573,1184.329507,-7920.203579,1149.143247
287.450900,1332.370696,-8216.285956,1378.971896
287.451228,1036.288319,-8290.306550,1762.019645
287.451555,740.205942,-8956.491898,1455.581446
287.451882,370.102971,-9696.697840,919.314598
287.452210,-222.061783,-9770.718434,689.485948
287.452537,-296.082377,-10288.862594,536.266849
287.452865,-222.061783,-9844.739029,612.876398
287.453192,-814.226536,-10436.903782,306.438199
287.453520,-962.267725,-9992.780217,229.828649
287.453847,-1110.308913,-9844.739029,76.609550
287.454174,-1332.370696,-9622.677246,153.219100
287.454502,-1702.473667,-9104.533087,383.047749
287.454829,-1258.350101,-9104.533087,536.266849
287.455157,-1406.391290,-8808.450710,153.219100
287.455484,-1554.432478,-8216.285956,0.000000
287.455812,-962.267725,-8364.327145,383.047749
287.456139,-1036.288319,-7698.141797,0.000000
287.456467,-518.144159,-7254.018232,1378.971896
287.456794,74.020594,-7550.100608,1378.971896
287.457121,444.123565,-7772.162391,1608.800546
287.457449,518.144159,-7920.203579,1378.971896
287.457776,592.164754,-8660.409521,1302.362347
287.458104,592.164754,-8660.409521,1838.629195
287.458431,296.082377,-9400.615463,1072.533697
287.458759,0.000000,-9992.780217,995.924147
287.459083,-296.082377,-10362.883188,536.266849
287.459410,-518.144159,-10510.924376,459.657299
287.459738,-518.144159,-10436.903782,0.000000
287.460065,-370.102971,-10288.862594,229.828649
287.460392,0.000000,-10140.821405,229.828649
287.460720,-370.102971,-9992.780217,0.000000
287.461047,-296.082377,-9844.739029,153.219100
287.461375,-444.123565,-9030.512492,536.266849
287.461702,-444.123565,-9326.594869,229.828649
287.462030,-666.185348,-9030.512492,383.047749
287.462357,-666.185348,-8808.450710,612.876398
287.462685,-444.123565,-8216.285956,919.314598
287.463012,0.000000,-8068.244768,229.828649
287.463339,-296.082377,-7624.121203,1378.971896
287.463667,666.185348,-7846.182985,1302.362347
287.463994,814.226536,-7994.224174,1455.581446
287.464322,518.144159,-8438.347739,1225.752797
287.464649,518.144159,-8956.491898,1302.362347
287.464977,740.205942,-9252.574275,1149.143247
287.465304,-222.061783,-9474.636058,842.705048
287.465631,-666.185348,-10140.821405,536.266849
287.465959,-740.205942,-10436.903782,536.266849
287.466286,-962.267725,-10362.883188,383.047749
287.466614,-592.164754,-10140.821405,383.047749
287.466941,-888.247130,-9918.759623,0.000000
287.467269,-1332.370696,-10140.821405,76.609550
287.467596,-1036.288319,-10066.800811,0.000000
287.467923,-962.267725,-9474.636058,0.000000
287.468251,-1036.288319,-8512.368333,153.219100
287.468578,-1036.288319,-8586.388927,153.219100
287.468906,-962.267725,-8512.368333,383.047749
287.469233,-592.164754,-8364.327145,612.876398
287.469561,0.000000,-8068.244768,612.876398
287.469888,148.041188,-7920.203579,1072.533697
287.470215,1036.288319,-7920.203579,689.485948
287.470543,1184.329507,-8142.265362,1149.143247
287.470870,1036.288319,-8216.285956,1149.143247
287.471198,1184.329507,-8734.430116,1072.533697
287.471525,962.267725,-9178.553681,1072.533697
287.471853,518.144159,-9548.656652,995.924147
287.472180,0.000000,-9622.677246,536.266849
287.472508,-370.102971,-10214.842000,229.828649
287.472835,-666.185348,-10288.862594,0.000000
287.473162,-888.247130,-10288.862594,-306.438199
287.473490,-962.267725,-9622.677246,-383.047749
287.473817,-1036.288319,-9696.697840,76.609550
287.474145,-814.226536,-9474.636058,-612.876398
287.474472,-814.226536,-9400.615463,-306.438199
287.474800,-740.205942,-8956.491898,-383.047749
287.475127,-814.226536,-8808.450710,383.047749
287.475454,-1110.308913,-8364.327145,-459.657299
287.475782,-666.185348,-8216.285956,76.609550
287.476109,-370.102971,-7920.203579,306.438199
287.476437,0.000000,-7698.141797,689.485948
287.476764,0.000000,-7772.162391,1685.410096
287.477092,888.247130,-7254.018232,1378.971896
287.477419,1036.288319,-7846.182985,1455.581446
287.477746,1036.288319,-8438.347739,1455.581446
287.478074,666.185348,-8882.471304,1455.581446
287.478401,370.102971,-9400.615463,919.314598
287.478729,222.061783,-9400.615463,1532.190996
287.479056,-222.061783,-10140.821405,459.657299
287.479384,-592.164754,-10436.903782,459.657299
287.479711,-740.205942,-10288.862594,153.219100
287.480039,-814.226536,-10214.842000,0.000000
287.480366,-1110.308913,-9918.759623,0.000000
287.480693,-1036.288319,-9770.718434,76.609550
287.481021,-1184.329507,-9622.677246,76.609550
287.481348,-1480.411884,-9326.594869,76.609550
287.481676,-1332.370696,-8882.471304,0.000000
287.482003,-1184.329507,-8364.327145,153.219100
287.482331,-1332.370696,-8364.327145,306.438199
287.482658,-740.205942,-8142.265362,383.047749
287.482985,-370.102971,-7920.203579,842.705048
287.483313,148.041188,-7698.141797,1072.533697
287.483640,370.102971,-7994.224174,1302.362347
287.483968,962.267725,-8216.285956,1532.190996
287.484295,814.226536,-8438.347739,1455.581446
287.484623,814.226536,-8956.491898,1225.752797
287.484950,666.185348,-9474.636058,1072.533697
287.485277,370.102971,-9992.780217,1149.143247
287.485605,0.000000,-10732.986159,612.876398
287.485932,-296.082377,-10214.842000,383.047749
287.486260,-518.144159,-10362.883188,229.828649
287.486587,-666.185348,-10584.944971,229.828649
287.486915,-444.123565,-10510.924376,0.000000
287.487242,0.000000,-10140.821405,383.047749
287.487569,-592.164754,-9622.677246,-153.219100
287.487897,-814.226536,-9474.636058,76.609550
287.488224,-888.247130,-9178.553681,306.438199
287.488552,-1110.308913,-8882.471304,536.266849
287.488879,-592.164754,-8512.368333,1072.533697
287.489207,-814.226536,-8364.327145,919.314598
287.489534,-444.123565,-7920.203579,1225.752797
287.489862,0.000000,-7920.203579,1302.362347
287.490189,148.041188,-7920.203579,1608.800546
287.490516,518.144159,-7846.182985,1991.848295
287.490844,814.226536,-7846.182985,1762.019645
287.491171,370.102971,-8660.409521,1532.190996
287.491499,74.020594,-9104.533087,1455.581446
287.491826,-222.061783,-9474.636058,1072.533697
287.492154,-296.082377,-9696.697840,1149.143247
287.492481,-370.102971,-9918.759623,306.438199
287.492808,-1036.288319,-10288.862594,383.047749
287.493136,-888.247130,-10362.883188,383.047749
287.493463,-1110.308913,-10214.842000,229.828649
287.493791,-740.205942,-9992.780217,306.438199
287.494118,-1036.288319,-9622.677246,612.876398
287.494446,-666.185348,-9548.656652,383.047749
287.494773,-1184.329507,-9326.594869,459.657299
287.495100,-888.247130,-8808.450710,76.609550
287.495428,-1110.308913,-8290.306550,459.657299
287.495755,-518.144159,-8216.285956,536.266849
287.496083,-666.185348,-8216.285956,919.314598
287.496410,-370.102971,-7772.162391,995.924147
287.496738,74.020594,-7698.141797,842.705048
287.497065,370.102971,-7624.121203,842.705048
287.497393,740.205942,-7994.224174,1225.752797
287.497720,74.020594,-8438.347739,1532.190996
287.498047,1036.288319,-8808.450710,919.314598
287.498375,518.144159,-9104.533087,842.705048
287.498702,222.061783,-9622.677246,459.657299
287.499030,-296.082377,-10066.800811,306.438199
287.499357,-740.205942,-10140.821405,306.438199
287.499685,-814.226536,-10584.944971,-383.047749
287.500012,-962.267725,-10288.862594,-383.047749
287.500339,-666.185348,-10288.862594,-459.657299
287.500667,-592.164754,-9770.718434,-459.657299
287.500994,-740.205942,-9400.615463,0.000000
287.501322,-444.123565,-8882.471304,-536.266849
287.501649,-666.185348,-8956.491898,-459.657299
287.501977,-592.164754,-8586.388927,0.000000
287.502304,-296.082377,-8364.327145,0.000000
287.502631,0.000000,-8216.285956,612.876398
287.502959,296.082377,-7846.182985,153.219100
287.503286,666.185348,-7698.141797,766.095498
287.503614,1332.370696,-7994.224174,919.314598
287.503941,1258.350101,-7994.224174,1072.533697
287.504269,1332.370696,-8660.409521,1225.752797
287.504596,1258.350101,-9104.533087,1455.581446
287.504923,814.226536,-9252.574275,1225.752797
287.505251,148.041188,-9622.677246,919.314598
287.505578,-222.061783,-10066.800811,766.095498
287.505906,-518.144159,-10510.924376,612.876398
287.506233,-1036.288319,-10214.842000,459.657299
287.506561,-888.247130,-10362.883188,0.000000
287.506888,-814.226536,-10140.821405,0.000000
287.507216,-1184.329507,-9844.739029,0.000000
287.507543,-1406.391290,-9622.677246,-153.219100
287.507870,-1480.411884,-9252.574275,229.828649
287.508198,-1332.370696,-8956.491898,-383.047749
287.508525,-1554.432478,-8734.430116,229.828649
287.508853,-1480.411884,-8290.306550,306.438199
287.509180,-1184.329507,-8068.244768,383.047749
287.509508,-592.164754,-7402.059420,766.095498
287.509835,0.000000,-7550.100608,1378.971896
287.510162,148.041188,-7624.121203,1149.143247
287.510490,518.144159,-7920.203579,1532.190996
287.510817,518.144159,-8290.306550,1455.581446
287.511145,666.185348,-8660.409521,1608.800546
287.511472,592.164754,-9474.636058,1225.752797
287.511800,370.102971,-9474.636058,1149.143247
287.512127,148.041188,-9918.759623,1149.143247
287.512454,-296.082377,-10510.924376,459.657299
287.512782,-592.164754,-10658.965565,229.828649
287.513109,-444.123565,-10807.006753,459.657299
287.513437,-222.061783,-10288.862594,0.000000
287.513764,-592.164754,-10288.862594,0.000000
287.514092,-444.123565,-9992.780217,153.219100
287.514419,-518.144159,-9622.677246,229.828649
287.514746,-1110.308913,-8956.491898,536.266849
287.515074,-444.123565,-8956.491898,536.266849
287.515401,-740.205942,-8586.388927,536.266849
287.515729,-666.185348,-8364.327145,766.095498
287.516056,-370.102971,-8068.244768,766.095498
287.516384,148.041188,-8068.244768,612.876398
287.516711,518.144159,-7402.059420,1608.800546
287.517039,814.226536,-7624.121203,1455.581446
287.517366,888.247130,-7846.182985,1455.581446
287.517693,888.247130,-8216.285956,1608.800546
287.518021,518.144159,-8808.450710,1302.362347
287.518348,74.020594,-9548.656652,919.314598
287.518676,-148.041188,-9474.636058,919.314598
287.519003,-296.082377,-9844.739029,689.485948
287.519331,-814.226536,-10214.842000,536.266849
287.519658,-888.247130,-10288.862594,383.047749
287.519985,-740.205942,-10584.944971,383.047749
287.520313,-740.205942,-10214.842000,-153.219100
287.520640,-1036.288319,-10066.800811,306.438199
287.520968,-1110.308913,-9696.697840,0.000000
287.521295,-1406.391290,-9474.636058,229.828649
287.521623,-1480.411884,-9178.553681,383.047749
287.521950,-1110.308913,-8660.409521,689.485948
287.522277,-1110.308913,-8364.327145,153.219100
287.522605,-814.226536,-7994.224174,536.266849
287.522932,-518.144159,-7772.162391,536.266849
287.523260,0.000000,-7846.182985,842.705048
287.523587,518.144159,-7476.080014,766.095498
287.523915,666.185348,-8142.265362,919.314598
287.524242,962.267725,-8216.285956,1225.752797
287.524570,814.226536,-8586.388927,995.924147
287.524897,740.205942,-9400.615463,995.924147
287.525224,370.102971,-9252.574275,1378.971896
287.525552,74.020594,-10066.800811,153.219100
287.525879,-518.144159,-10510.924376,229.828649
287.526207,-740.205942,-10584.944971,0.000000
287.526534,-888.247130,-10732.986159,-383.047749
287.526862,-888.247130,-9844.739029,-383.047749
287.527189,-370.102971,-10288.862594,-383.047749
287.527516,-814.226536,-9696.697840,-536.266849
287.527844,-518.144159,-9474.636058,-383.047749
287.528171,-444.123565,-9326.594869,-383.047749
287.528499,-592.164754,-8512.368333,-459.657299
287.528826,-740.205942,-8364.327145,0.000000
287.529154,-518.144159,-8216.285956,536.266849
287.529481,74.020594,-8142.265362,612.876398
287.529808,370.102971,-7624.121203,919.314598
287.530136,814.226536,-7772.162391,1455.581446
287.530463,1406.391290,-7920.203579,1685.410096
287.530791,1184.329507,-8216.285956,1378.971896
287.531118,740.205942,-7994.224174,1532.190996
287.531446,444.123565,-9030.512492,1378.971896
287.531773,0.000000,-9474.636058,1072.533697
287.532100,0.000000,-9326.594869,766.095498
287.532428,-666.185348,-9696.697840,689.485948
287.532755,-666.185348,-10362.883188,306.438199
287.533083,-962.267725,-9918.759623,229.828649
287.533410,-1332.370696,-10066.800811,0.000000
287.533738,-1184.329507,-9992.780217,76.609550
287.534065,-1258.350101,-9400.615463,-383.047749
287.534393,-1258.350101,-9770.718434,0.000000
287.534720,-1776.494261,-9400.615463,-229.828649
287.535047,-1702.473667,-8956.491898,0.000000
287.535375,-1702.473667,-8216.285956,229.828649
287.535702,-1036.288319,-7920.203579,229.828649
287.536030,-592.164754,-8068.244768,459.657299
287.536357,-222.061783,-7772.162391,459.657299
287.536685,370.102971,-7772.162391,1072.533697
287.537012,666.185348,-7846.182985,1149.143247
287.537339,1184.329507,-7920.203579,995.924147
287.537667,814.226536,-7920.203579,1302.362347
287.537994,888.247130,-8808.450710,1149.143247
287.538322,666.185348,-9474.636058,1302.362347
287.538649,444.123565,-10066.800811,995.924147
287.538977,148.041188,-10066.800811,153.219100
287.539304,-444.123565,-10584.944971,153.219100
287.539631,-370.102971,-10881.027347,536.266849
287.539959,-444.123565,-10362.883188,-383.047749
287.540286,-444.123565,-10584.944971,229.828649
287.540614,-296.082377,-10288.862594,0.000000
287.540941,-666.185348,-9400.615463,-306.438199
287.541269,-888.247130,-9400.615463,0.000000
287.541596,-814.226536,-9326.594869,229.828649
287.541924,-666.185348,-8734.430116,383.047749
287.542251,-888.247130,-8364.327145,229.828649
287.542578,-444.123565,-8068.244768,1225.752797
287.542906,-296.082377,-7994.224174,689.485948
287.543233,296.082377,-7994.224174,1302.362347
287.543561,444.123565,-7624.121203,1378.971896
287.543888,740.205942,-8142.265362,1608.800546
287.544216,740.205942,-7698.141797,2145.067394
287.544543,814.226536,-8808.450710,1762.019645
287.544870,0.000000,-9252.574275,1455.581446
287.545198,74.020594,-9696.697840,1378.971896
287.545525,0.000000,-9770.718434,1302.362347
287.545853,0.000000,-9622.677246,1072.533697
287.546180,-518.144159,-9918.759623,766.095498
287.546508,-666.185348,-10140.821405,536.266849
287.546835,-814.226536,-10214.842000,536.266849
287.547162,-666.185348,-9992.780217,459.657299
287.547490,-1406.391290,-9844.739029,536.266849
287.547817,-1258.350101,-9622.677246,306.438199
287.548145,-1332.370696,-9178.553681,229.828649
287.548472,-1480.411884,-9252.574275,459.657299
287.548800,-1258.350101,-8882.471304,689.485948
287.549127,-962.267725,-8142.265362,1149.143247
287.549454,-444.123565,-8142.265362,1072.533697
287.549782,0.000000,-7772.162391,766.095498
287.550109,0.000000,-7624.121203,919.314598
287.550437,296.082377,-7920.203579,612.876398
287.550764,592.164754,-7624.121203,995.924147
287.551092,740.205942,-7846.182985,1762.019645
287.551419,740.205942,-8808.450710,1149.143247
287.551747,296.082377,-9030.512492,919.314598
287.552074,0.000000,-9770.718434,919.314598
287.552401,0.000000,-10214.842000,229.828649
287.552729,-444.123565,-10140.821405,306.438199
287.553056,-296.082377,-10214.842000,0.000000
287.553384,-888.247130,-10584.944971,0.000000
287.553711,-444.123565,-10140.821405,-306.438199
287.554039,-370.102971,-9844.739029,-383.047749
287.554366,-370.102971,-9474.636058,-76.609550
287.554693,-296.082377,-9104.533087,0.000000
287.555021,-518.144159,-9030.512492,-229.828649
287.555348,-444.123565,-8586.388927,0.000000
287.555676,-296.082377,-8290.306550,0.000000
287.556003,0.000000,-8142.265362,383.047749
287.556331,74.020594,-7698.141797,0.000000
287.556658,592.164754,-8068.244768,919.314598
287.556985,814.226536,-7846.182985,1072.533697
287.557313,1184.329507,-8216.285956,1225.752797
287.557640,962.267725,-8364.327145,1302.362347
287.557968,1036.288319,-8956.491898,1608.800546
287.558295,0.000000,-8956.491898,995.924147
287.558623,-222.061783,-9622.677246,689.485948
287.558950,-592.164754,-9622.677246,536.266849
287.559278,-666.185348,-9918.759623,153.219100
287.559605,-740.205942,-10584.944971,383.047749
287.559932,-962.267725,-9844.739029,0.000000
287.560260,-1036.288319,-10140.821405,0.000000
287.560587,-1258.350101,-9770.718434,0.000000
287.560915,-1036.288319,-9770.718434,0.000000
287.561242,-1554.432478,-9326.594869,-306.438199
287.561570,-1480.411884,-9104.533087,0.000000
287.561897,-1258.350101,-8882.471304,0.000000
287.562224,-962.267725,-8586.388927,0.000000
287.562552,-888.247130,-8364.327145,536.266849
287.562879,-444.123565,-8068.244768,459.657299
287.563207,296.082377,-7846.182985,612.876398
287.563534,518.144159,-7698.141797,842.705048
287.563862,518.144159,-7846.182985,995.924147
287.564189,1036.288319,-8142.265362,1149.143247
287.564516,888.247130,-8586.388927,1072.533697
287.564844,1110.308913,-8882.471304,995.924147
287.565171,222.061783,-9252.574275,842.705048
287.565499,74.020594,-9918.759623,842.705048
287.565826,0.000000,-10362.883188,612.876398
287.566154,-666.185348,-10584.944971,229.828649
287.566481,-370.102971,-10510.924376,-306.438199
287.566808,-222.061783,-10140.821405,306.438199
287.567136,-444.123565,-10214.842000,76.609550
287.567463,-444.123565,-9844.739029,0.000000
287.567791,-518.144159,-9622.677246,0.000000
287.568118,-222.061783,-9326.594869,0.000000
287.568446,-518.144159,-8660.409521,306.438199
287.568773,-740.205942,-8512.368333,612.876398
287.569100,-518.144159,-8438.347739,766.095498
287.569428,-370.102971,-7846.182985,995.924147
287.569755,0.000000,-7772.162391,1072.533697
287.570083,148.041188,-7402.059420,1302.362347
287.570410,444.123565,-7920.203579,1685.410096
287.570738,592.164754,-7994.224174,1838.629195
287.571065,518.144159,-8364.327145,1608.800546
287.571392,296.082377,-8808.450710,1685.410096
287.571720,-296.082377,-9548.656652,1532.190996
287.572047,0.000000,-9918.759623,1302.362347
287.572375,-518.144159,-9992.780217,842.705048
287.572702,-518.144159,-10066.800811,766.095498
287.573030,-740.205942,-10288.862594,689.485948
287.573357,-1036.288319,-9918.759623,919.314598
287.573685,-666.185348,-9696.697840,229.828649
287.574012,-1184.329507,-9696.697840,306.438199
287.574339,-1036.288319,-9548.656652,459.657299
287.574667,-1258.350101,-9474.636058,459.657299
287.574994,-1406.391290,-9178.553681,995.924147
287.575322,-1406.391290,-8364.327145,383.047749
287.575649,-1036.288319,-8438.347739,689.485948
287.575977,-888.247130,-8438.347739,766.095498
287.576304,-518.144159,-7994.224174,842.705048
287.576631,-148.041188,-7846.182985,689.485948
287.576959,296.082377,-7550.100608,1455.581446
287.577286,444.123565,-7920.203579,1149.143247
287.577614,592.164754,-8142.265362,1149.143247
287.577941,888.247130,-8808.450710,919.314598
287.578269,518.144159,-8808.450710,842.705048
287.578596,74.020594,-9474.636058,842.705048
287.578923,-148.041188,-9770.718434,306.438199
287.579251,-296.082377,-10436.903782,76.609550
287.579578,-592.164754,-10362.883188,0.000000
287.579906,-592.164754,-10436.903782,-306.438199
287.580233,-518.144159,-10066.800811,0.000000
287.580561,-148.041188,-9992.780217,-229.828649
287.580888,-296.082377,-9992.780217,-459.657299
287.581215,-444.123565,-9400.615463,-306.438199
287.581543,-518.144159,-9104.533087,0.000000
287.581870,-444.123565,-8586.388927,0.000000
287.582198,-296.082377,-8586.388927,0.000000
287.582525,-296.082377,-8438.347739,153.219100
287.582853,0.000000,-8142.265362,536.266849
287.583180,222.061783,-7920.203579,459.657299
287.583507,666.185348,-7994.224174,919.314598
287.583835,1184.329507,-7550.100608,1225.752797
287.584162,1184.329507,-7994.224174,995.924147
287.584490,814.226536,-8216.285956,1225.752797
287.584817,296.082377,-9030.512492,995.924147
287.585145,0.000000,-9400.615463,766.095498
287.585472,-222.061783,-9844.739029,689.485948
287.585799,-518.144159,-9770.718434,153.219100
287.586127,-888.247130,-10140.821405,153.219100
287.586454,-888.247130,-10362.883188,0.000000
287.586782,-1110.308913,-9992.780217,76.609550
287.587109,-888.247130,-9918.759623,0.000000
287.587437,-1110.308913,-9622.677246,306.438199
287.587764,-1332.370696,-9622.677246,0.000000
287.588092,-1332.370696,-9400.615463,0.000000
287.588419,-1332.370696,-8882.471304,-229.828649
287.588746,-1258.350101,-8586.388927,383.047749
287.589074,-1110.308913,-7772.162391,306.438199
287.589401,-666.185348,-8142.265362,689.485948
287.589729,-222.061783,-7920.203579,1072.533697
287.590056,74.020594,-7772.162391,842.705048
287.590384,740.205942,-7846.182985,1225.752797
287.590711,1036.288319,-7994.224174,1149.143247
287.591038,888.247130,-8512.368333,1149.143247
287.591366,814.226536,-9030.512492,1302.362347
287.591693,592.164754,-9474.636058,1149.143247
287.592021,296.082377,-9992.780217,842.705048
287.592348,0.000000,-10140.821405,383.047749
287.592676,-740.205942,-9992.780217,612.876398
287.593003,-814.226536,-10584.944971,76.609550
287.593330,-740.205942,-10288.862594,0.000000
287.593658,-962.267725,-10066.800811,0.000000
287.593985,-740.205942,-9548.656652,153.219100
287.594313,-444.123565,-9400.615463,0.000000
287.594640,-666.185348,-9326.594869,0.000000
287.594968,-518.144159,-9326.594869,0.000000
287.595295,-1036.288319,-8882.471304,459.657299
287.595622,-740.205942,-8512.368333,766.095498
287.595950,-740.205942,-7994.224174,536.266849
287.596277,0.000000,-8290.306550,842.705048
287.596605,222.061783,-8290.306550,1225.752797
287.596932,592.164754,-7772.162391,1455.581446
287.597260,740.205942,-7994.224174,1532.190996
287.597587,1406.391290,-7920.203579,1532.190996
287.597914,1036.288319,-9030.512492,1532.190996
287.598242,370.102971,-9326.594869,1302.362347
287.598569,-222.061783,-9474.636058,995.924147
287.598897,0.000000,-9992.780217,1072.533697
287.599224,-296.082377,-10140.821405,842.705048
287.599552,-370.102971,-9844.739029,536.266849
287.599879,-592.164754,-10436.903782,612.876398
287.600207,-444.123565,-10288.862594,383.047749
287.600534,-1036.288319,-9992.780217,306.438199
287.600861,-1184.329507,-9770.718434,306.438199
287.601189,-1480.411884,-9326.594869,766.095498
287.601516,-1554.432478,-9030.512492,612.876398
287.601844,-1628.453072,-8882.471304,0.000000
287.602171,-1332.370696,-8512.368333,153.219100
287.602499,-1184.329507,-8142.265362,229.828649
287.602826,-962.267725,-7550.100608,306.438199
287.603153,-148.041188,-7920.203579,612.876398
287.603481,0.000000,-7476.080014,383.047749
287.603808,592.164754,-8216.285956,995.924147
287.604136,740.205942,-8068.244768,766.095498
287.604463,740.205942,-8364.327145,1225.752797
287.604791,666.185348,-8882.471304,383.047749
287.605118,444.123565,-9474.636058,612.876398
287.605445,-148.041188,-9770.718434,153.219100
287.605773,-148.041188,-10362.883188,76.609550
287.606100,148.041188,-10510.924376,383.047749
287.606428,-296.082377,-10362.883188,76.609550
287.606755,-518.144159,-10066.800811,-383.047749
287.607083,0.000000,-10510.924376,-153.219100
287.607410,-296.082377,-9548.656652,-306.438199
287.607737,-222.061783,-9696.697840,-459.657299
287.608065,74.020594,-8734.430116,306.438199
287.608392,-222.061783,-9104.533087,-229.828649
287.608720,-592.164754,-9030.512492,0.000000
287.609047,0.000000,-8438.347739,0.000000
287.609375,296.082377,-8290.306550,612.876398
287.609702,296.082377,-8216.285956,383.047749
287.610029,296.082377,-7920.203579,1149.143247
287.610357,888.247130,-8068.244768,1455.581446
287.610684,1036.288319,-8068.244768,1225.752797
287.611012,666.185348,-8142.265362,1455.581446
287.611339,666.185348,-8734.430116,1532.190996
287.611667,74.020594,-8882.471304,766.095498
287.611994,-444.123565,-9548.656652,919.314598
287.612321,-666.185348,-10214.842000,229.828649
287.612649,-888.247130,-9770.718434,459.657299
287.612976,-370.102971,-10140.821405,919.314598
287.613304,-1184.329507,-9696.697840,0.000000
287.613631,-962.267725,-9992.780217,612.876398
287.613959,-1406.391290,-9696.697840,153.219100
287.614286,-1554.432478,-9474.636058,0.000000
287.614614,-1406.391290,-9474.636058,76.609550
287.614941,-1924.535449,-8882.471304,76.609550
287.615268,-1110.308913,-8882.471304,76.609550
287.615596,-592.164754,-8808.450710,229.828649
287.615923,-444.123565,-8216.285956,689.485948
287.616251,-148.041188,-8438.347739,536.266849
287.616578,0.000000,-7031.956449,919.314598
287.616906,666.185348,-7772.162391,919.314598
287.617233,1036.288319,-8438.347739,1455.581446
287.617560,1110.308913,-8142.265362,1608.800546
287.617888,1036.288319,-8808.450710,1455.581446
287.618215,1332.370696,-9622.677246,919.314598
287.618543,444.123565,-9104.533087,995.924147
287.618870,0.000000,-10214.842000,766.095498
287.619198,0.000000,-10140.821405,383.047749
287.619525,-740.205942,-10362.883188,153.219100
287.619852,-444.123565,-10288.862594,306.438199
287.620180,-888.247130,-10584.944971,153.219100
287.620507,-666.185348,-10140.821405,-153.219100
287.620835,-814.226536,-9622.677246,-153.219100
287.621162,-740.205942,-9252.574275,-153.219100
287.621490,-888.247130,-9104.533087,0.000000
287.621817,-962.267725,-8882.471304,0.000000
287.622144,-666.185348,-8216.285956,536.266849
287.622472,-444.123565,-8068.244768,383.047749
287.622799,-222.061783,-7920.203579,995.924147
287.623127,296.082377,-7846.182985,995.924147
287.623454,444.123565,-7254.018232,1302.362347
287.623782,962.267725,-7994.224174,1838.629195
287.624109,666.185348,-8068.244768,1685.410096
287.624436,740.205942,-8660.409521,1532.190996
287.624764,444.123565,-8956.491898,1455.581446
287.625091,148.041188,-9252.574275,1532.190996
287.625419,-296.082377,-9622.677246,995.924147
287.625746,-370.102971,-9770.718434,842.705048
287.626074,-592.164754,-10140.821405,995.924147
287.626401,-740.205942,-10140.821405,612.876398
287.626729,-1184.329507,-9696.697840,689.485948
287.627056,-814.226536,-9622.677246,383.047749
287.627383,-1036.288319,-9770.718434,459.657299
287.627711,-1258.350101,-9474.636058,306.438199
287.628038,-1480.411884,-9326.594869,229.828649
287.628366,-1332.370696,-8956.491898,459.657299
287.628693,-1258.350101,-8438.347739,842.705048
287.629021,-1110.308913,-8290.306550,536.266849
287.629348,-1036.288319,-7920.203579,612.876398
287.629675,-666.185348,-7772.162391,842.705048
287.630003,0.000000,-7698.141797,766.095498
287.630330,0.000000,-7105.977043,1149.143247
287.630658,148.041188,-7772.162391,995.924147
287.630985,444.123565,-8290.306550,919.314598
287.631313,592.164754,-8882.471304,1072.533697
287.631640,444.123565,-9252.574275,995.924147
287.631967,222.061783,-9696.697840,689.485948
287.632295,74.020594,-10066.800811,0.000000
287.632622,-370.102971,-10362.883188,153.219100
287.632950,-222.061783,-10584.944971,0.000000
287.633277,-296.082377,-10510.924376,0.000000
287.633605,0.000000,-10436.903782,153.219100
287.633932,0.000000,-10288.862594,0.000000
287.634259,-296.082377,-9696.697840,-229.828649
287.634587,-222.061783,-9400.615463,-153.219100
287.634914,-296.082377,-9178.553681,76.609550
287.635242,-370.102971,-8808.450710,153.219100
287.635569,0.000000,-8290.306550,919.314598
287.635897,0.000000,-8586.388927,612.876398
287.636224,0.000000,-8142.265362,612.876398
287.636551,370.102971,-7994.224174,766.095498
287.636879,740.205942,-7994.224174,995.924147
287.637206,814.226536,-8142.265362,1225.752797
287.637534,814.226536,-7994.224174,1455.581446
287.637861,444.123565,-8660.409521,1149.143247
287.638189,148.041188,-9104.533087,919.314598
287.638516,-444.123565,-9178.553681,766.095498
287.638843,-740.205942,-9770.718434,306.438199
287.639171,-888.247130,-9548.656652,383.047749
287.639498,-1258.350101,-10140.821405,153.219100
287.639826,-1332.370696,-9918.759623,229.828649
287.640153,-1480.411884,-9918.759623,0.000000
287.640481,-1480.411884,-9770.718434,-306.438199
287.640808,-1332.370696,-9252.574275,383.047749
287.641136,-1406.391290,-9474.636058,-229.828649
287.641463,-1480.411884,-8956.491898,0.000000
287.641790,-1258.350101,-8734.430116,0.000000
287.642118,-1184.329507,-8438.347739,229.828649
287.642445,-740.205942,-8068.244768,766.095498
287.642773,-444.123565,-7698.141797,383.047749
287.643100,0.000000,-7772.162391,612.876398
287.643428,370.102971,-7698.141797,919.314598
287.643755,962.267725,-7772.162391,1378.971896
287.644082,1406.391290,-8512.368333,1685.410096
287.644410,1776.494261,-8512.368333,842.705048
287.644737,1110.308913,-8956.491898,1302.362347
287.645065,740.205942,-9548.656652,995.924147
287.645392,518.144159,-9918.759623,766.095498
287.645720,-518.144159,-9992.780217,612.876398
287.646047,0.000000,-10510.924376,153.219100
287.646374,-592.164754,-10214.842000,0.000000
287.646702,-666.185348,-10436.903782,-153.219100
287.647029,-740.205942,-9918.759623,-459.657299
287.647357,-740.205942,-9622.677246,-306.438199
287.647684,-666.185348,-8956.491898,0.000000
287.648012,-740.205942,-9178.553681,-306.438199
287.648339,-814.226536,-8882.471304,0.000000
287.648666,-740.205942,-8512.368333,153.219100
287.648994,-666.185348,-8142.265362,229.828649
287.649321,-444.123565,-7994.224174,1149.143247
287.649649,-296.082377,-7772.162391,766.095498
287.649976,148.041188,-7772.162391,1149.143247
287.650304,518.144159,-7994.224174,1378.971896
287.650631,740.205942,-8142.265362,1608.800546
287.650958,1036.288319,-8216.285956,1991.848295
287.651286,740.205942,-9030.512492,1685.410096
287.651613,444.123565,-9474.636058,1608.800546
287.651941,222.061783,-9770.718434,1378.971896
287.652268,0.000000,-10214.842000,1149.143247
287.652596,-518.144159,-9992.780217,1072.533697
287.652923,-592.164754,-10214.842000,459.657299
287.653250,-592.164754,-10362.883188,459.657299
287.653578,-962.267725,-10214.842000,383.047749
287.653905,-888.247130,-10066.800811,383.047749
287.654233,-1184.329507,-9770.718434,383.047749
287.654560,-1480.411884,-9400.615463,306.438199
287.654888,-1628.453072,-9030.512492,306.438199
287.655215,-1406.391290,-8956.491898,383.047749
287.655543,-1554.432478,-8660.409521,459.657299
287.655870,-1184.329507,-8068.244768,536.266849
287.656197,-592.164754,-8068.244768,536.266849
287.656525,-666.185348,-7550.100608,1072.533697
287.656852,148.041188,-7772.162391,919.314598
287.657180,296.082377,-7624.121203,766.095498
287.657507,666.185348,-8438.347739,1149.143247
287.657835,888.247130,-8808.450710,229.828649
287.658162,666.185348,-8734.430116,1072.533697
287.658489,370.102971,-9400.615463,536.266849
287.658817,0.000000,-9770.718434,459.657299
287.659144,-222.061783,-10140.821405,459.657299
287.659472,-592.164754,-10140.821405,536.266849
287.659799,74.020594,-10584.944971,-153.219100
287.660127,-444.123565,-10362.883188,0.000000
287.660454,0.000000,-10066.800811,-153.219100
287.660782,-296.082377,-9918.759623,0.000000
287.661109,0.000000,-9400.615463,0.000000
287.661437,-296.082377,-8882.471304,0.000000
287.661764,-370.102971,-8512.368333,153.219100
287.662092,-444.123565,-8660.409521,383.047749
287.662419,-296.082377,-8364.327145,536.266849
287.662746,-148.041188,-7920.203579,766.095498
287.663074,370.102971,-7179.997637,612.876398
287.663401,666.185348,-7772.162391,1149.143247
287.663729,592.164754,-7920.203579,1302.362347
287.664056,518.144159,-7920.203579,1455.581446
287.664384,740.205942,-8142.265362,1072.533697
287.664711,666.185348,-8586.388927,1378.971896
287.665039,-148.041188,-9104.533087,842.705048
287.665366,-666.185348,-9548.656652,459.657299
287.665694,-814.226536,-9770.718434,76.609550
287.666021,-1110.308913,-9770.718434,76.609550
287.666349,-1110.308913,-9918.759623,0.000000
287.666676,-1258.350101,-9770.718434,-612.876398
287.667003,-1406.391290,-9844.739029,0.000000
287.667331,-1332.370696,-9844.739029,-306.438199
287.667658,-1406.391290,-9400.615463,-306.438199
287.667986,-1480.411884,-9400.615463,0.000000
287.668313,-1332.370696,-9030.512492,0.000000
287.668641,-962.267725,-8808.450710,0.000000
287.668968,-814.226536,-8438.347739,153.219100
287.669296,-592.164754,-8290.306550,306.438199
287.669623,-148.041188,-7994.224174,459.657299
287.669951,370.102971,-7550.100608,1378.971896
287.670278,1036.288319,-7772.162391,1225.752797
287.670606,1406.391290,-8068.244768,995.924147
287.670933,1480.411884,-8512.368333,1072.533697
287.671261,1332.370696,-9252.574275,1225.752797
287.671588,888.247130,-9104.533087,1302.362347
287.671915,518.144159,-9844.739029,1149.143247
287.672243,0.000000,-10288.862594,536.266849
287.672570,-370.102971,-10658.965565,306.438199
287.672898,-592.164754,-10510.924376,0.000000
287.673225,-814.226536,-10362.883188,76.609550
287.673553,-814.226536,-9918.759623,0.000000
287.673880,-370.102971,-9918.759623,-383.047749
287.674208,-518.144159,-9474.636058,-153.219100
287.674535,-962.267725,-9252.574275,-229.828649
287.674863,-814.226536,-8956.491898,0.000000
287.675190,-518.144159,-8660.409521,383.047749
287.675518,-814.226536,-8512.368333,612.876398
287.675845,-962.267725,-8068.244768,766.095498
287.676173,-296.082377,-7994.224174,1072.533697
287.676500,0.000000,-7846.182985,1378.971896
287.676827,592.164754,-7846.182985,1455.581446
287.677155,814.226536,-7698.141797,1915.238745
287.677482,814.226536,-8216.285956,2068.457845
287.677810,518.144159,-8512.368333,1838.629195
287.678137,222.061783,-9178.553681,1762.019645
287.678465,0.000000,-9104.533087,1378.971896
287.678792,-296.082377,-9696.697840,1532.190996
287.679120,-666.185348,-9918.759623,1072.533697
287.679447,-888.247130,-10362.883188,919.314598
287.679775,-1036.288319,-10436.903782,689.485948
287.680102,-814.226536,-10140.821405,689.485948
287.680430,-740.205942,-10214.842000,919.314598
287.680757,-1332.370696,-9770.718434,689.485948
287.681084,-1332.370696,-9696.697840,536.266849
287.681412,-1776.494261,-9326.594869,306.438199
287.681739,-1554.432478,-8882.471304,459.657299
287.682067,-1554.432478,-8142.265362,153.219100
287.682394,-1332.370696,-8290.306550,459.657299
287.682722,-1184.329507,-7920.203579,766.095498
287.683049,-370.102971,-7698.141797,1149.143247
287.683377,0.000000,-7772.162391,919.314598
287.683704,370.102971,-7402.059420,995.924147
287.684032,740.205942,-7846.182985,1455.581446
287.684359,888.247130,-8438.347739,919.314598
287.684687,666.185348,-8882.471304,842.705048
287.685014,592.164754,-9622.677246,689.485948
287.685342,296.082377,-9474.636058,0.000000
287.685669,0.000000,-9770.718434,383.047749
287.685996,0.000000,-10362.883188,0.000000
287.686324,-222.061783,-10881.027347,0.000000
287.686651,-370.102971,-10510.924376,-153.219100
287.686979,74.020594,-10436.903782,612.876398
287.687306,296.082377,-10140.821405,-612.876398
287.687634,-222.061783,-9844.739029,-229.828649
287.687961,-370.102971,-9474.636058,-229.828649
287.688289,-222.061783,-9400.615463,0.000000
287.688616,-370.102971,-8734.430116,0.000000
287.688944,-444.123565,-8142.265362,536.266849
287.689271,-148.041188,-7698.141797,383.047749
287.689599,148.041188,-7772.162391,459.657299
287.689926,296.082377,-7624.121203,842.705048
287.690253,592.164754,-7698.141797,766.095498
287.690581,740.205942,-7624.121203,995.924147
287.690908,666.185348,-8364.327145,1072.533697
287.691236,666.185348,-8586.388927,1072.533697
287.691563,74.020594,-9252.574275,766.095498
287.691891,-296.082377,-9474.636058,766.095498
287.692218,-518.144159,-9844.739029,689.485948
287.692546,-962.267725,-9844.739029,383.047749
287.692873,-1036.288319,-10066.800811,229.828649
287.693201,-1036.288319,-10362.883188,153.219100
287.693528,-1184.329507,-10140.821405,0.000000
287.693856,-1332.370696,-9918.759623,76.609550
287.694183,-592.164754,-9474.636058,306.438199
287.694511,-1258.350101,-9326.594869,0.000000
287.694838,-1258.350101,-9326.594869,0.000000
287.695165,-1110.308913,-9030.512492,153.219100
287.695493,-888.247130,-8660.409521,153.219100
287.695820,-444.123565,-7994.224174,1072.533697
287.696148,-444.123565,-7624.121203,842.705048
287.696475,148.041188,-7920.203579,919.314598
287.696803,592.164754,-7846.182985,1225.752797
287.697130,962.267725,-8142.265362,1378.971896
287.697458,888.247130,-8068.244768,1532.190996
287.697785,1258.350101,-8808.450710,1685.410096
287.698113,666.185348,-9030.512492,1302.362347
287.698440,222.061783,-9474.636058,1072.533697
287.698768,0.000000,-9992.780217,689.485948
287.699095,-518.144159,-10288.862594,536.266849
287.699422,-518.144159,-10510.924376,612.876398
287.699750,-666.185348,-10362.883188,0.000000
287.700077,-518.144159,-10584.944971,0.000000
287.700405,-740.205942,-9918.759623,-383.047749
287.700732,-814.226536,-9770.718434,-153.219100
287.701060,-370.102971,-9474.636058,-383.047749
287.701387,-962.267725,-9030.512492,0.000000
287.701715,-888.247130,-8956.491898,0.000000
287.702042,-740.205942,-8882.471304,229.828649
287.702370,-666.185348,-8290.306550,612.876398
287.702697,-296.082377,-8068.244768,383.047749
287.703025,222.061783,-7772.162391,1149.143247
287.703352,370.102971,-7920.203579,1532.190996
287.703680,666.185348,-7994.224174,1608.800546
287.704007,962.267725,-8216.285956,1685.410096
287.704334,962.267725,-8364.327145,1378.971896
287.704662,888.247130,-8734.430116,1838.629195
287.704989,222.061783,-9400.615463,1302.362347
287.705317,-148.041188,-9474.636058,1225.752797
287.705644,-296.082377,-10140.821405,995.924147
287.705972,-666.185348,-10214.842000,995.924147
287.706299,-740.205942,-9918.759623,766.095498
287.706627,-1036.288319,-10214.842000,383.047749
287.706954,-1184.329507,-10066.800811,229.828649
287.707282,-1110.308913,-9770.718434,229.828649
287.707609,-1480.411884,-9474.636058,0.000000
287.707937,-1406.391290,-9400.615463,306.438199
287.708264,-1554.432478,-9030.512492,229.828649
287.708592,-1628.453072,-8660.409521,76.609550
287.708919,-1406.391290,-8216.285956,459.657299
287.709246,-962.267725,-7846.182985,689.485948
287.709574,-444.123565,-7846.182985,766.095498
287.709901,148.041188,-7402.059420,689.485948
287.710229,222.061783,-7698.141797,995.924147
287.710556,592.164754,-7772.162391,995.924147
287.710884,740.205942,-7994.224174,842.705048
287.711211,1332.370696,-8364.327145,689.485948
287.711539,888.247130,-9030.512492,612.876398
287.711866,370.102971,-9696.697840,612.876398
287.712194,222.061783,-10066.800811,459.657299
287.712521,0.000000,-10436.903782,229.828649
287.712849,-296.082377,-10436.903782,229.828649
287.713176,-222.061783,-10510.924376,0.000000
287.713503,0.000000,-10510.924376,0.000000
287.713831,-296.082377,-10362.883188,-153.219100
287.714158,0.000000,-10066.800811,0.000000
287.714486,-296.082377,-9770.718434,0.000000
287.714813,-518.144159,-9178.553681,-306.438199
287.715141,-740.205942,-8956.491898,0.000000
287.715468,-666.185348,-8586.388927,153.219100
287.715796,-444.123565,-8438.347739,766.095498
287.716123,-592.164754,-7846.182985,766.095498
287.716451,0.000000,-7994.224174,1072.533697
287.716778,444.123565,-7698.141797,612.876398
287.717106,814.226536,-7920.203579,995.924147
287.717433,444.123565,-8142.265362,1225.752797
287.717761,518.144159,-8660.409521,1378.971896
287.718088,74.020594,-8808.450710,1302.362347
287.718415,-296.082377,-9030.512492,842.705048
287.718743,-518.144159,-9696.697840,766.095498
287.719070,-740.205942,-10066.800811,229.828649
287.719398,-962.267725,-10066.800811,383.047749
287.719725,-888.247130,-10288.862594,229.828649
287.720053,-962.267725,-9992.780217,459.657299
287.720380,-1036.288319,-10066.800811,0.000000
287.720708,-1036.288319,-9844.739029,0.000000
287.721035,-888.247130,-9622.677246,0.000000
287.721363,-1036.288319,-9326.594869,0.000000
287.721690,-1554.432478,-8882.471304,229.828649
287.722018,-444.123565,-8808.450710,76.609550
287.722345,-592.164754,-8364.327145,153.219100
287.722672,-518.144159,-7920.203579,459.657299
287.723000,74.020594,-7994.224174,612.876398
287.723327,-148.041188,-7254.018232,995.924147
287.723655,814.226536,-7994.224174,1149.143247
287.723982,962.267725,-8438.347739,1149.143247
287.724310,1036.288319,-8364.327145,995.924147
287.724637,888.247130,-8734.430116,1072.533697
287.724965,1036.288319,-8956.491898,459.657299
287.725292,0.000000,-9474.636058,919.314598
287.725620,0.000000,-9918.759623,459.657299
287.725947,-666.185348,-9918.759623,229.828649
287.726275,-444.123565,-10288.862594,0.000000
287.726602,-1110.308913,-10140.821405,-153.219100
287.726930,-814.226536,-10214.842000,76.609550
287.727257,-814.226536,-9696.697840,-383.047749
287.727584,-592.164754,-9252.574275,0.000000
287.727912,-370.102971,-9104.533087,0.000000
287.728239,-296.082377,-8734.430116,153.219100
287.728567,-518.144159,-8216.285956,766.095498
287.728894,-222.061783,-8438.347739,383.047749
287.729222,-296.082377,-8364.327145,689.485948
287.729549,-148.041188,-8142.265362,612.876398
287.729877,444.123565,-7994.224174,1225.752797
287.730204,444.123565,-7846.182985,1532.190996
287.730532,740.205942,-7994.224174,1762.019645
287.730859,592.164754,-8438.347739,1608.800546
287.731187,740.205942,-8808.450710,1762.019645
287.731514,296.082377,-9178.553681,1225.752797
287.731841,-296.082377,-9474.636058,1072.533697
287.732169,0.000000,-9992.780217,383.047749
287.732496,-740.205942,-10140.821405,689.485948
