#time,accel_x,accel_y,accel_z
376.483534,-444.123565,-9030.512492,766.095498
376.483861,0.000000,-8956.491898,766.095498
376.484189,-148.041188,-9104.533087,536.266849
376.484517,-148.041188,-9178.553681,459.657299
376.484845,-370.102971,-9326.594869,459.657299
376.485173,-296.082377,-9104.533087,459.657299
376.485500,0.000000,-8808.450710,459.657299
376.485828,-296.082377,-8956.491898,689.485948
376.486156,-148.041188,-9252.574275,459.657299
376.486484,-222.061783,-9326.594869,536.266849
376.486812,-222.061783,-9104.533087,383.047749
376.487139,-296.082377,-8660.409521,536.266849
376.487467,-296.082377,-8734.430116,842.705048
376.487795,-296.082377,-9104.533087,689.485948
376.488123,-370.102971,-9326.594869,612.876398
376.488451,-296.082377,-9178.553681,459.657299
376.488779,-222.061783,-9030.512492,689.485948
376.489106,-370.102971,-9104.533087,306.438199
376.489434,-222.061783,-9104.533087,612.876398
376.489762,0.000000,-9104.533087,612.876398
376.490090,-148.041188,-9030.512492,689.485948
376.490418,-740.205942,-9252.574275,766.095498
376.490745,-222.061783,-9178.553681,612.876398
376.491073,-222.061783,-9104.533087,536.266849
376.491401,-370.102971,-9030.512492,842.705048
376.491729,-370.102971,-8956.491898,612.876398
376.492057,-370.102971,-9030.512492,689.485948
376.492384,0.000000,-8882.471304,612.876398
376.492712,-222.061783,-9252.574275,306.438199
376.493040,-222.061783,-9178.553681,536.266849
376.493368,-444.123565,-9030.512492,383.047749
376.493696,-666.185348,-9326.594869,153.219100
376.494024,-888.247130,-9326.594869,0.000000
376.494351,-1406.391290,-9326.594869,-459.657299
376.494679,-1258.350101,-9252.574275,-383.047749
376.495007,-740.205942,-8956.491898,-383.047749
376.495335,-444.123565,-9104.533087,-383.047749
376.495663,-666.185348,-9104.533087,-612.876398
376.495990,-962.267725,-8734.430116,-995.924147
376.496318,-1110.308913,-9104.533087,-995.924147
376.496646,-1110.308913,-9178.553681,-1378.971896
376.496974,-888.247130,-9252.574275,-1225.752797
376.497302,-518.144159,-9104.533087,-842.705048
376.497629,-222.061783,-9104.533087,-1532.190996
376.497957,0.000000,-9178.553681,-1378.971896
376.498285,-222.061783,-9030.512492,-1378.971896
376.498613,0.000000,-9178.553681,-1302.362347
376.498941,0.000000,-9252.574275,-1455.581446
376.499268,0.000000,-9178.553681,-2298.286494
376.499596,0.000000,-8956.491898,-1455.581446
376.499924,296.082377,-9326.594869,-1685.410096
376.500252,222.061783,-9400.615463,-1532.190996
376.500580,296.082377,-9474.636058,-1762.019645
376.500908,444.123565,-9104.533087,-1608.800546
376.501235,222.061783,-9252.574275,-1302.362347
376.501563,222.061783,-9326.594869,-1762.019645
376.501891,0.000000,-9474.636058,-1838.629195
376.502219,222.061783,-9252.574275,-2068.457845
376.502547,148.041188,-9178.553681,-1378.971896
376.502874,-222.061783,-9104.533087,-1378.971896
376.503202,-370.102971,-9252.574275,-1685.410096
376.503530,-370.102971,-9252.574275,-1762.019645
376.503858,-814.226536,-9030.512492,-1838.629195
376.504186,-1110.308913,-8956.491898,-1991.848295
376.504513,-962.267725,-8734.430116,-2374.896044
376.504841,-1110.308913,-9104.533087,-2451.505594
376.505169,-1258.350101,-8956.491898,-2528.115143
376.505497,-1776.494261,-9030.512492,-2757.943793
376.505825,-1924.535449,-8956.491898,-3064.381992
376.506153,-1480.411884,-9474.636058,-3524.039291
376.506480,-1628.453072,-8808.450710,-3447.429741
376.506808,-1776.494261,-9030.512492,-3524.039291
376.507136,-1776.494261,-8882.471304,-3524.039291
376.507464,-1628.453072,-8808.450710,-3753.867940
376.507792,-888.247130,-8882.471304,-3600.648841
376.508119,0.000000,-8734.430116,-3447.429741
376.508447,444.123565,-8734.430116,-3370.820191
376.508775,888.247130,-8734.430116,-2834.553343
376.509103,1258.350101,-9030.512492,-2221.676944
376.509431,1998.556043,-8956.491898,-1685.410096
376.509758,2590.720797,-8882.471304,-1225.752797
376.510086,2442.679609,-9178.553681,-1149.143247
376.510414,2146.597232,-9474.636058,-1149.143247
376.510742,1406.391290,-9844.739029,-1378.971896
376.511070,666.185348,-10140.821405,-1532.190996
376.511398,-666.185348,-10066.800811,-1838.629195
376.511725,-666.185348,-10140.821405,-2528.115143
376.512053,-1628.453072,-9992.780217,-3140.991542
376.512381,-1924.535449,-9548.656652,-3524.039291
376.512709,-1258.350101,-8956.491898,-3370.820191
376.513037,-296.082377,-7624.121203,-3294.210641
376.513364,740.205942,-7550.100608,-2834.553343
376.513692,1554.432478,-7328.038826,-1762.019645
376.514020,1554.432478,-7476.080014,-1455.581446
376.514348,1406.391290,-8216.285956,-766.095498
376.514676,740.205942,-8882.471304,-459.657299
376.515003,-592.164754,-9400.615463,76.609550
376.515331,-1924.535449,-10214.842000,-306.438199
376.515659,-2664.741391,-10881.027347,-383.047749
376.515987,-3182.885551,-10732.986159,-766.095498
376.516315,-2368.659014,-9844.739029,-766.095498
376.516643,-1036.288319,-9030.512492,-842.705048
376.516970,592.164754,-7994.224174,-689.485948
376.517298,2442.679609,-7476.080014,-229.828649
376.517626,3404.947333,-7179.997637,306.438199
376.517954,3849.070898,-7550.100608,842.705048
376.518282,2886.803174,-8142.265362,1378.971896
376.518609,666.185348,-9770.718434,1378.971896
376.518937,-1332.370696,-11029.068536,1149.143247
376.519265,-3256.906145,-11843.295072,842.705048
376.519593,-4737.318029,-11843.295072,459.657299
376.519921,-4515.256246,-11325.150913,1072.533697
376.520248,-3478.967927,-10066.800811,153.219100
376.520576,-1554.432478,-8882.471304,689.485948
376.520904,888.247130,-7476.080014,1072.533697
376.521232,2294.638420,-6513.812290,1225.752797
376.521560,2368.659014,-5995.668130,1838.629195
376.521888,1850.514855,-7105.977043,919.314598
376.522215,0.000000,-7698.141797,919.314598
376.522543,-1850.514855,-8512.368333,536.266849
376.522871,-3034.844362,-9770.718434,229.828649
376.523199,-4071.132681,-10436.903782,0.000000
376.523527,-4071.132681,-10288.862594,153.219100
376.523854,-2886.803174,-10214.842000,0.000000
376.524182,-1110.308913,-9400.615463,0.000000
376.524510,592.164754,-8586.388927,153.219100
376.524838,1850.514855,-8142.265362,766.095498
376.525166,2738.761985,-7994.224174,1072.533697
376.525493,2072.576638,-8068.244768,1225.752797
376.525821,592.164754,-8734.430116,612.876398
376.526149,-1036.288319,-9696.697840,459.657299
376.526477,-1924.535449,-10362.883188,0.000000
376.526805,-1850.514855,-9992.780217,0.000000
376.527133,-740.205942,-9770.718434,0.000000
376.527460,444.123565,-9474.636058,459.657299
376.527788,2442.679609,-8660.409521,842.705048
376.528116,3627.009116,-7994.224174,1685.410096
376.528444,4515.256246,-7179.997637,1685.410096
376.528772,3552.988522,-7920.203579,1915.238745
376.529099,1924.535449,-8882.471304,1378.971896
376.529427,-222.061783,-8956.491898,1225.752797
376.529755,-1628.453072,-9770.718434,842.705048
376.530083,-2072.576638,-9622.677246,306.438199
376.530411,-1998.556043,-9622.677246,919.314598
376.530738,-1258.350101,-9400.615463,766.095498
376.531066,-74.020594,-8956.491898,689.485948
376.531394,444.123565,-8660.409521,766.095498
376.531722,222.061783,-8512.368333,459.657299
376.532050,222.061783,-7772.162391,766.095498
376.532378,-296.082377,-8512.368333,383.047749
376.532705,-1110.308913,-8882.471304,383.047749
376.533033,-1998.556043,-9400.615463,459.657299
376.533361,-3256.906145,-9474.636058,0.000000
376.533689,-3775.050304,-9548.656652,-153.219100
376.534017,-3923.091493,-9474.636058,-766.095498
376.534344,-3034.844362,-8956.491898,-612.876398
376.534672,-1554.432478,-8512.368333,-612.876398
376.535000,74.020594,-8068.244768,-306.438199
376.535328,1554.432478,-7624.121203,153.219100
376.535656,2886.803174,-7105.977043,995.924147
376.535983,2664.741391,-7772.162391,1378.971896
376.536311,2294.638420,-8808.450710,1532.190996
376.536639,444.123565,-9918.759623,1302.362347
376.536967,-1184.329507,-10955.047942,612.876398
376.537295,-1628.453072,-11473.192101,766.095498
376.537622,-2072.576638,-11325.150913,0.000000
376.537950,-962.267725,-10881.027347,0.000000
376.538278,740.205942,-9844.739029,0.000000
376.538606,1406.391290,-9104.533087,383.047749
376.538934,2886.803174,-8068.244768,536.266849
376.539261,2812.782580,-7994.224174,383.047749
376.539589,2072.576638,-8512.368333,383.047749
376.539917,1036.288319,-9030.512492,383.047749
376.540245,-740.205942,-9696.697840,229.828649
376.540573,-2516.700203,-10066.800811,0.000000
376.540900,-3256.906145,-10658.965565,0.000000
376.541228,-3701.029710,-10436.903782,-306.438199
376.541556,-2368.659014,-9474.636058,-153.219100
376.541884,-740.205942,-8216.285956,0.000000
376.542212,1332.370696,-7328.038826,153.219100
376.542539,2590.720797,-6957.935855,766.095498
376.542867,2368.659014,-7105.977043,842.705048
376.543195,2072.576638,-7550.100608,1302.362347
376.543523,1036.288319,-8438.347739,1149.143247
376.543850,-814.226536,-9770.718434,689.485948
376.544178,-2146.597232,-10436.903782,995.924147
376.544506,-2368.659014,-11029.068536,1149.143247
376.544834,-2294.638420,-10584.944971,1149.143247
376.545162,-962.267725,-9992.780217,1532.190996
376.545489,148.041188,-9326.594869,1455.581446
376.545817,1036.288319,-9030.512492,1225.752797
376.546145,888.247130,-8438.347739,1532.190996
376.546473,1036.288319,-8808.450710,1762.019645
376.546800,518.144159,-8290.306550,1532.190996
376.547128,-740.205942,-8956.491898,1532.190996
376.547456,-2442.679609,-8660.409521,1149.143247
376.547784,-3182.885551,-9770.718434,536.266849
376.548112,-3997.112087,-9548.656652,306.438199
376.548439,-3552.988522,-9104.533087,229.828649
376.548767,-2442.679609,-8512.368333,0.000000
376.549095,-814.226536,-7550.100608,76.609550
376.549423,1110.308913,-7476.080014,306.438199
376.549751,1628.453072,-7550.100608,766.095498
376.550078,1998.556043,-7402.059420,1149.143247
376.550406,1850.514855,-8290.306550,1225.752797
376.550734,444.123565,-8956.491898,1455.581446
376.551062,-1110.308913,-9918.759623,1072.533697
376.551389,-2146.597232,-10807.006753,459.657299
376.551717,-2664.741391,-10955.047942,-229.828649
376.552045,-2294.638420,-10436.903782,0.000000
376.552373,-888.247130,-9992.780217,-306.438199
376.552701,888.247130,-9474.636058,76.609550
376.553028,2146.597232,-8586.388927,0.000000
376.553356,2886.803174,-8364.327145,0.000000
376.553684,2812.782580,-7772.162391,229.828649
376.554012,2072.576638,-8068.244768,153.219100
376.554339,1184.329507,-8586.388927,536.266849
376.554667,-814.226536,-9770.718434,0.000000
376.554995,-2368.659014,-10510.924376,-536.266849
376.555323,-3330.926739,-10732.986159,-689.485948
376.555651,-2738.761985,-10214.842000,-919.314598
376.555978,-1258.350101,-9326.594869,-1072.533697
376.556306,592.164754,-8290.306550,76.609550
376.556634,2812.782580,-7476.080014,0.000000
376.556962,3849.070898,-7105.977043,689.485948
376.557290,3627.009116,-7105.977043,1072.533697
376.557617,2664.741391,-7772.162391,842.705048
376.557945,1036.288319,-8734.430116,1302.362347
376.558273,-370.102971,-10214.842000,536.266849
376.558601,-1850.514855,-11029.068536,536.266849
376.558928,-2220.617826,-10955.047942,383.047749
376.559256,-1702.473667,-10807.006753,766.095498
376.559584,-740.205942,-10510.924376,995.924147
376.559912,592.164754,-9474.636058,1072.533697
376.560240,814.226536,-8956.491898,1302.362347
376.560567,1036.288319,-8364.327145,1072.533697
376.560895,444.123565,-8142.265362,689.485948
376.561223,0.000000,-8364.327145,689.485948
376.561551,-1554.432478,-8734.430116,842.705048
376.561879,-2812.782580,-9326.594869,612.876398
376.562206,-3775.050304,-9474.636058,383.047749
376.562534,-4219.173869,-9326.594869,229.828649
376.562862,-3404.947333,-8660.409521,76.609550
376.563190,-2146.597232,-8142.265362,229.828649
376.563517,-666.185348,-8068.244768,766.095498
376.563845,296.082377,-7994.224174,1225.752797
376.564173,1258.350101,-7772.162391,1532.190996
376.564501,1406.391290,-7698.141797,1762.019645
376.564829,666.185348,-7698.141797,1838.629195
376.565156,-222.061783,-9400.615463,1608.800546
376.565484,-1406.391290,-10288.862594,1302.362347
376.565812,-2294.638420,-10807.006753,612.876398
376.566140,-2590.720797,-10732.986159,306.438199
376.566467,-1628.453072,-9770.718434,153.219100
376.566795,-444.123565,-9992.780217,229.828649
376.567123,814.226536,-9178.553681,76.609550
376.567451,1702.473667,-8586.388927,612.876398
376.567779,2442.679609,-8216.285956,612.876398
376.568106,1924.535449,-7772.162391,536.266849
376.568434,1332.370696,-8660.409521,612.876398
376.568762,0.000000,-9474.636058,229.828649
376.569090,-2072.576638,-9844.739029,-383.047749
376.569418,-3034.844362,-10140.821405,-306.438199
376.569745,-3034.844362,-9992.780217,-612.876398
376.570073,-1776.494261,-9400.615463,-919.314598
376.570401,-148.041188,-8512.368333,0.000000
376.570729,1850.514855,-7994.224174,459.657299
376.571056,2886.803174,-7624.121203,536.266849
376.571384,2960.823768,-7550.100608,919.314598
376.571712,2664.741391,-7846.182985,919.314598
376.572040,1554.432478,-8660.409521,995.924147
376.572368,0.000000,-9622.677246,842.705048
376.572695,-962.267725,-10732.986159,766.095498
376.573023,-1850.514855,-11029.068536,383.047749
376.573351,-1850.514855,-10658.965565,306.438199
376.573679,-1184.329507,-10510.924376,1149.143247
376.574007,0.000000,-9844.739029,842.705048
376.574334,222.061783,-9474.636058,536.266849
376.574662,1184.329507,-8882.471304,842.705048
376.574990,888.247130,-8364.327145,383.047749
376.575318,444.123565,-7920.203579,612.876398
376.575645,74.020594,-8660.409521,766.095498
376.575973,-1406.391290,-8956.491898,536.266849
376.576301,-2960.823768,-9474.636058,536.266849
376.576629,-3849.070898,-9770.718434,0.000000
376.576957,-3775.050304,-9030.512492,153.219100
376.577284,-2664.741391,-8734.430116,153.219100
376.577612,-1110.308913,-8216.285956,612.876398
376.577940,222.061783,-8216.285956,689.485948
376.578268,1480.411884,-7846.182985,995.924147
376.578595,1998.556043,-7698.141797,1378.971896
376.578923,1776.494261,-8068.244768,1762.019645
376.579251,1036.288319,-9104.533087,1532.190996
376.579579,-370.102971,-9770.718434,1072.533697
376.579907,-1850.514855,-10214.842000,459.657299
376.580234,-2294.638420,-10584.944971,76.609550
376.580562,-1554.432478,-10510.924376,153.219100
376.580890,-814.226536,-9918.759623,0.000000
376.581218,0.000000,-9474.636058,229.828649
376.581546,1406.391290,-9104.533087,612.876398
376.581873,1924.535449,-8660.409521,689.485948
376.582201,1998.556043,-7772.162391,842.705048
376.582529,1110.308913,-8216.285956,536.266849
376.582857,0.000000,-8364.327145,383.047749
376.583184,-888.247130,-9252.574275,0.000000
376.583512,-2368.659014,-9474.636058,-766.095498
376.583840,-2812.782580,-9104.533087,-229.828649
376.584168,-2590.720797,-9474.636058,-612.876398
376.584496,-1332.370696,-8882.471304,-306.438199
376.584823,0.000000,-8364.327145,0.000000
376.585151,1628.453072,-7920.203579,306.438199
376.585479,2590.720797,-7179.997637,1302.362347
376.585807,2738.761985,-7920.203579,919.314598
376.586134,2220.617826,-8438.347739,1225.752797
376.586462,1036.288319,-9474.636058,995.924147
376.586790,-444.123565,-10140.821405,842.705048
376.587118,-1850.514855,-10658.965565,689.485948
376.587446,-2294.638420,-10362.883188,306.438199
376.587773,-2146.597232,-10658.965565,536.266849
376.588101,-1184.329507,-9992.780217,459.657299
376.588429,296.082377,-9030.512492,612.876398
376.588757,1184.329507,-8808.450710,919.314598
376.589085,1628.453072,-8216.285956,1072.533697
376.589412,888.247130,-8068.244768,1072.533697
376.589740,444.123565,-8142.265362,1072.533697
376.590068,-740.205942,-8660.409521,459.657299
376.590396,-2294.638420,-9474.636058,766.095498
376.590723,-2960.823768,-9992.780217,459.657299
376.591051,-3701.029710,-9770.718434,0.000000
376.591379,-3034.844362,-9474.636058,0.000000
376.591707,-1702.473667,-9030.512492,76.609550
376.592035,-296.082377,-8660.409521,459.657299
376.592362,1036.288319,-8142.265362,995.924147
376.592690,1480.411884,-8142.265362,995.924147
376.593018,1776.494261,-8142.265362,1302.362347
376.593346,1036.288319,-8512.368333,1302.362347
376.593674,296.082377,-9474.636058,995.924147
376.594001,-370.102971,-10066.800811,1455.581446
376.594329,-1850.514855,-10288.862594,306.438199
376.594657,-2294.638420,-10658.965565,383.047749
376.594985,-1776.494261,-10140.821405,459.657299
376.595312,-666.185348,-9992.780217,459.657299
376.595640,444.123565,-9104.533087,306.438199
376.595968,1110.308913,-8882.471304,536.266849
376.596296,2220.617826,-8364.327145,766.095498
376.596624,1850.514855,-7994.224174,919.314598
376.596951,1184.329507,-7846.182985,689.485948
376.597279,0.000000,-8660.409521,766.095498
376.597607,-1480.411884,-9252.574275,306.438199
376.597935,-2664.741391,-9770.718434,76.609550
376.598262,-3034.844362,-9622.677246,-229.828649
376.598590,-2442.679609,-9104.533087,-383.047749
376.598918,-962.267725,-8734.430116,0.000000
376.599246,518.144159,-7698.141797,842.705048
376.599574,1702.473667,-7550.100608,459.657299
376.599901,2220.617826,-7846.182985,995.924147
376.600229,1924.535449,-7846.182985,1072.533697
376.600557,1258.350101,-8586.388927,1149.143247
376.600885,0.000000,-9252.574275,842.705048
376.601213,-1036.288319,-10066.800811,842.705048
376.601540,-1924.535449,-10510.924376,459.657299
376.601868,-2368.659014,-10362.883188,229.828649
376.602196,-1480.411884,-10066.800811,153.219100
376.602524,-444.123565,-9548.656652,612.876398
376.602851,518.144159,-8808.450710,919.314598
376.603179,1184.329507,-8512.368333,536.266849
376.603507,1776.494261,-8142.265362,536.266849
376.603835,1554.432478,-8290.306550,842.705048
376.604163,666.185348,-8142.265362,612.876398
376.604490,0.000000,-9104.533087,689.485948
376.604818,-1850.514855,-9918.759623,459.657299
376.605146,-2516.700203,-10140.821405,229.828649
376.605474,-3108.864956,-9622.677246,76.609550
376.605802,-2146.597232,-9474.636058,306.438199
376.606129,-888.247130,-8956.491898,536.266849
376.606457,592.164754,-8438.347739,229.828649
376.606785,1628.453072,-7994.224174,842.705048
376.607113,2368.659014,-7772.162391,1225.752797
376.607440,1850.514855,-8142.265362,1072.533697
376.607768,1406.391290,-8438.347739,1455.581446
376.608096,0.000000,-9252.574275,842.705048
376.608424,-2146.597232,-10510.924376,459.657299
376.608752,-2960.823768,-10881.027347,229.828649
376.609079,-3182.885551,-10658.965565,-229.828649
376.609407,-2664.741391,-10288.862594,-229.828649
376.609735,-740.205942,-9622.677246,0.000000
376.610063,-148.041188,-8882.471304,0.000000
376.610390,1628.453072,-8290.306550,76.609550
376.610718,2368.659014,-7698.141797,459.657299
376.611046,1924.535449,-7698.141797,689.485948
376.611374,1406.391290,-8290.306550,459.657299
376.611702,-518.144159,-9252.574275,229.828649
376.612029,-1924.535449,-10214.842000,229.828649
376.612357,-3330.926739,-10436.903782,-229.828649
376.612685,-2886.803174,-10362.883188,0.000000
376.613013,-1258.350101,-9548.656652,459.657299
376.613341,222.061783,-8956.491898,76.609550
376.613668,2072.576638,-8660.409521,536.266849
376.613996,3552.988522,-7846.182985,1149.143247
376.614324,3404.947333,-7772.162391,1302.362347
376.614652,3182.885551,-8142.265362,1532.190996
376.614979,1554.432478,-9104.533087,1455.581446
376.615307,0.000000,-9548.656652,766.095498
376.615635,-1480.411884,-10584.944971,383.047749
376.615963,-2294.638420,-10955.047942,536.266849
376.616291,-2960.823768,-10288.862594,153.219100
376.616618,-2072.576638,-9844.739029,459.657299
376.616946,-962.267725,-9252.574275,0.000000
376.617274,296.082377,-8660.409521,536.266849
376.617602,888.247130,-8068.244768,459.657299
376.617929,888.247130,-7624.121203,459.657299
376.618257,740.205942,-7772.162391,153.219100
376.618585,0.000000,-8142.265362,612.876398
376.618913,-1332.370696,-8882.471304,459.657299
376.619241,-2590.720797,-9252.574275,306.438199
376.619568,-3034.844362,-9548.656652,0.000000
376.619896,-2664.741391,-9326.594869,383.047749
376.620224,-1480.411884,-8808.450710,306.438199
376.620552,148.041188,-8660.409521,689.485948
376.620880,1332.370696,-8438.347739,842.705048
376.621207,1850.514855,-8068.244768,1302.362347
376.621535,2072.576638,-7846.182985,1532.190996
376.621863,1924.535449,-8216.285956,1532.190996
376.622191,814.226536,-8956.491898,1149.143247
376.622518,-370.102971,-9844.739029,995.924147
376.622846,-1554.432478,-10732.986159,766.095498
376.623174,-2812.782580,-10807.006753,153.219100
376.623502,-3478.967927,-10214.842000,0.000000
376.623830,-1628.453072,-9548.656652,76.609550
376.624157,-888.247130,-9400.615463,0.000000
376.624485,592.164754,-8290.306550,0.000000
376.624813,1702.473667,-7994.224174,383.047749
376.625141,1850.514855,-7254.018232,536.266849
376.625469,1184.329507,-7624.121203,919.314598
376.625796,0.000000,-8734.430116,612.876398
376.626124,-1776.494261,-9326.594869,0.000000
376.626452,-3034.844362,-10214.842000,0.000000
376.626780,-3627.009116,-10436.903782,229.828649
376.627107,-2738.761985,-9622.677246,-306.438199
376.627435,-1110.308913,-9326.594869,0.000000
376.627763,592.164754,-8512.368333,306.438199
376.628091,2294.638420,-8290.306550,536.266849
376.628419,3034.844362,-8142.265362,1149.143247
376.628746,3034.844362,-7994.224174,995.924147
376.629074,2220.617826,-8586.388927,919.314598
376.629402,962.267725,-9474.636058,689.485948
376.629730,-444.123565,-10510.924376,689.485948
376.630057,-1554.432478,-11177.109724,612.876398
376.630385,-1628.453072,-11695.253884,612.876398
376.630713,-2220.617826,-10955.047942,153.219100
376.631041,-1036.288319,-10066.800811,306.438199
376.631369,-444.123565,-9548.656652,153.219100
376.631696,814.226536,-9104.533087,229.828649
376.632024,1628.453072,-8142.265362,536.266849
376.632352,1480.411884,-7920.203579,842.705048
376.632680,1036.288319,-7920.203579,612.876398
376.633008,-148.041188,-8660.409521,995.924147
376.633335,-1554.432478,-9400.615463,383.047749
376.633663,-2738.761985,-9622.677246,995.924147
376.633991,-2738.761985,-9400.615463,153.219100
376.634319,-2368.659014,-9400.615463,536.266849
376.634646,-1036.288319,-9030.512492,766.095498
376.634974,222.061783,-8734.430116,1072.533697
376.635302,1628.453072,-8216.285956,1532.190996
376.635630,2442.679609,-8068.244768,1762.019645
376.635958,2146.597232,-8216.285956,1838.629195
376.636285,1110.308913,-8808.450710,1762.019645
376.636613,0.000000,-9548.656652,1532.190996
376.636941,-1702.473667,-10066.800811,1149.143247
376.637269,-2516.700203,-10658.965565,383.047749
376.637596,-2812.782580,-9992.780217,689.485948
376.637924,-1998.556043,-9548.656652,459.657299
376.638252,-1332.370696,-9104.533087,536.266849
376.638580,74.020594,-8586.388927,995.924147
376.638908,592.164754,-8364.327145,919.314598
376.639235,814.226536,-7105.977043,1072.533697
376.639563,740.205942,-7328.038826,919.314598
376.639891,0.000000,-7772.162391,995.924147
376.640219,-1406.391290,-8512.368333,766.095498
376.640547,-2368.659014,-9104.533087,536.266849
376.640874,-3256.906145,-9400.615463,536.266849
376.641202,-3330.926739,-9400.615463,0.000000
376.641530,-2146.597232,-8882.471304,0.000000
376.641858,-444.123565,-8512.368333,0.000000
376.642185,1110.308913,-8068.244768,76.609550
376.642513,2072.576638,-7476.080014,766.095498
376.642841,2812.782580,-7698.141797,842.705048
376.643169,2812.782580,-8142.265362,766.095498
376.643497,1850.514855,-8660.409521,919.314598
376.643824,666.185348,-9770.718434,842.705048
376.644152,-814.226536,-10658.965565,383.047749
376.644479,-2146.597232,-11621.233289,383.047749
376.644806,-2516.700203,-11251.130318,-153.219100
376.645134,-2072.576638,-10658.965565,-306.438199
376.645461,-444.123565,-9696.697840,-536.266849
376.645789,592.164754,-9030.512492,306.438199
376.646116,2220.617826,-7920.203579,0.000000
376.646444,2294.638420,-7772.162391,153.219100
376.646771,2072.576638,-7624.121203,306.438199
376.647099,814.226536,-8068.244768,306.438199
376.647426,-518.144159,-9178.553681,383.047749
376.647753,-1850.514855,-10066.800811,0.000000
376.648081,-2664.741391,-10288.862594,-229.828649
376.648408,-2960.823768,-9992.780217,0.000000
376.648736,-1702.473667,-9918.759623,0.000000
376.649063,-222.061783,-9474.636058,306.438199
376.649391,1554.432478,-8586.388927,919.314598
376.649718,1924.535449,-8586.388927,1072.533697
376.650046,1998.556043,-8216.285956,1378.971896
376.650373,1628.453072,-8512.368333,1225.752797
376.650701,962.267725,-9030.512492,1455.581446
376.651028,74.020594,-9918.759623,1225.752797
376.651355,-1406.391290,-10362.883188,766.095498
376.651683,-2516.700203,-10658.965565,689.485948
376.652010,-2812.782580,-10288.862594,536.266849
376.652338,-2146.597232,-9548.656652,153.219100
376.652665,-962.267725,-9252.574275,612.876398
376.652993,148.041188,-7994.224174,842.705048
376.653320,814.226536,-7994.224174,842.705048
376.653648,1258.350101,-7476.080014,1225.752797
376.653975,1036.288319,-7476.080014,1302.362347
376.654302,148.041188,-7994.224174,1532.190996
376.654630,-1110.308913,-8808.450710,842.705048
376.654957,-2664.741391,-9844.739029,536.266849
376.655285,-3627.009116,-9770.718434,459.657299
376.655612,-3108.864956,-9474.636058,76.609550
376.655940,-1850.514855,-8882.471304,383.047749
376.656267,148.041188,-9030.512492,842.705048
376.656595,1480.411884,-8290.306550,1225.752797
376.656922,2442.679609,-7920.203579,1378.971896
376.657250,2516.700203,-7994.224174,1532.190996
376.657577,1924.535449,-8512.368333,1685.410096
376.657904,962.267725,-9696.697840,1302.362347
376.658232,-814.226536,-10214.842000,1302.362347
376.658559,-2072.576638,-11103.089130,689.485948
376.658887,-2442.679609,-10955.047942,0.000000
376.659214,-2516.700203,-10436.903782,229.828649
376.659542,-1258.350101,-9548.656652,-229.828649
376.659869,0.000000,-9104.533087,459.657299
376.660197,814.226536,-8586.388927,306.438199
376.660524,1036.288319,-7772.162391,76.609550
376.660852,1332.370696,-7846.182985,76.609550
376.661179,1036.288319,-7550.100608,766.095498
376.661506,444.123565,-8808.450710,383.047749
376.661834,-1258.350101,-9252.574275,153.219100
376.662161,-2294.638420,-9844.739029,-153.219100
376.662489,-2886.803174,-10066.800811,-459.657299
376.662816,-2516.700203,-9622.677246,-536.266849
376.663144,-1258.350101,-9252.574275,-76.609550
376.663471,0.000000,-9252.574275,-383.047749
376.663799,1776.494261,-8882.471304,76.609550
376.664126,2516.700203,-8438.347739,306.438199
376.664453,3182.885551,-8364.327145,459.657299
376.664781,3182.885551,-8660.409521,1225.752797
376.665108,2146.597232,-9770.718434,1072.533697
376.665436,296.082377,-10510.924376,689.485948
376.665763,-888.247130,-11325.150913,536.266849
376.666091,-1998.556043,-11103.089130,153.219100
376.666418,-1924.535449,-11177.109724,0.000000
376.666746,-962.267725,-9770.718434,459.657299
376.667073,296.082377,-9252.574275,536.266849
376.667401,1776.494261,-8660.409521,842.705048
376.667728,2294.638420,-7772.162391,919.314598
376.668055,1998.556043,-7328.038826,1225.752797
376.668383,1036.288319,-7550.100608,1378.971896
376.668710,-222.061783,-8216.285956,919.314598
376.669038,-2146.597232,-9474.636058,536.266849
376.669365,-3330.926739,-9844.739029,0.000000
376.669693,-4145.153275,-9696.697840,-383.047749
376.670020,-3404.947333,-9474.636058,306.438199
376.670348,-1480.411884,-9252.574275,306.438199
376.670675,0.000000,-8216.285956,459.657299
376.671003,1184.329507,-7920.203579,919.314598
376.671330,1628.453072,-7550.100608,1072.533697
376.671657,1850.514855,-7920.203579,1455.581446
376.671985,1110.308913,-8438.347739,766.095498
376.672312,-222.061783,-9326.594869,1302.362347
376.672640,-1628.453072,-9992.780217,919.314598
376.672967,-2590.720797,-10436.903782,842.705048
376.673295,-2960.823768,-10436.903782,689.485948
376.673622,-2590.720797,-9400.615463,689.485948
376.673950,-1258.350101,-9326.594869,612.876398
376.674277,296.082377,-8586.388927,766.095498
376.674604,1628.453072,-8068.244768,842.705048
376.674932,1850.514855,-8068.244768,766.095498
376.675259,1850.514855,-7476.080014,1072.533697
376.675587,1332.370696,-8364.327145,1072.533697
376.675914,0.000000,-8956.491898,919.314598
376.676242,-1628.453072,-9770.718434,612.876398
376.676569,-2664.741391,-10066.800811,459.657299
376.676897,-2738.761985,-9474.636058,-229.828649
376.677224,-2368.659014,-9252.574275,0.000000
376.677552,-1110.308913,-9252.574275,0.000000
376.677879,296.082377,-8438.347739,153.219100
376.678206,1850.514855,-8290.306550,536.266849
376.678534,2368.659014,-7476.080014,1072.533697
376.678861,2072.576638,-8216.285956,842.705048
376.679189,1036.288319,-8660.409521,1072.533697
376.679516,-222.061783,-9474.636058,919.314598
376.679844,-1628.453072,-10214.842000,383.047749
376.680171,-2812.782580,-10066.800811,306.438199
376.680499,-2812.782580,-10584.944971,-229.828649
376.680826,-2442.679609,-10066.800811,-153.219100
376.681154,-1406.391290,-9548.656652,-306.438199
376.681481,296.082377,-8512.368333,0.000000
376.681808,1110.308913,-8142.265362,153.219100
376.682136,2442.679609,-7920.203579,766.095498
376.682463,2072.576638,-7698.141797,536.266849
376.682791,1258.350101,-8068.244768,612.876398
376.683118,-296.082377,-8882.471304,459.657299
376.683446,-1554.432478,-9770.718434,459.657299
376.683773,-2738.761985,-10140.821405,0.000000
376.684101,-2220.617826,-10584.944971,0.000000
376.684428,-1258.350101,-9622.677246,153.219100
376.684755,370.102971,-9030.512492,612.876398
376.685083,1998.556043,-8882.471304,689.485948
376.685410,2664.741391,-8438.347739,1915.238745
376.685738,2886.803174,-8438.347739,1149.143247
376.686065,2220.617826,-8216.285956,1302.362347
376.686393,1184.329507,-8956.491898,1149.143247
376.686720,-296.082377,-10066.800811,842.705048
376.687048,-1776.494261,-10584.944971,919.314598
376.687375,-2590.720797,-10732.986159,383.047749
376.687703,-2812.782580,-10436.903782,76.609550
376.688030,-2516.700203,-9918.759623,229.828649
376.688357,-1406.391290,-9474.636058,306.438199
376.688685,-222.061783,-8882.471304,76.609550
376.689012,666.185348,-8290.306550,229.828649
376.689340,666.185348,-8068.244768,153.219100
376.689667,222.061783,-7846.182985,612.876398
376.689995,-148.041188,-8290.306550,689.485948
376.690322,-1110.308913,-9104.533087,536.266849
376.690650,-2294.638420,-9696.697840,0.000000
376.690977,-2960.823768,-9844.739029,-229.828649
376.691304,-2738.761985,-9844.739029,0.000000
376.691632,-1776.494261,-9252.574275,0.000000
376.691959,222.061783,-8808.450710,766.095498
376.692287,1776.494261,-8734.430116,1225.752797
376.692614,2590.720797,-8068.244768,2145.067394
376.692942,3182.885551,-8068.244768,1838.629195
376.693269,2590.720797,-8512.368333,1685.410096
376.693597,1480.411884,-9178.553681,1915.238745
376.693924,592.164754,-10362.883188,1455.581446
376.694252,-1480.411884,-10436.903782,842.705048
376.694579,-2368.659014,-10658.965565,612.876398
376.694906,-2146.597232,-10066.800811,612.876398
376.695234,-1036.288319,-9844.739029,766.095498
376.695561,-148.041188,-9252.574275,766.095498
376.695889,518.144159,-8364.327145,1225.752797
376.696216,1258.350101,-8142.265362,842.705048
376.696544,1332.370696,-7698.141797,919.314598
376.696871,518.144159,-7698.141797,995.924147
376.697199,-444.123565,-8364.327145,689.485948
376.697526,-2220.617826,-9030.512492,995.924147
376.697854,-3034.844362,-9548.656652,153.219100
376.698181,-3775.050304,-9548.656652,-229.828649
376.698508,-3108.864956,-9474.636058,-229.828649
376.698836,-1924.535449,-8956.491898,0.000000
376.699163,0.000000,-8142.265362,459.657299
376.699491,888.247130,-7698.141797,306.438199
376.699818,1850.514855,-8068.244768,689.485948
376.700146,2368.659014,-7772.162391,1302.362347
376.700473,1998.556043,-8068.244768,1149.143247
376.700801,962.267725,-9326.594869,1149.143247
376.701128,-222.061783,-10066.800811,766.095498
376.701455,-1924.535449,-10881.027347,689.485948
376.701783,-2146.597232,-10807.006753,153.219100
376.702110,-1628.453072,-10066.800811,229.828649
376.702438,-592.164754,-9918.759623,0.000000
376.702765,296.082377,-9252.574275,459.657299
376.703093,1406.391290,-8808.450710,306.438199
376.703420,1998.556043,-7920.203579,153.219100
376.703748,1554.432478,-7920.203579,536.266849
376.704075,1332.370696,-7994.224174,229.828649
376.704403,0.000000,-8660.409521,306.438199
376.704730,-1332.370696,-9474.636058,459.657299
376.705057,-2368.659014,-9770.718434,-306.438199
376.705385,-3256.906145,-9844.739029,-612.876398
376.705712,-2886.803174,-9696.697840,-919.314598
376.706040,-1554.432478,-9030.512492,-612.876398
376.706367,0.000000,-8364.327145,-612.876398
376.706695,1332.370696,-8142.265362,-229.828649
376.707022,2664.741391,-7994.224174,383.047749
376.707350,2516.700203,-7772.162391,919.314598
376.707677,2220.617826,-8216.285956,995.924147
376.708005,1036.288319,-8586.388927,842.705048
376.708332,-296.082377,-9992.780217,689.485948
376.708659,-1702.473667,-10510.924376,306.438199
376.708987,-1850.514855,-10807.006753,153.219100
376.709314,-1480.411884,-10362.883188,536.266849
376.709642,-666.185348,-9548.656652,689.485948
376.709969,296.082377,-9400.615463,1072.533697
376.710297,1850.514855,-8734.430116,842.705048
376.710624,1480.411884,-8438.347739,1302.362347
376.710952,1924.535449,-8290.306550,1225.752797
376.711279,814.226536,-8364.327145,1455.581446
376.711606,-370.102971,-9252.574275,1149.143247
376.711934,-2146.597232,-9696.697840,536.266849
376.712261,-3552.988522,-9770.718434,306.438199
376.712589,-3627.009116,-9770.718434,306.438199
376.712916,-2738.761985,-9548.656652,536.266849
376.713244,-1702.473667,-8808.450710,612.876398
376.713571,0.000000,-8068.244768,842.705048
376.713899,1406.391290,-7772.162391,1302.362347
376.714226,1924.535449,-7698.141797,1532.190996
376.714554,1850.514855,-8364.327145,1608.800546
376.714881,518.144159,-7994.224174,2374.896044
376.715208,-666.185348,-9622.677246,1608.800546
376.715536,-1850.514855,-10510.924376,1302.362347
376.715863,-2960.823768,-10658.965565,995.924147
376.716191,-2738.761985,-10732.986159,919.314598
376.716518,-1924.535449,-9622.677246,766.095498
376.716846,-888.247130,-9474.636058,689.485948
376.717173,222.061783,-9252.574275,766.095498
376.717501,1406.391290,-8734.430116,995.924147
376.717828,740.205942,-8364.327145,536.266849
376.718155,1036.288319,-8216.285956,689.485948
376.718483,444.123565,-8882.471304,689.485948
376.718810,-740.205942,-9178.553681,612.876398
376.719138,-1850.514855,-9992.780217,459.657299
376.719465,-2960.823768,-10066.800811,-153.219100
376.719793,-3034.844362,-10066.800811,-76.609550
376.720120,-2442.679609,-9696.697840,-383.047749
376.720448,-1406.391290,-9178.553681,-536.266849
376.720775,296.082377,-8438.347739,-306.438199
376.721103,2220.617826,-7994.224174,0.000000
376.721430,3034.844362,-7550.100608,689.485948
376.721757,2960.823768,-7402.059420,1225.752797
376.722085,2368.659014,-8290.306550,1149.143247
376.722412,1110.308913,-9474.636058,842.705048
376.722740,-518.144159,-10362.883188,383.047749
376.723067,-1554.432478,-11029.068536,153.219100
376.723395,-1702.473667,-10510.924376,76.609550
376.723722,-1184.329507,-10288.862594,153.219100
376.724050,296.082377,-9918.759623,306.438199
376.724377,1406.391290,-9178.553681,689.485948
376.724705,2664.741391,-8364.327145,995.924147
376.725032,2664.741391,-8068.244768,1455.581446
376.725359,2072.576638,-7772.162391,459.657299
376.725687,740.205942,-8586.388927,689.485948
376.726014,-814.226536,-9252.574275,306.438199
376.726342,-2368.659014,-9548.656652,76.609550
376.726669,-3182.885551,-9770.718434,0.000000
376.726997,-2738.761985,-10066.800811,0.000000
376.727324,-2294.638420,-8808.450710,-153.219100
376.727652,-592.164754,-8290.306550,383.047749
376.727979,814.226536,-7698.141797,689.485948
376.728306,1480.411884,-7402.059420,1149.143247
376.728634,1998.556043,-7698.141797,1532.190996
376.728961,1110.308913,-7550.100608,1378.971896
376.729289,222.061783,-8512.368333,1302.362347
376.729616,-740.205942,-9622.677246,1302.362347
376.729944,-2072.576638,-10362.883188,919.314598
376.730271,-2516.700203,-10436.903782,1225.752797
376.730599,-2590.720797,-10140.821405,766.095498
376.730926,-1850.514855,-9622.677246,536.266849
376.731254,-962.267725,-9252.574275,383.047749
376.731581,296.082377,-8882.471304,766.095498
376.731908,518.144159,-8216.285956,766.095498
376.732236,2072.576638,-8068.244768,612.876398
376.732563,1110.308913,-8290.306550,766.095498
376.732891,74.020594,-8512.368333,689.485948
376.733218,-962.267725,-9252.574275,229.828649
376.733546,-2294.638420,-9918.759623,0.000000
376.733873,-3849.070898,-9548.656652,-459.657299
376.734201,-3404.947333,-9770.718434,-612.876398
376.734528,-2294.638420,-9326.594869,-689.485948
376.734856,-592.164754,-8660.409521,-612.876398
376.735183,1258.350101,-7994.224174,229.828649
376.735510,2738.761985,-7476.080014,995.924147
376.735838,3330.926739,-7402.059420,1149.143247
376.736165,2738.761985,-7994.224174,1072.533697
376.736493,1702.473667,-8808.450710,919.314598
376.736820,74.020594,-9844.739029,689.485948
376.737148,-1036.288319,-10584.944971,229.828649
376.737475,-1332.370696,-11029.068536,0.000000
376.737803,-1554.432478,-10955.047942,153.219100
376.738130,-444.123565,-10362.883188,0.000000
376.738457,962.267725,-9918.759623,536.266849
376.738785,2368.659014,-8734.430116,612.876398
376.739112,2738.761985,-8142.265362,842.705048
376.739440,2220.617826,-8142.265362,612.876398
376.739767,1628.453072,-8290.306550,1072.533697
376.740095,0.000000,-9326.594869,689.485948
376.740422,-1184.329507,-9474.636058,383.047749
376.740750,-2516.700203,-9548.656652,383.047749
376.741077,-3108.864956,-9992.780217,306.438199
376.741405,-2664.741391,-9474.636058,536.266849
376.741732,-1184.329507,-8734.430116,842.705048
376.742060,296.082377,-8290.306550,1072.533697
376.742387,1554.432478,-8290.306550,1838.629195
376.742715,1776.494261,-7328.038826,1455.581446
376.743042,1554.432478,-7328.038826,1838.629195
376.743370,740.205942,-8142.265362,1608.800546
376.743698,-370.102971,-9030.512492,1608.800546
376.744025,-1184.329507,-10214.842000,1455.581446
376.744353,-2442.679609,-10288.862594,1225.752797
376.744680,-2886.803174,-10658.965565,1149.143247
376.745008,-2886.803174,-10288.862594,842.705048
376.745336,-2072.576638,-9770.718434,612.876398
376.745663,-666.185348,-9474.636058,1072.533697
376.745991,74.020594,-8586.388927,1072.533697
376.746319,666.185348,-8290.306550,995.924147
376.746646,666.185348,-8290.306550,919.314598
376.746974,0.000000,-8142.265362,842.705048
376.747301,-962.267725,-8512.368333,689.485948
376.747629,-2368.659014,-8734.430116,612.876398
376.747957,-3552.988522,-9696.697840,0.000000
376.748284,-3478.967927,-9770.718434,-229.828649
376.748612,-2812.782580,-9400.615463,-306.438199
376.748939,-1406.391290,-8734.430116,-383.047749
376.749267,814.226536,-8290.306550,612.876398
376.749595,1702.473667,-8142.265362,0.000000
376.749922,2442.679609,-7698.141797,766.095498
376.750250,2664.741391,-7550.100608,919.314598
376.750577,2220.617826,-8068.244768,766.095498
376.750905,888.247130,-8882.471304,842.705048
376.751233,-296.082377,-10066.800811,76.609550
376.751560,-1628.453072,-10881.027347,-153.219100
376.751888,-1850.514855,-10658.965565,-153.219100
376.752216,-1776.494261,-10288.862594,-306.438199
376.752543,-370.102971,-10732.986159,-459.657299
376.752871,222.061783,-9030.512492,0.000000
376.753198,2146.597232,-8882.471304,-229.828649
376.753526,2664.741391,-8068.244768,76.609550
376.753854,1924.535449,-7698.141797,0.000000
376.754181,1776.494261,-8438.347739,306.438199
376.754509,370.102971,-9400.615463,76.609550
376.754836,-1184.329507,-9548.656652,-153.219100
376.755164,-2368.659014,-10214.842000,-689.485948
376.755492,-2664.741391,-9696.697840,-383.047749
376.755819,-2368.659014,-9622.677246,-153.219100
376.756147,-444.123565,-8068.244768,383.047749
376.756474,814.226536,-7920.203579,842.705048
376.756802,1554.432478,-7846.182985,459.657299
376.757130,2368.659014,-8586.388927,1302.362347
376.757457,1406.391290,-7846.182985,1378.971896
376.757785,962.267725,-8512.368333,1302.362347
376.758112,0.000000,-9548.656652,1149.143247
376.758440,-1702.473667,-10214.842000,919.314598
376.758768,-2738.761985,-10955.047942,689.485948
376.759095,-3182.885551,-11103.089130,612.876398
376.759423,-3108.864956,-9696.697840,383.047749
376.759751,-1258.350101,-9252.574275,153.219100
376.760078,-888.247130,-9548.656652,536.266849
376.760406,296.082377,-8142.265362,689.485948
376.760733,370.102971,-8068.244768,919.314598
376.761061,592.164754,-8068.244768,919.314598
376.761389,0.000000,-8438.347739,459.657299
376.761716,-1258.350101,-9252.574275,919.314598
376.762044,-2442.679609,-9844.739029,459.657299
376.762371,-3108.864956,-9992.780217,0.000000
376.762699,-3256.906145,-9548.656652,0.000000
376.763027,-1924.535449,-9400.615463,229.828649
376.763354,0.000000,-8734.430116,842.705048
376.763682,1702.473667,-8512.368333,766.095498
376.764009,2738.761985,-8734.430116,919.314598
376.764337,3478.967927,-8438.347739,1455.581446
376.764665,2812.782580,-8808.450710,1378.971896
376.764992,1924.535449,-9474.636058,612.876398
376.765320,222.061783,-10214.842000,995.924147
376.765648,-962.267725,-10881.027347,689.485948
376.765975,-1702.473667,-11473.192101,459.657299
376.766303,-1850.514855,-10807.006753,383.047749
376.766630,-1036.288319,-9918.759623,689.485948
376.766958,0.000000,-9400.615463,459.657299
376.767286,666.185348,-9178.553681,459.657299
376.767613,1406.391290,-8364.327145,459.657299
376.767941,1258.350101,-8068.244768,842.705048
376.768268,962.267725,-7772.162391,1225.752797
376.768596,-296.082377,-8068.244768,919.314598
376.768924,-1628.453072,-9030.512492,306.438199
376.769251,-2960.823768,-9622.677246,229.828649
376.769579,-3478.967927,-9548.656652,0.000000
376.769906,-2738.761985,-9104.533087,-153.219100
376.770234,-1480.411884,-8364.327145,0.000000
376.770562,-148.041188,-8364.327145,612.876398
376.770889,1184.329507,-8068.244768,766.095498
376.771217,1628.453072,-7920.203579,1149.143247
376.771545,2072.576638,-7772.162391,1455.581446
376.771872,1702.473667,-8438.347739,1532.190996
376.772200,740.205942,-9252.574275,1149.143247
376.772527,-592.164754,-10288.862594,1072.533697
376.772855,-1554.432478,-10732.986159,842.705048
376.773183,-2072.576638,-10584.944971,842.705048
376.773510,-1628.453072,-10214.842000,1072.533697
376.773838,-962.267725,-9696.697840,919.314598
376.774165,148.041188,-9030.512492,383.047749
376.774493,444.123565,-8364.327145,842.705048
376.774821,1554.432478,-7772.162391,612.876398
376.775148,1480.411884,-7920.203579,1608.800546
376.775476,740.205942,-7846.182985,689.485948
376.775803,-370.102971,-8216.285956,766.095498
376.776131,-1628.453072,-9252.574275,306.438199
376.776459,-2886.803174,-9622.677246,76.609550
376.776786,-3256.906145,-9622.677246,0.000000
376.777114,-2738.761985,-8882.471304,0.000000
376.777441,-1628.453072,-8660.409521,-383.047749
376.777769,0.000000,-8512.368333,76.609550
376.778097,962.267725,-8216.285956,76.609550
376.778424,1924.535449,-7920.203579,689.485948
376.778752,2146.597232,-7476.080014,612.876398
376.779080,1554.432478,-8290.306550,689.485948
376.779407,444.123565,-9104.533087,306.438199
376.779735,-592.164754,-10288.862594,153.219100
376.780062,-1554.432478,-10881.027347,0.000000
376.780390,-2368.659014,-10362.883188,-766.095498
376.780718,-1776.494261,-10510.924376,0.000000
376.781045,-888.247130,-10288.862594,0.000000
376.781373,74.020594,-9252.574275,76.609550
376.781700,1776.494261,-8290.306550,383.047749
376.782028,2812.782580,-7846.182985,995.924147
376.782356,2590.720797,-7624.121203,689.485948
376.782683,2072.576638,-8216.285956,842.705048
376.783011,666.185348,-8808.450710,766.095498
376.783338,-666.185348,-9474.636058,306.438199
376.783666,-1924.535449,-10140.821405,919.314598
376.783994,-2220.617826,-9770.718434,76.609550
376.784321,-1776.494261,-9474.636058,76.609550
376.784649,0.000000,-9252.574275,842.705048
376.784977,1036.288319,-8808.450710,1149.143247
376.785304,1998.556043,-8290.306550,1455.581446
376.785632,2368.659014,-8808.450710,1608.800546
376.785959,2072.576638,-8586.388927,1608.800546
376.786287,740.205942,-9178.553681,1455.581446
376.786615,-444.123565,-9548.656652,1608.800546
376.786942,-1702.473667,-10436.903782,1149.143247
376.787270,-3182.885551,-10288.862594,612.876398
376.787597,-3404.947333,-10584.944971,459.657299
376.787925,-3034.844362,-9696.697840,306.438199
376.788253,-1924.535449,-9252.574275,612.876398
376.788580,-1110.308913,-8734.430116,383.047749
376.788908,-222.061783,-8142.265362,76.609550
376.789235,148.041188,-7698.141797,459.657299
376.789563,370.102971,-7846.182985,1149.143247
376.789891,-222.061783,-7772.162391,919.314598
376.790218,-1258.350101,-8734.430116,919.314598
376.790546,-2220.617826,-9252.574275,612.876398
376.790874,-3330.926739,-9548.656652,306.438199
376.791201,-3256.906145,-9770.718434,0.000000
376.791529,-2368.659014,-9474.636058,0.000000
376.791856,-666.185348,-8882.471304,0.000000
376.792184,1480.411884,-8956.491898,536.266849
376.792512,2368.659014,-7920.203579,689.485948
376.792839,3034.844362,-7994.224174,995.924147
376.793167,3034.844362,-8216.285956,919.314598
376.793494,2072.576638,-8660.409521,919.314598
376.793822,666.185348,-9770.718434,536.266849
376.794150,-1258.350101,-10510.924376,689.485948
376.794477,-1850.514855,-10955.047942,-229.828649
376.794805,-2368.659014,-10807.006753,0.000000
376.795132,-1924.535449,-10140.821405,-612.876398
376.795460,-518.144159,-9400.615463,-153.219100
376.795788,666.185348,-8586.388927,-153.219100
376.796115,1998.556043,-7772.162391,0.000000
376.796443,2368.659014,-7328.038826,76.609550
376.796770,2072.576638,-7328.038826,306.438199
376.797098,1036.288319,-7772.162391,459.657299
376.797426,-296.082377,-8512.368333,536.266849
376.797753,-1702.473667,-9474.636058,0.000000
376.798081,-2516.700203,-10066.800811,-306.438199
376.798409,-2664.741391,-9770.718434,-383.047749
376.798736,-1776.494261,-9474.636058,0.000000
376.799064,0.000000,-8956.491898,689.485948
376.799391,1480.411884,-8216.285956,383.047749
376.799719,2368.659014,-8364.327145,1072.533697
376.800047,2442.679609,-8216.285956,1378.971896
376.800374,2220.617826,-8586.388927,1455.581446
376.800702,1036.288319,-9326.594869,1225.752797
376.801029,0.000000,-9992.780217,1455.581446
376.801357,-1554.432478,-10510.924376,842.705048
376.801685,-2368.659014,-10732.986159,919.314598
376.802012,-2442.679609,-10584.944971,842.705048
376.802340,-2072.576638,-9696.697840,842.705048
376.802667,-1110.308913,-9178.553681,1378.971896
376.802995,0.000000,-8808.450710,1149.143247
376.803323,444.123565,-8438.347739,1149.143247
376.803650,888.247130,-8142.265362,1378.971896
376.803978,370.102971,-8364.327145,1302.362347
376.804306,0.000000,-8660.409521,2068.457845
376.804633,-1554.432478,-9400.615463,689.485948
376.804961,-3108.864956,-9992.780217,612.876398
376.805288,-3775.050304,-9770.718434,0.000000
376.805616,-3182.885551,-9548.656652,0.000000
376.805944,-1998.556043,-9104.533087,0.000000
376.806271,-370.102971,-8512.368333,689.485948
376.806599,518.144159,-8512.368333,612.876398
376.806926,1702.473667,-8364.327145,612.876398
376.807254,1924.535449,-8364.327145,995.924147
376.807582,1702.473667,-8808.450710,995.924147
376.807909,740.205942,-9178.553681,995.924147
376.808237,-222.061783,-10436.903782,1072.533697
376.808564,-1702.473667,-10955.047942,536.266849
376.808892,-2442.679609,-11029.068536,229.828649
376.809220,-2146.597232,-10584.944971,-229.828649
376.809547,-1628.453072,-9770.718434,0.000000
376.809875,0.000000,-9252.574275,-842.705048
376.810203,1332.370696,-8808.450710,0.000000
376.810530,2368.659014,-7772.162391,76.609550
376.810858,2812.782580,-7624.121203,689.485948
376.811185,2812.782580,-7920.203579,995.924147
376.811513,1332.370696,-8512.368333,536.266849
376.811841,-296.082377,-9844.739029,459.657299
376.812168,-1628.453072,-10214.842000,0.000000
376.812496,-2368.659014,-10584.944971,0.000000
376.812823,-2220.617826,-10214.842000,153.219100
376.813151,-222.061783,-9622.677246,229.828649
376.813479,814.226536,-8956.491898,766.095498
376.813806,2146.597232,-8142.265362,995.924147
376.814134,2812.782580,-7994.224174,1225.752797
376.814461,2590.720797,-7994.224174,1532.190996
376.814789,1628.453072,-7920.203579,1838.629195
376.815117,370.102971,-8882.471304,1225.752797
376.815444,-962.267725,-9696.697840,919.314598
376.815772,-2146.597232,-10214.842000,689.485948
376.816099,-2590.720797,-10362.883188,612.876398
376.816427,-2516.700203,-9474.636058,842.705048
376.816755,-1628.453072,-9474.636058,766.095498
376.817082,-666.185348,-8808.450710,1149.143247
376.817410,0.000000,-8216.285956,919.314598
376.817738,0.000000,-7920.203579,1302.362347
376.818065,0.000000,-8142.265362,1149.143247
376.818393,-370.102971,-7994.224174,1302.362347
376.818720,-1036.288319,-8364.327145,1072.533697
376.819048,-2146.597232,-9178.553681,919.314598
376.819376,-3478.967927,-9696.697840,306.438199
376.819703,-3552.988522,-9696.697840,76.609550
376.820031,-2812.782580,-9104.533087,229.828649
376.820358,-1998.556043,-8956.491898,-153.219100
376.820686,-444.123565,-8586.388927,76.609550
376.821014,962.267725,-8068.244768,383.047749
376.821341,2146.597232,-8068.244768,612.876398
376.821669,2960.823768,-7476.080014,1072.533697
376.821996,1924.535449,-8364.327145,1302.362347
376.822324,1110.308913,-9474.636058,1149.143247
376.822652,-222.061783,-10362.883188,459.657299
376.822979,-1776.494261,-10955.047942,153.219100
376.823307,-1998.556043,-10881.027347,0.000000
376.823635,-1554.432478,-10362.883188,-153.219100
376.823962,-296.082377,-9622.677246,-229.828649
376.824290,740.205942,-9104.533087,76.609550
376.824617,2590.720797,-7846.182985,306.438199
376.824945,2812.782580,-7550.100608,842.705048
376.825273,2960.823768,-7254.018232,383.047749
376.825600,1850.514855,-7920.203579,459.657299
376.825928,0.000000,-8956.491898,383.047749
376.826255,-1554.432478,-9844.739029,0.000000
376.826583,-2738.761985,-10288.862594,-306.438199
376.826911,-2738.761985,-10510.924376,-536.266849
376.827238,-2368.659014,-9770.718434,153.219100
376.827566,-888.247130,-9178.553681,383.047749
376.827893,666.185348,-8586.388927,459.657299
376.828221,1702.473667,-8290.306550,689.485948
376.828549,2368.659014,-7624.121203,842.705048
376.828876,1924.535449,-7698.141797,1072.533697
376.829204,1184.329507,-8512.368333,1149.143247
376.829532,0.000000,-9326.594869,919.314598
376.829859,-1258.350101,-10066.800811,919.314598
376.830187,-2294.638420,-10362.883188,689.485948
376.830514,-2368.659014,-10214.842000,1225.752797
376.830842,-2072.576638,-9992.780217,919.314598
376.831170,-1110.308913,-9400.615463,842.705048
376.831497,0.000000,-8808.450710,995.924147
376.831825,1036.288319,-8142.265362,995.924147
376.832152,740.205942,-7994.224174,1685.410096
376.832480,1036.288319,-7846.182985,1149.143247
376.832808,222.061783,-8290.306550,919.314598
376.833135,-1110.308913,-8956.491898,995.924147
376.833463,-2294.638420,-9474.636058,612.876398
376.833790,-3108.864956,-9548.656652,612.876398
376.834118,-3182.885551,-9474.636058,76.609550
376.834446,-2516.700203,-9474.636058,76.609550
376.834773,-888.247130,-9178.553681,306.438199
376.835101,370.102971,-8734.430116,383.047749
376.835428,1628.453072,-8068.244768,1072.533697
376.835756,2294.638420,-8512.368333,1072.533697
376.836084,1702.473667,-8216.285956,1225.752797
376.836411,814.226536,-8882.471304,1225.752797
376.836739,-296.082377,-9548.656652,689.485948
376.837067,-1628.453072,-10066.800811,689.485948
376.837394,-2368.659014,-10658.965565,0.000000
376.837722,-2812.782580,-10584.944971,-536.266849
376.838049,-2368.659014,-10066.800811,-459.657299
376.838377,-518.144159,-9474.636058,-229.828649
376.838705,740.205942,-8734.430116,153.219100
376.839032,2072.576638,-7772.162391,153.219100
376.839360,2442.679609,-7476.080014,76.609550
376.839687,2220.617826,-7994.224174,612.876398
376.840015,1110.308913,-8438.347739,459.657299
376.840343,-296.082377,-9474.636058,229.828649
376.840670,-1850.514855,-10066.800811,536.266849
376.840998,-2368.659014,-10214.842000,-229.828649
376.841325,-2368.659014,-9844.739029,-306.438199
376.841653,-1332.370696,-9770.718434,76.609550
376.841981,222.061783,-8956.491898,612.876398
376.842308,1924.535449,-8068.244768,919.314598
376.842636,2886.803174,-7698.141797,1378.971896
376.842964,2886.803174,-8216.285956,1455.581446
376.843291,2072.576638,-8364.327145,1608.800546
376.843619,1110.308913,-8734.430116,1378.971896
376.843946,0.000000,-9474.636058,1302.362347
376.844274,-1036.288319,-10066.800811,1302.362347
376.844602,-2368.659014,-10732.986159,766.095498
376.844929,-2442.679609,-9918.759623,536.266849
376.845257,-1924.535449,-9696.697840,536.266849
376.845584,-814.226536,-9326.594869,612.876398
376.845912,-444.123565,-8364.327145,766.095498
376.846240,296.082377,-8216.285956,919.314598
376.846567,592.164754,-7698.141797,842.705048
376.846895,296.082377,-7772.162391,1149.143247
376.847223,-296.082377,-8290.306550,1225.752797
376.847550,-1998.556043,-8882.471304,1225.752797
376.847878,-2368.659014,-9474.636058,536.266849
376.848205,-3108.864956,-9844.739029,383.047749
376.848533,-2960.823768,-9400.615463,153.219100
376.848861,-1702.473667,-9104.533087,76.609550
376.849188,-296.082377,-9030.512492,919.314598
376.849516,962.267725,-8956.491898,766.095498
376.849844,1850.514855,-8586.388927,1149.143247
376.850171,2220.617826,-8438.347739,1378.971896
376.850499,1628.453072,-8586.388927,1455.581446
376.850826,0.000000,-9474.636058,1302.362347
376.851154,-740.205942,-10140.821405,612.876398
376.851482,-1776.494261,-10584.944971,536.266849
376.851809,-2516.700203,-10658.965565,76.609550
376.852137,-2294.638420,-10066.800811,0.000000
376.852464,-1258.350101,-9696.697840,0.000000
376.852792,370.102971,-9104.533087,306.438199
376.853120,1258.350101,-8364.327145,153.219100
376.853447,1628.453072,-7772.162391,612.876398
376.853775,1924.535449,-7846.182985,459.657299
376.854103,1184.329507,-8216.285956,612.876398
376.854430,0.000000,-8068.244768,229.828649
376.854758,-962.267725,-9104.533087,229.828649
376.855085,-2220.617826,-10066.800811,0.000000
376.855413,-2590.720797,-10214.842000,-306.438199
376.855741,-2146.597232,-9770.718434,-229.828649
376.856068,-592.164754,-8956.491898,0.000000
376.856396,666.185348,-8364.327145,383.047749
376.856724,2368.659014,-8290.306550,612.876398
376.857051,2886.803174,-8142.265362,1072.533697
376.857379,2886.803174,-8142.265362,1225.752797
376.857706,2220.617826,-8734.430116,995.924147
376.858034,888.247130,-9474.636058,1455.581446
376.858362,-592.164754,-10214.842000,919.314598
376.858689,-1628.453072,-10510.924376,842.705048
376.859017,-2294.638420,-10362.883188,536.266849
376.859344,-2146.597232,-10214.842000,536.266849
376.859672,-1406.391290,-9548.656652,689.485948
376.860000,-370.102971,-8882.471304,1149.143247
376.860327,444.123565,-8142.265362,995.924147
376.860655,518.144159,-7994.224174,842.705048
376.860983,74.020594,-7994.224174,842.705048
376.861310,0.000000,-8142.265362,536.266849
376.861638,-1332.370696,-8364.327145,689.485948
376.861965,-2516.700203,-8882.471304,459.657299
376.862293,-3478.967927,-9400.615463,229.828649
376.862621,-3701.029710,-9548.656652,-153.219100
376.862948,-3034.844362,-9252.574275,0.000000
376.863276,-1702.473667,-9030.512492,612.876398
376.863604,0.000000,-8438.347739,459.657299
376.863931,740.205942,-8438.347739,766.095498
376.864259,1258.350101,-8364.327145,1072.533697
376.864586,1332.370696,-8290.306550,1455.581446
376.864914,1184.329507,-8438.347739,919.314598
376.865242,518.144159,-9104.533087,919.314598
376.865569,-666.185348,-10140.821405,689.485948
376.865897,-1702.473667,-10658.965565,76.609550
376.866224,-2072.576638,-10436.903782,0.000000
376.866552,-1480.411884,-9474.636058,306.438199
376.866880,-148.041188,-9622.677246,153.219100
376.867207,1258.350101,-8956.491898,0.000000
376.867535,1406.391290,-8364.327145,536.266849
376.867863,2664.741391,-7846.182985,536.266849
376.868190,2368.659014,-7920.203579,919.314598
376.868518,1998.556043,-8438.347739,612.876398
376.868845,148.041188,-9474.636058,459.657299
376.869173,-1332.370696,-10362.883188,76.609550
376.869501,-2664.741391,-10288.862594,-536.266849
376.869828,-2516.700203,-10436.903782,153.219100
376.870156,-1554.432478,-9548.656652,-229.828649
376.870484,-296.082377,-9030.512492,-153.219100
376.870811,1406.391290,-8364.327145,0.000000
376.871139,2738.761985,-7920.203579,536.266849
376.871466,2812.782580,-7846.182985,1072.533697
376.871794,2368.659014,-7920.203579,1225.752797
376.872122,1480.411884,-9104.533087,1378.971896
376.872449,-444.123565,-9992.780217,995.924147
376.872777,-1480.411884,-10807.006753,842.705048
376.873104,-2072.576638,-11103.089130,766.095498
376.873432,-2368.659014,-10807.006753,1225.752797
376.873760,-1850.514855,-10214.842000,995.924147
376.874087,-1036.288319,-9400.615463,766.095498
376.874415,148.041188,-9178.553681,1072.533697
376.874743,666.185348,-8142.265362,919.314598
376.875070,444.123565,-8290.306550,1149.143247
376.875398,592.164754,-8068.244768,689.485948
376.875725,-222.061783,-8364.327145,919.314598
376.876053,-1258.350101,-8956.491898,919.314598
376.876381,-2368.659014,-9622.677246,383.047749
376.876708,-3923.091493,-9770.718434,459.657299
376.877036,-3330.926739,-9474.636058,536.266849
376.877364,-2516.700203,-9252.574275,153.219100
376.877691,-1554.432478,-8956.491898,229.828649
376.878019,148.041188,-8586.388927,536.266849
376.878346,1776.494261,-8512.368333,1225.752797
376.878674,2368.659014,-7846.182985,1455.581446
376.879002,2072.576638,-8512.368333,1532.190996
376.879329,1184.329507,-9030.512492,1455.581446
376.879657,-370.102971,-9844.739029,766.095498
376.879984,-1628.453072,-10510.924376,459.657299
376.880312,-2220.617826,-10140.821405,459.657299
376.880640,-1998.556043,-10288.862594,-689.485948
376.880967,-1184.329507,-9770.718434,0.000000
376.881295,370.102971,-9252.574275,0.000000
376.881623,1554.432478,-8956.491898,306.438199
376.881950,2368.659014,-7846.182985,995.924147
376.882278,2590.720797,-8068.244768,383.047749
376.882605,1776.494261,-8142.265362,536.266849
376.882933,518.144159,-8586.388927,306.438199
376.883261,-666.185348,-9474.636058,306.438199
376.883588,-2220.617826,-9992.780217,-689.485948
376.883916,-3256.906145,-9770.718434,-153.219100
376.884244,-2368.659014,-9622.677246,-229.828649
376.884571,-1702.473667,-9104.533087,-306.438199
376.884899,0.000000,-8216.285956,-153.219100
376.885226,1628.453072,-7920.203579,153.219100
376.885554,2960.823768,-7328.038826,919.314598
376.885882,3108.864956,-7179.997637,1072.533697
376.886209,2368.659014,-7846.182985,1149.143247
376.886537,1628.453072,-8808.450710,1378.971896
376.886864,0.000000,-9622.677246,1225.752797
376.887192,-1110.308913,-10140.821405,842.705048
376.887520,-2294.638420,-10214.842000,766.095498
376.887847,-1998.556043,-10140.821405,612.876398
376.888175,-1480.411884,-9696.697840,919.314598
376.888503,0.000000,-8956.491898,1149.143247
376.888830,370.102971,-7920.203579,995.924147
376.889158,1258.350101,-7846.182985,1149.143247
376.889485,740.205942,-7772.162391,1072.533697
376.889813,222.061783,-7772.162391,1225.752797
376.890141,-1036.288319,-8438.347739,842.705048
376.890468,-1924.535449,-8956.491898,1225.752797
376.890796,-3256.906145,-9326.594869,229.828649
376.891124,-3552.988522,-9326.594869,306.438199
376.891451,-2886.803174,-9104.533087,229.828649
376.891779,-2146.597232,-8734.430116,536.266849
376.892106,-370.102971,-8216.285956,919.314598
376.892434,592.164754,-7846.182985,919.314598
376.892762,1258.350101,-7920.203579,1072.533697
376.893089,1628.453072,-8142.265362,1915.238745
376.893417,888.247130,-8586.388927,1685.410096
376.893744,0.000000,-9474.636058,1455.581446
376.894072,-1406.391290,-9918.759623,1225.752797
376.894400,-2294.638420,-10732.986159,766.095498
376.894727,-2960.823768,-10510.924376,0.000000
376.895055,-2368.659014,-10362.883188,-229.828649
376.895383,-1480.411884,-9770.718434,-76.609550
376.895710,222.061783,-9400.615463,0.000000
376.896038,1036.288319,-8734.430116,-229.828649
376.896365,1924.535449,-8290.306550,153.219100
376.896693,1924.535449,-8216.285956,229.828649
376.897021,1702.473667,-8734.430116,459.657299
376.897348,-296.082377,-8882.471304,229.828649
376.897676,-1110.308913,-9696.697840,0.000000
376.898004,-2442.679609,-10288.862594,-229.828649
376.898331,-3108.864956,-10436.903782,-995.924147
376.898659,-2516.700203,-9844.739029,-995.924147
376.898986,-1036.288319,-9252.574275,-612.876398
376.899314,1036.288319,-8438.347739,0.000000
376.899642,2516.700203,-7772.162391,76.609550
376.899969,3627.009116,-7624.121203,459.657299
376.900297,3701.029710,-7624.121203,919.314598
376.900624,2664.741391,-8290.306550,766.095498
376.900952,1406.391290,-9474.636058,689.485948
376.901280,0.000000,-10140.821405,689.485948
376.901607,-1554.432478,-11177.109724,383.047749
376.901935,-1998.556043,-10955.047942,229.828649
376.902263,-1998.556043,-10584.944971,306.438199
376.902590,-592.164754,-9992.780217,536.266849
376.902918,296.082377,-9104.533087,612.876398
376.903245,962.267725,-8216.285956,459.657299
376.903573,1332.370696,-7846.182985,689.485948
376.903901,1258.350101,-7698.141797,612.876398
376.904228,296.082377,-7920.203579,612.876398
376.904556,-740.205942,-8290.306550,766.095498
376.904884,-2220.617826,-9474.636058,459.657299
376.905211,-3034.844362,-9326.594869,306.438199
376.905539,-3330.926739,-9252.574275,383.047749
376.905866,-2442.679609,-9030.512492,536.266849
376.906194,-888.247130,-9178.553681,1072.533697
376.906522,0.000000,-8586.388927,1225.752797
376.906849,1110.308913,-7920.203579,1225.752797
376.907177,1628.453072,-7920.203579,1455.581446
376.907504,1110.308913,-8438.347739,1685.410096
376.907832,592.164754,-8882.471304,1608.800546
376.908160,-740.205942,-9326.594869,995.924147
376.908487,-1850.514855,-9844.739029,995.924147
376.908815,-2590.720797,-10140.821405,459.657299
376.909143,-3034.844362,-10140.821405,0.000000
376.909470,-2516.700203,-9474.636058,153.219100
376.909798,-1110.308913,-8734.430116,0.000000
376.910125,-296.082377,-8660.409521,0.000000
376.910453,518.144159,-7994.224174,76.609550
376.910781,1332.370696,-8142.265362,459.657299
376.911108,1184.329507,-7772.162391,612.876398
376.911436,370.102971,-7698.141797,995.924147
376.911764,-592.164754,-9178.553681,536.266849
376.912091,-2146.597232,-9918.759623,229.828649
376.912419,-2960.823768,-10214.842000,0.000000
376.912746,-2590.720797,-9992.780217,-689.485948
376.913074,-1258.350101,-9104.533087,153.219100
376.913402,666.185348,-8660.409521,-383.047749
376.913729,2590.720797,-7772.162391,306.438199
376.914057,3701.029710,-7550.100608,919.314598
376.914384,3923.091493,-7550.100608,1225.752797
376.914712,3404.947333,-8068.244768,1915.238745
376.915040,2738.761985,-9474.636058,1685.410096
376.915367,592.164754,-10214.842000,1225.752797
376.915695,-666.185348,-11177.109724,1072.533697
376.916023,-2072.576638,-11473.192101,766.095498
376.916350,-2146.597232,-10955.047942,536.266849
376.916678,-1776.494261,-10288.862594,842.705048
376.917005,-370.102971,-9770.718434,919.314598
376.917333,74.020594,-9104.533087,766.095498
376.917661,592.164754,-8438.347739,612.876398
376.917988,222.061783,-8068.244768,612.876398
376.918316,222.061783,-7698.141797,766.095498
376.918644,-370.102971,-7994.224174,612.876398
376.918971,-2146.597232,-8734.430116,306.438199
376.919299,-3330.926739,-9474.636058,0.000000
376.919626,-3775.050304,-9844.739029,153.219100
376.919954,-3256.906145,-9030.512492,383.047749
376.920282,-2146.597232,-8808.450710,76.609550
376.920609,-740.205942,-8956.491898,612.876398
376.920937,518.144159,-8882.471304,919.314598
376.921264,1406.391290,-8660.409521,1225.752797
376.921592,1702.473667,-8068.244768,1532.190996
376.921920,1480.411884,-8438.347739,1685.410096
376.922247,666.185348,-9326.594869,1378.971896
376.922575,0.000000,-10288.862594,919.314598
376.922903,-1110.308913,-10658.965565,459.657299
376.923230,-1776.494261,-10658.965565,536.266849
376.923558,-1258.350101,-10436.903782,76.609550
376.923885,-962.267725,-9844.739029,153.219100
376.924213,0.000000,-9252.574275,0.000000
376.924541,1332.370696,-9104.533087,229.828649
376.924868,1702.473667,-8290.306550,459.657299
376.925196,1924.535449,-8364.327145,459.657299
376.925524,1406.391290,-8216.285956,919.314598
376.925851,296.082377,-8660.409521,689.485948
376.926179,-1628.453072,-9252.574275,229.828649
376.926506,-2812.782580,-9844.739029,0.000000
376.926834,-3923.091493,-9696.697840,-306.438199
376.927162,-3256.906145,-9474.636058,-842.705048
376.927489,-2146.597232,-8808.450710,-995.924147
376.927817,-148.041188,-8068.244768,-612.876398
376.928144,1924.535449,-7476.080014,0.000000
376.928472,3330.926739,-7105.977043,689.485948
376.928800,3478.967927,-7402.059420,1149.143247
376.929127,2812.782580,-8216.285956,1072.533697
376.929455,1332.370696,-9252.574275,919.314598
376.929783,-444.123565,-10510.924376,689.485948
376.930110,-1628.453072,-11325.150913,612.876398
376.930438,-2294.638420,-10732.986159,1072.533697
376.930765,-1554.432478,-10584.944971,766.095498
376.931093,-666.185348,-9918.759623,842.705048
376.931421,666.185348,-9252.574275,1378.971896
376.931748,1628.453072,-8512.368333,1225.752797
376.932076,1702.473667,-8142.265362,1532.190996
376.932404,1850.514855,-7476.080014,995.924147
376.932731,518.144159,-7846.182985,919.314598
376.933059,-592.164754,-8290.306550,1149.143247
376.933386,-1924.535449,-9178.553681,842.705048
376.933714,-3108.864956,-9474.636058,995.924147
376.934042,-3552.988522,-9104.533087,536.266849
376.934369,-3108.864956,-9326.594869,612.876398
376.934697,-2294.638420,-9030.512492,536.266849
376.935024,-1036.288319,-8734.430116,689.485948
376.935352,0.000000,-7846.182985,1149.143247
376.935680,814.226536,-7846.182985,689.485948
376.936007,962.267725,-7920.203579,1455.581446
376.936335,666.185348,-8142.265362,1455.581446
376.936663,-148.041188,-9104.533087,1532.190996
376.936990,-1406.391290,-9770.718434,612.876398
376.937318,-2368.659014,-9844.739029,612.876398
376.937645,-2664.741391,-10288.862594,0.000000
376.937973,-2590.720797,-10214.842000,0.000000
376.938301,-1480.411884,-9844.739029,0.000000
376.938628,148.041188,-9326.594869,0.000000
376.938956,1406.391290,-8438.347739,153.219100
376.939284,1998.556043,-8068.244768,689.485948
376.939611,2220.617826,-8142.265362,612.876398
376.939939,1406.391290,-8586.388927,766.095498
376.940266,74.020594,-9178.553681,153.219100
376.940594,-1776.494261,-9844.739029,229.828649
376.940922,-2146.597232,-10362.883188,0.000000
376.941249,-2738.761985,-10510.924376,-689.485948
376.941577,-1776.494261,-9548.656652,-842.705048
376.941904,74.020594,-8956.491898,-383.047749
376.942232,1850.514855,-8438.347739,-842.705048
376.942560,2738.761985,-7624.121203,766.095498
376.942887,3701.029710,-7698.141797,766.095498
376.943215,3182.885551,-7846.182985,995.924147
376.943543,2072.576638,-8734.430116,1225.752797
376.943870,814.226536,-9548.656652,689.485948
376.944198,-666.185348,-10214.842000,919.314598
376.944525,-1850.514855,-11029.068536,383.047749
376.944853,-2516.700203,-10881.027347,76.609550
376.945181,-1998.556043,-10140.821405,76.609550
376.945508,-666.185348,-9770.718434,306.438199
376.945836,0.000000,-9326.594869,0.000000
376.946163,888.247130,-8364.327145,536.266849
376.946491,1184.329507,-7846.182985,459.657299
376.946818,1110.308913,-7624.121203,383.047749
376.947146,296.082377,-8290.306550,842.705048
376.947473,-1110.308913,-9030.512492,383.047749
376.947801,-2442.679609,-9474.636058,995.924147
376.948128,-3108.864956,-9918.759623,459.657299
376.948456,-3108.864956,-9844.739029,306.438199
376.948783,-2516.700203,-9474.636058,536.266849
376.949111,-888.247130,-8734.430116,842.705048
376.949438,444.123565,-8586.388927,1072.533697
376.949766,1480.411884,-7994.224174,1455.581446
376.950093,1554.432478,-8142.265362,1532.190996
376.950421,1332.370696,-8068.244768,1455.581446
376.950748,592.164754,-8734.430116,1608.800546
376.951076,-592.164754,-9178.553681,1149.143247
376.951403,-1554.432478,-9844.739029,689.485948
376.951731,-2220.617826,-10214.842000,383.047749
376.952058,-2294.638420,-9992.780217,0.000000
376.952386,-1850.514855,-9696.697840,306.438199
376.952713,-518.144159,-9844.739029,459.657299
376.953041,888.247130,-9178.553681,536.266849
376.953368,1258.350101,-8808.450710,766.095498
376.953696,1628.453072,-8512.368333,919.314598
376.954023,1480.411884,-8512.368333,1149.143247
376.954351,888.247130,-8586.388927,1225.752797
376.954678,-370.102971,-8956.491898,306.438199
376.955006,-2146.597232,-10066.800811,76.609550
376.955333,-3034.844362,-10066.800811,-306.438199
376.955661,-2664.741391,-9622.677246,-536.266849
376.955988,-1554.432478,-8660.409521,0.000000
376.956316,148.041188,-8364.327145,306.438199
376.956643,1998.556043,-8216.285956,612.876398
376.956971,2886.803174,-8068.244768,612.876398
376.957298,2812.782580,-7846.182985,1149.143247
376.957626,2368.659014,-8438.347739,1455.581446
376.957953,1258.350101,-9252.574275,1455.581446
376.958281,-592.164754,-10362.883188,919.314598
376.958608,-1850.514855,-10955.047942,689.485948
376.958936,-2738.761985,-11029.068536,153.219100
376.959263,-2664.741391,-10510.924376,153.219100
376.959591,-1776.494261,-9474.636058,229.828649
376.959918,-740.205942,-9104.533087,0.000000
376.960246,814.226536,-8290.306550,76.609550
376.960573,962.267725,-7698.141797,306.438199
376.960901,1332.370696,-7476.080014,459.657299
376.961228,1406.391290,-7772.162391,1072.533697
376.961556,222.061783,-8290.306550,612.876398
376.961883,-1258.350101,-9178.553681,536.266849
376.962211,-2294.638420,-9918.759623,459.657299
376.962538,-2664.741391,-9918.759623,306.438199
376.962866,-2294.638420,-9844.739029,459.657299
376.963193,-518.144159,-9696.697840,459.657299
376.963521,0.000000,-8808.450710,919.314598
376.963848,1258.350101,-8512.368333,1072.533697
376.964176,1924.535449,-8438.347739,1302.362347
376.964503,1776.494261,-8068.244768,1532.190996
376.964831,1628.453072,-8882.471304,1532.190996
376.965158,740.205942,-9030.512492,1608.800546
376.965486,-444.123565,-9622.677246,1072.533697
376.965813,-1628.453072,-9992.780217,689.485948
376.966141,-2368.659014,-10288.862594,536.266849
376.966468,-2220.617826,-9918.759623,153.219100
376.966796,-1480.411884,-9474.636058,459.657299
376.967123,-814.226536,-9104.533087,306.438199
376.967451,0.000000,-8808.450710,689.485948
376.967778,962.267725,-8290.306550,919.314598
376.968106,1184.329507,-8216.285956,842.705048
376.968433,222.061783,-7994.224174,1685.410096
376.968761,-666.185348,-8956.491898,995.924147
376.969088,-1998.556043,-9400.615463,383.047749
376.969416,-3256.906145,-9696.697840,0.000000
376.969743,-3404.947333,-9622.677246,0.000000
376.970071,-2442.679609,-8586.388927,0.000000
376.970398,-1110.308913,-8660.409521,0.000000
376.970726,592.164754,-8290.306550,306.438199
376.971053,1998.556043,-7994.224174,536.266849
376.971381,2590.720797,-7698.141797,995.924147
376.971708,2886.803174,-8216.285956,995.924147
376.972036,1776.494261,-8216.285956,1455.581446
376.972363,888.247130,-9622.677246,1225.752797
376.972691,-370.102971,-10214.842000,766.095498
376.973018,-1702.473667,-10955.047942,612.876398
376.973346,-2072.576638,-10732.986159,612.876398
376.973673,-2146.597232,-10066.800811,459.657299
376.974001,-1110.308913,-9622.677246,0.000000
376.974328,-666.185348,-8882.471304,0.000000
376.974656,1036.288319,-8068.244768,0.000000
376.974983,1184.329507,-7698.141797,306.438199
376.975311,1924.535449,-7402.059420,229.828649
376.975638,1406.391290,-7846.182985,229.828649
376.975966,222.061783,-8364.327145,383.047749
376.976293,-1184.329507,-9326.594869,383.047749
376.976621,-2442.679609,-9918.759623,0.000000
376.976948,-2812.782580,-9548.656652,0.000000
376.977276,-2220.617826,-9622.677246,0.000000
376.977603,-1036.288319,-9474.636058,76.609550
376.977931,370.102971,-9030.512492,383.047749
376.978258,1332.370696,-8586.388927,536.266849
376.978586,2220.617826,-8438.347739,1225.752797
376.978913,2072.576638,-8068.244768,995.924147
376.979241,1554.432478,-8734.430116,1072.533697
376.979568,296.082377,-9474.636058,612.876398
376.979896,-518.144159,-10214.842000,306.438199
376.980223,-1480.411884,-10732.986159,153.219100
376.980551,-2294.638420,-9844.739029,-536.266849
376.980878,-2146.597232,-9992.780217,0.000000
376.981206,-1184.329507,-9696.697840,229.828649
376.981533,-222.061783,-9474.636058,536.266849
376.981861,518.144159,-8512.368333,842.705048
376.982188,1776.494261,-8142.265362,1072.533697
376.982516,1184.329507,-7994.224174,1225.752797
376.982843,296.082377,-8660.409521,1072.533697
376.983171,-740.205942,-9252.574275,689.485948
376.983498,-2368.659014,-9918.759623,229.828649
376.983826,-3404.947333,-9474.636058,306.438199
376.984153,-3627.009116,-10066.800811,-766.095498
376.984481,-2516.700203,-9696.697840,-459.657299
376.984808,-814.226536,-8882.471304,-153.219100
376.985136,962.267725,-8364.327145,383.047749
376.985463,2738.761985,-7772.162391,536.266849
376.985791,3034.844362,-7994.224174,689.485948
376.986118,2516.700203,-8808.450710,1149.143247
376.986446,1998.556043,-9252.574275,995.924147
376.986773,222.061783,-10288.862594,1149.143247
376.987101,-1480.411884,-10732.986159,689.485948
376.987428,-2368.659014,-11177.109724,536.266849
376.987756,-2664.741391,-11177.109724,153.219100
376.988083,-1850.514855,-11029.068536,306.438199
376.988411,-518.144159,-9474.636058,0.000000
376.988738,666.185348,-9178.553681,459.657299
376.989065,2220.617826,-7994.224174,766.095498
376.989393,1850.514855,-7994.224174,536.266849
376.989720,1850.514855,-7920.203579,612.876398
376.990048,962.267725,-8068.244768,612.876398
376.990375,-222.061783,-9104.533087,919.314598
376.990703,-1850.514855,-10214.842000,383.047749
376.991030,-2516.700203,-10214.842000,153.219100
376.991358,-2812.782580,-9918.759623,383.047749
376.991685,-1480.411884,-9770.718434,766.095498
376.992013,-296.082377,-9474.636058,1072.533697
376.992340,814.226536,-8216.285956,1378.971896
376.992668,1776.494261,-8808.450710,1532.190996
376.992995,1480.411884,-8364.327145,1685.410096
376.993323,1184.329507,-8364.327145,1532.190996
376.993650,518.144159,-8956.491898,1455.581446
376.993978,-592.164754,-8956.491898,1302.362347
376.994305,-1628.453072,-9474.636058,766.095498
376.994633,-2072.576638,-10140.821405,689.485948
376.994960,-2368.659014,-9474.636058,459.657299
376.995288,-1332.370696,-9474.636058,689.485948
376.995615,-518.144159,-9104.533087,842.705048
376.995943,592.164754,-8882.471304,1455.581446
376.996270,814.226536,-8438.347739,1149.143247
376.996598,1036.288319,-8216.285956,1302.362347
376.996925,592.164754,-7920.203579,1072.533697
376.997253,-370.102971,-8438.347739,1378.971896
376.997580,-1702.473667,-9178.553681,766.095498
376.997908,-2442.679609,-9474.636058,612.876398
376.998235,-3108.864956,-9474.636058,-229.828649
376.998563,-2590.720797,-8956.491898,-306.438199
376.998890,-888.247130,-9030.512492,0.000000
376.999218,370.102971,-7920.203579,306.438199
376.999545,1924.535449,-7698.141797,842.705048
376.999873,2368.659014,-7920.203579,919.314598
377.000200,2442.679609,-8142.265362,995.924147
377.000528,1924.535449,-8586.388927,1225.752797
377.000855,888.247130,-9104.533087,1072.533697
377.001183,-592.164754,-9918.759623,842.705048
377.001510,-1776.494261,-10881.027347,306.438199
377.001838,-2516.700203,-11029.068536,0.000000
377.002165,-2664.741391,-10214.842000,-383.047749
377.002493,-1184.329507,-9474.636058,-306.438199
377.002820,-518.144159,-8438.347739,-459.657299
377.003148,1184.329507,-7994.224174,-306.438199
377.003475,1776.494261,-7550.100608,-153.219100
377.003803,2220.617826,-7254.018232,0.000000
377.004130,1924.535449,-7698.141797,0.000000
377.004458,518.144159,-8660.409521,0.000000
377.004785,-740.205942,-9696.697840,229.828649
377.005113,-2072.576638,-10140.821405,0.000000
377.005440,-2664.741391,-10066.800811,76.609550
377.005768,-2368.659014,-9992.780217,0.000000
377.006095,-740.205942,-9104.533087,229.828649
377.006423,222.061783,-8882.471304,383.047749
377.006750,1480.411884,-8586.388927,842.705048
377.007078,1776.494261,-7772.162391,919.314598
377.007405,2220.617826,-7994.224174,1225.752797
377.007733,1480.411884,-8216.285956,1302.362347
377.008060,74.020594,-8808.450710,1149.143247
377.008388,-1036.288319,-9918.759623,689.485948
377.008715,-2072.576638,-10362.883188,459.657299
377.009043,-2590.720797,-10214.842000,612.876398
377.009370,-2294.638420,-10214.842000,76.609550
377.009698,-1406.391290,-9474.636058,689.485948
377.010025,-518.144159,-8956.491898,536.266849
377.010353,296.082377,-8660.409521,919.314598
377.010680,666.185348,-8290.306550,919.314598
377.011008,1036.288319,-8068.244768,1302.362347
377.011335,592.164754,-8438.347739,612.876398
377.011663,-740.205942,-8512.368333,995.924147
377.011990,-2368.659014,-9474.636058,459.657299
377.012318,-3108.864956,-9918.759623,153.219100
377.012645,-3478.967927,-9622.677246,0.000000
377.012973,-2368.659014,-9178.553681,306.438199
377.013300,-1036.288319,-8734.430116,76.609550
377.013628,740.205942,-8438.347739,459.657299
377.013955,2294.638420,-8216.285956,995.924147
377.014283,2960.823768,-7698.141797,1225.752797
377.014610,3034.844362,-8364.327145,1455.581446
377.014938,1702.473667,-9030.512492,1685.410096
377.015265,148.041188,-10140.821405,1149.143247
377.015593,-1554.432478,-10732.986159,536.266849
377.015920,-2664.741391,-10881.027347,306.438199
377.016248,-2664.741391,-10955.047942,153.219100
377.016575,-2220.617826,-9696.697840,766.095498
377.016903,-666.185348,-9474.636058,383.047749
377.017230,888.247130,-8512.368333,383.047749
377.017558,1628.453072,-7920.203579,306.438199
377.017885,1924.535449,-7920.203579,306.438199
377.018213,1332.370696,-7624.121203,689.485948
377.018540,666.185348,-8068.244768,612.876398
377.018868,-296.082377,-9104.533087,612.876398
377.019195,-1702.473667,-9770.718434,76.609550
377.019523,-2590.720797,-10214.842000,76.609550
377.019850,-2516.700203,-10140.821405,229.828649
377.020178,-2146.597232,-9474.636058,0.000000
377.020505,-1184.329507,-9104.533087,0.000000
377.020833,296.082377,-8882.471304,459.657299
377.021160,1480.411884,-8364.327145,536.266849
377.021488,2072.576638,-7624.121203,1072.533697
377.021815,2294.638420,-7772.162391,1302.362347
377.022143,1406.391290,-8438.347739,1149.143247
377.022470,222.061783,-9252.574275,842.705048
377.022798,-888.247130,-9992.780217,536.266849
377.023125,-1850.514855,-10288.862594,306.438199
377.023453,-1850.514855,-10140.821405,919.314598
377.023780,-1702.473667,-9622.677246,306.438199
377.024108,-370.102971,-9474.636058,919.314598
377.024435,592.164754,-8734.430116,536.266849
377.024763,1406.391290,-8290.306550,1302.362347
377.025090,2220.617826,-7698.141797,1455.581446
377.025418,1554.432478,-8068.244768,1302.362347
377.025745,148.041188,-8438.347739,1072.533697
377.026073,-1258.350101,-9030.512492,689.485948
377.026400,-2812.782580,-9548.656652,0.000000
377.026728,-3627.009116,-9400.615463,-153.219100
377.027055,-2960.823768,-9474.636058,-383.047749
377.027383,-2220.617826,-9104.533087,-229.828649
377.027710,-740.205942,-8290.306550,0.000000
377.028038,740.205942,-7846.182985,306.438199
377.028365,1702.473667,-7698.141797,842.705048
377.028693,2368.659014,-8142.265362,1072.533697
377.029020,1628.453072,-8216.285956,1149.143247
377.029348,592.164754,-9178.553681,1072.533697
377.029675,-518.144159,-9770.718434,995.924147
377.030003,-1628.453072,-10510.924376,842.705048
377.030330,-2442.679609,-10732.986159,153.219100
377.030658,-1998.556043,-10362.883188,536.266849
377.030985,-1184.329507,-9474.636058,459.657299
377.031313,0.000000,-9104.533087,536.266849
377.031640,1258.350101,-8734.430116,689.485948
377.031968,1184.329507,-7994.224174,229.828649
377.032295,1702.473667,-7772.162391,1225.752797
377.032623,1406.391290,-8290.306550,766.095498
377.032950,444.123565,-8438.347739,766.095498
377.033278,-888.247130,-9474.636058,536.266849
377.033605,-1998.556043,-9992.780217,842.705048
377.033933,-2886.803174,-10288.862594,229.828649
377.034260,-3330.926739,-9992.780217,0.000000
377.034588,-2368.659014,-9918.759623,0.000000
377.034915,-962.267725,-9252.574275,0.000000
377.035243,888.247130,-8586.388927,306.438199
377.035570,1554.432478,-8068.244768,0.000000
377.035898,2516.700203,-7846.182985,766.095498
377.036225,2072.576638,-7994.224174,995.924147
377.036553,814.226536,-8734.430116,919.314598
377.036880,-370.102971,-9770.718434,536.266849
377.037208,-1924.535449,-9918.759623,383.047749
377.037535,-2368.659014,-10732.986159,229.828649
377.037863,-1924.535449,-10362.883188,0.000000
377.038190,-1036.288319,-9844.739029,383.047749
377.038518,296.082377,-9474.636058,842.705048
377.038845,1184.329507,-8808.450710,766.095498
377.039173,2220.617826,-8216.285956,1608.800546
377.039500,1850.514855,-8142.265362,1225.752797
377.039828,1184.329507,-8142.265362,1072.533697
377.040155,0.000000,-8660.409521,919.314598
377.040483,-962.267725,-9548.656652,842.705048
377.040810,-2664.741391,-10066.800811,459.657299
377.041138,-3182.885551,-10066.800811,0.000000
377.041465,-2738.761985,-9548.656652,0.000000
377.041793,-1924.535449,-8882.471304,306.438199
377.042120,0.000000,-8290.306550,536.266849
377.042448,1554.432478,-7920.203579,536.266849
377.042775,2220.617826,-7254.018232,1149.143247
377.043103,2294.638420,-7772.162391,1532.190996
377.043430,1406.391290,-8290.306550,1915.238745
377.043758,74.020594,-9252.574275,1378.971896
377.044085,-1332.370696,-9474.636058,1378.971896
377.044413,-2294.638420,-10288.862594,919.314598
377.044740,-2960.823768,-10658.965565,612.876398
377.045068,-2516.700203,-9992.780217,459.657299
377.045395,-1554.432478,-9474.636058,536.266849
377.045723,0.000000,-8956.491898,536.266849
377.046050,666.185348,-7994.224174,459.657299
377.046378,1258.350101,-8068.244768,689.485948
377.046705,1258.350101,-7772.162391,306.438199
377.047033,444.123565,-8364.327145,536.266849
377.047360,-962.267725,-8808.450710,459.657299
377.047688,-1628.453072,-9770.718434,536.266849
377.048015,-3256.906145,-9844.739029,0.000000
377.048343,-3330.926739,-9918.759623,-153.219100
377.048670,-2664.741391,-9548.656652,-459.657299
377.048998,-1776.494261,-9030.512492,-612.876398
377.049325,148.041188,-8660.409521,76.609550
377.049653,1036.288319,-8068.244768,153.219100
377.049980,2146.597232,-7624.121203,76.609550
377.050308,2516.700203,-7920.203579,536.266849
377.050635,2294.638420,-8068.244768,1072.533697
377.050962,1258.350101,-8734.430116,536.266849
377.051290,0.000000,-9474.636058,459.657299
377.051617,-1258.350101,-9844.739029,0.000000
377.051945,-1406.391290,-10510.924376,0.000000
377.052272,-962.267725,-10732.986159,-383.047749
377.052600,0.000000,-9696.697840,153.219100
377.052927,1258.350101,-9326.594869,0.000000
377.053255,2072.576638,-8882.471304,383.047749
377.053582,2368.659014,-8512.368333,536.266849
377.053910,2516.700203,-8882.471304,612.876398
377.054237,1332.370696,-8364.327145,459.657299
377.054565,-222.061783,-9178.553681,229.828649
377.054892,-1850.514855,-10584.944971,0.000000
377.055220,-2738.761985,-10288.862594,153.219100
377.055547,-3552.988522,-9770.718434,-306.438199
377.055875,-2220.617826,-9770.718434,153.219100
377.056202,0.000000,-8660.409521,153.219100
377.056530,592.164754,-7772.162391,1072.533697
377.056857,1776.494261,-8068.244768,1149.143247
377.057185,1702.473667,-7772.162391,1225.752797
377.057512,1184.329507,-7920.203579,1225.752797
377.057840,740.205942,-9104.533087,1072.533697
377.058167,-518.144159,-9474.636058,995.924147
377.058494,-2294.638420,-10732.986159,919.314598
377.058822,-2812.782580,-10955.047942,919.314598
377.059149,-2738.761985,-10881.027347,842.705048
377.059477,-2072.576638,-9918.759623,766.095498
377.059804,-888.247130,-9918.759623,1072.533697
377.060132,0.000000,-9326.594869,1302.362347
377.060459,814.226536,-8586.388927,995.924147
377.060787,888.247130,-8142.265362,1225.752797
377.061114,1036.288319,-8512.368333,1302.362347
377.061442,0.000000,-8660.409521,1532.190996
377.061769,-1036.288319,-9474.636058,1149.143247
377.062097,-2146.597232,-9844.739029,383.047749
377.062424,-3182.885551,-10140.821405,383.047749
377.062752,-2812.782580,-9992.780217,229.828649
377.063079,-2368.659014,-9030.512492,0.000000
377.063407,-444.123565,-8956.491898,153.219100
377.063734,888.247130,-8438.347739,689.485948
377.064062,1850.514855,-7550.100608,689.485948
377.064389,2442.679609,-7476.080014,995.924147
377.064717,2590.720797,-7550.100608,1225.752797
377.065044,1554.432478,-8586.388927,1149.143247
377.065372,222.061783,-9622.677246,995.924147
377.065699,-1036.288319,-10066.800811,766.095498
377.066027,-1776.494261,-10436.903782,76.609550
377.066354,-1850.514855,-10288.862594,383.047749
377.066681,-814.226536,-9622.677246,306.438199
377.067009,0.000000,-9548.656652,306.438199
377.067336,1332.370696,-8734.430116,612.876398
377.067664,2072.576638,-8438.347739,842.705048
377.067991,2072.576638,-7846.182985,1072.533697
377.068319,1850.514855,-7846.182985,1149.143247
377.068646,592.164754,-8660.409521,689.485948
377.068974,-1110.308913,-9178.553681,459.657299
377.069301,-2294.638420,-9770.718434,0.000000
377.069629,-2886.803174,-9844.739029,0.000000
377.069956,-2664.741391,-9104.533087,536.266849
377.070284,-1554.432478,-8808.450710,383.047749
377.070611,0.000000,-8290.306550,459.657299
377.070939,1036.288319,-7772.162391,766.095498
377.071266,1850.514855,-7698.141797,1225.752797
377.071594,2146.597232,-7624.121203,1455.581446
377.071921,1554.432478,-7698.141797,1225.752797
377.072249,296.082377,-8586.388927,1072.533697
377.072576,-888.247130,-9696.697840,995.924147
377.072904,-2368.659014,-10140.821405,459.657299
377.073231,-2886.803174,-10436.903782,-229.828649
377.073559,-2812.782580,-9918.759623,0.000000
377.073886,-1850.514855,-9548.656652,-383.047749
377.074214,-814.226536,-9400.615463,-153.219100
377.074541,666.185348,-8290.306550,0.000000
377.074868,1332.370696,-8216.285956,153.219100
377.075196,1850.514855,-7698.141797,0.000000
377.075523,1332.370696,-8068.244768,612.876398
377.075851,148.041188,-8956.491898,459.657299
377.076178,-888.247130,-9474.636058,536.266849
377.076506,-2146.597232,-10066.800811,0.000000
377.076833,-2294.638420,-10362.883188,306.438199
377.077161,-2368.659014,-9474.636058,76.609550
377.077488,-740.205942,-9178.553681,0.000000
377.077816,444.123565,-8808.450710,153.219100
377.078143,1924.535449,-8216.285956,536.266849
377.078471,2516.700203,-8512.368333,995.924147
377.078798,2960.823768,-8290.306550,1149.143247
377.079126,1924.535449,-8512.368333,1225.752797
377.079453,814.226536,-9474.636058,919.314598
377.079781,-592.164754,-10214.842000,1072.533697
377.080108,-1480.411884,-10658.965565,766.095498
377.080436,-2072.576638,-10732.986159,689.485948
377.080763,-1924.535449,-10288.862594,229.828649
377.081091,-1554.432478,-9992.780217,459.657299
377.081418,-444.123565,-9326.594869,689.485948
377.081746,222.061783,-8586.388927,689.485948
377.082073,1332.370696,-8290.306550,919.314598
377.082401,888.247130,-7920.203579,995.924147
377.082728,0.000000,-7846.182985,1455.581446
377.083055,-1036.288319,-8512.368333,612.876398
377.083383,-1924.535449,-9400.615463,612.876398
377.083710,-2738.761985,-9474.636058,0.000000
377.084038,-3330.926739,-9178.553681,229.828649
377.084365,-2368.659014,-9030.512492,76.609550
377.084693,-666.185348,-8586.388927,612.876398
377.085020,888.247130,-7920.203579,842.705048
377.085348,1850.514855,-7698.141797,1455.581446
377.085675,2220.617826,-7846.182985,1685.410096
377.086003,1850.514855,-8068.244768,1838.629195
377.086330,1036.288319,-8956.491898,1608.800546
377.086658,-222.061783,-9622.677246,1378.971896
377.086985,-1258.350101,-10807.006753,995.924147
377.087313,-2368.659014,-10732.986159,766.095498
377.087640,-2664.741391,-10584.944971,306.438199
377.087968,-1776.494261,-10436.903782,153.219100
377.088295,-1258.350101,-9400.615463,229.828649
377.088623,0.000000,-8734.430116,229.828649
377.088950,74.020594,-8142.265362,383.047749
377.089278,1332.370696,-7920.203579,306.438199
377.089605,1332.370696,-7994.224174,536.266849
377.089933,888.247130,-8142.265362,459.657299
377.090260,-518.144159,-8734.430116,383.047749
377.090587,-1998.556043,-9474.636058,383.047749
377.090915,-2590.720797,-10140.821405,-153.219100
377.091242,-3256.906145,-9918.759623,-689.485948
377.091570,-2368.659014,-9770.718434,-766.095498
377.091897,-1036.288319,-9178.553681,-689.485948
377.092225,888.247130,-8364.327145,153.219100
377.092552,1776.494261,-7476.080014,-306.438199
377.092880,2738.761985,-7772.162391,536.266849
377.093207,2738.761985,-8216.285956,459.657299
377.093535,2368.659014,-8660.409521,842.705048
377.093862,1036.288319,-9844.739029,536.266849
377.094190,-222.061783,-10510.924376,153.219100
377.094517,-1628.453072,-11029.068536,-229.828649
377.094845,-1924.535449,-11177.109724,0.000000
377.095172,-1702.473667,-10510.924376,0.000000
377.095500,0.000000,-9992.780217,612.876398
377.095827,888.247130,-9252.574275,383.047749
377.096155,1406.391290,-8734.430116,689.485948
377.096482,1702.473667,-8216.285956,919.314598
377.096810,1554.432478,-7994.224174,1072.533697
377.097137,222.061783,-8586.388927,842.705048
377.097465,-666.185348,-8660.409521,1072.533697
377.097792,-2146.597232,-9548.656652,306.438199
377.098120,-2960.823768,-9770.718434,153.219100
377.098447,-2812.782580,-9474.636058,229.828649
377.098774,-1850.514855,-9252.574275,306.438199
377.099102,0.000000,-8734.430116,919.314598
377.099429,1406.391290,-8364.327145,1378.971896
377.099757,1924.535449,-7994.224174,1762.019645
377.100084,2294.638420,-8068.244768,2068.457845
377.100412,1480.411884,-8216.285956,2145.067394
377.100739,592.164754,-8882.471304,2221.676944
377.101067,-666.185348,-9770.718434,2145.067394
377.101394,-2072.576638,-10436.903782,1608.800546
377.101722,-2812.782580,-10584.944971,1072.533697
377.102049,-2886.803174,-10214.842000,1072.533697
377.102377,-2220.617826,-9474.636058,919.314598
377.102704,-222.061783,-8882.471304,1072.533697
377.103032,-222.061783,-8364.327145,689.485948
377.103359,592.164754,-7698.141797,459.657299
377.103687,1110.308913,-7624.121203,766.095498
377.104014,518.144159,-7772.162391,842.705048
377.104342,-592.164754,-7920.203579,612.876398
377.104669,-1924.535449,-9104.533087,229.828649
377.104997,-3034.844362,-9696.697840,0.000000
377.105324,-3849.070898,-9844.739029,-229.828649
377.105652,-3478.967927,-9696.697840,-612.876398
377.105979,-2516.700203,-9104.533087,-995.924147
377.106307,-444.123565,-8586.388927,-842.705048
377.106634,1036.288319,-8068.244768,-306.438199
377.106961,2368.659014,-7772.162391,0.000000
377.107289,2886.803174,-7772.162391,306.438199
377.107616,2886.803174,-8068.244768,536.266849
377.107944,2220.617826,-8438.347739,459.657299
377.108271,666.185348,-9918.759623,153.219100
377.108599,-592.164754,-10807.006753,76.609550
377.108926,-1332.370696,-11029.068536,-153.219100
377.109254,-1480.411884,-10881.027347,-229.828649
377.109581,-518.144159,-10214.842000,306.438199
377.109909,1110.308913,-9400.615463,153.219100
377.110236,1702.473667,-8734.430116,153.219100
377.110564,2812.782580,-8290.306550,383.047749
377.110891,2516.700203,-7994.224174,536.266849
377.111219,2368.659014,-8068.244768,919.314598
377.111546,962.267725,-8364.327145,612.876398
377.111874,-962.267725,-9400.615463,306.438199
377.112201,-2516.700203,-9844.739029,76.609550
377.112529,-3182.885551,-10214.842000,76.609550
377.112856,-2812.782580,-9178.553681,459.657299
377.113184,-1628.453072,-9326.594869,612.876398
377.113511,0.000000,-8734.430116,689.485948
377.113839,888.247130,-8216.285956,1455.581446
377.114166,1258.350101,-7994.224174,1225.752797
377.114494,1332.370696,-7994.224174,1838.629195
377.114821,444.123565,-8068.244768,1838.629195
377.115148,-444.123565,-9474.636058,1685.410096
377.115476,-1850.514855,-10140.821405,1378.971896
377.115803,-2960.823768,-10584.944971,1149.143247
377.116131,-3182.885551,-10658.965565,612.876398
377.116458,-2664.741391,-10214.842000,689.485948
377.116786,-1628.453072,-9474.636058,689.485948
377.117113,-740.205942,-8882.471304,766.095498
377.117441,592.164754,-8586.388927,766.095498
377.117768,1036.288319,-7994.224174,919.314598
377.118096,1036.288319,-8068.244768,1608.800546
377.118423,962.267725,-8068.244768,1072.533697
377.118751,-518.144159,-8882.471304,766.095498
377.119078,-1850.514855,-9548.656652,536.266849
377.119406,-2516.700203,-10288.862594,229.828649
377.119733,-3108.864956,-9696.697840,0.000000
377.120061,-2368.659014,-9326.594869,0.000000
377.120388,-962.267725,-9030.512492,0.000000
377.120716,888.247130,-8660.409521,76.609550
377.121043,1998.556043,-8364.327145,229.828649
377.121371,2738.761985,-7994.224174,612.876398
377.121698,2812.782580,-8068.244768,995.924147
377.122026,2368.659014,-8956.491898,842.705048
377.122353,962.267725,-9696.697840,612.876398
377.122681,-370.102971,-10436.903782,383.047749
377.123008,-1628.453072,-11029.068536,0.000000
377.123335,-1776.494261,-10955.047942,-383.047749
377.123663,-1628.453072,-10288.862594,-459.657299
377.123990,-666.185348,-9770.718434,153.219100
377.124318,592.164754,-9326.594869,153.219100
377.124645,1628.453072,-8364.327145,306.438199
377.124973,2368.659014,-7402.059420,842.705048
377.125300,2294.638420,-7328.038826,842.705048
377.125628,1184.329507,-7920.203579,612.876398
377.125955,-222.061783,-8586.388927,383.047749
377.126283,-1776.494261,-9400.615463,153.219100
377.126610,-2442.679609,-9770.718434,0.000000
377.126938,-2442.679609,-9104.533087,229.828649
377.127265,-1850.514855,-9178.553681,153.219100
377.127593,-222.061783,-9030.512492,612.876398
377.127920,1258.350101,-8438.347739,1302.362347
377.128248,1702.473667,-8216.285956,1455.581446
377.128575,1850.514855,-7846.182985,1915.238745
377.128903,1702.473667,-8660.409521,1838.629195
377.129230,814.226536,-9178.553681,1608.800546
377.129558,-444.123565,-9622.677246,1455.581446
377.129885,-1850.514855,-10214.842000,766.095498
377.130213,-2738.761985,-10584.944971,995.924147
377.130540,-3034.844362,-10362.883188,306.438199
377.130867,-2664.741391,-9548.656652,306.438199
377.131195,-1406.391290,-9030.512492,229.828649
377.131522,-444.123565,-8586.388927,383.047749
377.131850,296.082377,-7920.203579,842.705048
377.132177,888.247130,-7624.121203,919.314598
377.132505,962.267725,-7846.182985,766.095498
377.132832,148.041188,-8216.285956,1072.533697
377.133160,-888.247130,-8956.491898,459.657299
377.133487,-2368.659014,-9696.697840,612.876398
377.133815,-2664.741391,-9400.615463,76.609550
377.134142,-2886.803174,-9548.656652,0.000000
377.134470,-1850.514855,-9400.615463,0.000000
377.134797,-148.041188,-8734.430116,306.438199
377.135125,1332.370696,-8216.285956,383.047749
377.135452,2442.679609,-7846.182985,919.314598
377.135780,2738.761985,-7698.141797,1149.143247
377.136107,2368.659014,-8142.265362,1302.362347
377.136435,1628.453072,-8808.450710,1149.143247
377.136762,74.020594,-9770.718434,1072.533697
377.137090,-1110.308913,-10510.924376,306.438199
377.137417,-1924.535449,-10955.047942,536.266849
377.137745,-2220.617826,-10732.986159,0.000000
377.138072,-1480.411884,-10288.862594,306.438199
377.138400,-740.205942,-9548.656652,306.438199
377.138727,370.102971,-8882.471304,919.314598
377.139054,1184.329507,-7698.141797,153.219100
377.139382,1480.411884,-7772.162391,536.266849
377.139709,1036.288319,-7920.203579,536.266849
377.140037,222.061783,-8216.285956,383.047749
377.140364,-1036.288319,-9030.512492,306.438199
377.140692,-2220.617826,-9326.594869,229.828649
377.141019,-2664.741391,-9622.677246,-306.438199
377.141347,-2664.741391,-9548.656652,0.000000
377.141674,-1332.370696,-9252.574275,76.609550
377.142002,296.082377,-8882.471304,842.705048
377.142329,1258.350101,-8364.327145,1149.143247
377.142657,2146.597232,-8512.368333,1455.581446
377.142984,2368.659014,-8512.368333,1532.190996
377.143312,1924.535449,-8882.471304,1685.410096
377.143639,666.185348,-9400.615463,1608.800546
377.143967,-592.164754,-10140.821405,1762.019645
377.144294,-1406.391290,-11029.068536,766.095498
377.144622,-2442.679609,-10881.027347,536.266849
377.144949,-2368.659014,-10362.883188,536.266849
377.145277,-1406.391290,-9548.656652,306.438199
377.145604,-518.144159,-9252.574275,766.095498
377.145931,592.164754,-8660.409521,536.266849
377.146259,370.102971,-7920.203579,612.876398
377.146586,962.267725,-7772.162391,1072.533697
377.146914,592.164754,-8068.244768,995.924147
377.147241,-444.123565,-8512.368333,1072.533697
377.147569,-1924.535449,-9178.553681,612.876398
377.147896,-2960.823768,-9918.759623,306.438199
377.148224,-3552.988522,-9770.718434,-153.219100
377.148551,-3256.906145,-9622.677246,0.000000
377.148879,-1924.535449,-9178.553681,-153.219100
377.149206,-148.041188,-8364.327145,689.485948
377.149534,1184.329507,-8216.285956,306.438199
377.149861,1924.535449,-7698.141797,536.266849
377.150188,2072.576638,-7624.121203,766.095498
377.150516,2072.576638,-8438.347739,919.314598
377.150843,962.267725,-9104.533087,766.095498
377.151171,-222.061783,-9844.739029,766.095498
377.151498,-1332.370696,-10732.986159,0.000000
377.151826,-2072.576638,-10807.006753,-153.219100
377.152153,-1554.432478,-10732.986159,-153.219100
377.152481,-666.185348,-9992.780217,153.219100
377.152808,888.247130,-9326.594869,229.828649
377.153136,1258.350101,-8660.409521,229.828649
377.153463,2812.782580,-7698.141797,153.219100
377.153791,2368.659014,-7698.141797,536.266849
377.154118,2072.576638,-7846.182985,612.876398
377.154445,1184.329507,-8586.388927,612.876398
377.154773,-740.205942,-9178.553681,229.828649
377.155100,-1998.556043,-9918.759623,0.000000
377.155428,-2368.659014,-9770.718434,0.000000
377.155755,-1850.514855,-9474.636058,-229.828649
377.156083,-518.144159,-9474.636058,76.609550
377.156410,814.226536,-8808.450710,842.705048
377.156738,1702.473667,-8512.368333,995.924147
377.157065,2294.638420,-8142.265362,1225.752797
377.157393,2146.597232,-8290.306550,1302.362347
377.157720,1110.308913,-8956.491898,995.924147
377.158048,0.000000,-9178.553681,1532.190996
377.158375,-1480.411884,-10288.862594,842.705048
377.158702,-2368.659014,-10584.944971,766.095498
377.159030,-2812.782580,-10288.862594,766.095498
377.159357,-2368.659014,-9622.677246,919.314598
377.159685,-1258.350101,-9104.533087,919.314598
377.160012,-222.061783,-8808.450710,689.485948
377.160340,592.164754,-8068.244768,1072.533697
377.160667,592.164754,-7846.182985,1072.533697
377.160995,740.205942,-7994.224174,1532.190996
377.161322,-296.082377,-8142.265362,1685.410096
377.161650,-1184.329507,-9104.533087,1378.971896
377.161977,-2738.761985,-9696.697840,842.705048
377.162304,-3701.029710,-10066.800811,229.828649
377.162632,-3849.070898,-9992.780217,0.000000
377.162959,-3182.885551,-9400.615463,0.000000
377.163287,-1554.432478,-8734.430116,0.000000
377.163614,74.020594,-8734.430116,0.000000
377.163942,1258.350101,-7994.224174,229.828649
377.164269,2072.576638,-7698.141797,383.047749
377.164597,2368.659014,-7772.162391,995.924147
377.164924,1628.453072,-8364.327145,1072.533697
377.165252,666.185348,-9400.615463,842.705048
377.165579,-962.267725,-10288.862594,459.657299
377.165907,-1702.473667,-10807.006753,229.828649
377.166234,-2146.597232,-10436.903782,-153.219100
377.166561,-1776.494261,-9992.780217,0.000000
377.166889,-370.102971,-9400.615463,0.000000
377.167216,222.061783,-8660.409521,306.438199
377.167544,1924.535449,-7920.203579,153.219100
377.167871,2368.659014,-7476.080014,383.047749
377.168199,2368.659014,-7550.100608,0.000000
377.168526,1480.411884,-7550.100608,612.876398
377.168854,74.020594,-8512.368333,229.828649
377.169181,-1554.432478,-9326.594869,0.000000
377.169509,-2442.679609,-9844.739029,-229.828649
377.169836,-2664.741391,-9474.636058,0.000000
377.170164,-1332.370696,-9400.615463,-153.219100
377.170491,-370.102971,-8882.471304,306.438199
377.170818,814.226536,-8438.347739,689.485948
377.171146,1850.514855,-8364.327145,1149.143247
377.171473,2146.597232,-7846.182985,1455.581446
377.171801,1332.370696,-8068.244768,1608.800546
377.172128,518.144159,-9030.512492,1378.971896
377.172456,-814.226536,-9474.636058,1072.533697
377.172783,-1776.494261,-10436.903782,919.314598
377.173111,-2442.679609,-10658.965565,1225.752797
377.173438,-2368.659014,-10066.800811,689.485948
377.173766,-1850.514855,-9548.656652,766.095498
377.174093,-518.144159,-9104.533087,459.657299
377.174421,296.082377,-8438.347739,919.314598
377.174748,1036.288319,-8364.327145,766.095498
377.175075,1110.308913,-8290.306550,1072.533697
377.175403,814.226536,-8512.368333,766.095498
377.175730,-148.041188,-8882.471304,1149.143247
377.176058,-1184.329507,-9918.759623,766.095498
377.176385,-2442.679609,-10362.883188,229.828649
377.176713,-3256.906145,-10066.800811,229.828649
377.177040,-2590.720797,-10066.800811,0.000000
377.177368,-2220.617826,-9622.677246,-229.828649
377.177695,-888.247130,-8956.491898,0.000000
377.178023,814.226536,-8882.471304,229.828649
377.178350,1628.453072,-8068.244768,383.047749
377.178677,2294.638420,-8142.265362,1149.143247
377.179005,2146.597232,-8364.327145,1072.533697
377.179332,1036.288319,-9030.512492,995.924147
377.179660,0.000000,-9770.718434,842.705048
377.179987,-1258.350101,-10807.006753,0.000000
377.180315,-2738.761985,-10658.965565,0.000000
377.180642,-2738.761985,-10807.006753,-383.047749
377.180970,-1850.514855,-10066.800811,-459.657299
377.181297,-666.185348,-9474.636058,-306.438199
377.181625,1036.288319,-8438.347739,0.000000
377.181952,1776.494261,-7402.059420,612.876398
377.182280,2590.720797,-7698.141797,689.485948
377.182607,2294.638420,-7772.162391,689.485948
377.182934,962.267725,-8364.327145,766.095498
377.183262,-592.164754,-9400.615463,306.438199
377.183589,-2146.597232,-9696.697840,459.657299
377.183917,-2368.659014,-10214.842000,-306.438199
377.184244,-1776.494261,-9696.697840,229.828649
377.184572,-296.082377,-9326.594869,689.485948
377.184899,888.247130,-8734.430116,1149.143247
377.185227,1702.473667,-8142.265362,1762.019645
377.185554,2516.700203,-7698.141797,1378.971896
377.185882,2442.679609,-7624.121203,1762.019645
377.186209,1480.411884,-8142.265362,1838.629195
377.186537,74.020594,-8882.471304,1532.190996
377.186864,-1332.370696,-9548.656652,1608.800546
377.187191,-2294.638420,-10066.800811,1302.362347
377.187519,-3108.864956,-9992.780217,995.924147
377.187846,-2960.823768,-9474.636058,689.485948
377.188174,-2294.638420,-9252.574275,612.876398
377.188501,-1406.391290,-8364.327145,306.438199
377.188829,-370.102971,-7254.018232,459.657299
377.189156,-370.102971,-7179.997637,612.876398
377.189484,148.041188,-7328.038826,995.924147
377.189811,-296.082377,-7698.141797,995.924147
377.190139,-962.267725,-8364.327145,995.924147
377.190466,-2220.617826,-9030.512492,612.876398
377.190794,-3182.885551,-9326.594869,76.609550
377.191121,-3256.906145,-9844.739029,0.000000
377.191448,-2886.803174,-9548.656652,0.000000
377.191776,-1184.329507,-9178.553681,0.000000
377.192103,370.102971,-8438.347739,689.485948
377.192431,2146.597232,-8068.244768,153.219100
377.192758,2664.741391,-8438.347739,689.485948
377.193086,2960.823768,-8438.347739,1072.533697
377.193413,2368.659014,-8956.491898,689.485948
377.193741,1332.370696,-9622.677246,766.095498
377.194068,0.000000,-10732.986159,306.438199
377.194396,-1554.432478,-10807.006753,-229.828649
377.194723,-1998.556043,-10881.027347,-306.438199
377.195050,-1406.391290,-10510.924376,-383.047749
377.195378,-666.185348,-10140.821405,-536.266849
377.195705,296.082377,-9178.553681,-229.828649
377.196033,1406.391290,-8882.471304,0.000000
377.196360,1850.514855,-8290.306550,0.000000
377.196688,1850.514855,-7994.224174,76.609550
377.197015,1110.308913,-8290.306550,76.609550
377.197343,74.020594,-8882.471304,-153.219100
377.197670,-1628.453072,-9104.533087,229.828649
377.197998,-2368.659014,-10214.842000,-153.219100
377.198325,-2960.823768,-10362.883188,-383.047749
377.198653,-2220.617826,-9770.718434,0.000000
377.198980,-518.144159,-9252.574275,76.609550
377.199307,518.144159,-8808.450710,995.924147
377.199635,1776.494261,-8290.306550,1302.362347
377.199962,2590.720797,-8142.265362,1378.971896
377.200290,2368.659014,-8068.244768,1685.410096
377.200617,1406.391290,-8882.471304,1762.019645
377.200945,296.082377,-9548.656652,1608.800546
377.201272,-1110.308913,-10362.883188,1532.190996
377.201600,-2146.597232,-10807.006753,919.314598
377.201927,-2590.720797,-10658.965565,766.095498
377.202255,-2368.659014,-9770.718434,842.705048
377.202582,-518.144159,-9474.636058,1072.533697
377.202910,-148.041188,-8956.491898,1225.752797
377.203237,592.164754,-8216.285956,1302.362347
377.203564,814.226536,-8290.306550,1072.533697
377.203892,518.144159,-7920.203579,1225.752797
377.204219,0.000000,-8290.306550,1532.190996
377.204547,-888.247130,-8512.368333,1225.752797
377.204874,-2664.741391,-9400.615463,766.095498
377.205202,-3478.967927,-9696.697840,383.047749
377.205529,-3330.926739,-9548.656652,0.000000
377.205857,-2590.720797,-8734.430116,153.219100
377.206184,-1406.391290,-8142.265362,459.657299
377.206512,444.123565,-8068.244768,306.438199
377.206839,1332.370696,-8216.285956,766.095498
377.207167,1776.494261,-8068.244768,612.876398
377.207494,1850.514855,-8290.306550,1225.752797
377.207821,1110.308913,-8290.306550,842.705048
377.208149,222.061783,-9844.739029,919.314598
377.208476,-666.185348,-10658.965565,383.047749
377.208804,-1850.514855,-10807.006753,0.000000
377.209131,-1776.494261,-10510.924376,0.000000
377.209459,-1332.370696,-9844.739029,76.609550
377.209786,-370.102971,-9326.594869,0.000000
377.210114,1480.411884,-9030.512492,383.047749
377.210441,1850.514855,-8364.327145,229.828649
377.210769,2590.720797,-7772.162391,383.047749
377.211096,2368.659014,-7846.182985,459.657299
377.211423,1258.350101,-8364.327145,919.314598
377.211751,-148.041188,-9326.594869,459.657299
377.212078,-1702.473667,-10066.800811,0.000000
377.212406,-2368.659014,-10510.924376,0.000000
377.212733,-2516.700203,-10288.862594,-306.438199
377.213061,-1628.453072,-9770.718434,383.047749
377.213388,0.000000,-9252.574275,76.609550
377.213716,1702.473667,-8734.430116,612.876398
377.214043,2442.679609,-8438.347739,1072.533697
377.214371,2664.741391,-8290.306550,995.924147
377.214698,2220.617826,-8364.327145,1455.581446
377.215026,1184.329507,-9326.594869,1378.971896
377.215353,-740.205942,-9844.739029,766.095498
377.215680,-1924.535449,-10658.965565,536.266849
377.216008,-2368.659014,-10955.047942,842.705048
377.216335,-2146.597232,-10140.821405,612.876398
377.216663,-1036.288319,-9770.718434,1072.533697
377.216990,-518.144159,-9104.533087,1225.752797
377.217318,518.144159,-9252.574275,1072.533697
377.217645,888.247130,-8734.430116,1378.971896
377.217973,592.164754,-7846.182985,1072.533697
377.218300,518.144159,-8364.327145,1762.019645
377.218628,-666.185348,-8586.388927,1072.533697
377.218955,-1924.535449,-9178.553681,842.705048
377.219283,-3034.844362,-9844.739029,766.095498
377.219610,-3404.947333,-9992.780217,306.438199
377.219937,-3478.967927,-9252.574275,-229.828649
377.220265,-2220.617826,-8882.471304,-306.438199
377.220592,-888.247130,-8882.471304,153.219100
377.220920,444.123565,-8512.368333,383.047749
377.221247,1406.391290,-7994.224174,612.876398
377.221575,2146.597232,-7994.224174,689.485948
377.221902,1554.432478,-8216.285956,1149.143247
377.222230,740.205942,-8956.491898,1225.752797
377.222557,-222.061783,-9918.759623,919.314598
377.222885,-1480.411884,-10288.862594,229.828649
377.223212,-2146.597232,-10362.883188,306.438199
377.223540,-1480.411884,-9770.718434,0.000000
377.223867,-962.267725,-9548.656652,0.000000
377.224194,666.185348,-9178.553681,229.828649
377.224522,1702.473667,-8142.265362,306.438199
377.224849,2368.659014,-7698.141797,153.219100
377.225177,2738.761985,-7402.059420,689.485948
377.225504,2072.576638,-7920.203579,536.266849
377.225832,370.102971,-8364.327145,153.219100
377.226159,-888.247130,-9030.512492,0.000000
377.226487,-2294.638420,-9770.718434,-229.828649
377.226814,-3034.844362,-9548.656652,-612.876398
377.227142,-2146.597232,-9474.636058,-459.657299
377.227469,-740.205942,-8882.471304,0.000000
377.227797,592.164754,-8216.285956,306.438199
377.228124,2072.576638,-7920.203579,689.485948
377.228451,2516.700203,-7328.038826,1532.190996
377.228779,2442.679609,-7698.141797,1072.533697
377.229106,1406.391290,-8364.327145,1455.581446
377.229434,222.061783,-9326.594869,1072.533697
377.229761,-1406.391290,-10066.800811,919.314598
377.230089,-1628.453072,-10732.986159,919.314598
377.230416,-2146.597232,-10066.800811,689.485948
377.230744,-1998.556043,-9696.697840,536.266849
377.231071,-740.205942,-9326.594869,842.705048
377.231399,0.000000,-9030.512492,842.705048
377.231726,518.144159,-8290.306550,1149.143247
377.232053,740.205942,-7772.162391,229.828649
377.232381,740.205942,-7846.182985,842.705048
377.232708,0.000000,-8438.347739,995.924147
377.233036,-1258.350101,-9104.533087,919.314598
377.233363,-2368.659014,-9696.697840,459.657299
377.233691,-3256.906145,-9474.636058,383.047749
377.234018,-3108.864956,-9696.697840,0.000000
377.234346,-2812.782580,-9474.636058,0.000000
377.234673,-1332.370696,-9178.553681,306.438199
377.235001,0.000000,-8734.430116,536.266849
377.235328,1406.391290,-8438.347739,1225.752797
377.235656,1998.556043,-8068.244768,1455.581446
377.235983,1776.494261,-8216.285956,1302.362347
377.236310,1332.370696,-8956.491898,1455.581446
377.236638,74.020594,-9622.677246,1225.752797
377.236965,-740.205942,-10658.965565,1149.143247
377.237293,-2146.597232,-10510.924376,383.047749
377.237620,-2368.659014,-10658.965565,76.609550
377.237948,-1998.556043,-10066.800811,229.828649
377.238275,-1036.288319,-9696.697840,306.438199
377.238603,370.102971,-9104.533087,153.219100
377.238930,1480.411884,-8216.285956,76.609550
377.239258,1702.473667,-8068.244768,459.657299
377.239585,1776.494261,-8068.244768,842.705048
377.239913,888.247130,-8290.306550,536.266849
377.240240,-222.061783,-8956.491898,459.657299
377.240567,-1776.494261,-9178.553681,0.000000
377.240895,-2738.761985,-9992.780217,0.000000
377.241222,-2960.823768,-9918.759623,-459.657299
377.241550,-2072.576638,-9474.636058,-306.438199
377.241877,-592.164754,-9030.512492,153.219100
377.242205,1258.350101,-8512.368333,459.657299
377.242532,2294.638420,-7846.182985,153.219100
377.242860,2812.782580,-7624.121203,919.314598
377.243187,2590.720797,-7772.162391,1149.143247
377.243515,1554.432478,-8438.347739,995.924147
377.243842,370.102971,-9400.615463,1302.362347
377.244170,-814.226536,-10510.924376,919.314598
377.244497,-1628.453072,-10510.924376,459.657299
377.244824,-1850.514855,-10362.883188,689.485948
377.245152,-1332.370696,-9622.677246,612.876398
377.245479,0.000000,-9104.533087,1072.533697
377.245807,740.205942,-8660.409521,1532.190996
377.246134,814.226536,-8068.244768,1149.143247
377.246462,1036.288319,-8068.244768,1225.752797
377.246789,666.185348,-8290.306550,1072.533697
377.247117,-444.123565,-8512.368333,919.314598
377.247444,-1110.308913,-9400.615463,612.876398
377.247772,-2516.700203,-9400.615463,1072.533697
377.248099,-3478.967927,-9474.636058,0.000000
377.248427,-3478.967927,-9326.594869,-153.219100
377.248754,-2812.782580,-8882.471304,76.609550
377.249082,-962.267725,-8660.409521,306.438199
377.249409,148.041188,-7994.224174,229.828649
377.249737,1110.308913,-7846.182985,689.485948
377.250064,1850.514855,-7772.162391,995.924147
377.250392,1628.453072,-8216.285956,1378.971896
377.250719,740.205942,-9178.553681,1302.362347
377.251047,-444.123565,-9696.697840,459.657299
377.251374,-1628.453072,-10436.903782,536.266849
377.251702,-2442.679609,-10807.006753,229.828649
377.252029,-2294.638420,-10807.006753,0.000000
377.252356,-1406.391290,-10288.862594,0.000000
377.252684,0.000000,-9252.574275,0.000000
377.253011,1258.350101,-9030.512492,229.828649
377.253339,1998.556043,-8364.327145,229.828649
377.253666,2072.576638,-8216.285956,459.657299
377.253994,2072.576638,-8586.388927,612.876398
377.254321,1036.288319,-8586.388927,383.047749
377.254649,-370.102971,-9474.636058,0.000000
377.254976,-1924.535449,-10066.800811,0.000000
377.255304,-2886.803174,-10362.883188,-383.047749
377.255631,-2590.720797,-10066.800811,-536.266849
377.255959,-1406.391290,-9252.574275,0.000000
377.256286,222.061783,-8660.409521,536.266849
377.256614,1702.473667,-8438.347739,306.438199
377.256941,2590.720797,-7772.162391,766.095498
377.257269,2516.700203,-7624.121203,1225.752797
377.257596,2220.617826,-8290.306550,1225.752797
377.257924,1184.329507,-8882.471304,1838.629195
377.258251,-444.123565,-9696.697840,766.095498
377.258579,-1924.535449,-10436.903782,766.095498
377.258906,-2294.638420,-10510.924376,536.266849
377.259234,-2368.659014,-10510.924376,459.657299
377.259561,-1332.370696,-9622.677246,383.047749
377.259889,-296.082377,-9548.656652,919.314598
377.260216,666.185348,-8290.306550,1149.143247
377.260544,740.205942,-8068.244768,1225.752797
377.260871,814.226536,-7920.203579,1302.362347
377.261199,0.000000,-7994.224174,842.705048
377.261526,-518.144159,-8512.368333,842.705048
377.261854,-2072.576638,-9030.512492,689.485948
377.262181,-3182.885551,-9252.574275,383.047749
377.262509,-3404.947333,-9474.636058,459.657299
377.262836,-2664.741391,-9030.512492,306.438199
377.263163,-1036.288319,-8586.388927,536.266849
377.263491,0.000000,-7994.224174,689.485948
377.263818,1036.288319,-7994.224174,995.924147
377.264146,1406.391290,-8216.285956,1378.971896
377.264473,1480.411884,-8068.244768,1149.143247
377.264801,1110.308913,-8586.388927,2068.457845
377.265128,0.000000,-9252.574275,1378.971896
377.265456,-1332.370696,-9918.759623,995.924147
377.265783,-2146.597232,-10584.944971,306.438199
377.266111,-2368.659014,-10510.924376,0.000000
377.266438,-2368.659014,-9918.759623,306.438199
377.266766,-1258.350101,-9400.615463,-536.266849
377.267093,0.000000,-8956.491898,-306.438199
377.267421,1036.288319,-8364.327145,0.000000
377.267748,1554.432478,-8216.285956,0.000000
377.268076,1998.556043,-7846.182985,306.438199
377.268403,1702.473667,-8216.285956,153.219100
377.268731,444.123565,-8956.491898,229.828649
377.269058,-1110.308913,-9992.780217,-306.438199
377.269386,-2516.700203,-10436.903782,-229.828649
377.269713,-3034.844362,-10362.883188,-689.485948
377.270041,-1776.494261,-9918.759623,-459.657299
377.270368,-370.102971,-9252.574275,-536.266849
377.270696,1406.391290,-8438.347739,0.000000
377.271023,3108.864956,-8068.244768,536.266849
377.271351,3701.029710,-7772.162391,842.705048
377.271678,3701.029710,-8290.306550,766.095498
377.272006,2294.638420,-8808.450710,1072.533697
377.272333,814.226536,-9844.739029,766.095498
377.272661,-740.205942,-10732.986159,612.876398
377.272988,-1702.473667,-11325.150913,612.876398
377.273316,-2294.638420,-11399.171507,995.924147
377.273643,-1628.453072,-10436.903782,766.095498
377.273970,-740.205942,-9622.677246,842.705048
377.274298,0.000000,-9104.533087,536.266849
377.274625,814.226536,-8364.327145,1149.143247
377.274953,592.164754,-7624.121203,919.314598
377.275280,666.185348,-7476.080014,1149.143247
377.275608,0.000000,-8068.244768,842.705048
377.275935,-1554.432478,-8586.388927,1149.143247
377.276263,-2590.720797,-9400.615463,919.314598
377.276590,-3478.967927,-9474.636058,766.095498
377.276918,-3108.864956,-9474.636058,612.876398
377.277245,-2368.659014,-8882.471304,766.095498
377.277573,-1184.329507,-8512.368333,919.314598
377.277900,0.000000,-8290.306550,1072.533697
377.278228,888.247130,-8142.265362,1532.190996
377.278555,1850.514855,-7698.141797,1378.971896
377.278883,1036.288319,-7994.224174,1608.800546
377.279210,444.123565,-8734.430116,1762.019645
377.279538,-370.102971,-9622.677246,1685.410096
377.279865,-1850.514855,-9992.780217,1072.533697
377.280193,-2146.597232,-10288.862594,536.266849
377.280520,-2442.679609,-9992.780217,153.219100
377.280848,-2146.597232,-9918.759623,153.219100
377.281175,-740.205942,-9474.636058,306.438199
377.281503,0.000000,-8956.491898,153.219100
377.281830,1554.432478,-8068.244768,229.828649
377.282158,1628.453072,-7772.162391,306.438199
377.282485,1554.432478,-7920.203579,536.266849
377.282813,592.164754,-8364.327145,383.047749
377.283140,-518.144159,-9252.574275,383.047749
377.283468,-2146.597232,-9770.718434,-229.828649
377.283795,-2812.782580,-9326.594869,-459.657299
377.284123,-2146.597232,-9770.718434,-842.705048
377.284450,-1184.329507,-9104.533087,-919.314598
377.284777,740.205942,-8956.491898,-383.047749
377.285105,2368.659014,-8364.327145,76.609550
377.285432,3256.906145,-7920.203579,1225.752797
377.285760,3330.926739,-8068.244768,766.095498
377.286087,2812.782580,-8734.430116,919.314598
377.286415,1628.453072,-9474.636058,919.314598
377.286742,222.061783,-10436.903782,612.876398
377.287070,-1184.329507,-10807.006753,612.876398
377.287397,-1258.350101,-11251.130318,153.219100
377.287725,-1998.556043,-11029.068536,76.609550
377.288052,-740.205942,-10362.883188,153.219100
377.288380,0.000000,-9474.636058,459.657299
377.288707,888.247130,-8660.409521,459.657299
377.289035,962.267725,-7772.162391,842.705048
377.289362,1332.370696,-7846.182985,689.485948
377.289690,592.164754,-8068.244768,766.095498
377.290017,0.000000,-8438.347739,689.485948
377.290345,-1554.432478,-9178.553681,536.266849
377.290672,-3108.864956,-9474.636058,612.876398
377.291000,-3330.926739,-9770.718434,306.438199
377.291327,-3034.844362,-9400.615463,306.438199
377.291655,-2072.576638,-8882.471304,459.657299
377.291982,-814.226536,-8438.347739,766.095498
377.292310,444.123565,-8734.430116,1149.143247
377.292637,888.247130,-7846.182985,1455.581446
377.292965,1258.350101,-7994.224174,1532.190996
377.293292,1036.288319,-8512.368333,1608.800546
377.293620,222.061783,-9178.553681,1532.190996
377.293947,-1036.288319,-10362.883188,1378.971896
377.294275,-2220.617826,-10584.944971,995.924147
377.294602,-2368.659014,-10436.903782,459.657299
377.294930,-2368.659014,-10066.800811,229.828649
377.295257,-1776.494261,-9622.677246,459.657299
377.295584,-148.041188,-9252.574275,612.876398
377.295912,222.061783,-8142.265362,536.266849
377.296239,1258.350101,-7994.224174,919.314598
377.296567,1036.288319,-7994.224174,919.314598
377.296894,222.061783,-8068.244768,536.266849
377.297222,-296.082377,-8512.368333,383.047749
377.297549,-1554.432478,-8734.430116,612.876398
377.297877,-2664.741391,-9622.677246,-383.047749
377.298204,-2886.803174,-9918.759623,-459.657299
377.298532,-2368.659014,-9474.636058,-689.485948
377.298859,-962.267725,-8808.450710,-612.876398
377.299187,814.226536,-8438.347739,0.000000
377.299514,2072.576638,-7994.224174,76.609550
377.299842,2960.823768,-8068.244768,383.047749
377.300169,3256.906145,-8216.285956,842.705048
377.300497,2294.638420,-8882.471304,842.705048
377.300824,1332.370696,-9474.636058,383.047749
377.301152,296.082377,-10214.842000,689.485948
377.301479,-1036.288319,-11103.089130,306.438199
377.301807,-1480.411884,-11029.068536,0.000000
377.302134,-1332.370696,-10510.924376,383.047749
377.302462,74.020594,-9770.718434,459.657299
377.302789,740.205942,-9104.533087,612.876398
377.303117,1628.453072,-8438.347739,689.485948
377.303444,1850.514855,-8290.306550,536.266849
377.303772,1628.453072,-7772.162391,766.095498
377.304099,518.144159,-8216.285956,842.705048
377.304427,-518.144159,-8660.409521,1072.533697
377.304754,-2072.576638,-9252.574275,536.266849
377.305082,-3034.844362,-9696.697840,306.438199
377.305409,-3478.967927,-9770.718434,76.609550
377.305737,-3256.906145,-9400.615463,-229.828649
377.306064,-1850.514855,-8882.471304,153.219100
377.306391,-296.082377,-8512.368333,689.485948
377.306719,518.144159,-8142.265362,766.095498
377.307046,1332.370696,-8216.285956,995.924147
377.307374,1554.432478,-8364.327145,1455.581446
377.307701,740.205942,-8512.368333,1685.410096
377.308029,-74.020594,-9474.636058,1455.581446
377.308356,-1480.411884,-10510.924376,995.924147
377.308684,-2294.638420,-11029.068536,536.266849
377.309011,-2442.679609,-10658.965565,229.828649
377.309339,-2072.576638,-10066.800811,153.219100
377.309666,-1036.288319,-9326.594869,306.438199
377.309994,518.144159,-8660.409521,229.828649
377.310321,962.267725,-8364.327145,459.657299
377.310649,1924.535449,-7698.141797,842.705048
377.310976,1776.494261,-7994.224174,842.705048
377.311304,1184.329507,-8068.244768,1149.143247
377.311631,-370.102971,-9030.512492,766.095498
377.311959,-2072.576638,-9696.697840,383.047749
377.312286,-2812.782580,-10066.800811,76.609550
