#time,accel_x,accel_y,accel_z
584.467581,0.000000,-9030.512492,612.876398
584.467910,-296.082377,-9030.512492,459.657299
584.468238,-370.102971,-9474.636058,459.657299
584.468566,-74.020594,-9252.574275,766.095498
584.468894,0.000000,-9104.533087,459.657299
584.469222,0.000000,-9104.533087,612.876398
584.469550,-222.061783,-8956.491898,459.657299
584.469878,-148.041188,-9178.553681,612.876398
584.470206,-370.102971,-9252.574275,459.657299
584.470534,-222.061783,-9178.553681,459.657299
584.470862,74.020594,-9030.512492,1072.533697
584.471190,-296.082377,-9178.553681,536.266849
584.471518,-370.102971,-9178.553681,459.657299
584.471846,-148.041188,-9178.553681,689.485948
584.472175,-222.061783,-9104.533087,689.485948
584.472503,-296.082377,-8882.471304,919.314598
584.472831,-370.102971,-8956.491898,306.438199
584.473159,-518.144159,-8956.491898,612.876398
584.473487,-296.082377,-9104.533087,766.095498
584.473815,-222.061783,-9030.512492,842.705048
584.474143,-370.102971,-8364.327145,919.314598
584.474471,0.000000,-8956.491898,612.876398
584.474799,-296.082377,-9104.533087,612.876398
584.475127,-222.061783,-9178.553681,459.657299
584.475455,-370.102971,-9030.512492,459.657299
584.475783,-296.082377,-9030.512492,689.485948
584.476111,148.041188,-9178.553681,995.924147
584.476439,0.000000,-9326.594869,459.657299
584.476768,-518.144159,-9252.574275,306.438199
584.477096,-962.267725,-9400.615463,0.000000
584.477424,-1258.350101,-9400.615463,0.000000
584.477752,-1332.370696,-9030.512492,-306.438199
584.478080,-814.226536,-9178.553681,-383.047749
584.478408,-518.144159,-8956.491898,-306.438199
584.478736,-518.144159,-8882.471304,-459.657299
584.479064,-814.226536,-9178.553681,-689.485948
584.479392,-1110.308913,-9030.512492,-1149.143247
584.479720,-1258.350101,-9104.533087,-1532.190996
584.480048,-1184.329507,-9104.533087,-1378.971896
584.480376,-962.267725,-9252.574275,-1532.190996
584.480704,-518.144159,-9474.636058,-1302.362347
584.481033,-296.082377,-9252.574275,-1378.971896
584.481361,222.061783,-8882.471304,-1149.143247
584.481689,0.000000,-9178.553681,-1378.971896
584.482017,-148.041188,-9178.553681,-1532.190996
584.482345,0.000000,-9474.636058,-1762.019645
584.482673,0.000000,-9252.574275,-1762.019645
584.483001,148.041188,-9030.512492,-1225.752797
584.483329,0.000000,-9474.636058,-1532.190996
584.483657,296.082377,-9400.615463,-1685.410096
584.483985,592.164754,-9030.512492,-1532.190996
584.484313,740.205942,-9178.553681,-1762.019645
584.484641,370.102971,-8956.491898,-1762.019645
584.484969,222.061783,-9474.636058,-1608.800546
584.485297,74.020594,-9474.636058,-1838.629195
584.485626,222.061783,-9252.574275,-1838.629195
584.485954,74.020594,-9178.553681,-1838.629195
584.486282,-148.041188,-8882.471304,-1685.410096
584.486610,0.000000,-9474.636058,-1762.019645
584.486938,-592.164754,-9178.553681,-1762.019645
584.487266,-740.205942,-8956.491898,-1915.238745
584.487594,-1184.329507,-9178.553681,-2298.286494
584.487922,-1258.350101,-9178.553681,-2221.676944
584.488250,-1702.473667,-9178.553681,-2604.724693
584.488578,-1850.514855,-8882.471304,-2834.553343
584.488906,-2146.597232,-8882.471304,-3064.381992
584.489234,-2072.576638,-8882.471304,-3217.601092
584.489562,-1924.535449,-9252.574275,-3370.820191
584.489891,-1924.535449,-8586.388927,-3447.429741
584.490219,-2146.597232,-8808.450710,-4213.525239
584.490547,-1924.535449,-8734.430116,-3983.696590
584.490875,-1702.473667,-8808.450710,-4060.306139
584.491203,-1406.391290,-8956.491898,-3983.696590
584.491531,-370.102971,-8660.409521,-2834.553343
584.491859,370.102971,-9030.512492,-3753.867940
584.492187,888.247130,-8660.409521,-3064.381992
584.492515,1554.432478,-8956.491898,-2451.505594
584.492843,2294.638420,-9104.533087,-1991.848295
584.493171,2294.638420,-8956.491898,-1608.800546
584.493499,2220.617826,-9548.656652,-1915.238745
584.493827,962.267725,-10140.821405,-2298.286494
584.494156,222.061783,-10436.903782,-2604.724693
584.494484,-814.226536,-10288.862594,-3370.820191
584.494812,-1184.329507,-10658.965565,-4366.744339
584.495140,-1110.308913,-10066.800811,-4290.134789
584.495468,-1480.411884,-9622.677246,-4596.572988
584.495796,-740.205942,-8512.368333,-4673.182538
584.496124,666.185348,-7772.162391,-4366.744339
584.496452,2146.597232,-7105.977043,-3677.258390
584.496780,2590.720797,-6809.894666,-2911.162892
584.497108,2960.823768,-7698.141797,-2374.896044
584.497436,1406.391290,-8364.327145,-1762.019645
584.497764,-444.123565,-9548.656652,-1685.410096
584.498092,-2368.659014,-10658.965565,-2145.067394
584.498420,-3478.967927,-10584.944971,-2604.724693
584.498749,-3404.947333,-10584.944971,-2451.505594
584.499077,-1406.391290,-9548.656652,-1762.019645
584.499405,3627.009116,-7105.977043,229.828649
584.499733,8882.471304,-5403.503377,2681.334243
584.500061,11399.171507,-4737.318029,4749.792088
584.500389,10066.800811,-7328.038826,4903.011187
584.500717,4737.318029,-10140.821405,3983.696590
584.501045,-1998.556043,-12065.356855,2298.286494
584.501373,-7698.141797,-13841.851115,0.000000
584.501701,-11769.274478,-14434.015869,-1685.410096
584.502029,-12805.562797,-13915.871710,-3447.429741
584.502357,-12583.501014,-12953.603985,-3600.648841
584.502685,-7402.059420,-9252.574275,-4749.792088
584.503014,-5403.503377,-6217.729913,-2987.772442
584.503342,-888.247130,-3775.050304,-4826.401637
584.503670,0.000000,-3775.050304,-4749.792088
584.503998,-3478.967927,-5551.544565,-6052.154434
584.504326,-5921.647536,-7031.956449,-7354.516781
584.504654,-11695.253884,-8734.430116,-8427.050478
584.504982,-12361.439231,-9548.656652,-9422.974625
584.505310,-9622.677246,-9844.739029,-7507.735880
584.505638,-5403.503377,-8290.306550,-7124.688131
584.505966,2442.679609,-7698.141797,-4903.011187
584.506294,6957.935855,-7254.018232,-2757.943793
584.506622,8660.409521,-7476.080014,-3524.039291
584.506950,8734.430116,-9622.677246,-3830.477490
584.507279,5921.647536,-11251.130318,-4903.011187
584.507607,5033.400406,-11473.192101,-6588.421283
584.507935,7402.059420,-10955.047942,-5898.935335
584.508263,11695.253884,-9474.636058,-3064.381992
584.508591,14211.954086,-9030.512492,-1225.752797
584.508919,13841.851115,-9992.780217,229.828649
584.509247,10436.903782,-11029.068536,-1072.533697
584.509575,7994.224174,-11325.150913,-1455.581446
584.509903,7402.059420,-11103.089130,-2068.457845
584.510231,5107.421000,-11251.130318,-1762.019645
584.510559,4367.215058,-12065.356855,-2451.505594
584.510887,-2368.659014,-12287.418637,-3064.381992
584.511215,-9918.759623,-14211.954086,-5898.935335
584.511543,-14656.077652,-10732.986159,-7967.393179
584.511872,-13249.686362,-6439.791695,-8273.831378
584.512200,-8142.265362,-2664.741391,-7660.954980
584.512528,518.144159,222.061783,-5745.716235
584.512856,2072.576638,-222.061783,-2528.115143
584.513184,3627.009116,-1554.432478,-1685.410096
584.513512,0.000000,-4219.173869,-919.314598
584.513840,-3997.112087,-4885.359217,-1685.410096
584.514168,-4441.235652,-8142.265362,-306.438199
584.514496,-4737.318029,-11177.109724,1072.533697
584.514824,-4589.276840,-11547.212695,2451.505594
584.515152,-3034.844362,-11991.336260,4519.963438
584.515480,-148.041188,-11547.212695,6741.640382
584.515808,1628.453072,-10436.903782,6894.859482
584.516137,2368.659014,-10288.862594,4136.915689
584.516465,888.247130,-11325.150913,1378.971896
584.516793,-1406.391290,-12287.418637,-612.876398
584.517121,-3182.885551,-10214.842000,-1225.752797
584.517449,-1258.350101,-8142.265362,-1302.362347
584.517777,1702.473667,-7550.100608,-459.657299
584.518105,1184.329507,-7920.203579,0.000000
584.518433,-1184.329507,-10584.944971,306.438199
584.518761,-4589.276840,-10140.821405,229.828649
584.519089,-5921.647536,-8216.285956,-1762.019645
584.519417,-6735.874072,-9992.780217,-612.876398
584.519745,-4959.379811,-11251.130318,-2451.505594
584.520073,-5255.462188,-11325.150913,-2451.505594
584.520402,-5625.565159,-9844.739029,-3524.039291
584.520730,-3330.926739,-7624.121203,-3064.381992
584.521058,-2738.761985,-5773.606348,-3524.039291
584.521386,-370.102971,-5625.565159,-3983.696590
584.521714,592.164754,-7105.977043,-4673.182538
584.522042,2220.617826,-7624.121203,-5898.935335
584.522370,4441.235652,-8290.306550,-4903.011187
584.522698,5403.503377,-9030.512492,-4136.915689
584.523026,5255.462188,-11103.089130,-4060.306139
584.523353,4737.318029,-13693.809927,-3370.820191
584.523681,3923.091493,-14508.036463,-3370.820191
584.524009,3849.070898,-14285.974681,-3064.381992
584.524337,3552.988522,-13027.624579,-3140.991542
584.524665,2590.720797,-11843.295072,-3140.991542
584.524993,3404.947333,-11917.315666,-1915.238745
584.525320,4219.173869,-10658.965565,-1378.971896
584.525648,3552.988522,-8956.491898,-2221.676944
584.525976,2220.617826,-8068.244768,-3140.991542
584.526304,74.020594,-7698.141797,-3370.820191
584.526632,-1850.514855,-7031.956449,-5515.887586
584.526960,-2368.659014,-6439.791695,-4826.401637
584.527287,-148.041188,-5921.647536,-5132.839837
584.527615,-296.082377,-5181.441594,-4673.182538
584.527943,962.267725,-4219.173869,-1915.238745
584.528271,148.041188,-6365.771101,-1762.019645
584.528599,-1184.329507,-7624.121203,-1762.019645
584.528927,-3923.091493,-9178.553681,-2528.115143
584.529254,-3997.112087,-9622.677246,-2528.115143
584.529582,-5403.503377,-10140.821405,-3370.820191
584.529910,-5551.544565,-9622.677246,-2604.724693
584.530238,-3404.947333,-9030.512492,-1991.848295
584.530566,-740.205942,-7846.182985,-1072.533697
584.530894,-370.102971,-7476.080014,-1685.410096
584.531221,-1998.556043,-8956.491898,-1149.143247
584.531549,-2590.720797,-9252.574275,-2987.772442
584.531877,-4367.215058,-8216.285956,-4903.011187
584.532205,-2664.741391,-9252.574275,-3983.696590
584.532533,-1110.308913,-8512.368333,-4060.306139
584.532861,1406.391290,-7031.956449,-2528.115143
584.533188,5625.565159,-5551.544565,-536.266849
584.533516,6735.874072,-6069.688724,1149.143247
584.533844,4663.297435,-7624.121203,1225.752797
584.534172,2442.679609,-9030.512492,766.095498
584.534500,1184.329507,-10436.903782,153.219100
584.534828,-962.267725,-10658.965565,229.828649
584.535155,-1184.329507,-10140.821405,0.000000
584.535483,1480.411884,-9474.636058,536.266849
584.535811,3256.906145,-9178.553681,1455.581446
584.536139,3330.926739,-9252.574275,1225.752797
584.536467,1406.391290,-8882.471304,-153.219100
584.536794,1554.432478,-8216.285956,-1532.190996
584.537122,-148.041188,-9178.553681,-1455.581446
584.537450,-2146.597232,-9992.780217,-1225.752797
584.537778,-1776.494261,-10214.842000,-1302.362347
584.538106,74.020594,-10807.006753,0.000000
584.538434,-1924.535449,-11325.150913,459.657299
584.538761,-2220.617826,-11251.130318,536.266849
584.539089,-4737.318029,-10732.986159,-383.047749
584.539417,-5181.441594,-10732.986159,-766.095498
584.539745,-5329.482782,-9844.739029,-919.314598
584.540073,-5033.400406,-8216.285956,-1225.752797
584.540401,-4293.194464,-7550.100608,-1378.971896
584.540728,-2442.679609,-7402.059420,-612.876398
584.541056,-2590.720797,-7179.997637,-1455.581446
584.541384,-2516.700203,-7994.224174,-1685.410096
584.541712,-666.185348,-7698.141797,-1455.581446
584.542040,1332.370696,-7402.059420,-459.657299
584.542368,3256.906145,-7550.100608,612.876398
584.542695,3923.091493,-8882.471304,1149.143247
584.543023,4589.276840,-10732.986159,2451.505594
584.543351,3701.029710,-12065.356855,2451.505594
584.543679,1184.329507,-12287.418637,2374.896044
584.544007,1110.308913,-12879.583391,2145.067394
584.544335,2146.597232,-12805.562797,2451.505594
584.544662,2072.576638,-12287.418637,2145.067394
584.544990,1110.308913,-11399.171507,612.876398
584.545318,0.000000,-10658.965565,1225.752797
584.545646,888.247130,-9400.615463,-306.438199
584.545974,-1406.391290,-8882.471304,-1378.971896
584.546302,-1332.370696,-7846.182985,-1838.629195
584.546629,444.123565,-7698.141797,-1225.752797
584.546957,296.082377,-6069.688724,-766.095498
584.547285,370.102971,-7031.956449,-383.047749
584.547613,148.041188,-7698.141797,919.314598
584.547941,-2368.659014,-7698.141797,383.047749
584.548269,-3034.844362,-8290.306550,153.219100
584.548596,-3478.967927,-8216.285956,-383.047749
584.548924,-3849.070898,-8660.409521,-153.219100
584.549252,-3034.844362,-9030.512492,153.219100
584.549580,-3182.885551,-8512.368333,229.828649
584.549908,-2590.720797,-8660.409521,459.657299
584.550236,-1406.391290,-8142.265362,0.000000
584.550563,-1332.370696,-7254.018232,-919.314598
584.550891,740.205942,-7105.977043,-689.485948
584.551219,2146.597232,-7476.080014,-536.266849
584.551547,2886.803174,-7994.224174,153.219100
584.551875,2072.576638,-8956.491898,766.095498
584.552203,1776.494261,-10066.800811,1838.629195
584.552530,1184.329507,-10807.006753,1685.410096
584.552858,592.164754,-10658.965565,1838.629195
584.553186,1036.288319,-10955.047942,2604.724693
584.553514,1924.535449,-9918.759623,3370.820191
584.553842,1554.432478,-9326.594869,3447.429741
584.554170,1258.350101,-8956.491898,2604.724693
584.554497,-592.164754,-8290.306550,2221.676944
584.554825,0.000000,-8068.244768,1915.238745
584.555153,-444.123565,-7179.997637,1225.752797
584.555481,74.020594,-7105.977043,1608.800546
584.555809,888.247130,-6735.874072,1149.143247
584.556136,666.185348,-6957.935855,1225.752797
584.556464,-1036.288319,-8142.265362,229.828649
584.556792,-1036.288319,-8882.471304,-153.219100
584.557120,-3330.926739,-9400.615463,-842.705048
584.557448,-3330.926739,-9326.594869,-612.876398
584.557776,-2368.659014,-9696.697840,-306.438199
584.558103,-2072.576638,-10436.903782,0.000000
584.558431,-1554.432478,-11325.150913,229.828649
584.558759,-2072.576638,-10955.047942,612.876398
584.559087,-2072.576638,-10955.047942,0.000000
584.559415,-3330.926739,-11103.089130,-766.095498
584.559743,-2664.741391,-10955.047942,-919.314598
584.560070,0.000000,-9844.739029,-383.047749
584.560398,1628.453072,-8660.409521,76.609550
584.560726,2442.679609,-9622.677246,1072.533697
584.561054,2146.597232,-10732.986159,842.705048
584.561382,1036.288319,-10510.924376,536.266849
584.561710,444.123565,-10214.842000,153.219100
584.562037,1258.350101,-10510.924376,306.438199
584.562365,1554.432478,-10214.842000,1302.362347
584.562693,1924.535449,-10732.986159,1225.752797
584.563021,1924.535449,-10732.986159,1302.362347
584.563349,2146.597232,-9918.759623,1915.238745
584.563677,1036.288319,-10140.821405,612.876398
584.564004,-888.247130,-10510.924376,1225.752797
584.564332,296.082377,-9770.718434,383.047749
584.564660,666.185348,-9474.636058,995.924147
584.564988,444.123565,-8956.491898,766.095498
584.565316,222.061783,-9400.615463,766.095498
584.565644,-592.164754,-9992.780217,1072.533697
584.565971,-2220.617826,-9252.574275,0.000000
584.566299,-3923.091493,-9252.574275,-383.047749
584.566627,-3108.864956,-8734.430116,-306.438199
584.566955,-1998.556043,-7624.121203,0.000000
584.567283,-1332.370696,-7698.141797,459.657299
584.567611,-148.041188,-7624.121203,919.314598
584.567938,-888.247130,-7994.224174,842.705048
584.568266,-2294.638420,-7698.141797,536.266849
584.568594,-1110.308913,-6883.915261,536.266849
584.568922,444.123565,-7105.977043,1225.752797
584.569250,1480.411884,-7179.997637,2068.457845
584.569578,0.000000,-8364.327145,1991.848295
584.569905,-296.082377,-9252.574275,2145.067394
584.570233,-1332.370696,-8586.388927,1225.752797
584.570561,-1332.370696,-8586.388927,995.924147
584.570889,-296.082377,-8216.285956,612.876398
584.571217,666.185348,-8512.368333,766.095498
584.571545,296.082377,-8660.409521,842.705048
584.571872,-222.061783,-8586.388927,536.266849
584.572200,0.000000,-7994.224174,459.657299
584.572528,-370.102971,-7179.997637,-612.876398
584.572856,-592.164754,-8068.244768,0.000000
584.573184,592.164754,-8216.285956,536.266849
584.573512,1258.350101,-7624.121203,1149.143247
584.573839,888.247130,-7179.997637,1608.800546
584.574167,222.061783,-8734.430116,1838.629195
584.574495,-962.267725,-9326.594869,689.485948
584.574823,-3256.906145,-9918.759623,0.000000
584.575151,-3256.906145,-9326.594869,-995.924147
584.575478,-2516.700203,-8068.244768,-766.095498
584.575806,-296.082377,-7994.224174,-536.266849
584.576134,666.185348,-7624.121203,76.609550
584.576462,1554.432478,-8586.388927,229.828649
584.576790,1554.432478,-8808.450710,0.000000
584.577118,962.267725,-8734.430116,0.000000
584.577445,666.185348,-9030.512492,153.219100
584.577773,1850.514855,-9770.718434,995.924147
584.578101,1406.391290,-11251.130318,1225.752797
584.578429,814.226536,-12657.521608,1991.848295
584.578757,-592.164754,-13175.665768,1915.238745
584.579085,-1702.473667,-13101.645173,1532.190996
584.579412,-3256.906145,-12657.521608,995.924147
584.579740,-2812.782580,-11547.212695,0.000000
584.580068,-1036.288319,-10510.924376,-766.095498
584.580396,74.020594,-9548.656652,-766.095498
584.580724,0.000000,-8142.265362,-766.095498
584.581052,370.102971,-7476.080014,-689.485948
584.581379,1406.391290,-7105.977043,0.000000
584.581707,1110.308913,-7105.977043,-383.047749
584.582035,1776.494261,-7550.100608,383.047749
584.582363,2146.597232,-8068.244768,1149.143247
584.582691,1258.350101,-8808.450710,2068.457845
584.583019,-666.185348,-10288.862594,2451.505594
584.583346,-1480.411884,-11621.233289,2757.943793
584.583674,-3330.926739,-12139.377449,1532.190996
584.584002,-4293.194464,-11991.336260,1072.533697
584.584330,-3478.967927,-10510.924376,612.876398
584.584658,-2146.597232,-8364.327145,766.095498
584.584986,-888.247130,-8068.244768,229.828649
584.585313,-444.123565,-7772.162391,-383.047749
584.585641,222.061783,-6809.894666,-459.657299
584.585969,-148.041188,-5773.606348,-1149.143247
584.586297,296.082377,-5921.647536,-536.266849
584.586625,1036.288319,-6365.771101,0.000000
584.586953,1702.473667,-7105.977043,995.924147
584.587280,1036.288319,-8364.327145,1762.019645
584.587608,-740.205942,-9992.780217,2451.505594
584.587936,-2368.659014,-10658.965565,2145.067394
584.588264,-3997.112087,-10658.965565,1455.581446
584.588592,-4515.256246,-9770.718434,842.705048
584.588920,-2590.720797,-9104.533087,306.438199
584.589247,-1110.308913,-8586.388927,229.828649
584.589575,0.000000,-7105.977043,-153.219100
584.589903,1332.370696,-6587.832884,-459.657299
584.590231,1776.494261,-5625.565159,-689.485948
584.590559,1480.411884,-5921.647536,-1149.143247
584.590887,2072.576638,-7105.977043,-536.266849
584.591214,3256.906145,-7772.162391,153.219100
584.591542,3182.885551,-8364.327145,1302.362347
584.591870,2516.700203,-10584.944971,2068.457845
584.592198,1480.411884,-12287.418637,2298.286494
584.592526,-1184.329507,-13397.727550,1532.190996
584.592854,-2738.761985,-13693.809927,1455.581446
584.593181,-2516.700203,-12731.542202,1072.533697
584.593509,-1998.556043,-11399.171507,1149.143247
584.593837,-1332.370696,-10955.047942,306.438199
584.594165,-814.226536,-10288.862594,-153.219100
584.594493,370.102971,-8660.409521,-459.657299
584.594820,518.144159,-7254.018232,-919.314598
584.595148,0.000000,-6365.771101,-995.924147
584.595476,2072.576638,-6513.812290,-306.438199
584.595804,2368.659014,-6883.915261,153.219100
584.596132,2368.659014,-8290.306550,995.924147
584.596460,962.267725,-9696.697840,1762.019645
584.596787,-814.226536,-10288.862594,1838.629195
584.597115,-3182.885551,-11325.150913,1302.362347
584.597443,-4589.276840,-11769.274478,306.438199
584.597771,-3478.967927,-11547.212695,383.047749
584.598099,-3108.864956,-10955.047942,153.219100
584.598427,-2368.659014,-10214.842000,-383.047749
584.598754,-1258.350101,-9474.636058,-842.705048
584.599082,-888.247130,-8068.244768,-1149.143247
584.599410,222.061783,-7105.977043,-1455.581446
584.599738,1702.473667,-6661.853478,-995.924147
584.600066,3182.885551,-6809.894666,-306.438199
584.600394,3256.906145,-7476.080014,536.266849
584.600721,2146.597232,-9030.512492,1762.019645
584.601049,1258.350101,-10584.944971,2451.505594
584.601377,-592.164754,-11177.109724,1991.848295
584.601705,-2146.597232,-11991.336260,1608.800546
584.602033,-3404.947333,-11547.212695,1225.752797
584.602361,-2146.597232,-10584.944971,1225.752797
584.602688,-1924.535449,-9030.512492,842.705048
584.603016,-814.226536,-8142.265362,919.314598
584.603344,74.020594,-7402.059420,0.000000
584.603672,962.267725,-6143.709319,-229.828649
584.604000,1702.473667,-5329.482782,-689.485948
584.604328,2812.782580,-5329.482782,76.609550
584.604655,3552.988522,-5847.626942,995.924147
584.604983,3182.885551,-7624.121203,2068.457845
584.605311,1554.432478,-9030.512492,2757.943793
584.605639,518.144159,-10807.006753,3064.381992
584.605967,-1850.514855,-11843.295072,2528.115143
584.606295,-3923.091493,-12879.583391,2374.896044
584.606622,-3923.091493,-12065.356855,2221.676944
584.606950,-3404.947333,-10955.047942,1685.410096
584.607278,-2590.720797,-10214.842000,842.705048
584.607606,-2664.741391,-8734.430116,0.000000
584.607934,-2072.576638,-7550.100608,-612.876398
584.608262,-2072.576638,-5847.626942,-1608.800546
584.608589,-370.102971,-5033.400406,-1378.971896
584.608917,1850.514855,-5625.565159,0.000000
584.609245,2146.597232,-6291.750507,306.438199
584.609573,1924.535449,-8068.244768,1302.362347
584.609901,740.205942,-9696.697840,1915.238745
584.610229,-888.247130,-10214.842000,1302.362347
584.610556,-2442.679609,-11473.192101,995.924147
584.610884,-2886.803174,-11843.295072,612.876398
584.611212,-2664.741391,-11695.253884,153.219100
584.611540,-2294.638420,-10732.986159,76.609550
584.611868,-1628.453072,-9696.697840,-459.657299
584.612196,-962.267725,-8068.244768,-995.924147
584.612523,222.061783,-8290.306550,-1455.581446
584.612851,0.000000,-7402.059420,-2451.505594
584.613179,2516.700203,-7031.956449,-2068.457845
584.613507,3478.967927,-7105.977043,-1378.971896
584.613835,5255.462188,-7772.162391,76.609550
584.614162,5107.421000,-9252.574275,766.095498
584.614490,3775.050304,-10658.965565,1762.019645
584.614818,1480.411884,-11843.295072,1608.800546
584.615146,-1554.432478,-12583.501014,1149.143247
584.615474,-2516.700203,-12583.501014,842.705048
584.615802,-1850.514855,-11769.274478,536.266849
584.616129,-1850.514855,-11103.089130,919.314598
584.616457,-1332.370696,-9548.656652,153.219100
584.616785,-814.226536,-8512.368333,-383.047749
584.617113,-222.061783,-6809.894666,-919.314598
584.617441,0.000000,-5033.400406,-1455.581446
584.617769,1850.514855,-5033.400406,-1149.143247
584.618096,3108.864956,-5181.441594,76.609550
584.618424,2960.823768,-6883.915261,1149.143247
584.618752,1036.288319,-8734.430116,1915.238745
584.619080,74.020594,-9918.759623,2757.943793
584.619408,-3849.070898,-11029.068536,2298.286494
584.619736,-4885.359217,-12509.480420,1838.629195
584.620063,-4885.359217,-12139.377449,1302.362347
584.620391,-3849.070898,-11473.192101,1532.190996
584.620719,-3997.112087,-10807.006753,1302.362347
584.621047,-3552.988522,-9548.656652,306.438199
584.621375,-3034.844362,-8216.285956,-383.047749
584.621703,-2294.638420,-6883.915261,-1302.362347
584.622030,0.000000,-5255.462188,-1225.752797
584.622358,2368.659014,-5033.400406,-383.047749
584.622686,2738.761985,-5625.565159,995.924147
584.623014,2812.782580,-7550.100608,1378.971896
584.623342,2146.597232,-8882.471304,1838.629195
584.623670,518.144159,-9474.636058,1838.629195
584.623997,-740.205942,-10955.047942,1915.238745
584.624323,-592.164754,-12139.377449,2145.067394
584.624651,0.000000,-11769.274478,2145.067394
584.624978,-666.185348,-11547.212695,2221.676944
584.625306,-222.061783,-11251.130318,1838.629195
584.625633,-222.061783,-10362.883188,612.876398
584.625961,-296.082377,-8882.471304,-229.828649
584.626289,148.041188,-7031.956449,-1455.581446
584.626616,2368.659014,-6513.812290,-995.924147
584.626944,3775.050304,-6291.750507,-306.438199
584.627272,4145.153275,-7105.977043,229.828649
584.627599,3330.926739,-8956.491898,1302.362347
584.627927,2738.761985,-9770.718434,2451.505594
584.628255,-370.102971,-11251.130318,1455.581446
584.628582,-2886.803174,-12139.377449,1762.019645
584.628910,-3108.864956,-12879.583391,1685.410096
584.629238,-3330.926739,-12361.439231,1685.410096
584.629565,-3923.091493,-11769.274478,1455.581446
584.629893,-3775.050304,-10807.006753,919.314598
584.630221,-3923.091493,-9030.512492,-612.876398
584.630548,-4071.132681,-6957.935855,-1685.410096
584.630876,-2516.700203,-5699.585753,-2451.505594
584.631203,814.226536,-4663.297435,-1455.581446
584.631531,1850.514855,-4145.153275,-1608.800546
584.631859,2960.823768,-5255.462188,0.000000
584.632186,2368.659014,-6957.935855,383.047749
584.632514,518.144159,-8882.471304,536.266849
584.632842,-1554.432478,-10881.027347,919.314598
584.633169,-2368.659014,-12213.398043,995.924147
584.633497,-1776.494261,-12213.398043,1225.752797
584.633825,-2146.597232,-12435.459826,1225.752797
584.634152,-2072.576638,-11917.315666,995.924147
584.634480,-888.247130,-11547.212695,766.095498
584.634808,-962.267725,-9104.533087,-383.047749
584.635135,0.000000,-7698.141797,-1149.143247
584.635463,2886.803174,-6291.750507,-919.314598
584.635791,4811.338623,-5699.585753,0.000000
584.636118,5329.482782,-6069.688724,306.438199
584.636446,4737.318029,-6439.791695,1225.752797
584.636773,3627.009116,-9030.512492,1838.629195
584.637101,666.185348,-10288.862594,1608.800546
584.637429,-592.164754,-11399.171507,1685.410096
584.637756,-1480.411884,-11769.274478,1915.238745
584.638084,-1258.350101,-11473.192101,2221.676944
584.638412,-2146.597232,-11251.130318,1915.238745
584.638739,-2072.576638,-10732.986159,1378.971896
584.639067,-2368.659014,-9252.574275,612.876398
584.639395,-2738.761985,-7550.100608,-689.485948
584.639722,-1776.494261,-7105.977043,-1302.362347
584.640050,0.000000,-5921.647536,-1302.362347
584.640378,1258.350101,-6143.709319,0.000000
584.640705,1406.391290,-6513.812290,612.876398
584.641033,296.082377,-7698.141797,919.314598
584.641361,-370.102971,-9030.512492,1302.362347
584.641688,-2812.782580,-10066.800811,1072.533697
584.642016,-3108.864956,-11769.274478,1455.581446
584.642343,-2442.679609,-11769.274478,1838.629195
584.642671,-2368.659014,-11473.192101,1991.848295
584.642999,-2294.638420,-11103.089130,2068.457845
584.643326,-1924.535449,-10807.006753,1225.752797
584.643654,-1332.370696,-9844.739029,306.438199
584.643982,-1850.514855,-8068.244768,-842.705048
584.644309,0.000000,-7179.997637,-1072.533697
584.644637,2368.659014,-6217.729913,-459.657299
584.644965,3923.091493,-5995.668130,383.047749
584.645292,3775.050304,-7920.203579,995.924147
584.645620,2960.823768,-8808.450710,1455.581446
584.645948,444.123565,-9844.739029,919.314598
584.646275,-1110.308913,-10658.965565,1532.190996
584.646603,-814.226536,-11251.130318,1455.581446
584.646931,-592.164754,-11103.089130,1838.629195
584.647258,-814.226536,-11843.295072,1991.848295
584.647586,-1332.370696,-11843.295072,1838.629195
584.647913,-814.226536,-10066.800811,1378.971896
584.648241,-1110.308913,-9030.512492,536.266849
584.648569,-444.123565,-8068.244768,-689.485948
584.648896,814.226536,-8068.244768,-229.828649
584.649224,1332.370696,-7105.977043,-536.266849
584.649552,1258.350101,-6957.935855,0.000000
584.649879,1850.514855,-7402.059420,459.657299
584.650207,1184.329507,-8290.306550,766.095498
584.650535,-1036.288319,-9178.553681,536.266849
584.650862,-1776.494261,-9844.739029,459.657299
584.651190,-962.267725,-9770.718434,919.314598
584.651518,-1554.432478,-9622.677246,1378.971896
584.651845,-2442.679609,-10436.903782,1685.410096
584.652173,-2368.659014,-10658.965565,766.095498
584.652501,-3256.906145,-9770.718434,76.609550
584.652828,-2960.823768,-8586.388927,0.000000
584.653156,-2368.659014,-7772.162391,-536.266849
584.653483,444.123565,-6587.832884,0.000000
584.653811,1998.556043,-6217.729913,0.000000
584.654139,1628.453072,-6365.771101,306.438199
584.654466,1628.453072,-7105.977043,76.609550
584.654794,222.061783,-8068.244768,-229.828649
584.655122,-370.102971,-8660.409521,0.000000
584.655449,0.000000,-9030.512492,536.266849
584.655777,962.267725,-9696.697840,1072.533697
584.656105,148.041188,-10658.965565,1225.752797
584.656432,-962.267725,-11325.150913,995.924147
584.656760,-666.185348,-10955.047942,919.314598
584.657088,-1998.556043,-9696.697840,0.000000
584.657415,-666.185348,-9844.739029,-306.438199
584.657743,1110.308913,-8660.409521,-459.657299
584.658071,1998.556043,-8216.285956,-153.219100
584.658398,2368.659014,-8586.388927,0.000000
584.658726,2072.576638,-9104.533087,306.438199
584.659053,1332.370696,-9252.574275,153.219100
584.659381,0.000000,-9696.697840,-306.438199
584.659709,-1184.329507,-10436.903782,-306.438199
584.660036,-518.144159,-10510.924376,153.219100
584.660364,-592.164754,-10732.986159,306.438199
584.660692,-148.041188,-10362.883188,766.095498
584.661019,444.123565,-9844.739029,1225.752797
584.661347,222.061783,-9770.718434,689.485948
584.661675,-444.123565,-9474.636058,153.219100
584.662002,-370.102971,-9178.553681,153.219100
584.662330,1258.350101,-7698.141797,766.095498
584.662658,1332.370696,-8290.306550,1225.752797
584.662985,518.144159,-9844.739029,1455.581446
584.663313,0.000000,-10584.944971,1455.581446
584.663641,-1110.308913,-10362.883188,1149.143247
584.663968,-2220.617826,-9474.636058,1378.971896
584.664296,-1702.473667,-9622.677246,1225.752797
584.664623,-1258.350101,-10732.986159,1762.019645
584.664951,-1184.329507,-10510.924376,2068.457845
584.665279,-1554.432478,-10140.821405,1991.848295
584.665606,-1332.370696,-9400.615463,1072.533697
584.665934,-2368.659014,-8882.471304,919.314598
584.666262,-2664.741391,-8586.388927,229.828649
584.666589,-1702.473667,-7772.162391,229.828649
584.666917,-370.102971,-7402.059420,766.095498
584.667245,-296.082377,-7698.141797,919.314598
584.667572,-888.247130,-8512.368333,1072.533697
584.667900,-666.185348,-8364.327145,1149.143247
584.668228,-1998.556043,-8512.368333,306.438199
584.668555,-1998.556043,-9474.636058,459.657299
584.668883,-592.164754,-8734.430116,842.705048
584.669211,518.144159,-8660.409521,383.047749
584.669538,740.205942,-8216.285956,1532.190996
584.669866,592.164754,-8956.491898,1378.971896
584.670193,740.205942,-8956.491898,1149.143247
584.670521,-666.185348,-8142.265362,0.000000
584.670849,-296.082377,-8216.285956,995.924147
584.671176,1554.432478,-7179.997637,459.657299
584.671504,1628.453072,-7698.141797,919.314598
584.671832,1480.411884,-8438.347739,995.924147
584.672159,1406.391290,-8660.409521,1225.752797
584.672487,962.267725,-8364.327145,919.314598
584.672815,-370.102971,-8216.285956,153.219100
584.673142,-444.123565,-9178.553681,0.000000
584.673470,0.000000,-8882.471304,0.000000
584.673798,-296.082377,-8512.368333,229.828649
584.674125,-518.144159,-8364.327145,0.000000
584.674453,74.020594,-8142.265362,306.438199
584.674781,-888.247130,-7920.203579,-459.657299
584.675108,-1184.329507,-7624.121203,-612.876398
584.675436,-444.123565,-7105.977043,-459.657299
584.675763,962.267725,-7328.038826,76.609550
584.676091,740.205942,-8364.327145,459.657299
584.676419,0.000000,-9030.512492,689.485948
584.676746,-888.247130,-10066.800811,306.438199
584.677074,-2516.700203,-10066.800811,-383.047749
584.677402,-3256.906145,-10658.965565,-766.095498
584.677729,-2886.803174,-10658.965565,-842.705048
584.678057,-1628.453072,-9548.656652,-919.314598
584.678385,-740.205942,-9474.636058,-842.705048
584.678712,222.061783,-9474.636058,-689.485948
584.679040,518.144159,-9548.656652,-766.095498
584.679368,0.000000,-9104.533087,-1378.971896
584.679695,74.020594,-9030.512492,-1378.971896
584.680023,1184.329507,-9252.574275,-306.438199
584.680351,1924.535449,-9474.636058,689.485948
584.680678,1628.453072,-10881.027347,1608.800546
584.681006,1036.288319,-11325.150913,1991.848295
584.681333,518.144159,-11547.212695,1915.238745
584.681661,-962.267725,-11177.109724,1302.362347
584.681989,-962.267725,-10584.944971,919.314598
584.682316,592.164754,-10362.883188,1149.143247
584.682644,1480.411884,-9326.594869,919.314598
584.682972,1850.514855,-9474.636058,1838.629195
584.683299,2442.679609,-8438.347739,1302.362347
584.683627,1776.494261,-8586.388927,919.314598
584.683955,1036.288319,-9474.636058,1455.581446
584.684282,592.164754,-9474.636058,1302.362347
584.684610,1406.391290,-9622.677246,2528.115143
584.684938,740.205942,-9474.636058,2604.724693
584.685265,-592.164754,-11029.068536,2911.162892
584.685593,-2072.576638,-11769.274478,2757.943793
584.685921,-4219.173869,-11325.150913,1608.800546
584.686248,-5847.626942,-10807.006753,766.095498
584.686576,-5181.441594,-9548.656652,383.047749
584.686903,-4293.194464,-8882.471304,459.657299
584.687231,-3701.029710,-8438.347739,0.000000
584.687559,-2590.720797,-7920.203579,536.266849
584.687886,-1554.432478,-6439.791695,76.609550
584.688214,-1184.329507,-5329.482782,-689.485948
584.688542,-962.267725,-5847.626942,0.000000
584.688869,444.123565,-6069.688724,0.000000
584.689197,1036.288319,-6957.935855,1302.362347
584.689525,74.020594,-8216.285956,1915.238745
584.689852,-222.061783,-9474.636058,2298.286494
584.690180,-444.123565,-9696.697840,2145.067394
584.690508,-2072.576638,-10288.862594,919.314598
584.690835,-1924.535449,-9992.780217,153.219100
584.691163,0.000000,-9104.533087,76.609550
584.691491,814.226536,-7920.203579,-306.438199
584.691818,2220.617826,-7476.080014,0.000000
584.692146,2738.761985,-7105.977043,-459.657299
584.692473,3701.029710,-7031.956449,-306.438199
584.692801,2516.700203,-7031.956449,-919.314598
584.693129,2812.782580,-7698.141797,0.000000
584.693456,3701.029710,-7994.224174,995.924147
584.693784,2812.782580,-8734.430116,1838.629195
584.694112,1480.411884,-10362.883188,1915.238745
584.694439,-148.041188,-11843.295072,1455.581446
584.694767,-1850.514855,-11621.233289,995.924147
584.695095,-3478.967927,-10881.027347,766.095498
584.695422,-2590.720797,-9622.677246,-229.828649
584.695750,-1702.473667,-9178.553681,-689.485948
584.696078,-1480.411884,-8660.409521,-995.924147
584.696405,-962.267725,-7698.141797,-1225.752797
584.696733,148.041188,-6883.915261,-1685.410096
584.697061,-518.144159,-6291.750507,-2221.676944
584.697388,-1480.411884,-7402.059420,-1762.019645
584.697716,0.000000,-8290.306550,-919.314598
584.698043,518.144159,-8808.450710,459.657299
584.698371,888.247130,-9252.574275,842.705048
584.698699,0.000000,-10955.047942,1685.410096
584.699026,-1332.370696,-12213.398043,1762.019645
584.699354,-3256.906145,-12435.459826,919.314598
584.699682,-3849.070898,-12583.501014,383.047749
584.700009,-2146.597232,-10881.027347,76.609550
584.700337,-740.205942,-10140.821405,383.047749
584.700665,740.205942,-9178.553681,76.609550
584.700992,1036.288319,-8290.306550,0.000000
584.701320,2590.720797,-7105.977043,0.000000
584.701648,2072.576638,-5995.668130,-689.485948
584.701975,3108.864956,-6957.935855,-383.047749
584.702303,4145.153275,-7476.080014,1378.971896
584.702631,3108.864956,-8882.471304,2451.505594
584.702958,1702.473667,-10955.047942,3064.381992
584.703286,-222.061783,-11917.315666,2911.162892
584.703613,-2442.679609,-12509.480420,2681.334243
584.703941,-4293.194464,-12953.603985,2451.505594
584.704269,-4589.276840,-11473.192101,1378.971896
584.704596,-2812.782580,-10214.842000,1149.143247
584.704924,-2368.659014,-8438.347739,153.219100
584.705252,-1628.453072,-7846.182985,459.657299
584.705579,-814.226536,-6365.771101,0.000000
584.705907,-222.061783,-5403.503377,-995.924147
584.706235,-370.102971,-5847.626942,-1072.533697
584.706562,444.123565,-6217.729913,0.000000
584.706890,1480.411884,-7179.997637,919.314598
584.707218,1554.432478,-8586.388927,1762.019645
584.707545,-148.041188,-10066.800811,2604.724693
584.707873,-1036.288319,-11843.295072,2834.553343
584.708201,-3478.967927,-12287.418637,2068.457845
584.708528,-4219.173869,-12583.501014,1838.629195
584.708856,-3478.967927,-11103.089130,1072.533697
584.709183,-1702.473667,-9770.718434,919.314598
584.709511,-1258.350101,-8808.450710,76.609550
584.709839,222.061783,-7846.182985,-306.438199
584.710166,1110.308913,-6439.791695,-1149.143247
584.710494,1332.370696,-4737.318029,-1302.362347
584.710822,2072.576638,-5403.503377,-1378.971896
584.711149,3627.009116,-6661.853478,-306.438199
584.711477,4071.132681,-7846.182985,536.266849
584.711805,3034.844362,-9548.656652,1455.581446
584.712132,2072.576638,-11251.130318,2221.676944
584.712460,74.020594,-12139.377449,1762.019645
584.712788,-2368.659014,-13397.727550,1762.019645
584.713115,-3849.070898,-13175.665768,1072.533697
584.713443,-2812.782580,-11473.192101,383.047749
584.713771,-1998.556043,-10066.800811,229.828649
584.714098,-1332.370696,-9030.512492,76.609550
584.714426,-444.123565,-7624.121203,-766.095498
584.714753,0.000000,-6069.688724,-1608.800546
584.715081,444.123565,-4663.297435,-1991.848295
584.715409,1924.535449,-5107.421000,-1225.752797
584.715736,3478.967927,-5403.503377,229.828649
584.716064,2368.659014,-7105.977043,612.876398
584.716392,1406.391290,-9474.636058,1838.629195
584.716719,0.000000,-11251.130318,2068.457845
584.717047,-2220.617826,-11991.336260,2221.676944
584.717375,-4219.173869,-13101.645173,1838.629195
584.717702,-4737.318029,-12509.480420,1149.143247
584.718030,-3849.070898,-11621.233289,536.266849
584.718358,-2442.679609,-9548.656652,0.000000
584.718685,-1406.391290,-7920.203579,-536.266849
584.719013,1036.288319,-7105.977043,-766.095498
584.719341,1554.432478,-5255.462188,-1455.581446
584.719668,1702.473667,-5847.626942,-1378.971896
584.719996,3256.906145,-6069.688724,0.000000
584.720323,3552.988522,-6365.771101,536.266849
584.720651,2516.700203,-8364.327145,1915.238745
584.720979,1998.556043,-9770.718434,3217.601092
584.721306,222.061783,-10807.006753,2451.505594
584.721634,-1924.535449,-11843.295072,2451.505594
584.721962,-3997.112087,-12583.501014,1608.800546
584.722289,-3330.926739,-11917.315666,1378.971896
584.722617,-3330.926739,-10807.006753,1225.752797
584.722945,-2664.741391,-9030.512492,0.000000
584.723272,-1258.350101,-8216.285956,-995.924147
584.723600,-666.185348,-6883.915261,-1762.019645
584.723928,-444.123565,-6069.688724,-1915.238745
584.724255,1036.288319,-5329.482782,-1608.800546
584.724583,3256.906145,-5477.523971,-766.095498
584.724911,2960.823768,-6809.894666,306.438199
584.725238,1480.411884,-9326.594869,1149.143247
584.725566,0.000000,-10584.944971,1378.971896
584.725893,-1406.391290,-11473.192101,1915.238745
584.726221,-3775.050304,-11695.253884,1532.190996
584.726549,-2812.782580,-12435.459826,1762.019645
584.726876,-1776.494261,-11621.233289,1455.581446
584.727204,-1628.453072,-11177.109724,1072.533697
584.727531,-1332.370696,-9474.636058,306.438199
584.727859,0.000000,-8216.285956,-689.485948
584.728186,148.041188,-6883.915261,-1225.752797
584.728514,1702.473667,-6809.894666,-1455.581446
584.728841,3849.070898,-6217.729913,-766.095498
584.729169,5329.482782,-6365.771101,689.485948
584.729496,4589.276840,-7550.100608,2374.896044
584.729824,3849.070898,-9918.759623,2374.896044
584.730152,1110.308913,-11399.171507,2604.724693
584.730479,-1850.514855,-13101.645173,2298.286494
584.730807,-3997.112087,-14285.974681,1762.019645
584.731134,-3108.864956,-13323.706956,1991.848295
584.731462,-2738.761985,-12287.418637,1455.581446
584.731789,-2886.803174,-11769.274478,1149.143247
584.732117,-2146.597232,-10584.944971,383.047749
584.732444,-1480.411884,-8808.450710,-689.485948
584.732772,-1554.432478,-6957.935855,-1838.629195
584.733100,-518.144159,-5699.585753,-2374.896044
584.733427,1776.494261,-5773.606348,-1072.533697
584.733755,2664.741391,-5847.626942,0.000000
584.734082,2146.597232,-7920.203579,689.485948
584.734410,1480.411884,-9326.594869,1532.190996
584.734737,-222.061783,-10066.800811,2604.724693
584.735065,-2516.700203,-12139.377449,1685.410096
584.735392,-3997.112087,-12509.480420,1685.410096
584.735720,-3034.844362,-12509.480420,1378.971896
584.736048,-3182.885551,-11621.233289,1072.533697
584.736375,-1258.350101,-9844.739029,1532.190996
584.736703,-518.144159,-7846.182985,383.047749
584.737030,74.020594,-6883.915261,-689.485948
584.737358,74.020594,-5995.668130,-1915.238745
584.737685,2146.597232,-5255.462188,-1762.019645
584.738013,4071.132681,-4811.338623,-612.876398
584.738340,4367.215058,-4663.297435,612.876398
584.738668,3997.112087,-7994.224174,1608.800546
584.738996,2442.679609,-9326.594869,2221.676944
584.739323,-592.164754,-10510.924376,2221.676944
584.739651,-2072.576638,-11843.295072,2374.896044
584.739978,-2072.576638,-11843.295072,1991.848295
584.740306,-2368.659014,-10584.944971,1991.848295
584.740633,-2590.720797,-10362.883188,1608.800546
584.740961,-2368.659014,-9030.512492,612.876398
584.741288,-1554.432478,-6809.894666,-153.219100
584.741616,-1406.391290,-4811.338623,-1072.533697
584.741944,-518.144159,-4589.276840,-1302.362347
584.742271,962.267725,-4663.297435,-1225.752797
584.742599,1850.514855,-5181.441594,0.000000
584.742926,1332.370696,-6661.853478,536.266849
584.743254,962.267725,-7994.224174,1225.752797
584.743581,-148.041188,-9696.697840,1378.971896
584.743909,-2886.803174,-10955.047942,1302.362347
584.744236,-3849.070898,-11621.233289,1302.362347
584.744564,-2812.782580,-11621.233289,1225.752797
584.744892,-2960.823768,-10881.027347,1149.143247
584.745219,-2516.700203,-10658.965565,536.266849
584.745547,-1480.411884,-9474.636058,0.000000
584.745874,-1332.370696,-7846.182985,-995.924147
584.746202,-1110.308913,-7402.059420,-1762.019645
584.746529,1036.288319,-6587.832884,-1608.800546
584.746857,3034.844362,-5921.647536,-612.876398
584.747184,3923.091493,-6217.729913,383.047749
584.747512,3849.070898,-8808.450710,1378.971896
584.747840,2886.803174,-10584.944971,2221.676944
584.748167,814.226536,-11251.130318,1915.238745
584.748495,-444.123565,-12879.583391,2451.505594
584.748822,-1184.329507,-13027.624579,2068.457845
584.749150,-888.247130,-13323.706956,2298.286494
584.749477,-1036.288319,-12805.562797,2068.457845
584.749805,-1924.535449,-11769.274478,1455.581446
584.750132,-592.164754,-10881.027347,612.876398
584.750460,-1924.535449,-8586.388927,-1149.143247
584.750788,-1110.308913,-7698.141797,-1608.800546
584.751115,1480.411884,-7031.956449,-1378.971896
584.751443,2516.700203,-6217.729913,-766.095498
584.751770,2960.823768,-7105.977043,0.000000
584.752098,2220.617826,-8512.368333,383.047749
584.752425,444.123565,-9548.656652,1072.533697
584.752753,-1554.432478,-11177.109724,1072.533697
584.753080,-2738.761985,-12361.439231,1608.800546
584.753408,-2516.700203,-12435.459826,2145.067394
584.753736,-3256.906145,-11473.192101,2068.457845
584.754063,-3478.967927,-11473.192101,1532.190996
584.754391,-2886.803174,-10881.027347,766.095498
584.754718,-2368.659014,-9326.594869,0.000000
584.755046,-2590.720797,-7698.141797,-1455.581446
584.755373,-370.102971,-6513.812290,-1915.238745
584.755701,2368.659014,-6291.750507,-1149.143247
584.756028,3182.885551,-6439.791695,-229.828649
584.756356,3108.864956,-7772.162391,459.657299
584.756684,2738.761985,-8660.409521,766.095498
584.757011,1036.288319,-9178.553681,383.047749
584.757339,-888.247130,-10807.006753,842.705048
584.757666,-1184.329507,-11621.233289,919.314598
584.757994,-740.205942,-11769.274478,1685.410096
584.758321,-1110.308913,-11843.295072,1838.629195
584.758649,-1554.432478,-10881.027347,1378.971896
584.758976,74.020594,-9252.574275,1302.362347
584.759304,-740.205942,-8068.244768,153.219100
584.759632,-370.102971,-6809.894666,-536.266849
584.759959,1110.308913,-5625.565159,-689.485948
584.760287,2812.782580,-4811.338623,0.000000
584.760614,2886.803174,-5107.421000,383.047749
584.760942,3404.947333,-6587.832884,459.657299
584.761269,1924.535449,-7254.018232,919.314598
584.761597,-370.102971,-8956.491898,612.876398
584.761924,-1480.411884,-10288.862594,919.314598
584.762252,-1480.411884,-10584.944971,1149.143247
584.762579,-1332.370696,-10288.862594,2221.676944
584.762907,-1998.556043,-11399.171507,1915.238745
584.763235,-1924.535449,-10658.965565,1378.971896
584.763562,-2146.597232,-9252.574275,536.266849
584.763890,-2960.823768,-8512.368333,-536.266849
584.764217,-2294.638420,-6143.709319,-995.924147
584.764545,-222.061783,-5551.544565,-842.705048
584.764872,296.082377,-5921.647536,-842.705048
584.765200,148.041188,-6735.874072,-229.828649
584.765527,370.102971,-7550.100608,229.828649
584.765855,-444.123565,-8438.347739,383.047749
584.766183,-1924.535449,-9918.759623,536.266849
584.766510,-1480.411884,-10510.924376,842.705048
584.766838,-592.164754,-10510.924376,1532.190996
584.767165,-888.247130,-10510.924376,1608.800546
584.767493,-370.102971,-10584.944971,1915.238745
584.767820,-740.205942,-9918.759623,1685.410096
584.768148,-1480.411884,-9474.636058,612.876398
584.768475,-1110.308913,-9178.553681,0.000000
584.768803,222.061783,-7624.121203,-229.828649
584.769131,1850.514855,-7105.977043,76.609550
584.769458,1628.453072,-7550.100608,0.000000
584.769786,2146.597232,-8660.409521,383.047749
584.770113,1258.350101,-8956.491898,306.438199
584.770441,296.082377,-9770.718434,459.657299
584.770768,0.000000,-10955.047942,766.095498
584.771096,74.020594,-11325.150913,1225.752797
584.771423,-592.164754,-11399.171507,1302.362347
584.771751,-592.164754,-11547.212695,1838.629195
584.772079,-1184.329507,-10955.047942,1149.143247
584.772406,-370.102971,-9992.780217,1302.362347
584.772734,-1776.494261,-8956.491898,0.000000
584.773061,-1406.391290,-8734.430116,306.438199
584.773389,0.000000,-7698.141797,229.828649
584.773716,592.164754,-7328.038826,459.657299
584.774044,370.102971,-7624.121203,766.095498
584.774371,1332.370696,-8660.409521,1072.533697
584.774699,-740.205942,-8956.491898,766.095498
584.775027,-1998.556043,-9844.739029,0.000000
584.775354,-1480.411884,-9992.780217,306.438199
584.775682,-814.226536,-9918.759623,612.876398
584.776009,-1036.288319,-10732.986159,1072.533697
584.776337,-814.226536,-10362.883188,1685.410096
584.776664,-148.041188,-10510.924376,1302.362347
584.776992,-814.226536,-10362.883188,842.705048
584.777319,-1480.411884,-9770.718434,76.609550
584.777647,-296.082377,-9474.636058,229.828649
584.777975,666.185348,-8660.409521,842.705048
584.778302,444.123565,-8438.347739,536.266849
584.778630,370.102971,-8734.430116,766.095498
584.778957,962.267725,-8808.450710,766.095498
584.779285,-296.082377,-8512.368333,306.438199
584.779612,-370.102971,-8586.388927,306.438199
584.779940,-222.061783,-8956.491898,383.047749
584.780267,222.061783,-9030.512492,766.095498
584.780595,-518.144159,-9252.574275,842.705048
584.780923,-370.102971,-9622.677246,1149.143247
584.781250,0.000000,-9252.574275,536.266849
584.781578,-1184.329507,-8438.347739,459.657299
584.781905,-1480.411884,-9178.553681,0.000000
584.782233,0.000000,-8586.388927,229.828649
584.782560,962.267725,-7846.182985,689.485948
584.782888,962.267725,-7772.162391,689.485948
584.783215,592.164754,-8216.285956,689.485948
584.783543,444.123565,-8660.409521,919.314598
584.783871,-1406.391290,-8660.409521,0.000000
584.784198,-1628.453072,-8882.471304,76.609550
584.784526,-222.061783,-8660.409521,153.219100
584.784853,-740.205942,-8808.450710,689.485948
584.785181,-370.102971,-9030.512492,842.705048
584.785508,-592.164754,-9474.636058,919.314598
584.785836,-1110.308913,-9696.697840,919.314598
584.786163,-2146.597232,-9104.533087,0.000000
584.786491,-444.123565,-8586.388927,153.219100
584.786819,518.144159,-8068.244768,612.876398
584.787146,1184.329507,-8216.285956,995.924147
584.787474,740.205942,-8512.368333,919.314598
584.787801,888.247130,-8512.368333,1455.581446
584.788129,-740.205942,-8734.430116,766.095498
584.788456,-1628.453072,-9548.656652,0.000000
584.788784,-1628.453072,-9548.656652,0.000000
584.789111,-962.267725,-9548.656652,383.047749
584.789439,-888.247130,-9622.677246,306.438199
584.789767,-518.144159,-9622.677246,612.876398
584.790094,592.164754,-9622.677246,1455.581446
584.790422,-518.144159,-9474.636058,76.609550
584.790749,-962.267725,-9696.697840,153.219100
584.791077,222.061783,-9326.594869,76.609550
584.791404,1480.411884,-8734.430116,612.876398
584.791732,1332.370696,-8438.347739,536.266849
584.792059,1332.370696,-9622.677246,1149.143247
584.792387,666.185348,-9992.780217,842.705048
584.792714,-1480.411884,-10140.821405,76.609550
584.793042,-2516.700203,-10066.800811,-383.047749
584.793370,-962.267725,-9474.636058,76.609550
584.793697,-296.082377,-9030.512492,0.000000
584.794025,-222.061783,-9548.656652,536.266849
584.794352,74.020594,-9696.697840,612.876398
584.794680,888.247130,-9030.512492,1072.533697
584.795007,0.000000,-8142.265362,536.266849
584.795335,1184.329507,-7846.182985,612.876398
584.795662,2072.576638,-7846.182985,689.485948
584.795990,1850.514855,-8364.327145,1608.800546
584.796318,1110.308913,-9252.574275,1991.848295
584.796645,148.041188,-10066.800811,2221.676944
584.796973,-1480.411884,-10510.924376,1225.752797
584.797300,-3182.885551,-11177.109724,536.266849
584.797628,-3182.885551,-10510.924376,0.000000
584.797955,-1110.308913,-9992.780217,612.876398
584.798283,-1036.288319,-9252.574275,306.438199
584.798610,-518.144159,-8882.471304,612.876398
584.798938,-296.082377,-8956.491898,536.266849
584.799266,-518.144159,-7994.224174,229.828649
584.799593,-1850.514855,-7550.100608,-383.047749
584.799921,-518.144159,-7550.100608,-229.828649
584.800248,814.226536,-7179.997637,842.705048
584.800576,592.164754,-8142.265362,1302.362347
584.800903,74.020594,-8660.409521,1915.238745
584.801231,-444.123565,-9400.615463,1608.800546
584.801558,-2220.617826,-9992.780217,842.705048
584.801886,-3478.967927,-9622.677246,306.438199
584.802214,-2294.638420,-9548.656652,-383.047749
584.802541,-1036.288319,-9030.512492,0.000000
584.802869,148.041188,-8512.368333,306.438199
584.803196,1332.370696,-8364.327145,383.047749
584.803524,1776.494261,-7698.141797,229.828649
584.803851,888.247130,-7550.100608,0.000000
584.804179,888.247130,-7476.080014,153.219100
584.804506,2516.700203,-8142.265362,1072.533697
584.804834,1628.453072,-8586.388927,1378.971896
584.805162,962.267725,-10140.821405,1685.410096
584.805489,0.000000,-10436.903782,1608.800546
584.805817,-1110.308913,-10658.965565,1685.410096
584.806144,-2664.741391,-10362.883188,383.047749
584.806472,-2442.679609,-10436.903782,459.657299
584.806799,-888.247130,-9178.553681,383.047749
584.807127,-370.102971,-8068.244768,0.000000
584.807454,148.041188,-7846.182985,842.705048
584.807782,1110.308913,-7698.141797,842.705048
584.808110,1776.494261,-6957.935855,1225.752797
584.808437,1258.350101,-6735.874072,1072.533697
584.808765,2072.576638,-7254.018232,2221.676944
584.809092,2738.761985,-7994.224174,2834.553343
584.809420,1406.391290,-9252.574275,3294.210641
584.809747,148.041188,-10436.903782,3600.648841
584.810075,-592.164754,-11029.068536,3600.648841
584.810402,-2368.659014,-11769.274478,2911.162892
584.810730,-3552.988522,-12583.501014,2451.505594
584.811058,-2886.803174,-11547.212695,2374.896044
584.811385,-1332.370696,-10140.821405,2681.334243
584.811713,-518.144159,-8734.430116,2221.676944
584.812040,0.000000,-9400.615463,2068.457845
584.812368,0.000000,-8586.388927,1225.752797
584.812695,-1554.432478,-7920.203579,689.485948
584.813023,-2146.597232,-8290.306550,536.266849
584.813350,-1184.329507,-7550.100608,842.705048
584.813678,370.102971,-8364.327145,2298.286494
584.814006,1184.329507,-8734.430116,3294.210641
584.814333,740.205942,-10362.883188,4136.915689
584.814661,222.061783,-10510.924376,4826.401637
584.814988,-1628.453072,-10510.924376,3830.477490
584.815316,-3552.988522,-11103.089130,2987.772442
584.815643,-2220.617826,-11251.130318,3370.820191
584.815971,-1628.453072,-9992.780217,3370.820191
584.816298,0.000000,-8364.327145,2987.772442
584.816626,1628.453072,-7920.203579,3140.991542
584.816954,2516.700203,-7772.162391,3600.648841
584.817281,2368.659014,-7328.038826,3294.210641
584.817609,2368.659014,-7476.080014,2911.162892
584.817936,2146.597232,-8734.430116,2987.772442
584.818264,1924.535449,-9474.636058,3830.477490
584.818591,1776.494261,-9548.656652,4979.620737
584.818919,2072.576638,-10362.883188,6128.763984
584.819246,1036.288319,-11473.192101,6741.640382
584.819574,-1110.308913,-11547.212695,6358.592633
584.819902,-2442.679609,-10214.842000,5209.449386
584.820229,-3330.926739,-10436.903782,4673.182538
584.820557,-4515.256246,-9844.739029,3907.087040
584.820884,-3701.029710,-8068.244768,2604.724693
584.821212,-1702.473667,-6217.729913,3370.820191
584.821539,-962.267725,-6217.729913,2834.553343
584.821867,-1776.494261,-6217.729913,2298.286494
584.822194,-2812.782580,-6069.688724,1072.533697
584.822522,-2368.659014,-6069.688724,995.924147
584.822850,-2590.720797,-6735.874072,1149.143247
584.823177,-1702.473667,-7179.997637,1685.410096
584.823505,370.102971,-7328.038826,2528.115143
584.823832,2368.659014,-7698.141797,4443.353888
584.824160,2886.803174,-8882.471304,5898.935335
584.824487,1554.432478,-9992.780217,5745.716235
584.824815,-814.226536,-11843.295072,4903.011187
584.825142,-1554.432478,-11843.295072,4290.134789
584.825470,-1184.329507,-10732.986159,3677.258390
584.825797,0.000000,-10140.821405,3294.210641
584.826125,1480.411884,-9178.553681,2911.162892
584.826453,3330.926739,-8512.368333,4060.306139
584.826780,4219.173869,-7550.100608,4290.134789
584.827108,3256.906145,-7105.977043,2911.162892
584.827435,814.226536,-8734.430116,2298.286494
584.827763,-592.164754,-9770.718434,842.705048
584.828091,-3034.844362,-11029.068536,612.876398
584.828418,-2812.782580,-10066.800811,612.876398
584.828746,-1110.308913,-9548.656652,1915.238745
584.829073,74.020594,-9622.677246,3677.258390
584.829401,444.123565,-9770.718434,4673.182538
584.829729,518.144159,-9474.636058,4903.011187
584.830056,296.082377,-9178.553681,4213.525239
584.830384,-444.123565,-9400.615463,3600.648841
584.830712,-1332.370696,-10066.800811,2757.943793
584.831039,-1776.494261,-10362.883188,2451.505594
584.831367,-296.082377,-9178.553681,2374.896044
584.831694,740.205942,-8216.285956,3370.820191
584.832022,2220.617826,-7698.141797,3907.087040
584.832350,2516.700203,-9104.533087,4290.134789
584.832677,1480.411884,-10584.944971,3677.258390
584.833005,370.102971,-10510.924376,2451.505594
584.833333,-222.061783,-10214.842000,3370.820191
584.833660,0.000000,-11473.192101,3447.429741
584.833988,-962.267725,-12361.439231,3677.258390
584.834315,-2294.638420,-12361.439231,3907.087040
584.834643,-2516.700203,-11325.150913,3677.258390
584.834971,-2072.576638,-9178.553681,3830.477490
584.835298,-1036.288319,-8216.285956,3600.648841
584.835626,-370.102971,-7846.182985,3447.429741
584.835954,-1110.308913,-8068.244768,3370.820191
584.836281,-1554.432478,-7698.141797,2834.553343
584.836609,-1258.350101,-6735.874072,3064.381992
584.836937,740.205942,-6883.915261,4060.306139
584.837264,2220.617826,-7402.059420,4903.011187
584.837592,2220.617826,-8586.388927,5056.230287
584.837919,592.164754,-9844.739029,4903.011187
584.838247,-1406.391290,-10214.842000,4443.353888
584.838575,-2442.679609,-10436.903782,3830.477490
584.838902,-1332.370696,-9622.677246,3983.696590
584.839230,148.041188,-9326.594869,3600.648841
584.839558,888.247130,-9548.656652,3370.820191
584.839885,814.226536,-9696.697840,3753.867940
584.840213,-518.144159,-9104.533087,3140.991542
584.840540,-962.267725,-8364.327145,2834.553343
584.840868,-222.061783,-7550.100608,2681.334243
584.841196,518.144159,-7254.018232,2528.115143
584.841523,370.102971,-7698.141797,2911.162892
584.841851,-148.041188,-8216.285956,3600.648841
584.842179,-2294.638420,-8586.388927,2987.772442
584.842506,-2590.720797,-8660.409521,2681.334243
584.842834,-2294.638420,-8808.450710,2374.896044
584.843161,-666.185348,-8586.388927,2528.115143
584.843489,444.123565,-7994.224174,3217.601092
584.843817,1110.308913,-7920.203579,3677.258390
584.844144,296.082377,-7254.018232,3447.429741
584.844472,-444.123565,-7772.162391,2834.553343
584.844800,-666.185348,-8142.265362,1915.238745
584.845127,-296.082377,-8142.265362,1685.410096
584.845455,666.185348,-8512.368333,1838.629195
584.845782,2368.659014,-8290.306550,3140.991542
584.846110,2738.761985,-8956.491898,4213.525239
584.846438,2590.720797,-9992.780217,4596.572988
584.846765,2072.576638,-10658.965565,4060.306139
584.847093,296.082377,-11029.068536,3600.648841
584.847421,-1258.350101,-11473.192101,3064.381992
584.847748,-1850.514855,-11251.130318,2911.162892
584.848076,-962.267725,-10807.006753,3600.648841
584.848403,814.226536,-9548.656652,3830.477490
584.848731,2220.617826,-8956.491898,5286.058936
584.849059,1924.535449,-9030.512492,4903.011187
584.849386,-148.041188,-9030.512492,4060.306139
584.849714,-2886.803174,-9252.574275,2681.334243
584.850042,-4293.194464,-9770.718434,2451.505594
584.850369,-3552.988522,-8660.409521,2068.457845
584.850697,-2220.617826,-8438.347739,2298.286494
584.851024,-222.061783,-7846.182985,3370.820191
584.851352,814.226536,-7624.121203,4366.744339
584.851680,740.205942,-8216.285956,4979.620737
584.852007,-592.164754,-8586.388927,4366.744339
584.852335,-1998.556043,-9844.739029,3294.210641
584.852663,-3627.009116,-10881.027347,2145.067394
584.852990,-3849.070898,-11177.109724,1685.410096
584.853318,-2812.782580,-10807.006753,2451.505594
584.853645,-814.226536,-9696.697840,3753.867940
584.853973,1332.370696,-9030.512492,4213.525239
584.854301,2516.700203,-8734.430116,4290.134789
584.854628,2368.659014,-9030.512492,4060.306139
584.854956,1628.453072,-9400.615463,3370.820191
584.855284,888.247130,-9696.697840,2528.115143
584.855611,370.102971,-10140.821405,3140.991542
584.855939,518.144159,-9992.780217,3524.039291
584.856266,296.082377,-10066.800811,3600.648841
584.856594,74.020594,-9696.697840,3907.087040
584.856922,-444.123565,-9326.594869,3370.820191
584.857249,-222.061783,-8808.450710,3140.991542
584.857577,-666.185348,-8438.347739,2834.553343
584.857905,-296.082377,-7994.224174,2451.505594
584.858232,592.164754,-7624.121203,2451.505594
584.858560,1184.329507,-7550.100608,2757.943793
584.858887,1850.514855,-7476.080014,3370.820191
584.859215,1406.391290,-7402.059420,3753.867940
584.859543,1036.288319,-8290.306550,3753.867940
584.859870,74.020594,-8734.430116,3830.477490
584.860198,-666.185348,-9474.636058,3907.087040
584.860526,-1110.308913,-9474.636058,3983.696590
584.860853,-1628.453072,-9474.636058,3677.258390
584.861181,-1702.473667,-9918.759623,3677.258390
584.861509,-1628.453072,-9474.636058,3447.429741
584.861836,-1110.308913,-9178.553681,3217.601092
584.862164,-518.144159,-8734.430116,3600.648841
584.862491,-370.102971,-8216.285956,2757.943793
584.862819,-592.164754,-7772.162391,2528.115143
584.863147,-740.205942,-7698.141797,2604.724693
584.863474,-888.247130,-7772.162391,2604.724693
584.863802,-1036.288319,-7698.141797,2834.553343
584.864130,-666.185348,-8216.285956,3524.039291
584.864457,-444.123565,-8734.430116,2987.772442
584.864785,-296.082377,-9030.512492,3140.991542
584.865112,222.061783,-9474.636058,3524.039291
584.865440,148.041188,-9770.718434,3600.648841
584.865768,0.000000,-9770.718434,3907.087040
584.866095,-592.164754,-9474.636058,3140.991542
584.866423,0.000000,-9474.636058,2911.162892
584.866751,74.020594,-9030.512492,2451.505594
584.867078,666.185348,-8956.491898,2528.115143
584.867406,1258.350101,-8882.471304,2374.896044
584.867733,962.267725,-9252.574275,2451.505594
584.868061,518.144159,-9992.780217,2528.115143
584.868389,0.000000,-10066.800811,2374.896044
584.868716,-518.144159,-10362.883188,2221.676944
584.869044,-444.123565,-9918.759623,2451.505594
584.869372,-222.061783,-10140.821405,2451.505594
584.869699,-888.247130,-9992.780217,1838.629195
584.870027,-1036.288319,-9696.697840,1838.629195
584.870354,-1184.329507,-9844.739029,1838.629195
584.870682,-1480.411884,-9252.574275,1378.971896
584.871010,-1332.370696,-8956.491898,1762.019645
584.871337,-444.123565,-8512.368333,1378.971896
584.871665,-148.041188,-8438.347739,1302.362347
584.871993,148.041188,-8290.306550,1302.362347
584.872320,296.082377,-8438.347739,1455.581446
584.872648,0.000000,-8142.265362,1608.800546
584.872975,148.041188,-9252.574275,1378.971896
584.873303,0.000000,-9696.697840,1608.800546
584.873631,0.000000,-10066.800811,1608.800546
584.873958,444.123565,-10362.883188,1915.238745
584.874286,1110.308913,-9844.739029,2068.457845
584.874614,1480.411884,-9622.677246,1762.019645
584.874941,1258.350101,-9696.697840,2068.457845
584.875269,888.247130,-9548.656652,1991.848295
584.875596,148.041188,-9326.594869,1915.238745
584.875924,-74.020594,-8956.491898,1455.581446
584.876252,-518.144159,-8808.450710,1455.581446
584.876579,-592.164754,-8882.471304,1149.143247
584.876907,-962.267725,-8734.430116,1302.362347
584.877235,-740.205942,-8734.430116,1149.143247
584.877562,-888.247130,-8512.368333,1149.143247
584.877890,-888.247130,-8290.306550,842.705048
584.878217,-1110.308913,-8216.285956,766.095498
584.878545,-814.226536,-7994.224174,612.876398
584.878873,-740.205942,-8364.327145,459.657299
584.879200,-888.247130,-8216.285956,689.485948
584.879528,-666.185348,-8364.327145,1302.362347
584.879856,-888.247130,-8734.430116,1149.143247
584.880183,-666.185348,-9104.533087,1302.362347
584.880511,-592.164754,-8882.471304,1072.533697
584.880838,-222.061783,-8956.491898,919.314598
584.881166,0.000000,-8734.430116,1149.143247
584.881494,-148.041188,-8364.327145,1149.143247
584.881821,444.123565,-9178.553681,689.485948
584.882149,444.123565,-9252.574275,1072.533697
584.882477,0.000000,-8956.491898,919.314598
584.882804,0.000000,-9252.574275,995.924147
584.883132,222.061783,-9326.594869,536.266849
584.883459,0.000000,-9474.636058,842.705048
584.883787,0.000000,-9104.533087,459.657299
584.884115,0.000000,-8882.471304,459.657299
584.884442,0.000000,-8956.491898,306.438199
584.884770,148.041188,-8808.450710,229.828649
584.885098,-444.123565,-8956.491898,612.876398
584.885425,-518.144159,-8882.471304,766.095498
584.885753,-888.247130,-8882.471304,536.266849
584.886081,-1184.329507,-9252.574275,306.438199
584.886408,-888.247130,-9474.636058,153.219100
584.886736,-962.267725,-9178.553681,766.095498
584.887063,-592.164754,-9252.574275,306.438199
584.887391,-592.164754,-9400.615463,536.266849
584.887719,-444.123565,-9474.636058,459.657299
584.888046,0.000000,-9474.636058,995.924147
584.888374,0.000000,-9326.594869,612.876398
584.888702,0.000000,-9474.636058,383.047749
584.889029,-148.041188,-9622.677246,383.047749
584.889357,-592.164754,-9696.697840,536.266849
584.889684,-222.061783,-9696.697840,766.095498
584.890012,-370.102971,-9252.574275,1225.752797
584.890340,0.000000,-9770.718434,689.485948
584.890667,222.061783,-9548.656652,612.876398
584.890995,370.102971,-9326.594869,612.876398
584.891323,148.041188,-8882.471304,766.095498
584.891650,444.123565,-8882.471304,459.657299
584.891978,0.000000,-8956.491898,536.266849
584.892305,0.000000,-9326.594869,536.266849
584.892633,-148.041188,-9326.594869,766.095498
584.892961,-222.061783,-9400.615463,766.095498
584.893288,222.061783,-9474.636058,919.314598
584.893616,0.000000,-9252.574275,0.000000
584.893944,0.000000,-9104.533087,306.438199
584.894271,0.000000,-8734.430116,383.047749
584.894599,0.000000,-8734.430116,459.657299
584.894926,0.000000,-8364.327145,383.047749
584.895254,-148.041188,-8734.430116,459.657299
584.895582,-666.185348,-8808.450710,229.828649
584.895909,-814.226536,-9030.512492,383.047749
584.896237,-592.164754,-9104.533087,459.657299
584.896565,-888.247130,-8882.471304,459.657299
584.896892,-370.102971,-8438.347739,766.095498
584.897220,-444.123565,-8438.347739,459.657299
584.897547,-518.144159,-8438.347739,459.657299
584.897875,-444.123565,-8512.368333,383.047749
584.898203,-666.185348,-8512.368333,612.876398
584.898530,-592.164754,-8586.388927,1532.190996
584.898858,-888.247130,-9030.512492,612.876398
584.899186,-888.247130,-9252.574275,919.314598
584.899513,-814.226536,-9178.553681,995.924147
584.899841,-740.205942,-9104.533087,689.485948
584.900168,-666.185348,-8882.471304,689.485948
584.900496,0.000000,-8956.491898,842.705048
584.900824,-370.102971,-8734.430116,536.266849
584.901151,-148.041188,-8882.471304,842.705048
584.901479,-296.082377,-9104.533087,766.095498
584.901807,-518.144159,-9104.533087,766.095498
584.902134,-518.144159,-9696.697840,842.705048
584.902462,-592.164754,-9622.677246,919.314598
584.902789,-444.123565,-9326.594869,612.876398
584.903117,-370.102971,-9252.574275,842.705048
584.903445,0.000000,-9252.574275,612.876398
584.903772,-296.082377,-9030.512492,1072.533697
584.904100,-592.164754,-8882.471304,536.266849
584.904428,-296.082377,-9252.574275,689.485948
584.904755,-592.164754,-9104.533087,842.705048
584.905083,-518.144159,-9400.615463,383.047749
584.905410,-370.102971,-9104.533087,689.485948
584.905738,0.000000,-9252.574275,306.438199
584.906066,0.000000,-9178.553681,229.828649
584.906393,0.000000,-8956.491898,153.219100
584.906721,0.000000,-9030.512492,0.000000
584.907049,-222.061783,-8882.471304,383.047749
584.907376,0.000000,-9400.615463,459.657299
584.907704,-444.123565,-9474.636058,536.266849
584.908031,-222.061783,-9548.656652,689.485948
584.908359,-296.082377,-9696.697840,459.657299
584.908687,0.000000,-9622.677246,766.095498
584.909014,0.000000,-8956.491898,383.047749
584.909342,-296.082377,-8586.388927,76.609550
584.909670,-222.061783,-8438.347739,229.828649
584.909997,-740.205942,-8586.388927,383.047749
584.910325,-1036.288319,-8882.471304,383.047749
584.910653,-1332.370696,-8882.471304,689.485948
584.910980,-888.247130,-9030.512492,459.657299
584.911308,-740.205942,-9104.533087,612.876398
584.911635,-518.144159,-8956.491898,612.876398
584.911963,148.041188,-8734.430116,689.485948
584.912291,518.144159,-8364.327145,766.095498
584.912618,518.144159,-8438.347739,306.438199
584.912946,0.000000,-8734.430116,689.485948
584.913274,-148.041188,-9474.636058,919.314598
584.913601,-370.102971,-9770.718434,1378.971896
584.913929,-592.164754,-9474.636058,1378.971896
584.914256,0.000000,-9400.615463,1378.971896
584.914584,148.041188,-9104.533087,1072.533697
584.914912,666.185348,-8660.409521,383.047749
584.915239,666.185348,-7994.224174,459.657299
584.915567,592.164754,-7698.141797,153.219100
584.915895,592.164754,-7772.162391,0.000000
584.916222,-296.082377,-8216.285956,459.657299
584.916550,-666.185348,-9030.512492,459.657299
584.916877,-666.185348,-9326.594869,1072.533697
584.917205,-888.247130,-9400.615463,689.485948
584.917533,-296.082377,-9104.533087,689.485948
584.917860,-296.082377,-8956.491898,459.657299
584.918188,222.061783,-8586.388927,306.438199
584.918516,518.144159,-8364.327145,153.219100
584.918843,296.082377,-8290.306550,0.000000
584.919171,74.020594,-8734.430116,383.047749
584.919498,-740.205942,-9030.512492,76.609550
584.919826,-666.185348,-9844.739029,306.438199
584.920154,-814.226536,-9918.759623,459.657299
584.920481,-1036.288319,-9992.780217,689.485948
584.920809,-666.185348,-9844.739029,536.266849
584.921137,-222.061783,-9178.553681,383.047749
584.921464,222.061783,-8882.471304,306.438199
584.921792,666.185348,-8956.491898,306.438199
584.922119,74.020594,-9030.512492,459.657299
584.922447,74.020594,-9474.636058,689.485948
584.922775,0.000000,-9696.697840,1225.752797
584.923102,-518.144159,-10140.821405,919.314598
584.923430,-888.247130,-10140.821405,919.314598
584.923758,-740.205942,-9844.739029,766.095498
584.924085,-592.164754,-9400.615463,612.876398
584.924413,0.000000,-8734.430116,1225.752797
584.924740,-592.164754,-8438.347739,536.266849
584.925068,-592.164754,-8882.471304,383.047749
584.925396,-888.247130,-9030.512492,766.095498
584.925723,-888.247130,-9474.636058,766.095498
584.926051,-592.164754,-9844.739029,1455.581446
584.926378,-962.267725,-9474.636058,459.657299
584.926706,-592.164754,-9770.718434,766.095498
584.927033,-518.144159,-9548.656652,612.876398
584.927361,-370.102971,-9474.636058,459.657299
584.927688,0.000000,-9030.512492,306.438199
584.928015,0.000000,-9104.533087,306.438199
584.928343,-370.102971,-9548.656652,612.876398
584.928670,-666.185348,-9548.656652,536.266849
584.928998,-740.205942,-9474.636058,766.095498
584.929325,-740.205942,-9400.615463,995.924147
584.929653,-518.144159,-9474.636058,689.485948
584.929980,-888.247130,-8882.471304,459.657299
584.930308,-518.144159,-8364.327145,153.219100
584.930635,-518.144159,-7920.203579,306.438199
584.930963,-222.061783,-7994.224174,153.219100
584.931290,-222.061783,-7772.162391,766.095498
584.931618,-518.144159,-8216.285956,229.828649
584.931945,-444.123565,-8586.388927,995.924147
584.932273,-592.164754,-8882.471304,612.876398
584.932600,-740.205942,-8882.471304,612.876398
584.932928,-370.102971,-8882.471304,919.314598
584.933255,-148.041188,-8956.491898,459.657299
584.933583,-592.164754,-8438.347739,153.219100
584.933910,-296.082377,-8660.409521,459.657299
584.934237,-222.061783,-8882.471304,383.047749
584.934565,-222.061783,-8956.491898,153.219100
584.934892,-148.041188,-8734.430116,459.657299
584.935220,-370.102971,-8956.491898,612.876398
584.935547,-592.164754,-8956.491898,459.657299
584.935875,-296.082377,-9030.512492,383.047749
584.936202,0.000000,-8882.471304,306.438199
584.936530,0.000000,-8808.450710,995.924147
584.936857,148.041188,-8956.491898,689.485948
584.937185,296.082377,-9178.553681,459.657299
584.937512,74.020594,-9326.594869,689.485948
584.937840,74.020594,-9474.636058,919.314598
584.938167,0.000000,-9178.553681,536.266849
584.938495,0.000000,-9548.656652,383.047749
584.938822,0.000000,-9474.636058,383.047749
584.939150,-370.102971,-9178.553681,383.047749
584.939477,-148.041188,-8882.471304,76.609550
584.939805,0.000000,-8660.409521,995.924147
584.940132,-296.082377,-8956.491898,536.266849
584.940459,-296.082377,-8882.471304,383.047749
584.940787,0.000000,-9252.574275,459.657299
584.941114,-370.102971,-9030.512492,612.876398
584.941442,0.000000,-9622.677246,842.705048
584.941769,0.000000,-9326.594869,919.314598
584.942097,-370.102971,-9622.677246,689.485948
584.942424,-296.082377,-9622.677246,919.314598
584.942752,0.000000,-9474.636058,919.314598
584.943079,0.000000,-9548.656652,612.876398
584.943407,296.082377,-9400.615463,689.485948
584.943734,0.000000,-9030.512492,689.485948
584.944062,0.000000,-8956.491898,536.266849
584.944389,-222.061783,-9178.553681,459.657299
584.944717,-296.082377,-9030.512492,536.266849
584.945044,-148.041188,-8956.491898,383.047749
584.945372,-148.041188,-9178.553681,536.266849
584.945699,-148.041188,-9474.636058,459.657299
584.946027,0.000000,-9252.574275,536.266849
584.946354,148.041188,-9326.594869,689.485948
584.946681,444.123565,-9104.533087,689.485948
584.947009,222.061783,-9104.533087,842.705048
584.947336,222.061783,-9326.594869,229.828649
584.947664,74.020594,-9178.553681,383.047749
584.947991,0.000000,-9178.553681,383.047749
584.948319,0.000000,-9474.636058,153.219100
584.948646,148.041188,-9326.594869,229.828649
584.948974,-148.041188,-9178.553681,459.657299
584.949301,0.000000,-9178.553681,76.609550
584.949629,-148.041188,-8882.471304,536.266849
584.949956,0.000000,-8956.491898,153.219100
584.950284,0.000000,-9178.553681,919.314598
584.950611,0.000000,-9178.553681,459.657299
584.950939,-148.041188,-9400.615463,842.705048
584.951266,0.000000,-9548.656652,612.876398
584.951594,0.000000,-9622.677246,842.705048
584.951921,-148.041188,-9474.636058,76.609550
584.952248,-222.061783,-9252.574275,1149.143247
584.952576,-296.082377,-9252.574275,766.095498
584.952903,-370.102971,-8956.491898,689.485948
584.953231,-518.144159,-8956.491898,612.876398
584.953558,-370.102971,-8808.450710,766.095498
584.953886,-444.123565,-8586.388927,842.705048
584.954213,-740.205942,-9104.533087,459.657299
584.954541,-740.205942,-9030.512492,612.876398
584.954868,-666.185348,-9104.533087,612.876398
584.955196,-444.123565,-8956.491898,612.876398
584.955523,-888.247130,-8660.409521,536.266849
584.955851,-296.082377,-9104.533087,536.266849
584.956178,-74.020594,-9104.533087,612.876398
584.956506,0.000000,-8956.491898,383.047749
584.956833,-592.164754,-9030.512492,689.485948
584.957161,-888.247130,-9030.512492,536.266849
584.957488,-740.205942,-9178.553681,842.705048
584.957816,-666.185348,-9178.553681,459.657299
584.958143,-888.247130,-9030.512492,536.266849
584.958470,-592.164754,-9178.553681,459.657299
584.958798,-814.226536,-8882.471304,0.000000
584.959125,-148.041188,-9104.533087,995.924147
584.959453,-444.123565,-9104.533087,612.876398
584.959780,-222.061783,-9326.594869,383.047749
584.960108,-370.102971,-9252.574275,612.876398
584.960435,-296.082377,-9104.533087,689.485948
584.960763,74.020594,-9474.636058,612.876398
584.961090,-518.144159,-8956.491898,766.095498
584.961418,-814.226536,-9030.512492,536.266849
584.961745,-740.205942,-8882.471304,306.438199
584.962073,-962.267725,-8808.450710,612.876398
584.962400,-666.185348,-8660.409521,689.485948
584.962728,-1036.288319,-8438.347739,766.095498
584.963055,-740.205942,-8586.388927,536.266849
584.963383,-740.205942,-8808.450710,612.876398
584.963710,-518.144159,-8660.409521,612.876398
584.964038,-370.102971,-8956.491898,766.095498
584.964365,-592.164754,-8512.368333,919.314598
584.964692,-222.061783,-9030.512492,689.485948
584.965020,-222.061783,-9104.533087,766.095498
584.965347,0.000000,-9104.533087,689.485948
584.965675,-222.061783,-8734.430116,1072.533697
584.966002,222.061783,-8882.471304,995.924147
584.966330,0.000000,-8882.471304,536.266849
584.966657,-222.061783,-9104.533087,459.657299
584.966985,-148.041188,-8956.491898,612.876398
584.967312,-444.123565,-8956.491898,536.266849
584.967640,-370.102971,-8734.430116,689.485948
584.967967,-296.082377,-9104.533087,459.657299
584.968295,0.000000,-9104.533087,383.047749
584.968622,0.000000,-9178.553681,459.657299
584.968950,0.000000,-9252.574275,459.657299
584.969277,74.020594,-9178.553681,612.876398
584.969605,74.020594,-9252.574275,383.047749
584.969932,0.000000,-9178.553681,306.438199
584.970260,-148.041188,-9104.533087,383.047749
584.970587,-296.082377,-9104.533087,153.219100
584.970914,370.102971,-8660.409521,229.828649
584.971242,0.000000,-9178.553681,229.828649
584.971569,-370.102971,-9252.574275,76.609550
584.971897,-222.061783,-8882.471304,383.047749
584.972224,-296.082377,-9178.553681,153.219100
584.972552,0.000000,-9178.553681,153.219100
584.972879,148.041188,-8882.471304,842.705048
584.973207,148.041188,-9474.636058,612.876398
584.973534,74.020594,-9326.594869,689.485948
584.973862,0.000000,-9400.615463,689.485948
584.974189,0.000000,-9474.636058,766.095498
584.974517,74.020594,-9474.636058,1072.533697
584.974844,0.000000,-9474.636058,766.095498
584.975172,-222.061783,-9474.636058,612.876398
584.975499,-296.082377,-9400.615463,689.485948
584.975827,-370.102971,-9474.636058,612.876398
584.976154,0.000000,-9252.574275,459.657299
584.976482,-74.020594,-9030.512492,766.095498
584.976809,-370.102971,-9104.533087,459.657299
584.977136,-148.041188,-9400.615463,459.657299
584.977464,-444.123565,-9178.553681,383.047749
584.977791,-222.061783,-9326.594869,153.219100
584.978119,-222.061783,-8438.347739,612.876398
584.978446,-222.061783,-9252.574275,536.266849
584.978774,-222.061783,-9326.594869,612.876398
584.979101,-148.041188,-9474.636058,919.314598
584.979429,-444.123565,-8882.471304,689.485948
584.979756,-296.082377,-9030.512492,1225.752797
584.980084,0.000000,-9474.636058,612.876398
584.980411,0.000000,-9474.636058,383.047749
584.980739,0.000000,-9252.574275,383.047749
584.981066,0.000000,-9178.553681,689.485948
584.981394,-370.102971,-9104.533087,1225.752797
584.981721,-296.082377,-9474.636058,229.828649
584.982049,0.000000,-9252.574275,536.266849
584.982376,0.000000,-9326.594869,536.266849
584.982703,74.020594,-9400.615463,612.876398
584.983031,0.000000,-9252.574275,842.705048
584.983358,222.061783,-9474.636058,459.657299
584.983686,-296.082377,-9252.574275,459.657299
584.984013,-222.061783,-9030.512492,459.657299
584.984341,-444.123565,-8956.491898,383.047749
584.984668,-444.123565,-8808.450710,459.657299
584.984996,-444.123565,-9030.512492,612.876398
584.985323,-666.185348,-8808.450710,536.266849
584.985651,-592.164754,-8956.491898,536.266849
584.985978,-666.185348,-8808.450710,383.047749
584.986306,-888.247130,-8586.388927,459.657299
584.986633,-518.144159,-8438.347739,1149.143247
584.986961,-370.102971,-8734.430116,842.705048
584.987288,-222.061783,-9030.512492,612.876398
584.987616,-666.185348,-9178.553681,766.095498
584.987943,-740.205942,-9252.574275,919.314598
584.988271,-740.205942,-8438.347739,689.485948
584.988598,-666.185348,-9030.512492,536.266849
584.988925,-814.226536,-8882.471304,842.705048
584.989253,-666.185348,-8512.368333,689.485948
584.989580,-296.082377,-8660.409521,536.266849
584.989908,-592.164754,-8438.347739,919.314598
584.990235,0.000000,-8660.409521,612.876398
584.990563,-740.205942,-8660.409521,306.438199
584.990890,-666.185348,-8660.409521,459.657299
584.991218,-518.144159,-8882.471304,459.657299
584.991545,-148.041188,-8660.409521,689.485948
584.991873,-370.102971,-8882.471304,536.266849
584.992200,-222.061783,-8882.471304,383.047749
584.992528,-518.144159,-8808.450710,459.657299
584.992855,-444.123565,-8808.450710,459.657299
584.993183,-444.123565,-9030.512492,536.266849
584.993510,-592.164754,-9178.553681,306.438199
584.993838,-296.082377,-8734.430116,383.047749
584.994165,-296.082377,-9104.533087,383.047749
584.994493,-148.041188,-8956.491898,536.266849
584.994820,-444.123565,-9030.512492,383.047749
584.995147,-222.061783,-8956.491898,306.438199
584.995475,0.000000,-9178.553681,459.657299
584.995802,0.000000,-9326.594869,459.657299
584.996130,0.000000,-9474.636058,383.047749
584.996457,0.000000,-9326.594869,536.266849
584.996785,222.061783,-8882.471304,612.876398
584.997112,0.000000,-8956.491898,689.485948
584.997440,-148.041188,-9104.533087,536.266849
584.997767,0.000000,-8882.471304,459.657299
584.998095,-222.061783,-8808.450710,383.047749
584.998422,0.000000,-8882.471304,229.828649
584.998750,0.000000,-8956.491898,766.095498
584.999077,-222.061783,-9030.512492,612.876398
584.999405,-222.061783,-8882.471304,689.485948
584.999732,-296.082377,-9030.512492,842.705048
585.000060,0.000000,-9548.656652,612.876398
585.000387,0.000000,-9326.594869,383.047749
585.000715,74.020594,-9104.533087,689.485948
585.001042,74.020594,-9252.574275,689.485948
585.001369,74.020594,-9400.615463,842.705048
585.001697,-222.061783,-9474.636058,842.705048
585.002024,74.020594,-9844.739029,536.266849
585.002352,-222.061783,-9548.656652,459.657299
585.002679,-296.082377,-9474.636058,383.047749
585.003007,-222.061783,-9474.636058,689.485948
585.003334,0.000000,-9474.636058,536.266849
585.003662,148.041188,-9252.574275,306.438199
585.003989,148.041188,-9104.533087,766.095498
585.004317,0.000000,-9252.574275,536.266849
585.004644,0.000000,-9400.615463,689.485948
585.004972,0.000000,-9400.615463,536.266849
585.005299,148.041188,-9326.594869,229.828649
585.005627,0.000000,-9326.594869,1685.410096
585.005954,-222.061783,-9400.615463,536.266849
585.006282,-222.061783,-9326.594869,612.876398
585.006609,-370.102971,-9178.553681,612.876398
585.006937,-222.061783,-9252.574275,459.657299
585.007264,-370.102971,-9030.512492,842.705048
585.007591,-148.041188,-9178.553681,536.266849
585.007919,0.000000,-9326.594869,459.657299
585.008246,-222.061783,-9400.615463,689.485948
585.008574,0.000000,-9326.594869,766.095498
585.008901,148.041188,-9326.594869,459.657299
585.009229,-148.041188,-9178.553681,459.657299
585.009556,0.000000,-9400.615463,536.266849
585.009884,0.000000,-9474.636058,612.876398
585.010211,0.000000,-9252.574275,536.266849
585.010539,0.000000,-9030.512492,689.485948
585.010866,0.000000,-9178.553681,459.657299
585.011194,-296.082377,-9252.574275,536.266849
585.011521,-296.082377,-9104.533087,612.876398
585.011849,-444.123565,-8956.491898,536.266849
585.012176,-222.061783,-8586.388927,153.219100
585.012504,222.061783,-8734.430116,689.485948
585.012831,-296.082377,-8734.430116,459.657299
585.013159,-296.082377,-8882.471304,536.266849
585.013486,-444.123565,-9104.533087,306.438199
585.013813,-592.164754,-9030.512492,383.047749
585.014141,-222.061783,-8734.430116,612.876398
585.014468,-222.061783,-9178.553681,689.485948
585.014796,-370.102971,-9178.553681,383.047749
585.015123,-444.123565,-9178.553681,383.047749
585.015451,-666.185348,-8956.491898,383.047749
585.015778,-370.102971,-8882.471304,612.876398
585.016106,-666.185348,-9030.512492,76.609550
585.016433,-592.164754,-8882.471304,306.438199
585.016761,-222.061783,-8956.491898,459.657299
585.017088,-444.123565,-9030.512492,459.657299
585.017416,-592.164754,-8512.368333,536.266849
585.017743,-222.061783,-8882.471304,229.828649
585.018071,-296.082377,-8808.450710,612.876398
585.018398,-518.144159,-8660.409521,536.266849
585.018726,-518.144159,-8882.471304,842.705048
585.019053,-666.185348,-8882.471304,229.828649
585.019380,-740.205942,-8438.347739,612.876398
585.019708,-518.144159,-8660.409521,536.266849
585.020035,-518.144159,-8808.450710,459.657299
585.020363,-592.164754,-8808.450710,689.485948
585.020690,-666.185348,-8734.430116,612.876398
585.021018,-444.123565,-8956.491898,536.266849
585.021345,-592.164754,-9030.512492,689.485948
585.021673,-592.164754,-9104.533087,536.266849
585.022000,-370.102971,-9178.553681,536.266849
585.022328,0.000000,-9104.533087,383.047749
585.022655,-370.102971,-8956.491898,766.095498
585.022983,-222.061783,-9400.615463,229.828649
585.023310,-222.061783,-9400.615463,459.657299
585.023638,-148.041188,-9104.533087,306.438199
585.023965,0.000000,-8808.450710,306.438199
585.024293,0.000000,-8364.327145,229.828649
585.024620,0.000000,-8660.409521,229.828649
585.024948,0.000000,-8956.491898,459.657299
585.025275,0.000000,-8734.430116,536.266849
585.025602,-148.041188,-9104.533087,536.266849
585.025930,-74.020594,-9178.553681,842.705048
585.026257,74.020594,-9252.574275,1072.533697
585.026585,0.000000,-9622.677246,689.485948
585.026912,0.000000,-9622.677246,612.876398
585.027240,-222.061783,-9770.718434,459.657299
585.027568,0.000000,-9770.718434,689.485948
585.027895,0.000000,-9474.636058,1072.533697
585.028223,148.041188,-9770.718434,306.438199
585.028550,-222.061783,-9326.594869,383.047749
585.028878,0.000000,-9474.636058,689.485948
585.029205,-148.041188,-9400.615463,536.266849
585.029533,0.000000,-8956.491898,306.438199
585.029860,222.061783,-9178.553681,306.438199
585.030188,-222.061783,-9326.594869,842.705048
585.030516,-222.061783,-9326.594869,766.095498
585.030843,-296.082377,-9326.594869,536.266849
585.031171,0.000000,-9326.594869,306.438199
585.031498,-296.082377,-9104.533087,842.705048
585.031826,-296.082377,-9252.574275,766.095498
585.032153,-222.061783,-9326.594869,689.485948
585.032481,-444.123565,-9252.574275,689.485948
585.032809,-444.123565,-9030.512492,306.438199
585.033136,0.000000,-8956.491898,1072.533697
585.033464,-296.082377,-9252.574275,536.266849
585.033791,-148.041188,-9178.553681,383.047749
585.034119,-222.061783,-9030.512492,459.657299
585.034446,-222.061783,-9400.615463,306.438199
585.034774,-296.082377,-9326.594869,842.705048
585.035102,-222.061783,-9178.553681,383.047749
585.035429,0.000000,-9474.636058,536.266849
585.035757,74.020594,-9400.615463,612.876398
585.036084,0.000000,-9474.636058,536.266849
585.036412,-148.041188,-8956.491898,612.876398
585.036739,0.000000,-9178.553681,536.266849
585.037067,-518.144159,-9178.553681,306.438199
585.037394,-444.123565,-9104.533087,383.047749
585.037722,-444.123565,-8882.471304,459.657299
585.038050,0.000000,-8660.409521,842.705048
585.038377,296.082377,-8956.491898,842.705048
585.038705,-148.041188,-8808.450710,306.438199
585.039032,-74.020594,-8808.450710,536.266849
585.039360,-148.041188,-9030.512492,459.657299
585.039687,0.000000,-9104.533087,229.828649
585.040015,0.000000,-9030.512492,76.609550
585.040343,-222.061783,-9252.574275,689.485948
585.040670,0.000000,-9326.594869,766.095498
585.040998,0.000000,-9400.615463,766.095498
585.041325,-222.061783,-9474.636058,612.876398
585.041653,-148.041188,-9548.656652,689.485948
585.041980,-222.061783,-9178.553681,842.705048
585.042308,-148.041188,-9252.574275,229.828649
585.042636,-444.123565,-9030.512492,229.828649
585.042963,-518.144159,-8956.491898,536.266849
585.043291,-222.061783,-8734.430116,766.095498
585.043618,-370.102971,-8660.409521,153.219100
585.043946,-370.102971,-9030.512492,383.047749
585.044273,-296.082377,-9178.553681,536.266849
585.044601,-444.123565,-9104.533087,536.266849
585.044929,-444.123565,-8882.471304,1072.533697
585.045256,-592.164754,-8586.388927,612.876398
585.045584,-370.102971,-8956.491898,459.657299
585.045911,-296.082377,-8956.491898,459.657299
585.046239,-740.205942,-8882.471304,459.657299
585.046566,-666.185348,-8808.450710,459.657299
585.046894,-666.185348,-8660.409521,0.000000
585.047221,-740.205942,-8660.409521,536.266849
585.047549,-740.205942,-8660.409521,536.266849
585.047877,-740.205942,-8734.430116,612.876398
585.048204,-518.144159,-8808.450710,536.266849
585.048532,-518.144159,-8808.450710,1378.971896
585.048859,-296.082377,-9252.574275,689.485948
585.049187,-518.144159,-9178.553681,612.876398
585.049514,-740.205942,-9104.533087,689.485948
585.049842,-444.123565,-9252.574275,459.657299
585.050170,-370.102971,-9178.553681,766.095498
585.050497,-148.041188,-8660.409521,919.314598
585.050825,-444.123565,-9030.512492,459.657299
585.051152,-518.144159,-8586.388927,459.657299
585.051480,-444.123565,-8660.409521,459.657299
585.051807,-148.041188,-8882.471304,612.876398
585.052135,-148.041188,-8808.450710,612.876398
585.052463,-518.144159,-9030.512492,306.438199
585.052790,-148.041188,-9104.533087,459.657299
585.053118,-222.061783,-9326.594869,383.047749
585.053445,222.061783,-9252.574275,383.047749
585.053773,296.082377,-9104.533087,536.266849
585.054100,0.000000,-9326.594869,689.485948
585.054428,0.000000,-9252.574275,383.047749
585.054755,0.000000,-9178.553681,612.876398
585.055083,0.000000,-9326.594869,383.047749
585.055411,-148.041188,-8956.491898,1455.581446
585.055738,0.000000,-9474.636058,229.828649
585.056066,-148.041188,-9400.615463,536.266849
585.056393,0.000000,-9326.594869,459.657299
585.056721,-148.041188,-9326.594869,459.657299
585.057048,0.000000,-9030.512492,689.485948
585.057376,222.061783,-9104.533087,536.266849
585.057704,0.000000,-9178.553681,919.314598
585.058031,0.000000,-9400.615463,689.485948
585.058359,-296.082377,-9326.594869,766.095498
585.058686,-370.102971,-9178.553681,689.485948
585.059014,-296.082377,-9474.636058,383.047749
585.059341,-222.061783,-9326.594869,612.876398
585.059669,-444.123565,-9104.533087,842.705048
585.059997,-592.164754,-9178.553681,689.485948
585.060324,-666.185348,-9030.512492,612.876398
585.060652,-370.102971,-8882.471304,459.657299
585.060979,-592.164754,-9104.533087,919.314598
585.061307,-444.123565,-9326.594869,383.047749
585.061634,-148.041188,-9474.636058,766.095498
585.061962,0.000000,-9474.636058,536.266849
585.062290,148.041188,-9400.615463,306.438199
585.062617,0.000000,-9326.594869,536.266849
585.062945,0.000000,-9474.636058,459.657299
585.063272,74.020594,-9696.697840,536.266849
585.063600,74.020594,-9400.615463,612.876398
585.063927,0.000000,-9326.594869,1149.143247
585.064255,0.000000,-9104.533087,459.657299
585.064582,0.000000,-9178.553681,459.657299
585.064910,74.020594,-9400.615463,306.438199
585.065238,0.000000,-9104.533087,76.609550
585.065565,0.000000,-8586.388927,383.047749
585.065893,74.020594,-8660.409521,0.000000
585.066220,0.000000,-9104.533087,0.000000
585.066548,148.041188,-9178.553681,383.047749
585.066875,0.000000,-9252.574275,153.219100
585.067203,0.000000,-9178.553681,153.219100
585.067531,0.000000,-9252.574275,306.438199
585.067858,-518.144159,-9252.574275,383.047749
585.068186,-370.102971,-9178.553681,459.657299
585.068513,-444.123565,-9104.533087,536.266849
585.068841,-444.123565,-8808.450710,383.047749
585.069168,-370.102971,-8882.471304,153.219100
585.069496,-370.102971,-8734.430116,919.314598
585.069824,-370.102971,-8882.471304,766.095498
585.070151,-518.144159,-8882.471304,612.876398
585.070479,-518.144159,-8956.491898,689.485948
585.070806,-592.164754,-9104.533087,842.705048
585.071134,-962.267725,-8438.347739,689.485948
585.071461,-592.164754,-8808.450710,689.485948
585.071789,-296.082377,-8882.471304,766.095498
585.072116,-444.123565,-8734.430116,1072.533697
585.072444,-370.102971,-8882.471304,995.924147
585.072772,-444.123565,-8586.388927,1302.362347
585.073099,-666.185348,-8956.491898,842.705048
585.073427,-740.205942,-8734.430116,612.876398
585.073754,-592.164754,-8956.491898,612.876398
585.074082,-518.144159,-8808.450710,536.266849
585.074409,-296.082377,-8734.430116,919.314598
585.074737,0.000000,-9326.594869,689.485948
585.075065,-296.082377,-9400.615463,612.876398
585.075392,-222.061783,-9474.636058,536.266849
585.075720,0.000000,-9400.615463,612.876398
585.076047,148.041188,-9326.594869,919.314598
585.076375,0.000000,-8956.491898,919.314598
585.076702,74.020594,-9474.636058,612.876398
585.077030,-222.061783,-9326.594869,689.485948
585.077358,-222.061783,-9104.533087,612.876398
585.077685,-222.061783,-9326.594869,766.095498
585.078013,0.000000,-8808.450710,689.485948
585.078340,-296.082377,-8956.491898,383.047749
585.078668,-148.041188,-8586.388927,383.047749
585.078995,-222.061783,-8882.471304,536.266849
585.079323,-296.082377,-9178.553681,459.657299
585.079651,-518.144159,-8956.491898,919.314598
585.079978,-444.123565,-8956.491898,383.047749
585.080306,-296.082377,-9252.574275,919.314598
585.080633,-370.102971,-9400.615463,766.095498
585.080961,-518.144159,-9474.636058,842.705048
585.081288,-370.102971,-9030.512492,919.314598
585.081616,-370.102971,-9400.615463,842.705048
585.081943,-592.164754,-9178.553681,689.485948
585.082271,-962.267725,-9030.512492,919.314598
585.082599,-666.185348,-9104.533087,536.266849
585.082926,-518.144159,-8956.491898,766.095498
585.083254,-592.164754,-8956.491898,459.657299
585.083581,-444.123565,-9178.553681,459.657299
585.083909,-444.123565,-9252.574275,383.047749
585.084236,-296.082377,-9178.553681,536.266849
585.084564,0.000000,-9178.553681,383.047749
585.084892,0.000000,-9178.553681,306.438199
585.085219,-148.041188,-9178.553681,536.266849
585.085547,-148.041188,-9178.553681,383.047749
585.085874,0.000000,-9326.594869,306.438199
585.086202,0.000000,-9252.574275,306.438199
585.086529,148.041188,-9326.594869,459.657299
585.086857,0.000000,-9178.553681,153.219100
585.087185,74.020594,-8882.471304,0.000000
585.087512,74.020594,-9104.533087,306.438199
585.087840,444.123565,-9104.533087,229.828649
585.088167,518.144159,-8882.471304,0.000000
585.088495,0.000000,-9178.553681,306.438199
585.088822,0.000000,-9474.636058,306.438199
585.089150,-222.061783,-9474.636058,306.438199
585.089477,0.000000,-9548.656652,153.219100
585.089805,222.061783,-9474.636058,612.876398
585.090133,0.000000,-9400.615463,459.657299
585.090460,0.000000,-9252.574275,383.047749
585.090788,-222.061783,-9030.512492,383.047749
585.091115,-370.102971,-9030.512492,689.485948
585.091443,-518.144159,-8808.450710,229.828649
585.091770,-962.267725,-8142.265362,766.095498
585.092098,-370.102971,-9030.512492,842.705048
585.092426,-370.102971,-8956.491898,766.095498
585.092753,-370.102971,-9178.553681,536.266849
585.093081,-222.061783,-8808.450710,842.705048
585.093408,-222.061783,-8882.471304,689.485948
585.093736,-370.102971,-9252.574275,842.705048
585.094063,-370.102971,-9326.594869,842.705048
585.094391,-370.102971,-9178.553681,689.485948
585.094719,-148.041188,-9400.615463,842.705048
585.095046,0.000000,-8956.491898,995.924147
585.095374,-444.123565,-9326.594869,919.314598
585.095701,-592.164754,-9252.574275,766.095498
585.096029,-444.123565,-9474.636058,689.485948
585.096356,-444.123565,-9326.594869,689.485948
585.096684,0.000000,-8808.450710,306.438199
585.097012,-296.082377,-8956.491898,306.438199
585.097339,0.000000,-9030.512492,689.485948
585.097667,-370.102971,-9252.574275,612.876398
585.097994,-296.082377,-9326.594869,459.657299
585.098322,-296.082377,-9252.574275,919.314598
585.098649,0.000000,-9400.615463,536.266849
585.098977,-222.061783,-9104.533087,766.095498
585.099304,-148.041188,-9178.553681,612.876398
585.099632,-296.082377,-9104.533087,383.047749
585.099960,-222.061783,-9104.533087,306.438199
585.100287,0.000000,-9252.574275,689.485948
585.100615,-444.123565,-8808.450710,306.438199
585.100942,-296.082377,-9104.533087,306.438199
585.101270,-296.082377,-9030.512492,612.876398
585.101597,-296.082377,-9104.533087,383.047749
585.101925,0.000000,-8808.450710,153.219100
585.102253,-148.041188,-8882.471304,612.876398
585.102580,-296.082377,-8734.430116,536.266849
585.102908,-370.102971,-9030.512492,459.657299
585.103235,-444.123565,-9104.533087,536.266849
585.103563,-592.164754,-8734.430116,306.438199
585.103890,-444.123565,-8808.450710,612.876398
585.104218,-444.123565,-8808.450710,383.047749
585.104546,-592.164754,-8808.450710,612.876398
585.104873,-666.185348,-8956.491898,536.266849
585.105201,-740.205942,-8586.388927,1149.143247
585.105528,-740.205942,-8956.491898,459.657299
585.105856,-370.102971,-8808.450710,612.876398
585.106183,-444.123565,-9030.512492,689.485948
585.106511,-518.144159,-8882.471304,612.876398
585.106838,-444.123565,-9030.512492,766.095498
585.107166,-222.061783,-9104.533087,383.047749
585.107494,-444.123565,-9252.574275,459.657299
585.107821,-592.164754,-9030.512492,459.657299
585.108149,-518.144159,-9178.553681,536.266849
585.108476,-518.144159,-9030.512492,459.657299
585.108804,-222.061783,-8660.409521,689.485948
585.109131,-296.082377,-8734.430116,383.047749
585.109459,-148.041188,-8956.491898,459.657299
585.109787,-148.041188,-8660.409521,383.047749
585.110114,-222.061783,-8956.491898,536.266849
585.110442,-222.061783,-8660.409521,536.266849
585.110769,-148.041188,-9104.533087,919.314598
585.111097,-222.061783,-9104.533087,766.095498
585.111424,-222.061783,-9400.615463,459.657299
585.111752,-222.061783,-9474.636058,536.266849
585.112080,-148.041188,-9474.636058,689.485948
585.112407,0.000000,-9326.594869,1072.533697
585.112735,-222.061783,-9104.533087,612.876398
585.113062,-148.041188,-9178.553681,306.438199
585.113390,0.000000,-9178.553681,612.876398
585.113717,0.000000,-9178.553681,612.876398
585.114045,0.000000,-9104.533087,1762.019645
585.114373,0.000000,-9326.594869,536.266849
585.114700,-444.123565,-9622.677246,766.095498
585.115028,-592.164754,-9474.636058,459.657299
585.115355,-518.144159,-9622.677246,459.657299
585.115683,-444.123565,-9474.636058,1072.533697
585.116010,-592.164754,-9326.594869,842.705048
585.116338,-444.123565,-9400.615463,689.485948
585.116665,-444.123565,-9326.594869,612.876398
585.116993,-370.102971,-9622.677246,919.314598
585.117321,-370.102971,-9474.636058,306.438199
585.117648,-666.185348,-9252.574275,612.876398
585.117976,-370.102971,-9252.574275,536.266849
585.118303,-444.123565,-9252.574275,536.266849
585.118631,-222.061783,-9104.533087,612.876398
585.118958,0.000000,-9030.512492,842.705048
585.119286,0.000000,-9400.615463,612.876398
585.119614,-148.041188,-9474.636058,766.095498
585.119941,0.000000,-9326.594869,536.266849
585.120269,0.000000,-9474.636058,842.705048
585.120596,0.000000,-9400.615463,766.095498
585.120924,222.061783,-9400.615463,1225.752797
585.121251,222.061783,-9326.594869,689.485948
585.121579,0.000000,-9178.553681,536.266849
585.121907,-296.082377,-9030.512492,459.657299
585.122234,-296.082377,-8956.491898,536.266849
585.122562,-222.061783,-8660.409521,612.876398
585.122889,0.000000,-8586.388927,612.876398
585.123217,0.000000,-8808.450710,459.657299
585.123544,0.000000,-8734.430116,383.047749
585.123872,-518.144159,-8882.471304,383.047749
585.124199,0.000000,-8956.491898,689.485948
585.124527,-222.061783,-8660.409521,689.485948
585.124855,0.000000,-8882.471304,383.047749
585.125182,0.000000,-8808.450710,459.657299
585.125510,0.000000,-8734.430116,383.047749
585.125837,-148.041188,-8660.409521,536.266849
585.126165,-148.041188,-8660.409521,383.047749
585.126492,-222.061783,-8882.471304,689.485948
585.126820,-518.144159,-8734.430116,612.876398
585.127148,-666.185348,-8660.409521,919.314598
585.127475,-444.123565,-8734.430116,689.485948
585.127803,-222.061783,-9030.512492,1149.143247
585.128130,-518.144159,-9252.574275,689.485948
585.128458,-592.164754,-9104.533087,612.876398
585.128785,-370.102971,-8882.471304,1149.143247
585.129113,-370.102971,-9104.533087,842.705048
585.129441,-222.061783,-9326.594869,306.438199
585.129768,-444.123565,-8882.471304,612.876398
585.130096,-666.185348,-9104.533087,766.095498
585.130423,-666.185348,-8882.471304,0.000000
585.130751,-814.226536,-9030.512492,536.266849
585.131079,-592.164754,-9104.533087,919.314598
585.131406,-444.123565,-9252.574275,383.047749
585.131734,-592.164754,-8808.450710,383.047749
585.132061,-296.082377,-8882.471304,306.438199
585.132389,-296.082377,-9178.553681,766.095498
585.132717,0.000000,-9252.574275,306.438199
585.133044,148.041188,-9178.553681,689.485948
585.133372,-296.082377,-9104.533087,459.657299
585.133700,-296.082377,-9474.636058,689.485948
585.134027,-148.041188,-9474.636058,306.438199
585.134355,-222.061783,-9474.636058,383.047749
585.134682,74.020594,-9178.553681,0.000000
585.135010,-148.041188,-9178.553681,383.047749
585.135338,-296.082377,-9178.553681,229.828649
585.135665,-444.123565,-9178.553681,0.000000
585.135993,-370.102971,-9030.512492,229.828649
585.136320,-296.082377,-9030.512492,536.266849
585.136648,0.000000,-9030.512492,689.485948
585.136976,-296.082377,-9252.574275,0.000000
585.137303,0.000000,-9474.636058,229.828649
585.137631,-370.102971,-9030.512492,306.438199
585.137958,-370.102971,-9030.512492,766.095498
585.138286,-296.082377,-9104.533087,459.657299
585.138614,-370.102971,-9178.553681,612.876398
585.138941,-222.061783,-9030.512492,842.705048
585.139269,-370.102971,-8956.491898,536.266849
585.139596,-296.082377,-9104.533087,536.266849
585.139924,-518.144159,-9178.553681,459.657299
585.140252,-518.144159,-8882.471304,842.705048
585.140579,-296.082377,-8956.491898,995.924147
585.140907,-518.144159,-9030.512492,612.876398
585.141234,-518.144159,-9400.615463,612.876398
585.141562,-296.082377,-8956.491898,459.657299
585.141890,-296.082377,-9030.512492,766.095498
585.142217,-296.082377,-9030.512492,842.705048
585.142545,-296.082377,-9400.615463,612.876398
585.142872,-148.041188,-9326.594869,612.876398
585.143200,0.000000,-9030.512492,612.876398
585.143528,-148.041188,-8660.409521,612.876398
585.143855,-296.082377,-9030.512492,689.485948
585.144183,-370.102971,-9178.553681,919.314598
585.144510,-296.082377,-9178.553681,612.876398
585.144838,-296.082377,-8956.491898,842.705048
585.145166,0.000000,-9030.512492,766.095498
585.145493,0.000000,-9178.553681,766.095498
585.145821,74.020594,-9178.553681,536.266849
585.146148,0.000000,-9400.615463,383.047749
585.146476,148.041188,-9474.636058,459.657299
585.146804,-148.041188,-9326.594869,1149.143247
585.147131,296.082377,-9474.636058,306.438199
585.147459,148.041188,-9474.636058,459.657299
585.147786,0.000000,-9326.594869,766.095498
585.148114,0.000000,-9400.615463,536.266849
585.148442,-444.123565,-9474.636058,306.438199
585.148769,-518.144159,-8956.491898,153.219100
585.149097,-148.041188,-8956.491898,459.657299
585.149424,0.000000,-9178.553681,229.828649
585.149752,0.000000,-9326.594869,306.438199
585.150080,0.000000,-9474.636058,459.657299
585.150407,-222.061783,-9252.574275,995.924147
585.150735,-296.082377,-9104.533087,842.705048
585.151063,-222.061783,-9252.574275,459.657299
585.151390,-370.102971,-9400.615463,919.314598
585.151718,-370.102971,-9252.574275,842.705048
585.152045,0.000000,-9030.512492,919.314598
585.152373,-518.144159,-9400.615463,842.705048
585.152701,-666.185348,-9252.574275,766.095498
585.153028,-444.123565,-9178.553681,842.705048
585.153356,-370.102971,-9178.553681,689.485948
585.153683,-740.205942,-8734.430116,1225.752797
585.154011,-296.082377,-9104.533087,536.266849
585.154339,-518.144159,-9104.533087,536.266849
585.154666,-592.164754,-9104.533087,536.266849
585.154994,-666.185348,-8956.491898,536.266849
585.155321,-370.102971,-9252.574275,306.438199
585.155649,-444.123565,-8734.430116,459.657299
585.155977,-370.102971,-9104.533087,459.657299
585.156304,-518.144159,-8882.471304,536.266849
585.156632,-370.102971,-9030.512492,383.047749
585.156959,-444.123565,-8586.388927,0.000000
585.157287,-592.164754,-8586.388927,383.047749
585.157615,-222.061783,-8586.388927,229.828649
585.157942,-148.041188,-8808.450710,383.047749
585.158270,0.000000,-8882.471304,0.000000
585.158597,-222.061783,-8956.491898,229.828649
585.158925,0.000000,-8808.450710,76.609550
585.159253,0.000000,-9030.512492,383.047749
585.159580,0.000000,-8956.491898,229.828649
585.159908,74.020594,-9252.574275,153.219100
585.160235,0.000000,-9104.533087,459.657299
585.160563,0.000000,-8956.491898,1149.143247
585.160891,-222.061783,-8808.450710,459.657299
585.161218,-222.061783,-9030.512492,383.047749
585.161546,-370.102971,-9178.553681,306.438199
585.161873,-296.082377,-9252.574275,536.266849
585.162201,-444.123565,-9030.512492,766.095498
585.162529,-296.082377,-8882.471304,919.314598
585.162856,-444.123565,-8882.471304,383.047749
585.163184,-296.082377,-8956.491898,766.095498
585.163511,0.000000,-8808.450710,612.876398
585.163839,-370.102971,-9104.533087,459.657299
585.164167,-592.164754,-8586.388927,919.314598
585.164494,-444.123565,-9252.574275,612.876398
585.164822,-296.082377,-9178.553681,689.485948
585.165149,-296.082377,-9400.615463,842.705048
585.165477,0.000000,-9474.636058,766.095498
585.165805,0.000000,-9030.512492,459.657299
585.166132,-296.082377,-9326.594869,536.266849
585.166460,-370.102971,-9178.553681,842.705048
585.166787,-518.144159,-8956.491898,536.266849
585.167115,-444.123565,-9252.574275,536.266849
585.167443,0.000000,-8956.491898,612.876398
585.167770,-370.102971,-9400.615463,536.266849
585.168098,-444.123565,-9326.594869,689.485948
585.168426,-592.164754,-9622.677246,612.876398
585.168753,-592.164754,-9400.615463,689.485948
585.169081,-296.082377,-9548.656652,612.876398
585.169408,0.000000,-9400.615463,766.095498
585.169736,-148.041188,-9400.615463,842.705048
585.170064,-296.082377,-9400.615463,612.876398
585.170391,-370.102971,-9326.594869,766.095498
585.170719,-592.164754,-8808.450710,689.485948
585.171046,-592.164754,-8808.450710,0.000000
585.171374,-222.061783,-9104.533087,536.266849
585.171702,-222.061783,-8882.471304,459.657299
585.172029,-222.061783,-8956.491898,459.657299
585.172357,-222.061783,-8808.450710,459.657299
585.172684,0.000000,-8956.491898,612.876398
585.173012,0.000000,-8956.491898,306.438199
585.173340,0.000000,-9252.574275,459.657299
585.173667,0.000000,-9474.636058,536.266849
585.173995,74.020594,-9400.615463,612.876398
585.174322,148.041188,-9252.574275,1149.143247
585.174650,0.000000,-9178.553681,612.876398
585.174978,0.000000,-9400.615463,612.876398
585.175305,-296.082377,-9104.533087,383.047749
585.175633,-370.102971,-9030.512492,383.047749
585.175960,-444.123565,-8586.388927,689.485948
585.176288,-296.082377,-8734.430116,995.924147
585.176616,-222.061783,-8808.450710,536.266849
585.176943,-444.123565,-9104.533087,612.876398
585.177271,-296.082377,-8956.491898,612.876398
585.177598,-222.061783,-8808.450710,612.876398
585.177926,0.000000,-9178.553681,383.047749
585.178254,-444.123565,-9104.533087,689.485948
585.178581,-518.144159,-9326.594869,842.705048
585.178909,-444.123565,-8956.491898,536.266849
585.179236,-296.082377,-8734.430116,459.657299
585.179564,-518.144159,-8364.327145,766.095498
585.179892,-296.082377,-8882.471304,229.828649
585.180219,-444.123565,-8882.471304,306.438199
585.180547,-370.102971,-8660.409521,306.438199
585.180874,-296.082377,-8808.450710,383.047749
585.181202,-296.082377,-8512.368333,229.828649
585.181530,-370.102971,-8808.450710,383.047749
585.181857,-370.102971,-9252.574275,459.657299
585.182185,0.000000,-9400.615463,536.266849
585.182512,0.000000,-9178.553681,689.485948
585.182840,0.000000,-9326.594869,383.047749
585.183168,0.000000,-9326.594869,766.095498
585.183495,0.000000,-9252.574275,306.438199
585.183823,-370.102971,-9030.512492,766.095498
585.184150,-222.061783,-9030.512492,459.657299
585.184478,-518.144159,-9178.553681,459.657299
585.184806,-444.123565,-8734.430116,689.485948
585.185133,0.000000,-9030.512492,459.657299
585.185461,0.000000,-9104.533087,306.438199
585.185789,-222.061783,-9400.615463,612.876398
585.186116,-444.123565,-9252.574275,536.266849
585.186444,0.000000,-9030.512492,383.047749
585.186771,-370.102971,-9326.594869,459.657299
585.187099,-518.144159,-9474.636058,612.876398
585.187427,-296.082377,-9474.636058,612.876398
585.187754,-444.123565,-9622.677246,612.876398
585.188082,-148.041188,-9178.553681,766.095498
585.188409,-296.082377,-9400.615463,919.314598
585.188737,-222.061783,-9178.553681,536.266849
585.189065,-444.123565,-8808.450710,459.657299
585.189392,-666.185348,-8808.450710,459.657299
585.189720,-1110.308913,-8586.388927,459.657299
585.190047,-296.082377,-8660.409521,766.095498
585.190375,-962.267725,-8808.450710,766.095498
585.190703,-592.164754,-9030.512492,919.314598
585.191030,-370.102971,-9178.553681,919.314598
585.191358,-370.102971,-9326.594869,995.924147
585.191685,-222.061783,-8882.471304,1072.533697
585.192013,-222.061783,-8956.491898,766.095498
585.192341,-296.082377,-9178.553681,612.876398
585.192668,-148.041188,-9400.615463,689.485948
585.192996,-296.082377,-9030.512492,689.485948
585.193323,0.000000,-8882.471304,383.047749
585.193651,0.000000,-9104.533087,306.438199
585.193979,-222.061783,-8956.491898,459.657299
585.194306,-222.061783,-9030.512492,383.047749
585.194634,0.000000,-8956.491898,306.438199
585.194961,74.020594,-8808.450710,383.047749
585.195289,74.020594,-8956.491898,153.219100
585.195617,0.000000,-8956.491898,383.047749
585.195944,0.000000,-9178.553681,459.657299
585.196272,0.000000,-9400.615463,459.657299
585.196599,-148.041188,-9326.594869,995.924147
585.196927,0.000000,-9400.615463,383.047749
585.197255,-370.102971,-9178.553681,536.266849
585.197582,-296.082377,-9400.615463,383.047749
585.197910,-370.102971,-9030.512492,383.047749
585.198237,-296.082377,-8882.471304,383.047749
585.198565,-296.082377,-8808.450710,689.485948
585.198893,-370.102971,-9104.533087,689.485948
585.199220,-444.123565,-9252.574275,612.876398
585.199548,-592.164754,-9400.615463,612.876398
585.199875,-592.164754,-9326.594869,536.266849
585.200203,-222.061783,-9104.533087,459.657299
585.200531,-148.041188,-9622.677246,766.095498
585.200858,-370.102971,-9252.574275,766.095498
585.201186,0.000000,-9252.574275,612.876398
585.201513,-444.123565,-9400.615463,689.485948
585.201841,-814.226536,-8956.491898,1302.362347
585.202169,-740.205942,-8956.491898,919.314598
585.202496,-666.185348,-9030.512492,689.485948
585.202824,-666.185348,-9030.512492,766.095498
585.203152,-370.102971,-8956.491898,689.485948
585.203479,-370.102971,-9252.574275,689.485948
585.203807,0.000000,-9030.512492,689.485948
585.204134,0.000000,-8882.471304,612.876398
585.204462,-296.082377,-8808.450710,383.047749
585.204790,-444.123565,-9178.553681,306.438199
585.205117,-444.123565,-9104.533087,229.828649
585.205445,0.000000,-9030.512492,689.485948
585.205772,222.061783,-9178.553681,766.095498
585.206100,74.020594,-9400.615463,536.266849
585.206428,-148.041188,-8956.491898,459.657299
585.206755,0.000000,-8956.491898,383.047749
585.207083,222.061783,-8512.368333,229.828649
585.207410,-370.102971,-8882.471304,153.219100
585.207738,-222.061783,-8956.491898,383.047749
585.208066,-444.123565,-9104.533087,536.266849
585.208393,-296.082377,-9178.553681,536.266849
585.208721,0.000000,-9252.574275,459.657299
585.209048,-74.020594,-9030.512492,689.485948
585.209376,0.000000,-8956.491898,536.266849
585.209704,0.000000,-9030.512492,229.828649
585.210031,0.000000,-8956.491898,383.047749
585.210359,-222.061783,-8808.450710,459.657299
585.210686,0.000000,-9326.594869,612.876398
585.211014,-370.102971,-9104.533087,689.485948
585.211342,-444.123565,-9030.512492,766.095498
585.211669,-444.123565,-9178.553681,612.876398
585.211997,-222.061783,-9104.533087,612.876398
585.212324,0.000000,-8956.491898,612.876398
585.212652,-148.041188,-8734.430116,306.438199
585.212980,0.000000,-8882.471304,459.657299
585.213307,0.000000,-8660.409521,459.657299
585.213635,0.000000,-8882.471304,306.438199
585.213962,0.000000,-9252.574275,689.485948
585.214290,0.000000,-9474.636058,995.924147
585.214618,0.000000,-9622.677246,919.314598
585.214945,0.000000,-9400.615463,612.876398
585.215273,0.000000,-9696.697840,842.705048
585.215600,0.000000,-9104.533087,612.876398
585.215928,148.041188,-9178.553681,1455.581446
585.216256,0.000000,-9252.574275,612.876398
585.216583,-296.082377,-9104.533087,459.657299
585.216911,-444.123565,-9326.594869,536.266849
585.217238,-592.164754,-9104.533087,689.485948
585.217566,-370.102971,-9030.512492,1149.143247
585.217894,-592.164754,-9252.574275,689.485948
585.218221,-370.102971,-9252.574275,306.438199
585.218549,-444.123565,-9178.553681,306.438199
585.218876,-370.102971,-8956.491898,459.657299
585.219204,0.000000,-9178.553681,842.705048
585.219532,-296.082377,-9178.553681,459.657299
585.219859,0.000000,-9474.636058,689.485948
585.220187,-518.144159,-9622.677246,612.876398
585.220515,-666.185348,-9770.718434,689.485948
585.220842,-444.123565,-9474.636058,383.047749
585.221170,-518.144159,-8956.491898,766.095498
585.221497,-296.082377,-9178.553681,612.876398
585.221825,-296.082377,-9104.533087,689.485948
585.222153,-296.082377,-8956.491898,612.876398
585.222480,-370.102971,-8808.450710,612.876398
585.222808,-222.061783,-8882.471304,459.657299
585.223135,-296.082377,-9252.574275,612.876398
585.223463,-370.102971,-9326.594869,459.657299
585.223791,-296.082377,-9178.553681,459.657299
585.224118,-296.082377,-9252.574275,536.266849
585.224446,0.000000,-9400.615463,229.828649
585.224773,0.000000,-9178.553681,0.000000
585.225101,-148.041188,-9104.533087,536.266849
585.225429,-148.041188,-9252.574275,689.485948
585.225756,-148.041188,-9178.553681,612.876398
585.226084,0.000000,-9326.594869,153.219100
585.226411,0.000000,-9178.553681,689.485948
585.226739,0.000000,-9104.533087,383.047749
585.227066,0.000000,-8956.491898,229.828649
585.227394,-148.041188,-8956.491898,383.047749
585.227721,0.000000,-8956.491898,229.828649
585.228049,-296.082377,-8586.388927,612.876398
585.228376,0.000000,-8882.471304,383.047749
585.228704,74.020594,-9030.512492,459.657299
585.229031,0.000000,-8956.491898,612.876398
585.229359,0.000000,-9178.553681,536.266849
585.229686,-444.123565,-8660.409521,459.657299
585.230014,-592.164754,-9104.533087,306.438199
585.230341,-444.123565,-9030.512492,383.047749
585.230669,-148.041188,-8956.491898,1149.143247
585.230996,-296.082377,-8882.471304,536.266849
585.231324,-222.061783,-8734.430116,842.705048
585.231651,0.000000,-9178.553681,689.485948
585.231978,-222.061783,-8808.450710,536.266849
585.232306,0.000000,-8956.491898,459.657299
585.232633,0.000000,-8956.491898,536.266849
585.232961,-148.041188,-9030.512492,1149.143247
585.233288,0.000000,-8956.491898,689.485948
585.233616,-296.082377,-9104.533087,612.876398
585.233943,-296.082377,-9252.574275,919.314598
585.234271,0.000000,-9178.553681,842.705048
585.234598,222.061783,-9178.553681,1149.143247
585.234926,-222.061783,-8956.491898,1225.752797
585.235253,-370.102971,-9104.533087,612.876398
585.235581,-222.061783,-9178.553681,689.485948
585.235908,-444.123565,-9178.553681,689.485948
585.236235,-296.082377,-9104.533087,919.314598
585.236563,-370.102971,-9104.533087,842.705048
585.236890,-444.123565,-9400.615463,612.876398
585.237218,-518.144159,-9474.636058,383.047749
585.237545,-370.102971,-9326.594869,536.266849
585.237873,-296.082377,-9400.615463,383.047749
585.238200,-296.082377,-9252.574275,1378.971896
585.238528,-296.082377,-9326.594869,306.438199
585.238855,-370.102971,-9326.594869,459.657299
585.239183,0.000000,-9400.615463,612.876398
585.239510,-222.061783,-9326.594869,612.876398
585.239838,0.000000,-9178.553681,612.876398
585.240165,-222.061783,-9252.574275,306.438199
585.240493,0.000000,-9104.533087,383.047749
585.240820,-148.041188,-9104.533087,153.219100
585.241147,-370.102971,-8956.491898,383.047749
585.241475,-296.082377,-9474.636058,383.047749
585.241802,0.000000,-9030.512492,766.095498
585.242130,-296.082377,-8956.491898,383.047749
585.242457,-444.123565,-8956.491898,459.657299
585.242785,-444.123565,-8882.471304,612.876398
585.243112,0.000000,-8882.471304,153.219100
585.243440,0.000000,-8660.409521,995.924147
585.243767,-370.102971,-9104.533087,306.438199
585.244095,-592.164754,-9104.533087,536.266849
585.244422,-666.185348,-9252.574275,459.657299
585.244750,-370.102971,-9178.553681,383.047749
585.245077,-148.041188,-9178.553681,229.828649
585.245405,0.000000,-8882.471304,459.657299
585.245732,-148.041188,-8882.471304,229.828649
585.246059,0.000000,-8808.450710,536.266849
585.246387,-444.123565,-8660.409521,306.438199
585.246714,-444.123565,-8660.409521,459.657299
585.247042,-444.123565,-8808.450710,536.266849
585.247369,-444.123565,-9178.553681,766.095498
585.247697,-518.144159,-9104.533087,383.047749
585.248024,0.000000,-8956.491898,536.266849
585.248352,0.000000,-8586.388927,919.314598
585.248679,370.102971,-8808.450710,766.095498
585.249007,0.000000,-8808.450710,459.657299
585.249334,-148.041188,-9104.533087,536.266849
585.249662,-296.082377,-8660.409521,383.047749
585.249989,-296.082377,-9326.594869,612.876398
585.250317,-370.102971,-9326.594869,689.485948
585.250644,-148.041188,-9770.718434,919.314598
585.250971,0.000000,-9474.636058,766.095498
585.251299,0.000000,-9252.574275,536.266849
585.251626,0.000000,-9326.594869,842.705048
585.251954,0.000000,-9400.615463,383.047749
585.252281,0.000000,-9178.553681,689.485948
585.252609,0.000000,-9252.574275,766.095498
585.252936,0.000000,-9474.636058,536.266849
585.253264,-518.144159,-9770.718434,842.705048
585.253591,-518.144159,-9474.636058,919.314598
585.253919,-370.102971,-9400.615463,842.705048
585.254246,-370.102971,-9326.594869,689.485948
585.254574,-296.082377,-9178.553681,536.266849
585.254901,0.000000,-8882.471304,459.657299
585.255229,74.020594,-8882.471304,536.266849
585.255556,0.000000,-9104.533087,1072.533697
585.255883,-370.102971,-9178.553681,612.876398
585.256211,-666.185348,-9400.615463,536.266849
585.256538,-740.205942,-9548.656652,612.876398
585.256866,-296.082377,-9844.739029,1072.533697
585.257193,0.000000,-9030.512492,536.266849
585.257521,370.102971,-8956.491898,919.314598
585.257848,1036.288319,-8734.430116,1149.143247
585.258176,1258.350101,-8660.409521,1608.800546
585.258503,1036.288319,-9178.553681,1532.190996
585.258831,222.061783,-9030.512492,1915.238745
585.259158,148.041188,-9548.656652,1915.238745
585.259486,0.000000,-9400.615463,1608.800546
585.259813,74.020594,-9178.553681,1915.238745
585.260141,148.041188,-9178.553681,1991.848295
585.260468,0.000000,-8956.491898,2528.115143
585.260795,0.000000,-8216.285956,1915.238745
585.261123,-222.061783,-8290.306550,2068.457845
585.261450,-222.061783,-8290.306550,2068.457845
585.261778,-370.102971,-8586.388927,2068.457845
585.262105,-296.082377,-8808.450710,2528.115143
585.262433,-444.123565,-8660.409521,2681.334243
585.262760,-666.185348,-8808.450710,2681.334243
585.263088,-962.267725,-8586.388927,2604.724693
585.263415,-962.267725,-8660.409521,2681.334243
585.263743,-888.247130,-8734.430116,2834.553343
585.264070,-592.164754,-8438.347739,3064.381992
585.264398,-888.247130,-8734.430116,3064.381992
585.264725,-962.267725,-8734.430116,3294.210641
585.265053,-740.205942,-9178.553681,3140.991542
585.265380,-740.205942,-8808.450710,3064.381992
585.265707,-370.102971,-8882.471304,3753.867940
585.266035,-592.164754,-8734.430116,2911.162892
585.266362,-370.102971,-8660.409521,2987.772442
585.266690,-222.061783,-8956.491898,3217.601092
585.267017,0.000000,-8956.491898,2911.162892
585.267345,-148.041188,-8734.430116,3140.991542
585.267672,0.000000,-8808.450710,3217.601092
585.268000,222.061783,-9474.636058,3447.429741
585.268327,74.020594,-9252.574275,3447.429741
585.268655,148.041188,-9178.553681,3677.258390
585.268982,592.164754,-9178.553681,3907.087040
585.269310,962.267725,-9178.553681,3753.867940
585.269637,1258.350101,-9326.594869,3907.087040
585.269965,1036.288319,-8882.471304,4443.353888
585.270292,1406.391290,-9400.615463,4903.011187
585.270619,1036.288319,-9400.615463,5056.230287
585.270947,1110.308913,-9992.780217,5209.449386
585.271274,296.082377,-9622.677246,4903.011187
585.271602,0.000000,-10066.800811,5056.230287
585.271929,-444.123565,-9844.739029,4673.182538
585.272257,-740.205942,-9622.677246,4519.963438
585.272584,-592.164754,-9474.636058,4060.306139
585.272912,-1480.411884,-9104.533087,4366.744339
585.273239,-1628.453072,-9474.636058,3677.258390
585.273567,-2294.638420,-9104.533087,3294.210641
585.273894,-2442.679609,-9030.512492,3064.381992
585.274222,-2368.659014,-8438.347739,3140.991542
585.274549,-1480.411884,-8290.306550,3907.087040
585.274877,-148.041188,-7920.203579,4136.915689
585.275204,1110.308913,-7920.203579,4979.620737
585.275531,2294.638420,-7920.203579,5822.325785
585.275859,2590.720797,-8142.265362,6741.640382
585.276186,2294.638420,-8956.491898,6665.030833
585.276514,740.205942,-10214.842000,6511.811733
585.276841,-740.205942,-11177.109724,6128.763984
585.277169,-2220.617826,-11621.233289,5439.278036
585.277496,-2960.823768,-11473.192101,4519.963438
585.277824,-2738.761985,-10362.883188,4060.306139
585.278151,-1332.370696,-9252.574275,3830.477490
585.278479,296.082377,-8068.244768,4060.306139
585.278806,2368.659014,-7105.977043,4443.353888
585.279134,2664.741391,-7105.977043,4443.353888
585.279461,666.185348,-8512.368333,3600.648841
585.279789,-4663.297435,-10658.965565,1685.410096
585.280116,-9474.636058,-12213.398043,-1072.533697
585.280443,-12287.418637,-11991.336260,-2987.772442
585.280771,-10807.006753,-10362.883188,-3600.648841
585.281098,-6809.894666,-8364.327145,-2757.943793
585.281426,518.144159,-5625.565159,-2374.896044
585.281753,4737.318029,-4885.359217,1378.971896
585.282081,8586.388927,-3330.926739,1532.190996
585.282408,11399.171507,-4293.194464,4213.525239
585.282736,9400.615463,-5329.482782,4366.744339
585.283063,8882.471304,-8438.347739,5362.668486
585.283391,4367.215058,-12583.501014,5286.058936
585.283718,1184.329507,-13619.789333,5209.449386
585.284046,370.102971,-14656.077652,5898.935335
585.284373,1406.391290,-13693.809927,5975.544884
585.284700,5403.503377,-11251.130318,7048.078582
585.285028,7994.224174,-9844.739029,7967.393179
585.285355,10140.821405,-7920.203579,7814.174080
585.285683,6883.915261,-8290.306550,7124.688131
585.286010,3849.070898,-9474.636058,5362.668486
585.286338,-3256.906145,-10140.821405,4290.134789
585.286665,-6957.935855,-10807.006753,2068.457845
585.286993,-8956.491898,-9918.759623,1608.800546
585.287320,-7179.997637,-8734.430116,3677.258390
585.287648,-5477.523971,-6957.935855,5822.325785
585.287975,-3182.885551,-5847.626942,7048.078582
585.288303,-3849.070898,-6217.729913,8580.269578
585.288630,-5699.585753,-7179.997637,6281.983084
585.288958,-7254.018232,-7772.162391,5362.668486
585.289285,-9030.512492,-8068.244768,4136.915689
585.289612,-7698.141797,-7698.141797,4519.963438
585.289940,-6069.688724,-7105.977043,4903.011187
585.290267,-3330.926739,-7402.059420,6358.592633
585.290595,1776.494261,-5699.585753,8350.440928
585.290922,5329.482782,-4737.318029,9882.631924
585.291250,7846.182985,-5773.606348,11031.775171
585.291577,5033.400406,-8290.306550,9729.412825
585.291905,-814.226536,-13989.892304,6741.640382
585.292232,-7920.203579,-17987.004391,3830.477490
585.292560,-12065.356855,-17838.963202,0.000000
585.292887,-11473.192101,-16062.468941,-1608.800546
585.293215,-5477.523971,-13323.706956,-153.219100
585.293542,740.205942,-9992.780217,-153.219100
585.293870,1702.473667,-8734.430116,1762.019645
585.294197,2220.617826,-6809.894666,-919.314598
585.294524,-1628.453072,-6735.874072,-2451.505594
585.294852,-888.247130,-5403.503377,-4903.011187
585.295179,-296.082377,-6365.771101,-3907.087040
585.295507,2516.700203,-7476.080014,-3140.991542
585.295834,5107.421000,-7920.203579,-842.705048
585.296162,6587.832884,-8438.347739,2528.115143
585.296489,8216.285956,-9030.512492,5286.058936
585.296817,7994.224174,-8956.491898,6128.763984
585.297144,7254.018232,-10288.862594,4519.963438
585.297472,5403.503377,-12953.603985,2834.553343
585.297799,1850.514855,-14508.036463,1685.410096
585.298127,2220.617826,-13619.789333,1149.143247
585.298454,4663.297435,-10510.924376,2681.334243
585.298782,6883.915261,-7772.162391,2451.505594
585.299109,9918.759623,-8586.388927,3907.087040
585.299436,7550.100608,-8512.368333,2987.772442
585.299764,1998.556043,-8216.285956,1378.971896
