#time,accel_x,accel_y,accel_z
381.757771,-296.082377,-9178.553681,536.266849
381.758098,-148.041188,-9400.615463,536.266849
381.758426,-222.061783,-9252.574275,536.266849
381.758753,0.000000,-9178.553681,459.657299
381.759081,0.000000,-9030.512492,536.266849
381.759408,148.041188,-9400.615463,612.876398
381.759736,-222.061783,-9252.574275,536.266849
381.760063,-370.102971,-9104.533087,536.266849
381.760391,-518.144159,-9104.533087,383.047749
381.760718,0.000000,-9252.574275,842.705048
381.761046,-296.082377,-8734.430116,689.485948
381.761373,-148.041188,-9178.553681,612.876398
381.761701,0.000000,-8956.491898,689.485948
381.762028,-296.082377,-8956.491898,766.095498
381.762356,-370.102971,-9252.574275,229.828649
381.762683,-444.123565,-8956.491898,459.657299
381.763011,-296.082377,-9030.512492,689.485948
381.763338,-444.123565,-8956.491898,612.876398
381.763666,0.000000,-9252.574275,766.095498
381.763993,0.000000,-9326.594869,612.876398
381.764321,0.000000,-9030.512492,1302.362347
381.764648,-518.144159,-8734.430116,612.876398
381.764976,-444.123565,-9178.553681,689.485948
381.765303,-296.082377,-9178.553681,459.657299
381.765631,-296.082377,-9104.533087,536.266849
381.765958,0.000000,-9400.615463,995.924147
381.766286,0.000000,-8882.471304,689.485948
381.766613,-296.082377,-9178.553681,306.438199
381.766941,-666.185348,-9252.574275,76.609550
381.767268,-1036.288319,-9474.636058,0.000000
381.767596,-1554.432478,-9400.615463,-306.438199
381.767923,-1480.411884,-9104.533087,-306.438199
381.768251,-962.267725,-9178.553681,-459.657299
381.768578,-296.082377,-9030.512492,-536.266849
381.768906,-592.164754,-9030.512492,-689.485948
381.769233,-666.185348,-9252.574275,-842.705048
381.769561,-888.247130,-9178.553681,-1378.971896
381.769888,-1184.329507,-9030.512492,-1225.752797
381.770216,-962.267725,-9178.553681,-1378.971896
381.770543,-592.164754,-9326.594869,-1532.190996
381.770871,-518.144159,-9252.574275,-1149.143247
381.771198,0.000000,-9252.574275,-1685.410096
381.771526,0.000000,-8734.430116,-995.924147
381.771853,0.000000,-9104.533087,-1455.581446
381.772181,0.000000,-9400.615463,-1532.190996
381.772508,74.020594,-9326.594869,-1762.019645
381.772836,370.102971,-9400.615463,-1838.629195
381.773163,222.061783,-9400.615463,-1378.971896
381.773491,0.000000,-9326.594869,-1455.581446
381.773818,518.144159,-9252.574275,-1608.800546
381.774146,518.144159,-9178.553681,-1455.581446
381.774473,888.247130,-9252.574275,-1149.143247
381.774801,296.082377,-9400.615463,-1455.581446
381.775128,74.020594,-9474.636058,-1915.238745
381.775456,0.000000,-9252.574275,-1915.238745
381.775783,-222.061783,-9104.533087,-1685.410096
381.776111,0.000000,-9252.574275,-1608.800546
381.776438,0.000000,-9474.636058,-1225.752797
381.776766,-518.144159,-9030.512492,-1991.848295
381.777093,-666.185348,-8956.491898,-1838.629195
381.777420,-1110.308913,-8882.471304,-2145.067394
381.777748,-1184.329507,-9030.512492,-2221.676944
381.778075,-1258.350101,-9326.594869,-2757.943793
381.778403,-1924.535449,-8882.471304,-2528.115143
381.778730,-1850.514855,-9030.512492,-2604.724693
381.779058,-2072.576638,-9030.512492,-3064.381992
381.779385,-2220.617826,-9030.512492,-3294.210641
381.779713,-1776.494261,-9252.574275,-3064.381992
381.780040,-1776.494261,-8956.491898,-3830.477490
381.780368,-2072.576638,-9030.512492,-3983.696590
381.780695,-1850.514855,-8882.471304,-3983.696590
381.781023,-1258.350101,-8882.471304,-3907.087040
381.781350,-592.164754,-8512.368333,-3447.429741
381.781678,222.061783,-8586.388927,-3447.429741
381.782005,814.226536,-8882.471304,-2987.772442
381.782333,1332.370696,-8808.450710,-2528.115143
381.782660,2146.597232,-8734.430116,-2221.676944
381.782988,2072.576638,-8956.491898,-1762.019645
381.783315,2368.659014,-9178.553681,-1149.143247
381.783643,2442.679609,-9622.677246,-1225.752797
381.783970,1850.514855,-10066.800811,-1302.362347
381.784298,1036.288319,-10140.821405,-1378.971896
381.784625,74.020594,-10436.903782,-2068.457845
381.784953,-740.205942,-10436.903782,-2604.724693
381.785280,-1776.494261,-10214.842000,-3140.991542
381.785608,-1702.473667,-9474.636058,-3830.477490
381.785935,-1258.350101,-9030.512492,-3830.477490
381.786263,0.000000,-8142.265362,-3447.429741
381.786590,1332.370696,-7105.977043,-2374.896044
381.786918,2368.659014,-7105.977043,-1762.019645
381.787245,2368.659014,-7476.080014,-1225.752797
381.787573,1924.535449,-7994.224174,-842.705048
381.787900,592.164754,-8808.450710,-459.657299
381.788228,-1036.288319,-9474.636058,-383.047749
381.788555,-2738.761985,-10214.842000,-383.047749
381.788883,-3627.009116,-10955.047942,-919.314598
381.789210,-3849.070898,-10955.047942,-1225.752797
381.789538,-3108.864956,-9770.718434,-1455.581446
381.789865,-1258.350101,-8586.388927,-1455.581446
381.790193,1406.391290,-7328.038826,-919.314598
381.790520,2960.823768,-7105.977043,-383.047749
381.790848,3849.070898,-6661.853478,0.000000
381.791175,3552.988522,-7179.997637,612.876398
381.791503,2368.659014,-8364.327145,995.924147
381.791830,296.082377,-9622.677246,689.485948
381.792158,-2072.576638,-11325.150913,842.705048
381.792485,-3552.988522,-11917.315666,612.876398
381.792813,-4441.235652,-11991.336260,153.219100
381.793140,-4663.297435,-11399.171507,153.219100
381.793468,-2516.700203,-9918.759623,842.705048
381.793795,0.000000,-8290.306550,1149.143247
381.794123,1628.453072,-7328.038826,1149.143247
381.794450,2812.782580,-6809.894666,1685.410096
381.794778,2664.741391,-6365.771101,1608.800546
381.795105,1332.370696,-7254.018232,1225.752797
381.795433,222.061783,-7698.141797,1072.533697
381.795760,-2664.741391,-9326.594869,383.047749
381.796088,-4145.153275,-9992.780217,0.000000
381.796415,-4589.276840,-10658.965565,0.000000
381.796743,-3627.009116,-10436.903782,0.000000
381.797070,-1776.494261,-9474.636058,459.657299
381.797398,148.041188,-8882.471304,536.266849
381.797725,1850.514855,-8290.306550,919.314598
381.798053,2516.700203,-7920.203579,1225.752797
381.798380,1850.514855,-8290.306550,995.924147
381.798708,148.041188,-8808.450710,383.047749
381.799035,-1702.473667,-9474.636058,536.266849
381.799363,-3182.885551,-10362.883188,-459.657299
381.799690,-3552.988522,-10362.883188,-766.095498
381.800018,-2368.659014,-9918.759623,-612.876398
381.800345,0.000000,-8808.450710,153.219100
381.800673,2960.823768,-7846.182985,536.266849
381.801000,4959.379811,-7476.080014,1685.410096
381.801328,5773.606348,-7402.059420,2374.896044
381.801655,4293.194464,-7920.203579,2298.286494
381.801983,1998.556043,-8882.471304,2068.457845
381.802310,0.000000,-10214.842000,1302.362347
381.802637,-2220.617826,-10214.842000,995.924147
381.802965,-2516.700203,-10436.903782,1225.752797
381.803292,-1924.535449,-9696.697840,766.095498
381.803620,-296.082377,-9326.594869,1149.143247
381.803947,740.205942,-8364.327145,1762.019645
381.804275,1258.350101,-8216.285956,1455.581446
381.804602,1332.370696,-8068.244768,842.705048
381.804930,888.247130,-8364.327145,459.657299
381.805257,-296.082377,-8956.491898,383.047749
381.805585,-2146.597232,-9400.615463,-153.219100
381.805912,-2738.761985,-9400.615463,76.609550
381.806240,-4219.173869,-9474.636058,0.000000
381.806567,-4367.215058,-9548.656652,0.000000
381.806895,-3849.070898,-9252.574275,76.609550
381.807222,-2664.741391,-8586.388927,-306.438199
381.807550,-1258.350101,-7772.162391,0.000000
381.807877,148.041188,-7994.224174,153.219100
381.808205,1184.329507,-7624.121203,612.876398
381.808532,1702.473667,-7772.162391,842.705048
381.808860,1332.370696,-8660.409521,1302.362347
381.809187,74.020594,-9252.574275,842.705048
381.809515,-1628.453072,-10066.800811,459.657299
381.809842,-2738.761985,-10658.965565,-153.219100
381.810170,-2886.803174,-10807.006753,-919.314598
381.810497,-1554.432478,-10510.924376,-919.314598
381.810825,814.226536,-9844.739029,-612.876398
381.811152,3034.844362,-8956.491898,0.000000
381.811480,3849.070898,-8438.347739,383.047749
381.811807,4515.256246,-8586.388927,842.705048
381.812135,3404.947333,-8438.347739,612.876398
381.812462,1554.432478,-9326.594869,612.876398
381.812790,-592.164754,-9844.739029,-306.438199
381.813117,-1924.535449,-10732.986159,-383.047749
381.813445,-2738.761985,-10807.006753,-383.047749
381.813772,-1702.473667,-10140.821405,-153.219100
381.814100,296.082377,-9622.677246,459.657299
381.814427,2220.617826,-8216.285956,1455.581446
381.814755,3552.988522,-7920.203579,1455.581446
381.815082,3256.906145,-7624.121203,1532.190996
381.815410,2368.659014,-7698.141797,1302.362347
381.815737,740.205942,-8142.265362,995.924147
381.816065,-740.205942,-8882.471304,1225.752797
381.816393,-2368.659014,-9548.656652,383.047749
381.816720,-3182.885551,-10066.800811,383.047749
381.817048,-2886.803174,-10140.821405,612.876398
381.817376,-2442.679609,-9918.759623,842.705048
381.817703,-1776.494261,-9326.594869,1072.533697
381.818031,-1036.288319,-8956.491898,766.095498
381.818359,-518.144159,-8660.409521,995.924147
381.818686,-222.061783,-8438.347739,1072.533697
381.819014,-296.082377,-8808.450710,1225.752797
381.819342,-1332.370696,-8956.491898,919.314598
381.819669,-2220.617826,-8882.471304,1072.533697
381.819997,-3034.844362,-9474.636058,766.095498
381.820325,-3182.885551,-9400.615463,383.047749
381.820652,-2294.638420,-9030.512492,306.438199
381.820980,-962.267725,-8364.327145,689.485948
381.821308,740.205942,-8216.285956,842.705048
381.821635,1998.556043,-7402.059420,1991.848295
381.821963,2664.741391,-7846.182985,1838.629195
381.822291,2738.761985,-8068.244768,1991.848295
381.822618,1776.494261,-8808.450710,1991.848295
381.822946,74.020594,-9696.697840,995.924147
381.823274,-1184.329507,-10881.027347,919.314598
381.823601,-1998.556043,-10510.924376,306.438199
381.823929,-2072.576638,-10362.883188,76.609550
381.824257,-1480.411884,-9770.718434,-229.828649
381.824584,0.000000,-9252.574275,229.828649
381.824912,888.247130,-8216.285956,0.000000
381.825240,1480.411884,-8438.347739,383.047749
381.825567,1850.514855,-8364.327145,306.438199
381.825895,1036.288319,-8142.265362,153.219100
381.826223,-148.041188,-8734.430116,-153.219100
381.826550,-1850.514855,-9030.512492,-459.657299
381.826878,-2812.782580,-9992.780217,-995.924147
381.827206,-3478.967927,-9918.759623,-1225.752797
381.827533,-2442.679609,-9400.615463,-919.314598
381.827861,-1332.370696,-8808.450710,-459.657299
381.828189,370.102971,-7846.182985,229.828649
381.828516,2590.720797,-7994.224174,689.485948
381.828844,3256.906145,-7772.162391,1072.533697
381.829172,3182.885551,-7846.182985,995.924147
381.829499,2368.659014,-8586.388927,919.314598
381.829827,1406.391290,-9548.656652,459.657299
381.830155,0.000000,-10288.862594,766.095498
381.830482,-1480.411884,-11029.068536,229.828649
381.830810,-1628.453072,-10881.027347,229.828649
381.831138,-592.164754,-10584.944971,689.485948
381.831465,814.226536,-9696.697840,766.095498
381.831793,1332.370696,-9252.574275,995.924147
381.832121,1998.556043,-8882.471304,995.924147
381.832448,1480.411884,-8734.430116,1149.143247
381.832776,666.185348,-8734.430116,1072.533697
381.833104,-740.205942,-8882.471304,689.485948
381.833431,-2220.617826,-9474.636058,383.047749
381.833759,-3182.885551,-9622.677246,306.438199
381.834087,-3478.967927,-9252.574275,383.047749
381.834414,-2738.761985,-8808.450710,612.876398
381.834742,-1628.453072,-8068.244768,995.924147
381.835070,0.000000,-7624.121203,1149.143247
381.835397,222.061783,-7550.100608,1072.533697
381.835725,740.205942,-7698.141797,1608.800546
381.836053,74.020594,-7920.203579,1378.971896
381.836380,-518.144159,-8512.368333,1378.971896
381.836708,-1406.391290,-9400.615463,1072.533697
381.837036,-2516.700203,-9622.677246,995.924147
381.837363,-2886.803174,-10288.862594,689.485948
381.837691,-2886.803174,-10288.862594,153.219100
381.838019,-1998.556043,-9844.739029,0.000000
381.838346,-666.185348,-9474.636058,0.000000
381.838674,370.102971,-8808.450710,612.876398
381.839002,1332.370696,-8734.430116,612.876398
381.839329,1924.535449,-8808.450710,1072.533697
381.839657,1184.329507,-8808.450710,919.314598
381.839985,148.041188,-9326.594869,842.705048
381.840312,-1628.453072,-9474.636058,612.876398
381.840640,-2664.741391,-10066.800811,229.828649
381.840968,-2738.761985,-9844.739029,-459.657299
381.841295,-2220.617826,-9252.574275,-306.438199
381.841623,0.000000,-8660.409521,-229.828649
381.841951,1702.473667,-7846.182985,689.485948
381.842278,2886.803174,-7179.997637,1149.143247
381.842606,3627.009116,-7698.141797,1378.971896
381.842934,3034.844362,-8068.244768,1455.581446
381.843261,2072.576638,-8882.471304,1302.362347
381.843589,518.144159,-9844.739029,842.705048
381.843917,-814.226536,-10658.965565,459.657299
381.844244,-2294.638420,-11177.109724,153.219100
381.844572,-2146.597232,-11251.130318,0.000000
381.844900,-1702.473667,-10658.965565,459.657299
381.845227,0.000000,-10066.800811,383.047749
381.845555,592.164754,-9104.533087,919.314598
381.845883,1332.370696,-8882.471304,536.266849
381.846210,1036.288319,-8216.285956,689.485948
381.846538,518.144159,-8216.285956,459.657299
381.846866,-740.205942,-8660.409521,383.047749
381.847193,-1776.494261,-9030.512492,153.219100
381.847521,-3182.885551,-9474.636058,0.000000
381.847849,-3256.906145,-9548.656652,0.000000
381.848176,-2664.741391,-9400.615463,229.828649
381.848504,-1480.411884,-8512.368333,383.047749
381.848832,148.041188,-7846.182985,689.485948
381.849159,888.247130,-7994.224174,1149.143247
381.849487,1850.514855,-7994.224174,1455.581446
381.849815,2072.576638,-7994.224174,1532.190996
381.850142,1554.432478,-8882.471304,1532.190996
381.850470,0.000000,-9252.574275,1225.752797
381.850798,-1184.329507,-10214.842000,919.314598
381.851125,-2072.576638,-10732.986159,229.828649
381.851453,-2368.659014,-10510.924376,0.000000
381.851781,-1776.494261,-10066.800811,0.000000
381.852108,-444.123565,-9474.636058,229.828649
381.852436,148.041188,-9252.574275,612.876398
381.852764,1406.391290,-8734.430116,689.485948
381.853091,1184.329507,-8216.285956,689.485948
381.853419,1110.308913,-8290.306550,766.095498
381.853747,74.020594,-8586.388927,306.438199
381.854074,-1406.391290,-9104.533087,0.000000
381.854402,-2886.803174,-9400.615463,-229.828649
381.854730,-3108.864956,-9474.636058,-612.876398
381.855057,-2220.617826,-8808.450710,-689.485948
381.855385,-740.205942,-8216.285956,0.000000
381.855713,740.205942,-7698.141797,995.924147
381.856040,2664.741391,-7994.224174,766.095498
381.856368,2886.803174,-7476.080014,1225.752797
381.856696,2664.741391,-7772.162391,1302.362347
381.857023,1776.494261,-8734.430116,1225.752797
381.857351,592.164754,-9474.636058,1072.533697
381.857679,-1110.308913,-10066.800811,536.266849
381.858006,-1998.556043,-10881.027347,459.657299
381.858334,-1924.535449,-11029.068536,459.657299
381.858662,-1332.370696,-10658.965565,459.657299
381.858989,-370.102971,-9474.636058,229.828649
381.859317,518.144159,-9252.574275,536.266849
381.859645,1258.350101,-8734.430116,766.095498
381.859972,1406.391290,-8512.368333,919.314598
381.860300,1036.288319,-8216.285956,995.924147
381.860628,0.000000,-8660.409521,536.266849
381.860955,-1924.535449,-8660.409521,1378.971896
381.861283,-2664.741391,-9844.739029,0.000000
381.861611,-3552.988522,-9770.718434,0.000000
381.861938,-3034.844362,-9252.574275,229.828649
381.862266,-1924.535449,-8808.450710,612.876398
381.862594,-518.144159,-8512.368333,842.705048
381.862921,740.205942,-7846.182985,1302.362347
381.863249,1924.535449,-7920.203579,1378.971896
381.863577,1628.453072,-7920.203579,1225.752797
381.863904,1110.308913,-8512.368333,1225.752797
381.864232,0.000000,-9474.636058,842.705048
381.864560,-888.247130,-9992.780217,383.047749
381.864887,-2368.659014,-10807.006753,383.047749
381.865215,-2738.761985,-10955.047942,76.609550
381.865543,-2146.597232,-10584.944971,0.000000
381.865870,-1036.288319,-10288.862594,76.609550
381.866198,222.061783,-9474.636058,153.219100
381.866526,1406.391290,-8808.450710,383.047749
381.866853,1480.411884,-8290.306550,995.924147
381.867181,1776.494261,-8142.265362,995.924147
381.867509,518.144159,-8512.368333,842.705048
381.867836,-740.205942,-8882.471304,612.876398
381.868164,-2368.659014,-9104.533087,-306.438199
381.868492,-2886.803174,-9400.615463,-306.438199
381.868819,-2590.720797,-8956.491898,-153.219100
381.869147,-1184.329507,-8512.368333,0.000000
381.869475,370.102971,-7994.224174,459.657299
381.869802,2368.659014,-7550.100608,1149.143247
381.870130,2960.823768,-7624.121203,1225.752797
381.870458,2590.720797,-7920.203579,1302.362347
381.870785,1998.556043,-8586.388927,1378.971896
381.871113,444.123565,-9474.636058,1072.533697
381.871441,-1110.308913,-10066.800811,306.438199
381.871768,-2072.576638,-10807.006753,229.828649
381.872096,-1924.535449,-10732.986159,383.047749
381.872424,-1628.453072,-10066.800811,459.657299
381.872751,-370.102971,-9474.636058,612.876398
381.873079,444.123565,-8956.491898,842.705048
381.873407,1036.288319,-8882.471304,1149.143247
381.873734,740.205942,-8290.306550,689.485948
381.874062,740.205942,-8290.306550,689.485948
381.874390,-296.082377,-8290.306550,536.266849
381.874717,-1776.494261,-8808.450710,995.924147
381.875045,-2368.659014,-9252.574275,0.000000
381.875373,-3256.906145,-9326.594869,0.000000
381.875700,-2738.761985,-8660.409521,0.000000
381.876028,-1776.494261,-8808.450710,0.000000
381.876356,-444.123565,-8586.388927,459.657299
381.876683,1036.288319,-7698.141797,612.876398
381.877011,1702.473667,-7698.141797,766.095498
381.877339,2146.597232,-7920.203579,1072.533697
381.877666,1776.494261,-8438.347739,1302.362347
381.877994,296.082377,-9474.636058,1225.752797
381.878322,-518.144159,-10658.965565,306.438199
381.878649,-1554.432478,-10955.047942,153.219100
381.878977,-2072.576638,-10955.047942,76.609550
381.879305,-1554.432478,-10732.986159,0.000000
381.879632,-222.061783,-10288.862594,76.609550
381.879960,888.247130,-9178.553681,689.485948
381.880288,2146.597232,-8808.450710,612.876398
381.880615,2590.720797,-8660.409521,1072.533697
381.880943,1850.514855,-8586.388927,919.314598
381.881271,444.123565,-8586.388927,766.095498
381.881598,-370.102971,-9400.615463,459.657299
381.881926,-2220.617826,-9696.697840,0.000000
381.882254,-3330.926739,-9992.780217,-383.047749
381.882581,-3256.906145,-9770.718434,-459.657299
381.882909,-1998.556043,-8956.491898,0.000000
381.883237,148.041188,-8290.306550,689.485948
381.883565,1036.288319,-7846.182985,919.314598
381.883892,2368.659014,-7328.038826,1072.533697
381.884220,2368.659014,-7994.224174,995.924147
381.884548,1702.473667,-8216.285956,995.924147
381.884875,296.082377,-9400.615463,919.314598
381.885203,-666.185348,-10214.842000,766.095498
381.885531,-2072.576638,-10510.924376,383.047749
381.885858,-2368.659014,-10881.027347,229.828649
381.886186,-1850.514855,-10436.903782,306.438199
381.886514,-740.205942,-10066.800811,536.266849
381.886841,518.144159,-9178.553681,612.876398
381.887169,1036.288319,-8882.471304,1225.752797
381.887497,1554.432478,-8734.430116,919.314598
381.887824,1036.288319,-8290.306550,1072.533697
381.888152,518.144159,-8512.368333,919.314598
381.888480,-592.164754,-9474.636058,229.828649
381.888807,-2072.576638,-8808.450710,842.705048
381.889135,-2664.741391,-9474.636058,0.000000
381.889463,-2664.741391,-9326.594869,0.000000
381.889790,-1998.556043,-8512.368333,-229.828649
381.890118,-370.102971,-8290.306550,536.266849
381.890446,1110.308913,-8068.244768,995.924147
381.890773,1702.473667,-7328.038826,995.924147
381.891101,2442.679609,-7698.141797,1455.581446
381.891429,1480.411884,-8290.306550,1608.800546
381.891756,370.102971,-9104.533087,1302.362347
381.892084,-962.267725,-9696.697840,383.047749
381.892412,-2146.597232,-10436.903782,536.266849
381.892739,-2738.761985,-10732.986159,-153.219100
381.893067,-2294.638420,-10584.944971,0.000000
381.893395,-1110.308913,-9696.697840,-153.219100
381.893722,370.102971,-9104.533087,0.000000
381.894050,1406.391290,-8290.306550,689.485948
381.894378,1702.473667,-8142.265362,766.095498
381.894705,1554.432478,-7920.203579,689.485948
381.895033,888.247130,-8586.388927,383.047749
381.895361,-1036.288319,-8808.450710,766.095498
381.895688,-2368.659014,-9474.636058,0.000000
381.896016,-3108.864956,-10214.842000,-536.266849
381.896344,-3330.926739,-9770.718434,-842.705048
381.896671,-1998.556043,-9252.574275,-536.266849
381.896999,-296.082377,-8512.368333,0.000000
381.897327,1850.514855,-8290.306550,459.657299
381.897654,2664.741391,-7846.182985,766.095498
381.897982,2738.761985,-7920.203579,766.095498
381.898310,2368.659014,-8512.368333,766.095498
381.898637,1184.329507,-9252.574275,689.485948
381.898965,0.000000,-9918.759623,536.266849
381.899293,-1702.473667,-10584.944971,229.828649
381.899620,-1924.535449,-11029.068536,229.828649
381.899948,-1258.350101,-11029.068536,153.219100
381.900276,-518.144159,-9992.780217,612.876398
381.900603,740.205942,-9252.574275,383.047749
381.900931,1184.329507,-9104.533087,1149.143247
381.901259,1628.453072,-8882.471304,1072.533697
381.901586,1406.391290,-8512.368333,1072.533697
381.901914,444.123565,-8586.388927,919.314598
381.902242,-518.144159,-8882.471304,842.705048
381.902569,-1998.556043,-9474.636058,766.095498
381.902897,-3330.926739,-9474.636058,0.000000
381.903225,-3330.926739,-9400.615463,0.000000
381.903552,-2442.679609,-9030.512492,0.000000
381.903880,-1184.329507,-8512.368333,459.657299
381.904208,740.205942,-8290.306550,1072.533697
381.904535,1554.432478,-7698.141797,1455.581446
381.904863,2146.597232,-7624.121203,1608.800546
381.905191,1850.514855,-8216.285956,1838.629195
381.905518,518.144159,-8808.450710,1991.848295
381.905846,-1332.370696,-9844.739029,229.828649
381.906174,-2442.679609,-10510.924376,995.924147
381.906501,-2738.761985,-10584.944971,383.047749
381.906829,-2368.659014,-9992.780217,459.657299
381.907157,-1258.350101,-9474.636058,842.705048
381.907484,518.144159,-9104.533087,459.657299
381.907812,1258.350101,-8216.285956,1838.629195
381.908140,1702.473667,-8216.285956,1455.581446
381.908467,1406.391290,-7920.203579,1302.362347
381.908795,518.144159,-8586.388927,1072.533697
381.909123,-962.267725,-8808.450710,1455.581446
381.909450,-2220.617826,-9696.697840,0.000000
381.909778,-3182.885551,-9474.636058,0.000000
381.910106,-3404.947333,-9400.615463,-306.438199
381.910433,-2368.659014,-8956.491898,-229.828649
381.910761,-666.185348,-8364.327145,76.609550
381.911089,1332.370696,-7402.059420,153.219100
381.911416,2368.659014,-7179.997637,612.876398
381.911744,3034.844362,-7550.100608,1072.533697
381.912072,2368.659014,-7920.203579,1072.533697
381.912399,1258.350101,-9030.512492,612.876398
381.912727,-222.061783,-9474.636058,0.000000
381.913055,-1924.535449,-10362.883188,76.609550
381.913382,-2664.741391,-11251.130318,0.000000
381.913710,-2072.576638,-11177.109724,0.000000
381.914038,-962.267725,-10214.842000,-229.828649
381.914365,518.144159,-9252.574275,229.828649
381.914693,1776.494261,-8882.471304,229.828649
381.915021,2072.576638,-8438.347739,459.657299
381.915348,2146.597232,-8660.409521,459.657299
381.915676,1036.288319,-8512.368333,383.047749
381.916004,0.000000,-8660.409521,383.047749
381.916331,-1850.514855,-9474.636058,0.000000
381.916659,-2812.782580,-9918.759623,-612.876398
381.916987,-3404.947333,-9770.718434,-612.876398
381.917314,-2368.659014,-9548.656652,-153.219100
381.917642,-888.247130,-8956.491898,76.609550
381.917970,444.123565,-8290.306550,536.266849
381.918297,1924.535449,-8142.265362,842.705048
381.918625,2220.617826,-7920.203579,995.924147
381.918953,2146.597232,-7846.182985,1455.581446
381.919281,814.226536,-9030.512492,1608.800546
381.919608,-814.226536,-9400.615463,1225.752797
381.919936,-2294.638420,-10066.800811,766.095498
381.920264,-2516.700203,-10510.924376,612.876398
381.920591,-2368.659014,-10288.862594,153.219100
381.920919,-1258.350101,-9548.656652,536.266849
381.921247,222.061783,-9252.574275,842.705048
381.921575,1406.391290,-8364.327145,1072.533697
381.921902,1628.453072,-8216.285956,1302.362347
381.922230,1702.473667,-8290.306550,1302.362347
381.922558,962.267725,-8438.347739,1302.362347
381.922885,-592.164754,-9178.553681,1225.752797
381.923213,-2368.659014,-9844.739029,229.828649
381.923541,-3330.926739,-9918.759623,153.219100
381.923869,-3330.926739,-9696.697840,76.609550
381.924196,-2368.659014,-8808.450710,383.047749
381.924524,-518.144159,-8586.388927,766.095498
381.924852,1184.329507,-7846.182985,1455.581446
381.925179,2072.576638,-7402.059420,1762.019645
381.925507,2516.700203,-7624.121203,1455.581446
381.925835,1924.535449,-7994.224174,1532.190996
381.926163,740.205942,-8882.471304,1378.971896
381.926490,-814.226536,-9844.739029,536.266849
381.926818,-1998.556043,-10510.924376,689.485948
381.927146,-2664.741391,-10881.027347,229.828649
381.927473,-2368.659014,-10214.842000,76.609550
381.927801,-1332.370696,-9844.739029,153.219100
381.928129,74.020594,-9104.533087,536.266849
381.928457,1110.308913,-8956.491898,612.876398
381.928784,1332.370696,-8512.368333,689.485948
381.929112,1184.329507,-8290.306550,536.266849
381.929440,592.164754,-8512.368333,229.828649
381.929767,-814.226536,-8956.491898,0.000000
381.930095,-1924.535449,-9326.594869,0.000000
381.930423,-3108.864956,-9770.718434,-383.047749
381.930750,-3108.864956,-9622.677246,-536.266849
381.931078,-2368.659014,-9474.636058,-383.047749
381.931406,-888.247130,-9104.533087,-536.266849
381.931734,888.247130,-7920.203579,153.219100
381.932061,2294.638420,-7994.224174,612.876398
381.932389,3034.844362,-7994.224174,612.876398
381.932717,2960.823768,-8364.327145,766.095498
381.933044,1924.535449,-9178.553681,919.314598
381.933372,888.247130,-9696.697840,919.314598
381.933700,-888.247130,-10584.944971,153.219100
381.934028,-1332.370696,-11103.089130,229.828649
381.934355,-1258.350101,-10881.027347,76.609550
381.934683,-370.102971,-10362.883188,306.438199
381.935011,1036.288319,-9918.759623,689.485948
381.935338,1924.535449,-9252.574275,612.876398
381.935666,2294.638420,-8882.471304,1149.143247
381.935994,2072.576638,-8290.306550,1149.143247
381.936322,1258.350101,-8734.430116,766.095498
381.936649,-444.123565,-9178.553681,689.485948
381.936977,-1998.556043,-9400.615463,612.876398
381.937305,-3108.864956,-9918.759623,0.000000
381.937632,-3775.050304,-9696.697840,-229.828649
381.937960,-2886.803174,-9104.533087,0.000000
381.938288,-1702.473667,-8216.285956,76.609550
381.938616,-222.061783,-7920.203579,766.095498
381.938943,962.267725,-7179.997637,995.924147
381.939271,1480.411884,-7698.141797,1302.362347
381.939599,1110.308913,-7698.141797,1608.800546
381.939926,296.082377,-8438.347739,1225.752797
381.940254,-1184.329507,-8956.491898,1532.190996
381.940582,-2220.617826,-10140.821405,995.924147
381.940910,-2738.761985,-10584.944971,766.095498
381.941237,-1924.535449,-9992.780217,536.266849
381.941565,-1110.308913,-9770.718434,1149.143247
381.941893,296.082377,-8956.491898,1455.581446
381.942220,1332.370696,-8586.388927,1225.752797
381.942548,1480.411884,-8660.409521,1225.752797
381.942876,1554.432478,-8364.327145,1225.752797
381.943204,962.267725,-8660.409521,1302.362347
381.943531,-148.041188,-8956.491898,1072.533697
381.943859,-1554.432478,-9400.615463,1302.362347
381.944187,-2516.700203,-9622.677246,229.828649
381.944514,-3034.844362,-9622.677246,0.000000
381.944842,-2664.741391,-9178.553681,-153.219100
381.945170,-1332.370696,-8512.368333,0.000000
381.945498,0.000000,-7846.182985,76.609550
381.945825,1406.391290,-7550.100608,689.485948
381.946153,2368.659014,-7698.141797,919.314598
381.946481,1998.556043,-7698.141797,995.924147
381.946808,962.267725,-8512.368333,1072.533697
381.947136,-222.061783,-9474.636058,1072.533697
381.947464,-1480.411884,-10066.800811,76.609550
381.947791,-2368.659014,-10658.965565,0.000000
381.948119,-2368.659014,-10140.821405,-229.828649
381.948447,-1480.411884,-10214.842000,76.609550
381.948775,0.000000,-9474.636058,383.047749
381.949102,1110.308913,-8808.450710,766.095498
381.949430,2072.576638,-8586.388927,842.705048
381.949758,1850.514855,-8512.368333,536.266849
381.950085,1480.411884,-8586.388927,612.876398
381.950413,222.061783,-9104.533087,229.828649
381.950741,-962.267725,-9474.636058,229.828649
381.951069,-2590.720797,-9992.780217,-229.828649
381.951396,-2812.782580,-9770.718434,-459.657299
381.951724,-2294.638420,-9622.677246,-383.047749
381.952052,-888.247130,-8956.491898,-229.828649
381.952379,518.144159,-8364.327145,1302.362347
381.952707,2072.576638,-8216.285956,919.314598
381.953035,2368.659014,-7994.224174,995.924147
381.953363,2368.659014,-8142.265362,995.924147
381.953690,1110.308913,-8882.471304,842.705048
381.954018,74.020594,-9844.739029,612.876398
381.954346,-1110.308913,-10140.821405,536.266849
381.954673,-2368.659014,-10584.944971,229.828649
381.955001,-2220.617826,-10807.006753,153.219100
381.955329,-1258.350101,-10214.842000,76.609550
381.955657,0.000000,-9548.656652,536.266849
381.955984,740.205942,-9104.533087,383.047749
381.956312,1258.350101,-8808.450710,536.266849
381.956640,1406.391290,-8660.409521,842.705048
381.956967,888.247130,-8808.450710,612.876398
381.957295,-296.082377,-8882.471304,459.657299
381.957623,-1332.370696,-9474.636058,76.609550
381.957951,-2664.741391,-9770.718434,0.000000
381.958278,-3478.967927,-9844.739029,-306.438199
381.958606,-2960.823768,-9474.636058,-383.047749
381.958934,-1628.453072,-8956.491898,0.000000
381.959261,0.000000,-8216.285956,0.000000
381.959589,1332.370696,-7402.059420,1072.533697
381.959917,2590.720797,-7328.038826,1225.752797
381.960245,2664.741391,-7772.162391,1762.019645
381.960572,1776.494261,-8364.327145,1685.410096
381.960900,0.000000,-9104.533087,1762.019645
381.961228,-1554.432478,-9918.759623,1072.533697
381.961555,-2146.597232,-10584.944971,536.266849
381.961883,-2220.617826,-10584.944971,612.876398
381.962211,-962.267725,-10140.821405,766.095498
381.962539,444.123565,-9326.594869,1149.143247
381.962866,1998.556043,-8808.450710,1762.019645
381.963194,2220.617826,-8586.388927,1532.190996
381.963522,2146.597232,-8364.327145,1455.581446
381.963849,1258.350101,-8512.368333,1225.752797
381.964177,-148.041188,-8882.471304,919.314598
381.964505,-1998.556043,-9178.553681,306.438199
381.964833,-3404.947333,-9622.677246,153.219100
381.965160,-3849.070898,-9696.697840,0.000000
381.965488,-3330.926739,-9104.533087,0.000000
381.965816,-1998.556043,-8364.327145,306.438199
381.966143,0.000000,-7550.100608,612.876398
381.966471,1332.370696,-7328.038826,919.314598
381.966799,2146.597232,-7476.080014,1302.362347
381.967126,1924.535449,-7698.141797,1302.362347
381.967454,1036.288319,-8438.347739,995.924147
381.967782,-666.185348,-8956.491898,1378.971896
381.968110,-2146.597232,-9918.759623,995.924147
381.968437,-2812.782580,-10658.965565,306.438199
381.968765,-2664.741391,-10658.965565,153.219100
381.969093,-1554.432478,-10066.800811,153.219100
381.969420,-222.061783,-9474.636058,229.828649
381.969748,592.164754,-8808.450710,0.000000
381.970076,1628.453072,-8808.450710,459.657299
381.970404,1628.453072,-8438.347739,76.609550
381.970731,1332.370696,-8290.306550,383.047749
381.971059,370.102971,-8882.471304,229.828649
381.971387,-666.185348,-9548.656652,459.657299
381.971714,-2220.617826,-9696.697840,-306.438199
381.972042,-2812.782580,-9992.780217,-459.657299
381.972370,-2664.741391,-9474.636058,-689.485948
381.972698,-1480.411884,-9030.512492,-612.876398
381.973025,0.000000,-8586.388927,0.000000
381.973353,1628.453072,-7920.203579,306.438199
381.973681,2960.823768,-7698.141797,536.266849
381.974008,3404.947333,-7772.162391,842.705048
381.974336,2516.700203,-7994.224174,1149.143247
381.974664,814.226536,-8512.368333,995.924147
381.974992,-666.185348,-9548.656652,536.266849
381.975319,-1702.473667,-10658.965565,0.000000
381.975647,-2072.576638,-10658.965565,-153.219100
381.975975,-1480.411884,-10436.903782,76.609550
381.976302,74.020594,-9992.780217,153.219100
381.976630,1332.370696,-9178.553681,306.438199
381.976958,1776.494261,-8882.471304,842.705048
381.977286,1924.535449,-8586.388927,995.924147
381.977613,1480.411884,-8586.388927,1149.143247
381.977941,0.000000,-9104.533087,536.266849
381.978269,-1554.432478,-9252.574275,76.609550
381.978596,-3404.947333,-9770.718434,0.000000
381.978924,-3627.009116,-9918.759623,0.000000
381.979252,-3034.844362,-9400.615463,0.000000
381.979580,-1702.473667,-8660.409521,612.876398
381.979907,296.082377,-7846.182985,919.314598
381.980235,1406.391290,-7476.080014,1685.410096
381.980563,2220.617826,-7402.059420,1838.629195
381.980890,1850.514855,-7846.182985,1608.800546
381.981218,888.247130,-8660.409521,1532.190996
381.981546,-370.102971,-9252.574275,1991.848295
381.981874,-2146.597232,-9992.780217,1455.581446
381.982201,-2812.782580,-10584.944971,995.924147
381.982529,-2590.720797,-10807.006753,995.924147
381.982857,-2072.576638,-9918.759623,766.095498
381.983184,-740.205942,-9622.677246,689.485948
381.983512,148.041188,-8882.471304,1072.533697
381.983840,740.205942,-8734.430116,689.485948
381.984167,814.226536,-8290.306550,995.924147
381.984495,592.164754,-8438.347739,766.095498
381.984823,-222.061783,-9104.533087,459.657299
381.985151,-1406.391290,-9252.574275,459.657299
381.985478,-2442.679609,-9844.739029,76.609550
381.985806,-3256.906145,-9992.780217,-306.438199
381.986134,-3182.885551,-9474.636058,-459.657299
381.986461,-1776.494261,-9178.553681,-153.219100
381.986789,-148.041188,-8142.265362,459.657299
381.987117,1554.432478,-8142.265362,306.438199
381.987445,2590.720797,-7698.141797,1072.533697
381.987772,3034.844362,-7846.182985,1455.581446
381.988100,2220.617826,-8290.306550,1149.143247
381.988428,1332.370696,-9548.656652,1378.971896
381.988755,-444.123565,-9918.759623,766.095498
381.989083,-1776.494261,-10881.027347,229.828649
381.989411,-1776.494261,-10732.986159,0.000000
381.989739,-1258.350101,-10510.924376,0.000000
381.990066,518.144159,-10140.821405,612.876398
381.990394,1924.535449,-9622.677246,1225.752797
381.990722,2368.659014,-8956.491898,1225.752797
381.991049,2368.659014,-8882.471304,1072.533697
381.991377,1480.411884,-8512.368333,1072.533697
381.991705,0.000000,-8882.471304,536.266849
381.992033,-1184.329507,-9326.594869,536.266849
381.992360,-2664.741391,-9622.677246,-229.828649
381.992688,-2960.823768,-9474.636058,0.000000
381.993016,-2442.679609,-9104.533087,0.000000
381.993343,-1258.350101,-8512.368333,383.047749
381.993671,296.082377,-7994.224174,153.219100
381.993999,1184.329507,-7402.059420,1455.581446
381.994327,1184.329507,-7476.080014,1072.533697
381.994654,1628.453072,-7698.141797,1378.971896
381.994982,740.205942,-8290.306550,995.924147
381.995310,-666.185348,-9030.512492,842.705048
381.995637,-1258.350101,-9844.739029,1608.800546
381.995965,-2368.659014,-10362.883188,689.485948
381.996293,-2516.700203,-10436.903782,459.657299
381.996621,-1924.535449,-9844.739029,689.485948
381.996948,-962.267725,-9622.677246,459.657299
381.997276,-370.102971,-9030.512492,459.657299
381.997604,740.205942,-9104.533087,536.266849
381.997931,814.226536,-8364.327145,306.438199
381.998259,666.185348,-8142.265362,612.876398
381.998587,0.000000,-8660.409521,229.828649
381.998915,-888.247130,-8882.471304,383.047749
381.999242,-2368.659014,-9474.636058,-153.219100
381.999570,-3552.988522,-9696.697840,-612.876398
381.999898,-3478.967927,-9474.636058,-995.924147
382.000225,-2368.659014,-8956.491898,-995.924147
382.000553,0.000000,-8290.306550,0.000000
382.000881,1406.391290,-7179.997637,76.609550
382.001209,2812.782580,-7105.977043,612.876398
382.001536,3627.009116,-7179.997637,1302.362347
382.001864,3034.844362,-7920.203579,1149.143247
382.002192,1554.432478,-9030.512492,1225.752797
382.002519,0.000000,-9770.718434,842.705048
382.002847,-1480.411884,-10584.944971,76.609550
382.003175,-1480.411884,-11103.089130,0.000000
382.003502,-888.247130,-10658.965565,0.000000
382.003830,296.082377,-9844.739029,229.828649
382.004158,1924.535449,-9474.636058,1762.019645
382.004486,2812.782580,-8882.471304,919.314598
382.004813,2516.700203,-8586.388927,1378.971896
382.005141,1998.556043,-8364.327145,1072.533697
382.005469,592.164754,-9030.512492,766.095498
382.005796,-1184.329507,-9474.636058,383.047749
382.006124,-2368.659014,-9844.739029,536.266849
382.006452,-3108.864956,-9918.759623,229.828649
382.006780,-2812.782580,-9548.656652,306.438199
382.007107,-1998.556043,-8882.471304,612.876398
382.007435,-518.144159,-7994.224174,919.314598
382.007763,370.102971,-7624.121203,1838.629195
382.008090,1258.350101,-7328.038826,1532.190996
382.008418,1110.308913,-7254.018232,1685.410096
382.008746,518.144159,-8068.244768,1762.019645
382.009074,-518.144159,-9252.574275,2068.457845
382.009401,-1776.494261,-9326.594869,1072.533697
382.009729,-2738.761985,-10214.842000,1072.533697
382.010057,-2886.803174,-10510.924376,766.095498
382.010384,-2442.679609,-10140.821405,1149.143247
382.010712,-1406.391290,-9770.718434,1072.533697
382.011040,0.000000,-9474.636058,842.705048
382.011368,444.123565,-9104.533087,1378.971896
382.011695,962.267725,-8512.368333,1302.362347
382.012023,1036.288319,-8586.388927,1378.971896
382.012351,148.041188,-8882.471304,1149.143247
382.012678,-962.267725,-9474.636058,1149.143247
382.013006,-2442.679609,-9474.636058,306.438199
382.013334,-3552.988522,-9918.759623,0.000000
382.013662,-3775.050304,-9696.697840,-459.657299
382.013989,-2812.782580,-9178.553681,-459.657299
382.014317,-814.226536,-8142.265362,-153.219100
382.014645,1036.288319,-7550.100608,229.828649
382.014972,2960.823768,-7328.038826,459.657299
382.015300,3478.967927,-7179.997637,1225.752797
382.015628,2812.782580,-7698.141797,1072.533697
382.015955,1332.370696,-8364.327145,689.485948
382.016283,444.123565,-9474.636058,229.828649
382.016610,-1554.432478,-10436.903782,-459.657299
382.016938,-2220.617826,-10807.006753,-459.657299
382.017266,-1332.370696,-10807.006753,-536.266849
382.017593,-444.123565,-10288.862594,0.000000
382.017921,1702.473667,-9400.615463,229.828649
382.018248,2072.576638,-8956.491898,0.000000
382.018576,2886.803174,-8586.388927,383.047749
382.018903,2368.659014,-7624.121203,459.657299
382.019231,1258.350101,-8512.368333,153.219100
382.019558,0.000000,-9030.512492,0.000000
382.019886,-1850.514855,-9548.656652,-383.047749
382.020213,-2664.741391,-9770.718434,-383.047749
382.020541,-2516.700203,-9992.780217,-766.095498
382.020868,-2220.617826,-9030.512492,-612.876398
382.021196,-518.144159,-8216.285956,0.000000
382.021524,1110.308913,-7476.080014,919.314598
382.021851,1776.494261,-7476.080014,919.314598
382.022179,2516.700203,-7402.059420,1378.971896
382.022506,1998.556043,-7920.203579,1455.581446
382.022834,370.102971,-8734.430116,1225.752797
382.023161,-1110.308913,-9622.677246,459.657299
382.023489,-2294.638420,-10584.944971,383.047749
382.023816,-2812.782580,-10510.924376,612.876398
382.024144,-2516.700203,-10732.986159,306.438199
382.024471,-1554.432478,-10362.883188,536.266849
382.024799,0.000000,-9400.615463,995.924147
382.025126,592.164754,-8956.491898,1225.752797
382.025454,1258.350101,-8808.450710,1302.362347
382.025782,888.247130,-9326.594869,1072.533697
382.026109,0.000000,-9400.615463,842.705048
382.026437,-962.267725,-9622.677246,919.314598
382.026764,-2812.782580,-10214.842000,306.438199
382.027092,-3849.070898,-10066.800811,-153.219100
382.027419,-3923.091493,-10140.821405,-383.047749
382.027747,-2664.741391,-9474.636058,-383.047749
382.028074,-1184.329507,-8512.368333,229.828649
382.028402,740.205942,-8364.327145,0.000000
382.028729,2442.679609,-7920.203579,842.705048
382.029057,3108.864956,-7772.162391,1225.752797
382.029384,2516.700203,-8290.306550,1302.362347
382.029712,1406.391290,-9252.574275,1378.971896
382.030040,-222.061783,-10066.800811,766.095498
382.030367,-1406.391290,-10955.047942,459.657299
382.030695,-1850.514855,-11325.150913,459.657299
382.031022,-1554.432478,-11029.068536,229.828649
382.031350,0.000000,-10436.903782,459.657299
382.031677,1258.350101,-10066.800811,612.876398
382.032005,2294.638420,-8882.471304,1455.581446
382.032332,2664.741391,-8512.368333,1149.143247
382.032660,2294.638420,-8586.388927,1072.533697
382.032987,740.205942,-8882.471304,1225.752797
382.033315,-1110.308913,-9030.512492,995.924147
382.033642,-2442.679609,-9400.615463,536.266849
382.033970,-2812.782580,-9770.718434,0.000000
382.034298,-2886.803174,-9474.636058,0.000000
382.034625,-2146.597232,-8956.491898,612.876398
382.034953,-814.226536,-8438.347739,1455.581446
382.035280,518.144159,-7772.162391,1762.019645
382.035608,1258.350101,-7550.100608,1762.019645
382.035935,1184.329507,-7624.121203,1532.190996
382.036263,888.247130,-8068.244768,1608.800546
382.036590,-296.082377,-8734.430116,1072.533697
382.036918,-1332.370696,-9178.553681,306.438199
382.037245,-2220.617826,-9770.718434,612.876398
382.037573,-2220.617826,-10066.800811,689.485948
382.037900,-1628.453072,-9770.718434,612.876398
382.038228,-888.247130,-9400.615463,689.485948
382.038556,0.000000,-8956.491898,536.266849
382.038883,962.267725,-8660.409521,689.485948
382.039211,962.267725,-8660.409521,1149.143247
382.039538,814.226536,-8512.368333,766.095498
382.039866,370.102971,-8660.409521,1072.533697
382.040193,-814.226536,-8660.409521,919.314598
382.040521,-2220.617826,-9400.615463,459.657299
382.040848,-2886.803174,-9770.718434,0.000000
382.041176,-3182.885551,-9474.636058,-306.438199
382.041503,-2294.638420,-8956.491898,-536.266849
382.041831,-814.226536,-8438.347739,-306.438199
382.042159,592.164754,-7624.121203,-306.438199
382.042486,1924.535449,-7550.100608,306.438199
382.042814,2516.700203,-7476.080014,383.047749
382.043141,2368.659014,-7772.162391,459.657299
382.043469,1110.308913,-8660.409521,459.657299
382.043796,-296.082377,-9474.636058,689.485948
382.044124,-1998.556043,-10214.842000,0.000000
382.044451,-2442.679609,-10881.027347,-766.095498
382.044779,-2368.659014,-10955.047942,-995.924147
382.045106,-962.267725,-10510.924376,-689.485948
382.045434,592.164754,-9474.636058,-229.828649
382.045761,2220.617826,-8438.347739,306.438199
382.046089,3034.844362,-8364.327145,229.828649
382.046417,3256.906145,-7994.224174,459.657299
382.046744,2146.597232,-8660.409521,766.095498
382.047072,518.144159,-8660.409521,459.657299
382.047399,-1184.329507,-9474.636058,536.266849
382.047727,-2146.597232,-10140.821405,153.219100
382.048054,-1702.473667,-9696.697840,76.609550
382.048382,-444.123565,-9400.615463,689.485948
382.048709,444.123565,-8808.450710,1378.971896
382.049037,2220.617826,-8290.306550,2221.676944
382.049364,2294.638420,-8216.285956,2068.457845
382.049692,1924.535449,-8068.244768,1991.848295
382.050019,1184.329507,-8364.327145,1762.019645
382.050347,0.000000,-9030.512492,1685.410096
382.050675,-1110.308913,-9696.697840,1225.752797
382.051002,-2516.700203,-9918.759623,995.924147
382.051330,-3108.864956,-10066.800811,919.314598
382.051657,-2664.741391,-9696.697840,919.314598
382.051985,-1924.535449,-9548.656652,995.924147
382.052312,-1628.453072,-9178.553681,1149.143247
382.052640,-814.226536,-8660.409521,1072.533697
382.052967,-518.144159,-8808.450710,919.314598
382.053295,-518.144159,-8586.388927,919.314598
382.053622,-888.247130,-8586.388927,1072.533697
382.053950,-1480.411884,-8734.430116,919.314598
382.054277,-2886.803174,-9252.574275,229.828649
382.054605,-3627.009116,-9474.636058,153.219100
382.054933,-3775.050304,-9400.615463,-306.438199
382.055260,-3034.844362,-8734.430116,-306.438199
382.055588,-1110.308913,-8142.265362,-229.828649
382.055915,1110.308913,-7772.162391,383.047749
382.056243,2516.700203,-7550.100608,459.657299
382.056570,3404.947333,-7476.080014,1149.143247
382.056898,3404.947333,-8142.265362,995.924147
382.057225,2294.638420,-9030.512492,1072.533697
382.057553,740.205942,-10288.862594,612.876398
382.057880,-888.247130,-10732.986159,0.000000
382.058208,-1628.453072,-11103.089130,-229.828649
382.058535,-1628.453072,-11103.089130,0.000000
382.058863,-444.123565,-10140.821405,-229.828649
382.059191,814.226536,-9326.594869,306.438199
382.059518,2368.659014,-8734.430116,383.047749
382.059846,2886.803174,-8290.306550,383.047749
382.060173,2812.782580,-8142.265362,459.657299
382.060501,1406.391290,-8142.265362,383.047749
382.060828,0.000000,-8438.347739,76.609550
382.061156,-1628.453072,-8956.491898,-229.828649
382.061483,-2590.720797,-9474.636058,-306.438199
382.061811,-2516.700203,-9178.553681,-383.047749
382.062138,-1776.494261,-8808.450710,153.219100
382.062466,-518.144159,-8364.327145,459.657299
382.062793,666.185348,-7624.121203,842.705048
382.063121,1258.350101,-7846.182985,1072.533697
382.063449,1406.391290,-7772.162391,1072.533697
382.063776,962.267725,-8216.285956,1149.143247
382.064104,296.082377,-8808.450710,1225.752797
382.064431,-814.226536,-9474.636058,1685.410096
382.064759,-1924.535449,-10066.800811,842.705048
382.065086,-2368.659014,-10510.924376,612.876398
382.065414,-2368.659014,-10362.883188,689.485948
382.065741,-1332.370696,-10066.800811,766.095498
382.066069,-518.144159,-9474.636058,689.485948
382.066396,666.185348,-9030.512492,995.924147
382.066724,888.247130,-8882.471304,1378.971896
382.067052,1332.370696,-8586.388927,1378.971896
382.067379,296.082377,-8882.471304,1378.971896
382.067707,-444.123565,-8808.450710,1225.752797
382.068034,-1924.535449,-9696.697840,919.314598
382.068362,-3478.967927,-9992.780217,306.438199
382.068689,-3552.988522,-9696.697840,229.828649
382.069017,-2812.782580,-9104.533087,-229.828649
382.069344,-1332.370696,-8512.368333,153.219100
382.069672,592.164754,-8290.306550,919.314598
382.069999,1924.535449,-7624.121203,842.705048
382.070327,2442.679609,-7772.162391,919.314598
382.070654,2146.597232,-8216.285956,1302.362347
382.070982,962.267725,-9252.574275,1225.752797
382.071310,-370.102971,-9918.759623,612.876398
382.071637,-1702.473667,-11103.089130,0.000000
382.071965,-2738.761985,-11621.233289,-229.828649
382.072292,-3034.844362,-11251.130318,-612.876398
382.072620,-1924.535449,-10807.006753,-383.047749
382.072947,-888.247130,-9178.553681,0.000000
382.073275,1184.329507,-8882.471304,689.485948
382.073602,2220.617826,-8512.368333,153.219100
382.073930,3182.885551,-7846.182985,459.657299
382.074257,2220.617826,-8142.265362,766.095498
382.074585,814.226536,-8586.388927,919.314598
382.074912,-962.267725,-9622.677246,0.000000
382.075240,-2146.597232,-10066.800811,153.219100
382.075568,-2146.597232,-10066.800811,153.219100
382.075895,-1776.494261,-9548.656652,306.438199
382.076223,-222.061783,-8882.471304,766.095498
382.076550,1776.494261,-8364.327145,1302.362347
382.076878,2368.659014,-7846.182985,1455.581446
382.077205,2812.782580,-8068.244768,1608.800546
382.077533,2516.700203,-8216.285956,1685.410096
382.077860,1110.308913,-8734.430116,1302.362347
382.078188,-370.102971,-9104.533087,689.485948
382.078515,-1702.473667,-9992.780217,612.876398
382.078843,-2590.720797,-10362.883188,766.095498
382.079170,-2516.700203,-10214.842000,536.266849
382.079498,-1850.514855,-9548.656652,689.485948
382.079826,-666.185348,-9252.574275,1072.533697
382.080153,74.020594,-8808.450710,1378.971896
382.080481,74.020594,-8364.327145,842.705048
382.080808,0.000000,-8438.347739,995.924147
382.081136,-370.102971,-8290.306550,1149.143247
382.081463,-1332.370696,-8512.368333,689.485948
382.081791,-2590.720797,-8808.450710,842.705048
382.082118,-3404.947333,-9030.512492,76.609550
382.082446,-3627.009116,-9030.512492,0.000000
382.082773,-3034.844362,-8808.450710,-229.828649
382.083101,-1776.494261,-8216.285956,-229.828649
382.083428,0.000000,-7476.080014,-153.219100
382.083756,1406.391290,-7550.100608,612.876398
382.084084,2442.679609,-7624.121203,995.924147
382.084411,2738.761985,-7920.203579,1302.362347
382.084739,1998.556043,-8586.388927,1149.143247
382.085066,740.205942,-9622.677246,766.095498
382.085394,-814.226536,-10584.944971,459.657299
382.085721,-2146.597232,-11103.089130,0.000000
382.086049,-2146.597232,-11029.068536,-536.266849
382.086376,-1924.535449,-10288.862594,-766.095498
382.086704,148.041188,-9918.759623,0.000000
382.087031,1554.432478,-8512.368333,-153.219100
382.087359,3256.906145,-8142.265362,306.438199
382.087686,3478.967927,-7772.162391,689.485948
382.088014,2960.823768,-7920.203579,459.657299
382.088342,592.164754,-8660.409521,459.657299
382.088669,-888.247130,-9326.594869,76.609550
382.088997,-2590.720797,-9696.697840,-383.047749
382.089324,-2738.761985,-9844.739029,0.000000
382.089652,-2146.597232,-9548.656652,76.609550
382.089979,-444.123565,-9030.512492,536.266849
382.090307,888.247130,-8364.327145,1455.581446
382.090634,2294.638420,-7994.224174,1608.800546
382.090962,2368.659014,-7846.182985,1378.971896
382.091289,1776.494261,-8438.347739,1225.752797
382.091617,444.123565,-9252.574275,919.314598
382.091945,-814.226536,-9400.615463,1149.143247
382.092272,-1702.473667,-9844.739029,919.314598
382.092600,-2146.597232,-10288.862594,766.095498
382.092927,-2220.617826,-10436.903782,842.705048
382.093255,-1554.432478,-10140.821405,995.924147
382.093582,-1110.308913,-9548.656652,919.314598
382.093910,0.000000,-9030.512492,1149.143247
382.094237,0.000000,-8808.450710,995.924147
382.094565,0.000000,-8586.388927,766.095498
382.094892,0.000000,-8364.327145,1302.362347
382.095220,-518.144159,-8586.388927,1072.533697
382.095547,-1554.432478,-8660.409521,995.924147
382.095875,-2812.782580,-9326.594869,229.828649
382.096203,-3701.029710,-9622.677246,0.000000
382.096530,-3330.926739,-9252.574275,-383.047749
382.096858,-2294.638420,-8956.491898,-383.047749
382.097185,-222.061783,-7920.203579,153.219100
382.097513,1702.473667,-8364.327145,306.438199
382.097840,2738.761985,-7994.224174,1149.143247
382.098168,3182.885551,-8068.244768,1685.410096
382.098495,2220.617826,-9104.533087,1378.971896
382.098823,296.082377,-9770.718434,1378.971896
382.099150,-740.205942,-10955.047942,-383.047749
382.099478,-2442.679609,-11251.130318,-306.438199
382.099805,-2368.659014,-11251.130318,-459.657299
382.100133,-1480.411884,-10510.924376,-229.828649
382.100461,148.041188,-9696.697840,153.219100
382.100788,1998.556043,-8882.471304,536.266849
382.101116,2516.700203,-8438.347739,612.876398
382.101443,2368.659014,-8068.244768,689.485948
382.101771,1702.473667,-8290.306550,459.657299
382.102098,370.102971,-8660.409521,76.609550
382.102426,-1258.350101,-8882.471304,153.219100
382.102753,-2664.741391,-9400.615463,-306.438199
382.103081,-3108.864956,-9918.759623,-459.657299
382.103408,-2516.700203,-9326.594869,-306.438199
382.103736,-1480.411884,-8882.471304,0.000000
382.104063,0.000000,-8068.244768,229.828649
382.104391,1480.411884,-7920.203579,766.095498
382.104719,2220.617826,-7698.141797,919.314598
382.105046,2220.617826,-8068.244768,1225.752797
382.105374,1480.411884,-8438.347739,1149.143247
382.105701,888.247130,-9252.574275,1302.362347
382.106029,-518.144159,-9696.697840,919.314598
382.106356,-1332.370696,-10658.965565,536.266849
382.106684,-1554.432478,-10658.965565,689.485948
382.107011,-1184.329507,-10140.821405,842.705048
382.107339,-222.061783,-9622.677246,919.314598
382.107666,370.102971,-9252.574275,1225.752797
382.107994,1036.288319,-8438.347739,1378.971896
382.108321,1110.308913,-8364.327145,1225.752797
382.108649,814.226536,-8216.285956,1608.800546
382.108977,-444.123565,-8364.327145,1302.362347
382.109304,-1110.308913,-8882.471304,1072.533697
382.109632,-2812.782580,-9252.574275,153.219100
382.109959,-3701.029710,-9548.656652,229.828649
382.110287,-3330.926739,-9104.533087,0.000000
382.110614,-2516.700203,-8660.409521,153.219100
382.110942,-814.226536,-7772.162391,229.828649
382.111269,444.123565,-7846.182985,766.095498
382.111597,1480.411884,-7920.203579,1149.143247
382.111924,1406.391290,-8142.265362,1149.143247
382.112252,518.144159,-8586.388927,1149.143247
382.112579,-296.082377,-9622.677246,842.705048
382.112907,-1776.494261,-10066.800811,153.219100
382.113235,-2960.823768,-10658.965565,0.000000
382.113562,-3108.864956,-10807.006753,-689.485948
382.113890,-2368.659014,-10214.842000,-306.438199
382.114217,-592.164754,-9474.636058,-306.438199
382.114545,962.267725,-8808.450710,459.657299
382.114872,2368.659014,-8364.327145,383.047749
382.115200,3034.844362,-7846.182985,689.485948
382.115527,2664.741391,-8290.306550,842.705048
382.115855,1406.391290,-8438.347739,612.876398
382.116182,222.061783,-9622.677246,229.828649
382.116510,-1554.432478,-9992.780217,0.000000
382.116837,-2294.638420,-10436.903782,-229.828649
382.117165,-1924.535449,-10066.800811,0.000000
382.117493,-592.164754,-9400.615463,0.000000
382.117820,814.226536,-8734.430116,842.705048
382.118148,2738.761985,-8290.306550,1455.581446
382.118475,3404.947333,-8068.244768,1762.019645
382.118803,3330.926739,-7994.224174,1762.019645
382.119130,2072.576638,-8512.368333,1455.581446
382.119458,592.164754,-9104.533087,1378.971896
382.119785,-962.267725,-10066.800811,842.705048
382.120113,-2220.617826,-10510.924376,689.485948
382.120440,-2590.720797,-10214.842000,536.266849
382.120768,-2072.576638,-9918.759623,536.266849
382.121095,-1332.370696,-9474.636058,1072.533697
382.121423,0.000000,-8882.471304,689.485948
382.121750,-148.041188,-8660.409521,919.314598
382.122078,0.000000,-8068.244768,612.876398
382.122405,-296.082377,-7994.224174,536.266849
382.122733,-1036.288319,-8216.285956,459.657299
382.123060,-2072.576638,-8734.430116,153.219100
382.123388,-3330.926739,-8586.388927,306.438199
382.123715,-3627.009116,-9030.512492,76.609550
382.124043,-3404.947333,-8882.471304,0.000000
382.124370,-2368.659014,-8660.409521,0.000000
382.124698,-888.247130,-8512.368333,0.000000
382.125026,148.041188,-8364.327145,459.657299
382.125353,1702.473667,-8290.306550,995.924147
382.125681,2294.638420,-8290.306550,1302.362347
382.126008,1998.556043,-8660.409521,1225.752797
382.126336,740.205942,-9844.739029,1685.410096
382.126663,-740.205942,-9622.677246,1225.752797
382.126991,-1924.535449,-10732.986159,153.219100
382.127318,-2368.659014,-10658.965565,-612.876398
382.127646,-2072.576638,-10214.842000,-612.876398
382.127973,-296.082377,-9622.677246,-842.705048
382.128301,1332.370696,-8660.409521,153.219100
382.128628,2664.741391,-8364.327145,229.828649
382.128956,3182.885551,-8142.265362,612.876398
382.129283,2738.761985,-8068.244768,995.924147
382.129611,1184.329507,-9030.512492,459.657299
382.129938,-222.061783,-9770.718434,612.876398
382.130266,-2368.659014,-9844.739029,-306.438199
382.130593,-2812.782580,-10288.862594,-689.485948
382.130921,-2072.576638,-9918.759623,-383.047749
382.131248,-518.144159,-9178.553681,0.000000
382.131576,888.247130,-8290.306550,919.314598
382.131903,2146.597232,-7994.224174,1149.143247
382.132231,2886.803174,-7920.203579,1225.752797
382.132559,2516.700203,-8216.285956,1302.362347
382.132886,1554.432478,-8660.409521,919.314598
382.133214,296.082377,-9474.636058,995.924147
382.133541,-1036.288319,-10288.862594,1378.971896
382.133869,-1924.535449,-10807.006753,1072.533697
382.134196,-2146.597232,-10732.986159,1072.533697
382.134524,-1924.535449,-10288.862594,1149.143247
382.134851,-1258.350101,-9696.697840,1072.533697
382.135179,-740.205942,-9474.636058,1225.752797
382.135506,-296.082377,-9252.574275,995.924147
382.135834,0.000000,-8660.409521,842.705048
382.136161,0.000000,-8438.347739,995.924147
382.136489,-444.123565,-8364.327145,766.095498
382.136816,-1628.453072,-8586.388927,689.485948
382.137144,-2664.741391,-9178.553681,766.095498
382.137471,-3627.009116,-9252.574275,0.000000
382.137799,-3256.906145,-9400.615463,0.000000
382.138126,-2442.679609,-8808.450710,0.000000
382.138454,-1036.288319,-8734.430116,-306.438199
382.138781,740.205942,-8068.244768,919.314598
382.139109,2220.617826,-8068.244768,1149.143247
382.139436,2590.720797,-8142.265362,1685.410096
382.139764,2220.617826,-8882.471304,1532.190996
382.140091,888.247130,-9844.739029,1455.581446
382.140419,-296.082377,-10881.027347,689.485948
382.140747,-1998.556043,-10955.047942,306.438199
382.141074,-2220.617826,-10807.006753,0.000000
382.141402,-1406.391290,-10436.903782,0.000000
382.141729,-222.061783,-9696.697840,0.000000
382.142057,1776.494261,-9178.553681,-229.828649
382.142384,2072.576638,-8734.430116,306.438199
382.142712,2368.659014,-8586.388927,689.485948
382.143039,2072.576638,-8290.306550,459.657299
382.143367,814.226536,-8882.471304,459.657299
382.143694,-666.185348,-9178.553681,153.219100
382.144022,-2146.597232,-9770.718434,-306.438199
382.144349,-2812.782580,-9918.759623,-919.314598
382.144677,-2960.823768,-9474.636058,-459.657299
382.145004,-1998.556043,-8808.450710,-306.438199
382.145332,-222.061783,-8142.265362,76.609550
382.145659,1554.432478,-7328.038826,842.705048
382.145987,2368.659014,-7105.977043,536.266849
382.146314,3034.844362,-7031.956449,919.314598
382.146642,2516.700203,-7698.141797,1149.143247
382.146969,1184.329507,-8438.347739,1072.533697
382.147297,0.000000,-9474.636058,919.314598
382.147624,-1332.370696,-9992.780217,766.095498
382.147952,-1998.556043,-10288.862594,612.876398
382.148279,-1332.370696,-10140.821405,1072.533697
382.148607,-518.144159,-9548.656652,1302.362347
382.148935,370.102971,-8882.471304,1302.362347
382.149262,814.226536,-8882.471304,1302.362347
382.149590,666.185348,-8216.285956,1378.971896
382.149917,444.123565,-8142.265362,1608.800546
382.150245,-370.102971,-8216.285956,1072.533697
382.150572,-1480.411884,-8438.347739,1149.143247
382.150900,-2590.720797,-8956.491898,919.314598
382.151227,-3775.050304,-9030.512492,153.219100
382.151555,-3775.050304,-8808.450710,0.000000
382.151882,-2812.782580,-8364.327145,-229.828649
382.152210,-1406.391290,-7994.224174,612.876398
382.152537,0.000000,-7328.038826,842.705048
382.152865,1110.308913,-7402.059420,1072.533697
382.153192,1776.494261,-7698.141797,1608.800546
382.153520,1480.411884,-8364.327145,1685.410096
382.153847,296.082377,-9178.553681,1455.581446
382.154175,-1184.329507,-9844.739029,766.095498
382.154502,-2368.659014,-10658.965565,306.438199
382.154830,-2812.782580,-10807.006753,0.000000
382.155157,-2368.659014,-10436.903782,76.609550
382.155485,-1036.288319,-9918.759623,-153.219100
382.155812,444.123565,-9178.553681,0.000000
382.156140,1850.514855,-8586.388927,612.876398
382.156468,2886.803174,-8364.327145,612.876398
382.156795,2442.679609,-8364.327145,536.266849
382.157123,1776.494261,-8882.471304,536.266849
382.157450,0.000000,-10066.800811,229.828649
382.157778,-1850.514855,-10288.862594,306.438199
382.158105,-3034.844362,-10807.006753,-689.485948
382.158433,-3256.906145,-10584.944971,-612.876398
382.158760,-2516.700203,-9992.780217,-766.095498
382.159088,-962.267725,-9178.553681,-459.657299
382.159415,1332.370696,-7994.224174,229.828649
382.159743,3182.885551,-7698.141797,383.047749
382.160070,3701.029710,-7476.080014,919.314598
382.160398,3182.885551,-8068.244768,919.314598
382.160725,1850.514855,-8808.450710,919.314598
382.161053,74.020594,-9622.677246,919.314598
382.161380,-962.267725,-10584.944971,153.219100
382.161708,-1480.411884,-10955.047942,153.219100
382.162035,-1036.288319,-10658.965565,459.657299
382.162363,-518.144159,-10510.924376,919.314598
382.162690,740.205942,-9622.677246,1378.971896
382.163018,592.164754,-9030.512492,1455.581446
382.163345,1628.453072,-8882.471304,1378.971896
382.163673,814.226536,-8660.409521,1072.533697
382.164000,0.000000,-8438.347739,766.095498
382.164328,-1110.308913,-9030.512492,842.705048
382.164656,-2886.803174,-8956.491898,612.876398
382.164983,-3330.926739,-9400.615463,-229.828649
382.165311,-3478.967927,-9030.512492,0.000000
382.165638,-2886.803174,-8956.491898,-153.219100
382.165966,-1776.494261,-8364.327145,229.828649
382.166293,0.000000,-7994.224174,459.657299
382.166621,518.144159,-7550.100608,766.095498
382.166948,1554.432478,-7698.141797,1302.362347
382.167276,1406.391290,-7994.224174,1072.533697
382.167603,74.020594,-8734.430116,1302.362347
382.167931,-962.267725,-9400.615463,766.095498
382.168258,-2220.617826,-9918.759623,229.828649
382.168586,-3034.844362,-10288.862594,0.000000
382.168913,-2812.782580,-9992.780217,-153.219100
382.169241,-1480.411884,-9474.636058,-306.438199
382.169568,0.000000,-8882.471304,0.000000
382.169896,1924.535449,-8216.285956,536.266849
382.170223,2368.659014,-7846.182985,842.705048
382.170551,2886.803174,-8068.244768,842.705048
382.170878,1924.535449,-8512.368333,766.095498
382.171206,666.185348,-9474.636058,689.485948
382.171533,-1628.453072,-9622.677246,-229.828649
382.171861,-2960.823768,-10436.903782,-383.047749
382.172189,-3330.926739,-10214.842000,-919.314598
382.172516,-2442.679609,-9474.636058,-229.828649
382.172844,-518.144159,-8586.388927,0.000000
382.173171,1924.535449,-7254.018232,1149.143247
382.173499,3182.885551,-7105.977043,1072.533697
382.173826,3997.112087,-7105.977043,1455.581446
382.174154,3330.926739,-7402.059420,1532.190996
382.174481,1480.411884,-8438.347739,1378.971896
382.174809,-222.061783,-9252.574275,1455.581446
382.175136,-1406.391290,-10436.903782,995.924147
382.175464,-2368.659014,-11029.068536,1149.143247
382.175791,-2072.576638,-10807.006753,995.924147
382.176119,-962.267725,-10288.862594,1225.752797
382.176446,222.061783,-9844.739029,1378.971896
382.176774,592.164754,-9326.594869,1455.581446
382.177101,444.123565,-8808.450710,1225.752797
382.177429,296.082377,-8808.450710,995.924147
382.177756,-444.123565,-8734.430116,842.705048
382.178084,-1480.411884,-8882.471304,919.314598
382.178411,-2442.679609,-9104.533087,306.438199
382.178739,-3404.947333,-9548.656652,76.609550
382.179066,-3478.967927,-9622.677246,153.219100
382.179394,-2960.823768,-9252.574275,229.828649
382.179721,-1850.514855,-8882.471304,153.219100
382.180049,-296.082377,-8142.265362,459.657299
382.180377,888.247130,-8290.306550,995.924147
382.180704,1776.494261,-8142.265362,1225.752797
382.181032,1702.473667,-8512.368333,1302.362347
382.181359,1184.329507,-9178.553681,1455.581446
382.181687,-444.123565,-9474.636058,1915.238745
382.182014,-962.267725,-10584.944971,536.266849
382.182342,-2368.659014,-10955.047942,0.000000
382.182669,-2146.597232,-10955.047942,-383.047749
382.182997,-1258.350101,-10288.862594,-383.047749
382.183324,592.164754,-9770.718434,0.000000
382.183652,1850.514855,-8808.450710,229.828649
382.183979,3034.844362,-8438.347739,536.266849
382.184307,2886.803174,-8660.409521,1072.533697
382.184634,1998.556043,-8808.450710,766.095498
382.184962,592.164754,-9178.553681,229.828649
382.185289,-1850.514855,-10140.821405,229.828649
382.185617,-2960.823768,-10510.924376,-536.266849
382.185944,-3256.906145,-10288.862594,-842.705048
382.186272,-2516.700203,-9400.615463,-536.266849
382.186599,-592.164754,-8586.388927,0.000000
382.186927,1554.432478,-7698.141797,229.828649
382.187254,2664.741391,-7402.059420,536.266849
382.187582,3108.864956,-7105.977043,1072.533697
382.187910,2664.741391,-7402.059420,766.095498
382.188237,1110.308913,-8142.265362,689.485948
382.188565,-222.061783,-9030.512492,0.000000
382.188892,-1480.411884,-10066.800811,459.657299
382.189220,-2072.576638,-10362.883188,306.438199
382.189547,-1850.514855,-10288.862594,689.485948
382.189875,-1036.288319,-10140.821405,995.924147
382.190202,-518.144159,-9400.615463,1302.362347
382.190530,888.247130,-8438.347739,1378.971896
382.190857,1110.308913,-8512.368333,1302.362347
382.191185,1110.308913,-8068.244768,919.314598
382.191512,222.061783,-8512.368333,919.314598
382.191840,-444.123565,-8290.306550,919.314598
382.192167,-1554.432478,-8586.388927,536.266849
382.192495,-2812.782580,-9104.533087,383.047749
382.192822,-3478.967927,-9178.553681,229.828649
382.193150,-2738.761985,-8882.471304,76.609550
382.193477,-1554.432478,-8660.409521,459.657299
382.193805,0.000000,-8068.244768,306.438199
382.194132,1036.288319,-7550.100608,1149.143247
382.194460,1702.473667,-7698.141797,1225.752797
382.194787,1628.453072,-7994.224174,1378.971896
382.195115,888.247130,-8438.347739,1455.581446
382.195442,-296.082377,-9104.533087,766.095498
382.195770,-2072.576638,-10066.800811,383.047749
382.196098,-2738.761985,-10658.965565,76.609550
382.196425,-2590.720797,-10436.903782,-383.047749
382.196753,-1702.473667,-9844.739029,0.000000
382.197080,-148.041188,-9326.594869,0.000000
382.197408,1036.288319,-8586.388927,0.000000
382.197735,1776.494261,-8734.430116,306.438199
382.198063,2072.576638,-8438.347739,842.705048
382.198390,1258.350101,-8882.471304,689.485948
382.198718,-148.041188,-9326.594869,229.828649
382.199045,-1702.473667,-9918.759623,229.828649
382.199373,-2516.700203,-10658.965565,-536.266849
382.199700,-3108.864956,-10288.862594,-766.095498
382.200028,-2072.576638,-9770.718434,-766.095498
382.200355,-518.144159,-9178.553681,-383.047749
382.200683,1110.308913,-8660.409521,459.657299
382.201010,2886.803174,-8142.265362,689.485948
382.201338,3478.967927,-7698.141797,1072.533697
382.201665,3034.844362,-7846.182985,1072.533697
382.201993,1998.556043,-8882.471304,1072.533697
382.202320,518.144159,-9548.656652,689.485948
382.202648,-1036.288319,-10214.842000,689.485948
382.202975,-1702.473667,-10807.006753,383.047749
382.203303,-1554.432478,-10584.944971,612.876398
382.203630,-740.205942,-10436.903782,766.095498
382.203958,0.000000,-9844.739029,1532.190996
382.204286,740.205942,-8956.491898,1302.362347
382.204613,1036.288319,-8808.450710,1302.362347
382.204941,888.247130,-8808.450710,842.705048
382.205268,296.082377,-8808.450710,689.485948
382.205596,-888.247130,-8808.450710,536.266849
382.205923,-1850.514855,-8808.450710,383.047749
382.206251,-3108.864956,-9474.636058,0.000000
382.206578,-3701.029710,-9474.636058,-229.828649
382.206906,-2960.823768,-9474.636058,0.000000
382.207233,-2146.597232,-8734.430116,153.219100
382.207561,-740.205942,-7994.224174,612.876398
382.207888,518.144159,-8068.244768,459.657299
382.208216,1332.370696,-7772.162391,1149.143247
382.208543,1554.432478,-7920.203579,1225.752797
382.208871,1110.308913,-8364.327145,1225.752797
382.209198,148.041188,-8956.491898,1378.971896
382.209526,-1258.350101,-9770.718434,612.876398
382.209853,-2072.576638,-10214.842000,459.657299
382.210181,-1924.535449,-10214.842000,76.609550
382.210508,-1110.308913,-9622.677246,0.000000
382.210836,74.020594,-9548.656652,383.047749
382.211163,1702.473667,-8956.491898,1302.362347
382.211491,2220.617826,-8734.430116,1072.533697
382.211819,2442.679609,-8364.327145,1225.752797
382.212146,1776.494261,-8734.430116,1378.971896
382.212474,74.020594,-9178.553681,1149.143247
382.212801,-1332.370696,-9474.636058,689.485948
382.213129,-2812.782580,-9918.759623,0.000000
382.213456,-3256.906145,-9622.677246,-459.657299
382.213784,-2516.700203,-9326.594869,-306.438199
382.214111,-1406.391290,-8364.327145,-229.828649
382.214439,370.102971,-7772.162391,689.485948
382.214766,1924.535449,-7624.121203,612.876398
382.215094,2368.659014,-7254.018232,995.924147
382.215421,1998.556043,-7624.121203,995.924147
382.215749,962.267725,-8364.327145,1225.752797
382.216076,-148.041188,-9252.574275,919.314598
382.216404,-1776.494261,-10066.800811,689.485948
382.216731,-2590.720797,-10362.883188,459.657299
382.217059,-2738.761985,-10584.944971,306.438199
382.217386,-1776.494261,-10066.800811,153.219100
382.217714,-1036.288319,-9474.636058,689.485948
382.218041,814.226536,-8734.430116,689.485948
382.218369,1184.329507,-8734.430116,536.266849
382.218696,1776.494261,-8290.306550,612.876398
382.219024,962.267725,-8438.347739,612.876398
382.219352,148.041188,-8734.430116,306.438199
382.219679,-888.247130,-8956.491898,842.705048
382.220007,-1924.535449,-9918.759623,459.657299
382.220335,-2368.659014,-9918.759623,229.828649
382.220662,-2072.576638,-9548.656652,383.047749
382.220990,-962.267725,-9104.533087,612.876398
382.221317,222.061783,-8512.368333,1608.800546
382.221645,1702.473667,-8438.347739,1302.362347
382.221973,2220.617826,-8142.265362,1378.971896
382.222300,2072.576638,-8068.244768,1455.581446
382.222628,1480.411884,-8216.285956,1302.362347
382.222956,518.144159,-9030.512492,1302.362347
382.223283,-1258.350101,-9844.739029,459.657299
382.223611,-2294.638420,-10214.842000,229.828649
382.223938,-2664.741391,-10362.883188,153.219100
382.224266,-2220.617826,-9918.759623,-306.438199
382.224594,-1110.308913,-9844.739029,383.047749
382.224921,148.041188,-8734.430116,689.485948
382.225249,1110.308913,-8734.430116,612.876398
382.225576,1554.432478,-8290.306550,1072.533697
382.225904,1036.288319,-8512.368333,1149.143247
382.226232,0.000000,-8882.471304,1072.533697
382.226559,-1554.432478,-9252.574275,995.924147
382.226887,-3034.844362,-10214.842000,0.000000
382.227215,-3478.967927,-9548.656652,-459.657299
382.227542,-2812.782580,-9252.574275,-306.438199
382.227870,-1480.411884,-8660.409521,0.000000
382.228197,666.185348,-7698.141797,1455.581446
382.228525,2294.638420,-7624.121203,1302.362347
382.228853,2812.782580,-7105.977043,1455.581446
382.229180,2738.761985,-7476.080014,1532.190996
382.229508,1924.535449,-8068.244768,1455.581446
382.229836,518.144159,-9326.594869,689.485948
382.230163,-666.185348,-10288.862594,612.876398
382.230491,-1850.514855,-10436.903782,536.266849
382.230818,-1702.473667,-10732.986159,689.485948
382.231146,-1480.411884,-10362.883188,612.876398
382.231474,-962.267725,-9474.636058,153.219100
382.231801,370.102971,-9252.574275,229.828649
382.232129,740.205942,-8734.430116,306.438199
382.232456,962.267725,-8512.368333,229.828649
382.232784,888.247130,-8068.244768,536.266849
382.233112,0.000000,-8142.265362,76.609550
382.233439,-1406.391290,-8438.347739,0.000000
382.233767,-2146.597232,-9474.636058,0.000000
382.234095,-3034.844362,-9400.615463,-459.657299
382.234422,-2664.741391,-9326.594869,-612.876398
382.234750,-1850.514855,-9178.553681,-306.438199
382.235077,-666.185348,-8660.409521,0.000000
382.235405,1036.288319,-8142.265362,0.000000
382.235733,2072.576638,-7994.224174,536.266849
382.236060,2516.700203,-7846.182985,995.924147
382.236388,2294.638420,-8512.368333,1072.533697
382.236716,1332.370696,-9474.636058,842.705048
382.237043,-518.144159,-9474.636058,306.438199
382.237371,-1554.432478,-10658.965565,0.000000
382.237698,-1776.494261,-10584.944971,0.000000
382.238026,-1406.391290,-10362.883188,-153.219100
382.238354,-444.123565,-9844.739029,0.000000
382.238681,1554.432478,-9474.636058,229.828649
382.239009,2590.720797,-8956.491898,766.095498
382.239337,2368.659014,-8364.327145,995.924147
382.239664,2294.638420,-8882.471304,1455.581446
382.239992,592.164754,-9178.553681,995.924147
382.240319,-1776.494261,-10066.800811,689.485948
382.240647,-2960.823768,-10288.862594,229.828649
382.240975,-4071.132681,-10436.903782,-306.438199
382.241302,-3552.988522,-9622.677246,-612.876398
382.241630,-2220.617826,-9178.553681,0.000000
382.241957,-518.144159,-7772.162391,919.314598
382.242285,1406.391290,-7402.059420,766.095498
382.242613,2146.597232,-7550.100608,919.314598
382.242940,2220.617826,-7772.162391,919.314598
382.243268,1628.453072,-8734.430116,919.314598
382.243596,0.000000,-9252.574275,766.095498
382.243923,-740.205942,-10510.924376,919.314598
382.244251,-2442.679609,-11029.068536,383.047749
382.244578,-2886.803174,-11103.089130,536.266849
382.244906,-2368.659014,-11029.068536,306.438199
382.245234,-740.205942,-10214.842000,612.876398
382.245561,888.247130,-9696.697840,689.485948
382.245889,1184.329507,-9178.553681,919.314598
382.246217,2072.576638,-8290.306550,919.314598
382.246544,1850.514855,-8142.265362,995.924147
382.246872,814.226536,-8660.409521,1225.752797
382.247199,-296.082377,-9474.636058,689.485948
382.247527,-1258.350101,-9844.739029,766.095498
382.247855,-2368.659014,-10140.821405,306.438199
382.248182,-2294.638420,-9622.677246,306.438199
382.248510,-1406.391290,-9400.615463,842.705048
382.248837,74.020594,-8734.430116,1378.971896
382.249165,1554.432478,-8068.244768,1378.971896
382.249493,1924.535449,-8364.327145,1915.238745
382.249820,1850.514855,-8290.306550,1838.629195
382.250148,1184.329507,-8512.368333,1608.800546
382.250476,0.000000,-8586.388927,1378.971896
382.250803,-1332.370696,-9326.594869,995.924147
382.251131,-2812.782580,-10066.800811,229.828649
382.251458,-2664.741391,-10066.800811,76.609550
382.251786,-1998.556043,-9474.636058,0.000000
382.252114,-888.247130,-9326.594869,536.266849
382.252441,370.102971,-8882.471304,612.876398
382.252769,962.267725,-8586.388927,842.705048
382.253097,1184.329507,-8586.388927,1378.971896
382.253424,888.247130,-8512.368333,1149.143247
382.253752,-222.061783,-8808.450710,1072.533697
382.254079,-1554.432478,-8956.491898,612.876398
382.254407,-2368.659014,-9400.615463,0.000000
382.254735,-3256.906145,-9326.594869,0.000000
382.255062,-2664.741391,-8882.471304,-153.219100
382.255390,-1184.329507,-8586.388927,0.000000
382.255718,888.247130,-8216.285956,0.000000
382.256045,1702.473667,-7402.059420,689.485948
382.256373,2590.720797,-7105.977043,689.485948
382.256700,2886.803174,-7846.182985,1225.752797
382.257028,2072.576638,-8216.285956,1149.143247
382.257356,740.205942,-9252.574275,1072.533697
382.257683,-962.267725,-10140.821405,995.924147
382.258011,-1850.514855,-10510.924376,229.828649
382.258338,-2146.597232,-10807.006753,0.000000
382.258666,-1702.473667,-10214.842000,153.219100
382.258994,-740.205942,-9918.759623,0.000000
382.259321,222.061783,-8734.430116,459.657299
382.259649,1702.473667,-8660.409521,229.828649
382.259977,1628.453072,-8142.265362,229.828649
382.260304,1480.411884,-7846.182985,229.828649
382.260632,592.164754,-8216.285956,306.438199
382.260959,-518.144159,-8512.368333,76.609550
382.261287,-1776.494261,-9178.553681,-383.047749
382.261615,-2960.823768,-9548.656652,-383.047749
382.261942,-2738.761985,-9474.636058,-689.485948
382.262270,-1998.556043,-9252.574275,-536.266849
382.262598,-888.247130,-8586.388927,0.000000
382.262925,370.102971,-8290.306550,459.657299
382.263253,1924.535449,-7920.203579,995.924147
382.263580,2146.597232,-7846.182985,1225.752797
382.263908,1850.514855,-8290.306550,1378.971896
382.264236,370.102971,-8956.491898,995.924147
382.264563,-592.164754,-9548.656652,1149.143247
382.264891,-1924.535449,-10436.903782,459.657299
382.265219,-2294.638420,-10658.965565,0.000000
382.265546,-1776.494261,-10214.842000,306.438199
382.265874,-296.082377,-9696.697840,383.047749
382.266201,740.205942,-9252.574275,919.314598
382.266529,1628.453072,-8808.450710,919.314598
382.266857,2072.576638,-8808.450710,1685.410096
382.267184,1554.432478,-8734.430116,1455.581446
382.267512,518.144159,-9178.553681,1455.581446
382.267839,-1036.288319,-9474.636058,1072.533697
382.268167,-2738.761985,-9844.739029,229.828649
382.268495,-3478.967927,-10140.821405,76.609550
382.268822,-3627.009116,-9548.656652,0.000000
382.269150,-2294.638420,-8734.430116,0.000000
382.269478,-444.123565,-7772.162391,306.438199
382.269805,1036.288319,-7698.141797,612.876398
382.270133,1924.535449,-7402.059420,1302.362347
382.270460,2220.617826,-7550.100608,1225.752797
382.270788,1480.411884,-8290.306550,1455.581446
382.271116,222.061783,-9252.574275,1072.533697
382.271443,-1850.514855,-10140.821405,689.485948
382.271771,-2590.720797,-10807.006753,536.266849
382.272099,-2664.741391,-11251.130318,459.657299
382.272426,-1998.556043,-10658.965565,459.657299
382.272754,-740.205942,-9844.739029,306.438199
382.273081,296.082377,-9104.533087,842.705048
382.273409,1924.535449,-8882.471304,995.924147
382.273737,1850.514855,-8586.388927,919.314598
382.274064,1406.391290,-7920.203579,1072.533697
382.274392,1036.288319,-8586.388927,842.705048
382.274719,0.000000,-8882.471304,766.095498
382.275047,-1184.329507,-9622.677246,0.000000
382.275375,-2516.700203,-9918.759623,-153.219100
382.275702,-2738.761985,-9696.697840,0.000000
382.276030,-2146.597232,-9252.574275,0.000000
382.276358,-148.041188,-9178.553681,76.609550
382.276685,666.185348,-7846.182985,459.657299
382.277013,2146.597232,-7772.162391,689.485948
382.277340,2664.741391,-7624.121203,842.705048
382.277668,2146.597232,-7772.162391,995.924147
382.277996,1036.288319,-8586.388927,995.924147
382.278323,-518.144159,-8882.471304,459.657299
382.278651,-1776.494261,-9992.780217,229.828649
382.278979,-2368.659014,-10066.800811,0.000000
382.279306,-1850.514855,-9918.759623,0.000000
382.279634,-592.164754,-9548.656652,76.609550
382.279961,444.123565,-9326.594869,1072.533697
382.280289,1628.453072,-8734.430116,842.705048
382.280617,2146.597232,-8364.327145,1302.362347
382.280944,1924.535449,-8364.327145,1378.971896
382.281272,814.226536,-8660.409521,1225.752797
382.281600,-962.267725,-8882.471304,689.485948
382.281927,-2590.720797,-9622.677246,229.828649
382.282255,-3404.947333,-9770.718434,-229.828649
382.282582,-3775.050304,-9474.636058,-383.047749
382.282910,-2738.761985,-8734.430116,-459.657299
382.283238,-1036.288319,-8142.265362,76.609550
382.283565,1036.288319,-7105.977043,612.876398
382.283893,2368.659014,-7476.080014,842.705048
382.284220,2812.782580,-7254.018232,1225.752797
382.284548,2072.576638,-7920.203579,1225.752797
382.284876,592.164754,-9030.512492,1225.752797
382.285203,-888.247130,-10066.800811,1072.533697
382.285531,-1850.514855,-10658.965565,383.047749
382.285859,-2442.679609,-10955.047942,229.828649
382.286186,-1924.535449,-10807.006753,383.047749
382.286514,-962.267725,-10140.821405,459.657299
382.286841,962.267725,-9326.594869,383.047749
382.287169,1406.391290,-8364.327145,766.095498
382.287497,2220.617826,-8364.327145,766.095498
382.287824,1406.391290,-8438.347739,842.705048
382.288152,814.226536,-8660.409521,689.485948
382.288480,-222.061783,-9030.512492,842.705048
382.288807,-1628.453072,-9474.636058,0.000000
382.289135,-2590.720797,-9992.780217,0.000000
382.289462,-3108.864956,-10214.842000,0.000000
382.289790,-2442.679609,-9770.718434,-306.438199
382.290118,-1036.288319,-9030.512492,76.609550
382.290445,962.267725,-8586.388927,229.828649
382.290773,1554.432478,-8068.244768,766.095498
382.291100,2220.617826,-8068.244768,1302.362347
382.291428,1628.453072,-8216.285956,1072.533697
382.291756,814.226536,-8586.388927,842.705048
382.292083,-518.144159,-9548.656652,689.485948
382.292411,-2072.576638,-9844.739029,306.438199
382.292739,-2516.700203,-10658.965565,0.000000
382.293066,-2294.638420,-10288.862594,0.000000
382.293394,-1110.308913,-9918.759623,0.000000
382.293721,444.123565,-9400.615463,612.876398
382.294049,1184.329507,-9178.553681,919.314598
382.294377,1998.556043,-8734.430116,1378.971896
382.294704,1924.535449,-8586.388927,1225.752797
382.295032,1184.329507,-8808.450710,1149.143247
382.295360,-370.102971,-9104.533087,1378.971896
382.295687,-1702.473667,-9548.656652,842.705048
382.296015,-2664.741391,-9992.780217,0.000000
382.296342,-2886.803174,-9548.656652,0.000000
382.296670,-1628.453072,-9178.553681,0.000000
382.296998,-222.061783,-8438.347739,612.876398
382.297325,1628.453072,-7698.141797,1378.971896
382.297653,2072.576638,-7772.162391,1532.190996
382.297981,2368.659014,-7476.080014,1685.410096
382.298308,1850.514855,-8216.285956,1532.190996
382.298636,444.123565,-8882.471304,1378.971896
382.298963,-888.247130,-9622.677246,1225.752797
382.299291,-2294.638420,-9992.780217,689.485948
382.299619,-2590.720797,-10658.965565,766.095498
382.299946,-2442.679609,-10288.862594,383.047749
382.300274,-1776.494261,-9844.739029,383.047749
382.300601,-740.205942,-9252.574275,536.266849
382.300929,74.020594,-8734.430116,459.657299
382.301257,370.102971,-8364.327145,306.438199
382.301584,518.144159,-7920.203579,306.438199
382.301912,148.041188,-7994.224174,536.266849
382.302240,-296.082377,-8512.368333,229.828649
382.302567,-1998.556043,-8956.491898,153.219100
382.302895,-2886.803174,-9548.656652,-536.266849
382.303222,-3108.864956,-9622.677246,-842.705048
382.303550,-2442.679609,-9474.636058,-536.266849
382.303878,-1554.432478,-8808.450710,-536.266849
382.304205,592.164754,-8660.409521,0.000000
382.304533,1850.514855,-8142.265362,229.828649
382.304861,2590.720797,-7772.162391,536.266849
382.305188,2664.741391,-7772.162391,766.095498
382.305516,1924.535449,-8142.265362,689.485948
382.305843,592.164754,-9474.636058,383.047749
382.306171,-814.226536,-9844.739029,0.000000
382.306499,-1332.370696,-10288.862594,-306.438199
382.306826,-1480.411884,-10214.842000,-229.828649
382.307154,-148.041188,-10214.842000,-153.219100
382.307482,814.226536,-9252.574275,76.609550
382.307809,2072.576638,-9178.553681,536.266849
382.308137,2368.659014,-8142.265362,766.095498
382.308464,2294.638420,-8956.491898,689.485948
382.308792,1406.391290,-9030.512492,766.095498
382.309120,0.000000,-9770.718434,459.657299
382.309447,-1406.391290,-10436.903782,229.828649
382.309775,-2664.741391,-9400.615463,0.000000
382.310102,-3034.844362,-9548.656652,-306.438199
382.310430,-1998.556043,-9326.594869,229.828649
382.310758,-518.144159,-8660.409521,766.095498
382.311085,444.123565,-7994.224174,1378.971896
382.311413,1480.411884,-7402.059420,1072.533697
382.311741,1702.473667,-8068.244768,1455.581446
382.312068,1332.370696,-8586.388927,1762.019645
382.312396,148.041188,-9030.512492,1532.190996
382.312723,-962.267725,-10214.842000,2145.067394
382.313051,-2294.638420,-10510.924376,1072.533697
382.313379,-2738.761985,-10732.986159,919.314598
382.313706,-2812.782580,-10658.965565,612.876398
382.314034,-1776.494261,-9918.759623,995.924147
382.314362,-888.247130,-9252.574275,919.314598
382.314689,222.061783,-8882.471304,1072.533697
382.315017,1110.308913,-9104.533087,1072.533697
382.315344,1036.288319,-8438.347739,1225.752797
382.315672,296.082377,-8660.409521,995.924147
382.316000,-222.061783,-9178.553681,1072.533697
382.316327,-1406.391290,-9548.656652,1072.533697
382.316655,-2664.741391,-9992.780217,229.828649
382.316982,-3108.864956,-9696.697840,0.000000
382.317310,-2738.761985,-9400.615463,0.000000
382.317638,-1110.308913,-8956.491898,0.000000
382.317965,444.123565,-8290.306550,766.095498
382.318293,2368.659014,-7402.059420,612.876398
382.318621,2960.823768,-7772.162391,1225.752797
382.318948,2812.782580,-7994.224174,1455.581446
382.319276,1480.411884,-8734.430116,1072.533697
382.319604,0.000000,-8808.450710,689.485948
382.319931,-740.205942,-10140.821405,306.438199
382.320259,-1554.432478,-10955.047942,383.047749
382.320587,-1406.391290,-10436.903782,383.047749
382.320914,148.041188,-9918.759623,612.876398
382.321242,1036.288319,-9474.636058,612.876398
382.321569,1406.391290,-8882.471304,919.314598
382.321897,1628.453072,-8734.430116,1302.362347
382.322225,1702.473667,-8290.306550,766.095498
382.322552,592.164754,-8438.347739,612.876398
382.322880,-296.082377,-8808.450710,306.438199
382.323208,-1850.514855,-8956.491898,0.000000
382.323535,-2812.782580,-9400.615463,-229.828649
382.323863,-3256.906145,-9252.574275,-306.438199
382.324191,-2812.782580,-8956.491898,-229.828649
382.324518,-1628.453072,-8660.409521,76.609550
382.324846,148.041188,-7624.121203,612.876398
382.325174,1332.370696,-7402.059420,383.047749
382.325501,1776.494261,-7328.038826,1072.533697
382.325829,1702.473667,-7624.121203,1302.362347
382.326156,740.205942,-8364.327145,1225.752797
382.326484,-1036.288319,-8882.471304,919.314598
382.326812,-1480.411884,-10066.800811,766.095498
382.327139,-2368.659014,-10362.883188,229.828649
382.327467,-2146.597232,-10214.842000,0.000000
382.327795,-1184.329507,-9844.739029,76.609550
382.328122,222.061783,-9326.594869,-153.219100
382.328450,1554.432478,-8956.491898,842.705048
382.328778,1776.494261,-8586.388927,842.705048
382.329105,1776.494261,-8364.327145,842.705048
382.329433,1184.329507,-8586.388927,766.095498
382.329761,0.000000,-9252.574275,536.266849
382.330088,-1110.308913,-9696.697840,459.657299
382.330416,-2368.659014,-10214.842000,-153.219100
382.330743,-3182.885551,-10066.800811,-612.876398
382.331071,-3034.844362,-9474.636058,-689.485948
382.331399,-1850.514855,-8956.491898,-689.485948
382.331726,74.020594,-7920.203579,-153.219100
382.332054,1776.494261,-7402.059420,383.047749
382.332382,2220.617826,-7254.018232,612.876398
382.332709,2590.720797,-7846.182985,995.924147
382.333037,1554.432478,-8586.388927,995.924147
382.333365,222.061783,-9030.512492,919.314598
382.333692,-1332.370696,-10066.800811,842.705048
382.334020,-2368.659014,-10881.027347,0.000000
382.334348,-2664.741391,-10584.944971,-306.438199
382.334675,-1702.473667,-10584.944971,76.609550
382.335003,0.000000,-9696.697840,536.266849
382.335330,1628.453072,-8956.491898,842.705048
382.335658,1998.556043,-8586.388927,1378.971896
382.335986,2590.720797,-8290.306550,1302.362347
382.336313,1406.391290,-8660.409521,1302.362347
382.336641,222.061783,-9252.574275,689.485948
382.336969,-1406.391290,-9474.636058,306.438199
382.337296,-2886.803174,-9696.697840,76.609550
382.337624,-3256.906145,-9548.656652,76.609550
382.337952,-2368.659014,-9030.512492,229.828649
382.338279,-666.185348,-8290.306550,1072.533697
382.338607,888.247130,-7179.997637,1225.752797
382.338935,1924.535449,-7550.100608,1915.238745
382.339262,2220.617826,-7550.100608,1915.238745
382.339590,1406.391290,-7994.224174,1838.629195
382.339917,148.041188,-8660.409521,1532.190996
382.340245,-962.267725,-9400.615463,1455.581446
382.340573,-2516.700203,-9992.780217,306.438199
382.340900,-3108.864956,-10510.924376,689.485948
382.341228,-2886.803174,-10510.924376,459.657299
382.341556,-2368.659014,-9770.718434,459.657299
382.341883,-1332.370696,-9178.553681,229.828649
382.342211,0.000000,-8882.471304,0.000000
382.342539,814.226536,-8734.430116,306.438199
382.342866,1036.288319,-8660.409521,766.095498
382.343194,740.205942,-8290.306550,459.657299
382.343522,148.041188,-8734.430116,536.266849
382.343849,-962.267725,-9400.615463,919.314598
382.344177,-2516.700203,-9918.759623,0.000000
382.344504,-2812.782580,-9992.780217,-536.266849
382.344832,-2368.659014,-9622.677246,-459.657299
382.345160,-1036.288319,-9104.533087,-612.876398
382.345487,222.061783,-8586.388927,-153.219100
382.345815,1998.556043,-8068.244768,153.219100
382.346143,3034.844362,-7846.182985,689.485948
382.346470,3330.926739,-7624.121203,689.485948
382.346798,2590.720797,-8290.306550,766.095498
382.347126,1110.308913,-9178.553681,306.438199
382.347453,-814.226536,-9918.759623,-306.438199
382.347781,-1924.535449,-10732.986159,-306.438199
382.348109,-2368.659014,-11029.068536,-612.876398
382.348436,-1776.494261,-10436.903782,-612.876398
382.348764,-296.082377,-10066.800811,-383.047749
382.349091,1406.391290,-9252.574275,-229.828649
382.349419,2294.638420,-8734.430116,459.657299
382.349747,2590.720797,-8512.368333,536.266849
382.350074,1702.473667,-8586.388927,766.095498
382.350402,222.061783,-9030.512492,536.266849
382.350730,-1036.288319,-9696.697840,383.047749
382.351057,-2220.617826,-9622.677246,76.609550
382.351385,-2812.782580,-9696.697840,229.828649
382.351713,-1702.473667,-9252.574275,459.657299
382.352040,-370.102971,-8882.471304,1149.143247
382.352368,814.226536,-7994.224174,2298.286494
382.352696,1924.535449,-7772.162391,2298.286494
382.353023,2294.638420,-8068.244768,2374.896044
382.353351,1554.432478,-8068.244768,1991.848295
382.353678,296.082377,-8660.409521,2068.457845
382.354006,-518.144159,-9178.553681,1838.629195
382.354334,-1924.535449,-9844.739029,1149.143247
382.354661,-2516.700203,-10436.903782,1302.362347
382.354989,-2738.761985,-10214.842000,1149.143247
382.355317,-2294.638420,-9474.636058,766.095498
382.355644,-1554.432478,-9178.553681,995.924147
382.355972,-814.226536,-8512.368333,306.438199
382.356300,-592.164754,-8142.265362,766.095498
382.356627,0.000000,-8216.285956,1225.752797
382.356955,-296.082377,-8142.265362,995.924147
382.357283,-962.267725,-8438.347739,842.705048
382.357610,-2368.659014,-8586.388927,306.438199
382.357938,-3404.947333,-9548.656652,229.828649
382.358265,-4071.132681,-9622.677246,-536.266849
382.358593,-3330.926739,-9474.636058,-689.485948
382.358921,-2146.597232,-8660.409521,-766.095498
382.359248,-148.041188,-8142.265362,-306.438199
382.359576,1776.494261,-7994.224174,-459.657299
382.359904,3034.844362,-7698.141797,459.657299
382.360231,3627.009116,-7846.182985,536.266849
382.360559,3034.844362,-8512.368333,612.876398
382.360887,1850.514855,-9622.677246,919.314598
382.361214,0.000000,-10584.944971,383.047749
382.361542,-888.247130,-11177.109724,-306.438199
382.361870,-962.267725,-11103.089130,-459.657299
382.362197,-370.102971,-10807.006753,0.000000
382.362525,962.267725,-9992.780217,0.000000
382.362852,1924.535449,-9400.615463,919.314598
382.363180,2960.823768,-8660.409521,766.095498
382.363508,3034.844362,-8586.388927,919.314598
382.363835,2146.597232,-8512.368333,612.876398
382.364163,666.185348,-8882.471304,383.047749
382.364491,-814.226536,-9548.656652,229.828649
382.364818,-2220.617826,-9400.615463,76.609550
382.365146,-2886.803174,-9548.656652,0.000000
382.365474,-2368.659014,-9178.553681,153.219100
382.365801,-1480.411884,-8512.368333,612.876398
382.366129,-370.102971,-8142.265362,842.705048
382.366457,814.226536,-7698.141797,995.924147
382.366784,962.267725,-7550.100608,1378.971896
382.367112,666.185348,-7994.224174,1532.190996
382.367439,0.000000,-8512.368333,1532.190996
382.367767,-1184.329507,-9030.512492,1608.800546
382.368095,-1850.514855,-9622.677246,1225.752797
382.368422,-3034.844362,-10288.862594,842.705048
382.368750,-3330.926739,-10288.862594,383.047749
382.369078,-2442.679609,-10140.821405,459.657299
382.369405,-1332.370696,-9474.636058,383.047749
382.369733,-370.102971,-9030.512492,536.266849
382.370061,444.123565,-8586.388927,612.876398
382.370388,1184.329507,-8512.368333,1072.533697
382.370716,888.247130,-8438.347739,1072.533697
382.371044,148.041188,-8808.450710,919.314598
382.371371,-1036.288319,-9326.594869,536.266849
382.371699,-2368.659014,-9548.656652,76.609550
382.372026,-3034.844362,-9844.739029,0.000000
382.372354,-2516.700203,-9548.656652,-306.438199
382.372682,-1258.350101,-8956.491898,0.000000
382.373009,814.226536,-8586.388927,76.609550
382.373337,2294.638420,-7846.182985,536.266849
382.373665,3108.864956,-7772.162391,612.876398
382.373992,3108.864956,-7994.224174,995.924147
382.374320,2590.720797,-8512.368333,1072.533697
382.374648,1036.288319,-9400.615463,1149.143247
382.374975,-962.267725,-10288.862594,383.047749
382.375303,-1776.494261,-11103.089130,0.000000
382.375631,-2294.638420,-11103.089130,0.000000
382.375958,-1850.514855,-10658.965565,-459.657299
382.376286,-444.123565,-9844.739029,76.609550
382.376614,666.185348,-8882.471304,536.266849
382.376941,1850.514855,-8364.327145,689.485948
382.377269,2442.679609,-8216.285956,689.485948
382.377596,2072.576638,-7920.203579,1072.533697
382.377924,518.144159,-8216.285956,612.876398
382.378252,-1036.288319,-9030.512492,536.266849
382.378579,-2664.741391,-9252.574275,76.609550
382.378907,-3182.885551,-9474.636058,-229.828649
382.379235,-2590.720797,-9252.574275,0.000000
382.379562,-1184.329507,-8808.450710,766.095498
382.379890,444.123565,-8142.265362,1149.143247
382.380218,1628.453072,-7624.121203,919.314598
382.380545,2220.617826,-7994.224174,2068.457845
382.380873,1924.535449,-8290.306550,1915.238745
382.381201,962.267725,-8660.409521,1762.019645
382.381528,-518.144159,-9326.594869,1378.971896
382.381856,-1702.473667,-9992.780217,995.924147
382.382183,-2442.679609,-10510.924376,842.705048
382.382511,-2590.720797,-10510.924376,766.095498
382.382839,-2146.597232,-9992.780217,536.266849
382.383166,-1036.288319,-9696.697840,689.485948
382.383494,0.000000,-8956.491898,689.485948
382.383822,518.144159,-8512.368333,536.266849
382.384149,592.164754,-8364.327145,919.314598
382.384477,666.185348,-8364.327145,766.095498
382.384805,-370.102971,-8660.409521,842.705048
382.385132,-1406.391290,-8808.450710,536.266849
382.385460,-2368.659014,-9400.615463,229.828649
382.385788,-3478.967927,-9474.636058,-229.828649
382.386115,-2886.803174,-9326.594869,-383.047749
382.386443,-1998.556043,-8956.491898,-229.828649
382.386770,0.000000,-8216.285956,153.219100
382.387098,1184.329507,-7550.100608,0.000000
382.387426,2294.638420,-7476.080014,459.657299
382.387753,2886.803174,-7550.100608,995.924147
382.388081,2442.679609,-8068.244768,1149.143247
382.388409,1110.308913,-9104.533087,919.314598
382.388736,0.000000,-9844.739029,842.705048
382.389064,-1776.494261,-10807.006753,76.609550
382.389392,-2294.638420,-11251.130318,-229.828649
382.389719,-2294.638420,-10807.006753,-689.485948
382.390047,-814.226536,-10288.862594,-306.438199
382.390375,1110.308913,-9474.636058,76.609550
382.390702,1850.514855,-8660.409521,612.876398
382.391030,2590.720797,-8290.306550,919.314598
382.391357,2220.617826,-8142.265362,919.314598
382.391685,888.247130,-8512.368333,766.095498
382.392013,-370.102971,-8956.491898,383.047749
382.392340,-2072.576638,-9622.677246,0.000000
382.392668,-2738.761985,-9844.739029,0.000000
382.392996,-2368.659014,-9252.574275,0.000000
382.393323,-888.247130,-8956.491898,536.266849
382.393651,296.082377,-8216.285956,1225.752797
382.393979,1924.535449,-8216.285956,2068.457845
382.394306,2072.576638,-8290.306550,1991.848295
382.394634,1924.535449,-8216.285956,1532.190996
382.394962,1184.329507,-8882.471304,1455.581446
382.395289,0.000000,-9474.636058,1225.752797
382.395617,-1110.308913,-9844.739029,1455.581446
382.395944,-2294.638420,-10214.842000,919.314598
382.396272,-2368.659014,-10658.965565,612.876398
382.396600,-2294.638420,-10436.903782,612.876398
382.396927,-1332.370696,-9844.739029,689.485948
382.397255,-370.102971,-9696.697840,0.000000
382.397583,296.082377,-9030.512492,842.705048
382.397910,296.082377,-8364.327145,689.485948
382.398238,518.144159,-8364.327145,995.924147
382.398566,0.000000,-8512.368333,919.314598
382.398893,-1036.288319,-8882.471304,306.438199
382.399221,-2516.700203,-9252.574275,306.438199
382.399549,-3330.926739,-9474.636058,0.000000
382.399876,-3034.844362,-9548.656652,-459.657299
382.400204,-2146.597232,-9104.533087,-459.657299
382.400531,-814.226536,-8216.285956,0.000000
382.400859,1184.329507,-8142.265362,536.266849
382.401187,2442.679609,-7994.224174,612.876398
382.401514,2886.803174,-7772.162391,995.924147
382.401842,2442.679609,-8364.327145,919.314598
382.402170,962.267725,-9326.594869,842.705048
382.402497,-518.144159,-10140.821405,612.876398
382.402825,-1776.494261,-10881.027347,-153.219100
382.403153,-2146.597232,-11103.089130,-383.047749
382.403480,-1850.514855,-10732.986159,-383.047749
382.403808,-518.144159,-10288.862594,-229.828649
382.404136,444.123565,-9252.574275,306.438199
382.404463,2072.576638,-8512.368333,306.438199
382.404791,2368.659014,-8068.244768,689.485948
382.405118,2146.597232,-8068.244768,459.657299
382.405446,1258.350101,-8364.327145,459.657299
382.405774,-148.041188,-8512.368333,153.219100
382.406101,-1480.411884,-9178.553681,0.000000
382.406429,-2294.638420,-9622.677246,0.000000
382.406757,-2072.576638,-9400.615463,153.219100
382.407084,-888.247130,-8882.471304,306.438199
382.407412,518.144159,-8512.368333,689.485948
382.407740,1628.453072,-8364.327145,1532.190996
382.408067,2146.597232,-7846.182985,1378.971896
382.408395,2072.576638,-8364.327145,1838.629195
382.408723,1406.391290,-8882.471304,1685.410096
382.409050,296.082377,-9400.615463,1532.190996
382.409378,-1036.288319,-10140.821405,612.876398
382.409705,-1850.514855,-10658.965565,612.876398
382.410033,-2664.741391,-10732.986159,536.266849
382.410361,-2368.659014,-10214.842000,766.095498
382.410688,-1628.453072,-9474.636058,229.828649
382.411016,-222.061783,-8882.471304,536.266849
382.411344,518.144159,-8438.347739,842.705048
382.411671,740.205942,-8290.306550,919.314598
382.411999,666.185348,-8068.244768,1225.752797
382.412327,0.000000,-8512.368333,1225.752797
382.412654,-1406.391290,-8956.491898,919.314598
382.412982,-2960.823768,-9030.512492,689.485948
382.413310,-3849.070898,-9622.677246,76.609550
382.413637,-3701.029710,-9474.636058,0.000000
382.413965,-2368.659014,-9104.533087,0.000000
382.414292,-1036.288319,-8438.347739,0.000000
382.414620,666.185348,-7698.141797,153.219100
382.414948,1850.514855,-7550.100608,689.485948
382.415275,2664.741391,-7698.141797,842.705048
382.415603,2220.617826,-8142.265362,689.485948
382.415931,1332.370696,-9030.512492,612.876398
382.416258,-222.061783,-9918.759623,153.219100
382.416586,-1702.473667,-10362.883188,0.000000
382.416914,-2368.659014,-11103.089130,-383.047749
382.417241,-1924.535449,-11103.089130,-459.657299
382.417569,-962.267725,-9992.780217,0.000000
382.417897,444.123565,-9548.656652,153.219100
382.418224,1554.432478,-8734.430116,459.657299
382.418552,2368.659014,-8068.244768,689.485948
382.418879,2516.700203,-7698.141797,689.485948
382.419207,1702.473667,-7846.182985,689.485948
382.419535,444.123565,-8512.368333,842.705048
382.419862,-1332.370696,-9252.574275,612.876398
382.420190,-2368.659014,-9400.615463,0.000000
382.420517,-2220.617826,-9326.594869,0.000000
382.420845,-1332.370696,-8882.471304,153.219100
382.421172,0.000000,-8512.368333,536.266849
382.421500,1332.370696,-8068.244768,995.924147
382.421827,1998.556043,-8068.244768,1378.971896
382.422155,2146.597232,-8438.347739,1532.190996
382.422483,1406.391290,-8734.430116,1685.410096
382.422810,0.000000,-9400.615463,1455.581446
382.423138,-1332.370696,-10066.800811,1225.752797
382.423465,-2516.700203,-10288.862594,536.266849
382.423793,-2886.803174,-10436.903782,536.266849
382.424120,-2368.659014,-10214.842000,536.266849
382.424448,-1480.411884,-9770.718434,536.266849
382.424776,-296.082377,-8956.491898,919.314598
382.425103,444.123565,-8586.388927,919.314598
382.425431,962.267725,-8512.368333,1378.971896
382.425758,518.144159,-8364.327145,1072.533697
382.426086,74.020594,-8882.471304,919.314598
382.426413,-1036.288319,-9474.636058,919.314598
382.426741,-2072.576638,-9622.677246,536.266849
382.427069,-2664.741391,-9696.697840,0.000000
382.427396,-2886.803174,-9770.718434,76.609550
382.427724,-2220.617826,-9844.739029,-306.438199
382.428051,-814.226536,-9326.594869,0.000000
382.428379,962.267725,-8734.430116,-459.657299
382.428706,1924.535449,-8068.244768,459.657299
382.429034,2442.679609,-8290.306550,689.485948
382.429362,2442.679609,-8734.430116,842.705048
382.429689,1628.453072,-9104.533087,919.314598
382.430017,0.000000,-10066.800811,766.095498
382.430344,-1332.370696,-10510.924376,536.266849
382.430672,-2590.720797,-11251.130318,-459.657299
382.430999,-2738.761985,-11177.109724,-919.314598
382.431327,-1850.514855,-10214.842000,-766.095498
382.431655,-296.082377,-9622.677246,-306.438199
382.431982,1554.432478,-8734.430116,0.000000
382.432310,2590.720797,-7846.182985,536.266849
382.432637,2812.782580,-7476.080014,689.485948
382.432965,2072.576638,-7846.182985,689.485948
382.433292,222.061783,-8512.368333,383.047749
382.433620,-1332.370696,-8882.471304,0.000000
382.433948,-2442.679609,-9844.739029,0.000000
382.434275,-2590.720797,-9622.677246,-306.438199
382.434603,-1628.453072,-9104.533087,229.828649
382.434930,296.082377,-8290.306550,842.705048
382.435258,2442.679609,-7698.141797,1685.410096
382.435585,2886.803174,-7772.162391,2145.067394
382.435913,2960.823768,-7550.100608,2221.676944
382.436241,2072.576638,-8068.244768,2221.676944
382.436568,592.164754,-9104.533087,1762.019645
382.436896,-740.205942,-9548.656652,1532.190996
382.437223,-2146.597232,-9918.759623,1072.533697
382.437551,-2664.741391,-9918.759623,1072.533697
382.437878,-2442.679609,-9770.718434,1072.533697
382.438206,-1776.494261,-9104.533087,1072.533697
382.438533,-962.267725,-8364.327145,1302.362347
382.438861,-222.061783,-7772.162391,1532.190996
382.439189,0.000000,-7624.121203,919.314598
382.439516,0.000000,-7476.080014,1072.533697
382.439844,-666.185348,-7550.100608,842.705048
382.440171,-1554.432478,-8216.285956,842.705048
382.440499,-2442.679609,-8808.450710,766.095498
382.440826,-3552.988522,-8956.491898,229.828649
382.441154,-3627.009116,-9252.574275,-229.828649
382.441482,-2738.761985,-9104.533087,0.000000
382.441809,-1480.411884,-8808.450710,-153.219100
382.442137,518.144159,-8438.347739,0.000000
382.442464,1628.453072,-8586.388927,0.000000
382.442792,2590.720797,-8364.327145,612.876398
382.443119,2812.782580,-8438.347739,995.924147
382.443447,2368.659014,-9548.656652,842.705048
382.443775,962.267725,-10214.842000,1149.143247
382.444102,-814.226536,-11029.068536,536.266849
382.444430,-1776.494261,-11473.192101,-689.485948
382.444757,-2294.638420,-11251.130318,-1149.143247
382.445085,-1406.391290,-10362.883188,-995.924147
382.445412,666.185348,-9918.759623,-689.485948
382.445740,2072.576638,-8512.368333,0.000000
382.446068,2960.823768,-8068.244768,229.828649
382.446395,3330.926739,-8216.285956,612.876398
382.446723,2146.597232,-8364.327145,383.047749
382.447050,370.102971,-9030.512492,153.219100
382.447378,-888.247130,-10066.800811,-153.219100
382.447705,-2590.720797,-10140.821405,-459.657299
382.448033,-2516.700203,-10288.862594,-306.438199
382.448361,-1702.473667,-9918.759623,153.219100
382.448688,-296.082377,-9326.594869,612.876398
382.449016,1628.453072,-8882.471304,1532.190996
382.449343,2812.782580,-8216.285956,1532.190996
382.449671,2220.617826,-8216.285956,1532.190996
382.449998,1702.473667,-8586.388927,1762.019645
382.450326,222.061783,-9252.574275,1378.971896
382.450654,-1110.308913,-9474.636058,1378.971896
382.450981,-1924.535449,-9918.759623,1302.362347
382.451309,-2442.679609,-10362.883188,919.314598
382.451636,-2442.679609,-10066.800811,1149.143247
382.451964,-1776.494261,-9918.759623,1225.752797
382.452291,-1184.329507,-9474.636058,1149.143247
382.452619,-296.082377,-8660.409521,842.705048
382.452947,0.000000,-8586.388927,766.095498
382.453274,0.000000,-8068.244768,1378.971896
382.453602,0.000000,-8142.265362,1149.143247
382.453929,-814.226536,-8438.347739,1072.533697
382.454257,-1776.494261,-9030.512492,383.047749
382.454584,-3404.947333,-9030.512492,306.438199
382.454912,-3627.009116,-9104.533087,-459.657299
382.455239,-2886.803174,-9104.533087,-383.047749
382.455567,-1702.473667,-8512.368333,-459.657299
382.455895,0.000000,-7772.162391,0.000000
382.456222,1628.453072,-7846.182985,1072.533697
382.456550,2886.803174,-7698.141797,919.314598
382.456877,3108.864956,-8290.306550,842.705048
382.457205,2072.576638,-8808.450710,919.314598
382.457532,888.247130,-9992.780217,1378.971896
382.457860,-1184.329507,-10436.903782,536.266849
382.458188,-1850.514855,-11325.150913,-229.828649
382.458515,-1850.514855,-10881.027347,-383.047749
382.458843,-518.144159,-9992.780217,-306.438199
382.459170,1184.329507,-9252.574275,0.000000
382.459498,1998.556043,-8512.368333,0.000000
382.459825,3034.844362,-7994.224174,689.485948
382.460153,2516.700203,-7698.141797,689.485948
382.460481,1850.514855,-8142.265362,689.485948
382.460808,74.020594,-8660.409521,153.219100
382.461136,-1406.391290,-9326.594869,153.219100
382.461463,-2442.679609,-9918.759623,-459.657299
382.461791,-2738.761985,-9696.697840,0.000000
382.462118,-2220.617826,-9474.636058,0.000000
382.462446,-814.226536,-9104.533087,612.876398
382.462774,666.185348,-8734.430116,1225.752797
382.463101,1406.391290,-8216.285956,1302.362347
382.463429,1924.535449,-8216.285956,1378.971896
382.463756,1702.473667,-8734.430116,1302.362347
382.464084,444.123565,-9252.574275,1149.143247
382.464411,-592.164754,-9622.677246,1532.190996
382.464739,-1776.494261,-10584.944971,1225.752797
382.465067,-2072.576638,-10807.006753,766.095498
382.465394,-2146.597232,-10584.944971,842.705048
382.465722,-1406.391290,-10140.821405,689.485948
382.466049,-296.082377,-9770.718434,842.705048
382.466377,666.185348,-9178.553681,1302.362347
382.466704,1110.308913,-9178.553681,1149.143247
382.467032,740.205942,-8660.409521,1225.752797
382.467360,592.164754,-8882.471304,1149.143247
382.467687,-444.123565,-9252.574275,1072.533697
382.468015,-1480.411884,-9400.615463,612.876398
382.468342,-3256.906145,-9548.656652,459.657299
382.468670,-3256.906145,-9696.697840,-153.219100
382.468997,-2738.761985,-9474.636058,0.000000
382.469325,-1776.494261,-8882.471304,0.000000
382.469653,-222.061783,-8290.306550,76.609550
382.469980,1036.288319,-8216.285956,919.314598
382.470308,1850.514855,-8068.244768,919.314598
382.470635,1776.494261,-8216.285956,995.924147
382.470963,1406.391290,-8808.450710,1149.143247
382.471290,0.000000,-9474.636058,536.266849
382.471618,-888.247130,-9992.780217,689.485948
382.471945,-2294.638420,-10436.903782,0.000000
382.472273,-2368.659014,-10436.903782,-689.485948
382.472601,-1480.411884,-9918.759623,-229.828649
382.472928,0.000000,-9326.594869,-229.828649
382.473256,1332.370696,-8438.347739,229.828649
382.473583,2590.720797,-7846.182985,229.828649
382.473911,2886.803174,-7550.100608,689.485948
382.474238,2146.597232,-7624.121203,612.876398
382.474566,666.185348,-8364.327145,459.657299
382.474894,-814.226536,-9104.533087,76.609550
382.475221,-2294.638420,-9104.533087,-306.438199
382.475549,-2738.761985,-9548.656652,-383.047749
382.475876,-2072.576638,-9030.512492,-383.047749
382.476204,-296.082377,-8586.388927,306.438199
382.476531,1184.329507,-7698.141797,612.876398
382.476859,2516.700203,-7254.018232,1225.752797
382.477187,3108.864956,-7550.100608,1532.190996
382.477514,2442.679609,-7994.224174,1225.752797
382.477842,1406.391290,-8660.409521,1149.143247
382.478169,-296.082377,-9622.677246,1455.581446
382.478497,-1628.453072,-10288.862594,383.047749
382.478824,-2220.617826,-10510.924376,459.657299
382.479152,-1998.556043,-10288.862594,536.266849
382.479480,-1480.411884,-9770.718434,689.485948
382.479807,-592.164754,-8956.491898,612.876398
382.480135,74.020594,-8660.409521,459.657299
382.480462,592.164754,-8142.265362,1225.752797
382.480790,296.082377,-8142.265362,995.924147
382.481117,74.020594,-8290.306550,919.314598
382.481445,-962.267725,-8660.409521,766.095498
382.481773,-2368.659014,-8586.388927,76.609550
382.482100,-3256.906145,-9474.636058,229.828649
382.482428,-3256.906145,-9548.656652,0.000000
382.482755,-2886.803174,-9178.553681,0.000000
382.483083,-1332.370696,-9104.533087,0.000000
382.483410,0.000000,-8512.368333,536.266849
382.483738,888.247130,-8068.244768,1149.143247
382.484066,1628.453072,-8142.265362,1072.533697
382.484393,2220.617826,-8290.306550,1302.362347
382.484721,1480.411884,-9178.553681,1455.581446
382.485048,296.082377,-9992.780217,1532.190996
382.485376,-1036.288319,-10584.944971,766.095498
382.485703,-2368.659014,-10807.006753,153.219100
382.486031,-2368.659014,-11177.109724,76.609550
382.486359,-1702.473667,-10436.903782,-229.828649
382.486686,-740.205942,-9770.718434,0.000000
382.487014,1110.308913,-9474.636058,383.047749
382.487341,1776.494261,-8438.347739,689.485948
382.487669,2368.659014,-8142.265362,766.095498
382.487996,1924.535449,-8438.347739,842.705048
382.488324,444.123565,-8808.450710,689.485948
382.488652,-1110.308913,-8808.450710,383.047749
382.488979,-1998.556043,-9696.697840,76.609550
382.489307,-3182.885551,-9844.739029,0.000000
382.489634,-2590.720797,-9918.759623,0.000000
382.489962,-1184.329507,-9104.533087,153.219100
382.490289,222.061783,-8216.285956,689.485948
382.490617,2072.576638,-7772.162391,1225.752797
382.490944,2812.782580,-7920.203579,1378.971896
382.491272,2368.659014,-7994.224174,1455.581446
382.491600,1554.432478,-8586.388927,1302.362347
382.491927,74.020594,-9326.594869,842.705048
382.492255,-1110.308913,-9918.759623,306.438199
382.492582,-1628.453072,-10214.842000,459.657299
382.492910,-1258.350101,-10214.842000,689.485948
382.493237,-666.185348,-9770.718434,842.705048
382.493565,74.020594,-9400.615463,842.705048
382.493893,444.123565,-9178.553681,919.314598
382.494220,518.144159,-8216.285956,1225.752797
382.494548,518.144159,-8290.306550,1072.533697
382.494875,148.041188,-8068.244768,995.924147
382.495203,-592.164754,-8364.327145,995.924147
382.495530,-1332.370696,-8660.409521,689.485948
382.495858,-2960.823768,-8808.450710,842.705048
382.496186,-3404.947333,-9178.553681,76.609550
382.496513,-3256.906145,-9030.512492,-153.219100
382.496841,-2294.638420,-8586.388927,-383.047749
382.497168,-740.205942,-8364.327145,76.609550
382.497496,518.144159,-7624.121203,153.219100
382.497823,1702.473667,-7846.182985,689.485948
382.498151,2072.576638,-7920.203579,995.924147
382.498479,1480.411884,-8512.368333,1149.143247
382.498806,370.102971,-9326.594869,995.924147
382.499134,-1406.391290,-10066.800811,766.095498
382.499461,-2368.659014,-10732.986159,153.219100
382.499789,-2664.741391,-10658.965565,-383.047749
382.500116,-1998.556043,-10362.883188,-459.657299
382.500444,-962.267725,-9622.677246,-229.828649
382.500772,814.226536,-8734.430116,0.000000
382.501099,2368.659014,-8290.306550,229.828649
382.501427,2516.700203,-8068.244768,306.438199
382.501754,2220.617826,-8216.285956,459.657299
382.502082,1110.308913,-8882.471304,306.438199
382.502409,-370.102971,-9474.636058,0.000000
382.502737,-1702.473667,-10214.842000,-306.438199
382.503065,-2886.803174,-10288.862594,-306.438199
382.503392,-2590.720797,-9918.759623,-383.047749
382.503720,-1258.350101,-9474.636058,76.609550
382.504047,222.061783,-8438.347739,919.314598
382.504375,1776.494261,-7920.203579,1532.190996
382.504702,2664.741391,-7994.224174,1608.800546
382.505030,2664.741391,-8142.265362,1455.581446
382.505358,1628.453072,-8438.347739,1378.971896
382.505685,222.061783,-9178.553681,995.924147
382.506013,-888.247130,-9844.739029,1225.752797
382.506340,-2368.659014,-10510.924376,689.485948
382.506668,-2294.638420,-10436.903782,306.438199
382.506995,-1998.556043,-10140.821405,536.266849
382.507323,-814.226536,-9474.636058,689.485948
382.507650,0.000000,-9104.533087,1302.362347
382.507978,814.226536,-8808.450710,1225.752797
382.508306,888.247130,-8216.285956,1225.752797
382.508633,666.185348,-8512.368333,1302.362347
382.508961,-592.164754,-8660.409521,1072.533697
382.509288,-1702.473667,-9178.553681,919.314598
382.509616,-2738.761985,-8956.491898,383.047749
382.509943,-3256.906145,-9178.553681,76.609550
382.510271,-2886.803174,-8956.491898,153.219100
382.510599,-1628.453072,-8734.430116,383.047749
382.510926,-962.267725,-8290.306550,1072.533697
382.511254,1036.288319,-7698.141797,1225.752797
382.511581,1998.556043,-7846.182985,1378.971896
382.511909,1776.494261,-8068.244768,1455.581446
382.512236,1184.329507,-8808.450710,1378.971896
382.512564,74.020594,-9474.636058,1225.752797
382.512892,-1258.350101,-10066.800811,1072.533697
382.513219,-2368.659014,-10584.944971,153.219100
382.513547,-2738.761985,-10436.903782,0.000000
382.513874,-2294.638420,-10140.821405,-306.438199
382.514202,-1036.288319,-9622.677246,-153.219100
382.514529,518.144159,-8438.347739,-612.876398
382.514857,1332.370696,-8216.285956,0.000000
382.515185,2072.576638,-7994.224174,229.828649
382.515512,1850.514855,-8216.285956,76.609550
382.515840,962.267725,-8438.347739,153.219100
382.516167,-592.164754,-9326.594869,153.219100
382.516495,-2072.576638,-10066.800811,-229.828649
382.516822,-2886.803174,-10214.842000,-766.095498
382.517150,-2664.741391,-9918.759623,-766.095498
382.517478,-1406.391290,-9326.594869,-306.438199
382.517805,740.205942,-8438.347739,229.828649
382.518133,2886.803174,-8364.327145,459.657299
382.518460,3552.988522,-7698.141797,1149.143247
382.518788,3552.988522,-8068.244768,1225.752797
382.519115,2590.720797,-8586.388927,1225.752797
382.519443,962.267725,-9474.636058,919.314598
382.519771,-740.205942,-10362.883188,153.219100
382.520098,-1702.473667,-11029.068536,919.314598
382.520426,-1850.514855,-10881.027347,612.876398
382.520753,-1110.308913,-10510.924376,842.705048
382.521081,-148.041188,-9992.780217,842.705048
382.521408,814.226536,-9474.636058,1225.752797
382.521736,1184.329507,-8660.409521,1608.800546
382.522063,518.144159,-8660.409521,1149.143247
382.522391,74.020594,-8512.368333,1149.143247
382.522718,-1184.329507,-8438.347739,689.485948
382.523046,-2072.576638,-8882.471304,689.485948
382.523373,-2812.782580,-9104.533087,153.219100
382.523701,-3627.009116,-9326.594869,306.438199
382.524028,-3552.988522,-9252.574275,383.047749
382.524356,-2516.700203,-8660.409521,0.000000
382.524683,-1406.391290,-8290.306550,229.828649
382.525011,74.020594,-7920.203579,766.095498
382.525338,1258.350101,-7846.182985,1149.143247
382.525666,1480.411884,-7698.141797,1532.190996
382.525993,1406.391290,-8290.306550,1455.581446
382.526321,296.082377,-9104.533087,1378.971896
382.526648,-666.185348,-9844.739029,536.266849
382.526976,-2220.617826,-9992.780217,995.924147
382.527303,-2590.720797,-10732.986159,229.828649
382.527631,-1924.535449,-10510.924376,76.609550
382.527958,-666.185348,-9992.780217,153.219100
382.528286,740.205942,-8882.471304,612.876398
382.528613,2220.617826,-8438.347739,919.314598
382.528941,2590.720797,-8364.327145,689.485948
382.529268,2516.700203,-8364.327145,919.314598
382.529596,1184.329507,-8734.430116,536.266849
382.529924,-518.144159,-9474.636058,383.047749
382.530251,-2294.638420,-9622.677246,-536.266849
382.530579,-3034.844362,-9918.759623,-995.924147
382.530906,-2590.720797,-9548.656652,-766.095498
382.531234,-1184.329507,-9178.553681,-306.438199
382.531561,148.041188,-8364.327145,229.828649
382.531889,1998.556043,-7698.141797,842.705048
382.532216,2886.803174,-7476.080014,842.705048
382.532544,2664.741391,-7846.182985,1072.533697
382.532871,1998.556043,-8438.347739,995.924147
382.533199,814.226536,-9104.533087,766.095498
382.533526,-740.205942,-9474.636058,459.657299
382.533854,-1554.432478,-10584.944971,229.828649
382.534181,-1850.514855,-10732.986159,153.219100
382.534509,-1184.329507,-10584.944971,153.219100
382.534836,-296.082377,-10140.821405,383.047749
382.535164,814.226536,-9548.656652,76.609550
382.535491,1332.370696,-8734.430116,766.095498
382.535819,1406.391290,-8586.388927,995.924147
382.536146,1258.350101,-8438.347739,1225.752797
382.536474,222.061783,-8660.409521,766.095498
382.536801,-888.247130,-9030.512492,689.485948
382.537129,-2146.597232,-9178.553681,766.095498
382.537456,-3034.844362,-9622.677246,383.047749
382.537784,-3404.947333,-9326.594869,76.609550
382.538111,-2368.659014,-8882.471304,229.828649
382.538439,-1036.288319,-8290.306550,459.657299
382.538766,222.061783,-7846.182985,995.924147
382.539094,1184.329507,-7476.080014,1302.362347
382.539421,1998.556043,-7846.182985,1302.362347
382.539749,1628.453072,-8290.306550,1838.629195
382.540076,296.082377,-9030.512492,1532.190996
382.540404,-1628.453072,-9474.636058,1225.752797
382.540731,-2886.803174,-10436.903782,306.438199
382.541059,-3330.926739,-10881.027347,229.828649
382.541386,-3256.906145,-10658.965565,0.000000
382.541714,-2072.576638,-9622.677246,-306.438199
382.542042,-148.041188,-9104.533087,383.047749
382.542369,1110.308913,-8216.285956,919.314598
382.542697,1776.494261,-7994.224174,1072.533697
382.543024,1850.514855,-8142.265362,1149.143247
382.543352,814.226536,-8290.306550,612.876398
382.543679,-740.205942,-8882.471304,229.828649
382.544007,-2368.659014,-9400.615463,0.000000
382.544334,-3108.864956,-9992.780217,-306.438199
382.544662,-2960.823768,-9622.677246,-536.266849
382.544989,-1776.494261,-9104.533087,-612.876398
382.545317,370.102971,-8438.347739,153.219100
382.545644,2220.617826,-7920.203579,842.705048
382.545972,2960.823768,-7476.080014,766.095498
382.546299,3478.967927,-7846.182985,1455.581446
382.546627,2886.803174,-8216.285956,1378.971896
382.546954,1332.370696,-9400.615463,919.314598
382.547282,0.000000,-9992.780217,766.095498
382.547609,-1184.329507,-10584.944971,306.438199
382.547937,-1628.453072,-10955.047942,0.000000
382.548264,-1554.432478,-10584.944971,306.438199
382.548592,-814.226536,-10066.800811,306.438199
382.548919,518.144159,-9474.636058,919.314598
382.549247,1776.494261,-8734.430116,1455.581446
382.549574,1480.411884,-8364.327145,842.705048
382.549902,1258.350101,-8438.347739,842.705048
382.550229,444.123565,-8364.327145,766.095498
382.550557,-1036.288319,-8586.388927,536.266849
382.550884,-2368.659014,-8808.450710,383.047749
382.551212,-3256.906145,-9326.594869,0.000000
382.551539,-3182.885551,-9326.594869,0.000000
382.551867,-2220.617826,-8808.450710,0.000000
382.552194,-1036.288319,-8586.388927,383.047749
382.552522,0.000000,-7920.203579,1149.143247
382.552849,1480.411884,-7846.182985,1149.143247
382.553177,1628.453072,-8438.347739,1532.190996
382.553504,1480.411884,-8734.430116,1532.190996
382.553832,370.102971,-9474.636058,1378.971896
382.554160,-592.164754,-9918.759623,1302.362347
382.554487,-1480.411884,-10288.862594,383.047749
382.554815,-2738.761985,-11029.068536,76.609550
382.555142,-2590.720797,-10510.924376,0.000000
382.555470,-1406.391290,-9918.759623,-306.438199
382.555797,-296.082377,-9178.553681,0.000000
382.556125,1406.391290,-8660.409521,153.219100
382.556452,1924.535449,-8068.244768,766.095498
382.556780,1924.535449,-7994.224174,612.876398
382.557107,1184.329507,-8364.327145,1072.533697
382.557435,-222.061783,-9178.553681,689.485948
382.557762,-2220.617826,-9696.697840,153.219100
382.558090,-2738.761985,-9992.780217,0.000000
382.558417,-2590.720797,-9844.739029,-229.828649
382.558745,-1480.411884,-9104.533087,0.000000
382.559072,74.020594,-8586.388927,689.485948
382.559400,1702.473667,-7624.121203,1225.752797
382.559727,2442.679609,-7402.059420,995.924147
382.560055,3034.844362,-7846.182985,1685.410096
382.560382,2072.576638,-8438.347739,1225.752797
382.560710,740.205942,-9030.512492,995.924147
382.561037,-962.267725,-9918.759623,842.705048
382.561365,-1850.514855,-10732.986159,766.095498
382.561692,-2590.720797,-10807.006753,383.047749
382.562020,-2146.597232,-10732.986159,383.047749
382.562347,-1406.391290,-9918.759623,536.266849
382.562675,-370.102971,-9400.615463,766.095498
382.563002,888.247130,-9030.512492,689.485948
382.563330,888.247130,-8290.306550,842.705048
382.563657,740.205942,-8290.306550,766.095498
382.563985,296.082377,-8142.265362,1072.533697
382.564312,-740.205942,-8660.409521,612.876398
382.564640,-1924.535449,-9104.533087,-306.438199
382.564967,-2738.761985,-9252.574275,76.609550
382.565295,-2516.700203,-9474.636058,153.219100
382.565622,-1702.473667,-8734.430116,153.219100
382.565950,-592.164754,-8512.368333,306.438199
382.566278,1036.288319,-8142.265362,1225.752797
382.566605,1850.514855,-8068.244768,919.314598
382.566933,2294.638420,-8068.244768,1149.143247
382.567260,1998.556043,-8438.347739,1225.752797
382.567588,1036.288319,-9326.594869,1149.143247
382.567915,-148.041188,-10066.800811,1072.533697
382.568243,-1332.370696,-10658.965565,306.438199
382.568570,-2072.576638,-11029.068536,0.000000
382.568898,-2368.659014,-10584.944971,-153.219100
382.569225,-1258.350101,-10140.821405,0.000000
382.569553,-370.102971,-9474.636058,0.000000
382.569880,1036.288319,-8512.368333,229.828649
382.570208,1776.494261,-7994.224174,153.219100
382.570535,1628.453072,-7994.224174,689.485948
382.570863,888.247130,-8290.306550,459.657299
382.571190,-222.061783,-8734.430116,459.657299
382.571518,-1924.535449,-9104.533087,-153.219100
382.571845,-3182.885551,-9400.615463,-153.219100
382.572173,-3034.844362,-9696.697840,-383.047749
382.572500,-1998.556043,-9104.533087,-306.438199
382.572828,-370.102971,-8586.388927,76.609550
382.573155,962.267725,-8142.265362,1225.752797
382.573483,2368.659014,-7994.224174,1225.752797
382.573810,2442.679609,-7994.224174,1302.362347
382.574138,1924.535449,-8216.285956,1225.752797
382.574465,1110.308913,-9326.594869,766.095498
382.574793,-592.164754,-9622.677246,919.314598
382.575120,-1406.391290,-10955.047942,229.828649
382.575448,-2368.659014,-10881.027347,76.609550
382.575775,-2072.576638,-10732.986159,153.219100
382.576103,-1184.329507,-9992.780217,306.438199
382.576430,0.000000,-9400.615463,229.828649
382.576758,888.247130,-8660.409521,1072.533697
382.577085,1184.329507,-8364.327145,766.095498
382.577413,1258.350101,-8068.244768,612.876398
382.577740,888.247130,-8216.285956,919.314598
382.578068,0.000000,-8512.368333,689.485948
382.578396,-1406.391290,-9104.533087,536.266849
382.578723,-2294.638420,-9548.656652,536.266849
382.579051,-2442.679609,-9548.656652,306.438199
382.579378,-1924.535449,-9178.553681,306.438199
382.579706,-666.185348,-8660.409521,383.047749
382.580033,666.185348,-8068.244768,1149.143247
382.580361,1776.494261,-7698.141797,1455.581446
382.580688,2220.617826,-8068.244768,1685.410096
382.581016,1702.473667,-8216.285956,1685.410096
382.581343,888.247130,-8882.471304,1455.581446
382.581671,-592.164754,-9770.718434,995.924147
382.581998,-1628.453072,-10140.821405,995.924147
382.582326,-2960.823768,-10510.924376,0.000000
382.582653,-2442.679609,-10436.903782,0.000000
382.582981,-2072.576638,-10066.800811,0.000000
382.583308,-888.247130,-9326.594869,306.438199
382.583636,444.123565,-8660.409521,1072.533697
382.583963,1332.370696,-8216.285956,1225.752797
382.584291,1332.370696,-8142.265362,995.924147
382.584618,592.164754,-8364.327145,842.705048
382.584946,-740.205942,-8808.450710,766.095498
382.585273,-2294.638420,-9178.553681,612.876398
