#time,accel_x,accel_y,accel_z
534.300133,-518.144159,-8882.471304,612.876398
534.300461,-296.082377,-9030.512492,842.705048
534.300789,-370.102971,-8956.491898,536.266849
534.301116,-296.082377,-9252.574275,766.095498
534.301444,-370.102971,-8660.409521,383.047749
534.301772,-444.123565,-8734.430116,689.485948
534.302100,-296.082377,-8882.471304,459.657299
534.302427,-370.102971,-8956.491898,612.876398
534.302755,-296.082377,-9104.533087,612.876398
534.303083,-444.123565,-9104.533087,536.266849
534.303410,74.020594,-8882.471304,536.266849
534.303738,-222.061783,-8956.491898,689.485948
534.304066,-222.061783,-9104.533087,766.095498
534.304394,-444.123565,-9400.615463,536.266849
534.304721,-222.061783,-9252.574275,459.657299
534.305049,-148.041188,-9030.512492,995.924147
534.305377,0.000000,-9178.553681,536.266849
534.305705,0.000000,-9326.594869,842.705048
534.306032,-296.082377,-8956.491898,459.657299
534.306360,-296.082377,-8956.491898,612.876398
534.306688,-296.082377,-9104.533087,842.705048
534.307015,-148.041188,-9252.574275,689.485948
534.307343,-222.061783,-9252.574275,383.047749
534.307671,0.000000,-8956.491898,306.438199
534.307999,0.000000,-9104.533087,612.876398
534.308326,-370.102971,-9178.553681,1149.143247
534.308654,0.000000,-9252.574275,919.314598
534.308982,0.000000,-9104.533087,536.266849
534.309310,-222.061783,-9030.512492,459.657299
534.309637,-518.144159,-9252.574275,306.438199
534.309965,-888.247130,-9326.594869,153.219100
534.310293,-962.267725,-9400.615463,229.828649
534.310620,-1332.370696,-9400.615463,-229.828649
534.310948,-1110.308913,-9400.615463,-306.438199
534.311276,-666.185348,-9178.553681,-229.828649
534.311604,-666.185348,-9104.533087,-383.047749
534.311931,-666.185348,-8660.409521,-612.876398
534.312259,-1036.288319,-9104.533087,-995.924147
534.312587,-1184.329507,-9178.553681,-1149.143247
534.312915,-1184.329507,-9252.574275,-1378.971896
534.313242,-962.267725,-9252.574275,-1302.362347
534.313570,-518.144159,-9252.574275,-995.924147
534.313898,-444.123565,-8956.491898,-1762.019645
534.314225,-444.123565,-9178.553681,-1225.752797
534.314553,-296.082377,-9030.512492,-1608.800546
534.314881,0.000000,-9400.615463,-1608.800546
534.315209,-148.041188,-9104.533087,-1072.533697
534.315536,296.082377,-9474.636058,-1685.410096
534.315864,222.061783,-9252.574275,-1762.019645
534.316192,444.123565,-9252.574275,-1532.190996
534.316520,370.102971,-9326.594869,-1762.019645
534.316847,296.082377,-9400.615463,-1838.629195
534.317175,74.020594,-9178.553681,-1302.362347
534.317503,222.061783,-9178.553681,-1762.019645
534.317830,370.102971,-9400.615463,-1991.848295
534.318158,74.020594,-9326.594869,-1762.019645
534.318486,296.082377,-9252.574275,-1915.238745
534.318814,296.082377,-8660.409521,-1532.190996
534.319141,296.082377,-9252.574275,-2145.067394
534.319469,0.000000,-9400.615463,-1915.238745
534.319797,-592.164754,-9400.615463,-2221.676944
534.320125,-740.205942,-9030.512492,-2068.457845
534.320452,-1110.308913,-9030.512492,-1915.238745
534.320780,-1036.288319,-9178.553681,-2451.505594
534.321108,-1554.432478,-9178.553681,-2681.334243
534.321435,-1628.453072,-9104.533087,-2604.724693
534.321763,-2072.576638,-8882.471304,-3064.381992
534.322091,-2146.597232,-9030.512492,-3370.820191
534.322419,-2072.576638,-8660.409521,-3677.258390
534.322746,-2072.576638,-9030.512492,-3677.258390
534.323074,-2146.597232,-9030.512492,-3830.477490
534.323402,-1998.556043,-8882.471304,-3983.696590
534.323730,-1628.453072,-8586.388927,-3983.696590
534.324057,-888.247130,-8734.430116,-3600.648841
534.324385,-518.144159,-8882.471304,-3753.867940
534.324713,74.020594,-9030.512492,-3294.210641
534.325040,666.185348,-8956.491898,-3370.820191
534.325368,1628.453072,-9104.533087,-2681.334243
534.325696,1924.535449,-8808.450710,-1838.629195
534.326024,2368.659014,-9104.533087,-2298.286494
534.326351,2220.617826,-9548.656652,-2068.457845
534.326679,1258.350101,-9844.739029,-2145.067394
534.327007,518.144159,-10140.821405,-2528.115143
534.327334,-666.185348,-9918.759623,-3140.991542
534.327662,-888.247130,-10510.924376,-3907.087040
534.327990,-1480.411884,-10288.862594,-4673.182538
534.328318,-1850.514855,-9918.759623,-4673.182538
534.328645,-1036.288319,-8956.491898,-4749.792088
534.328973,296.082377,-7920.203579,-4443.353888
534.329301,2220.617826,-7698.141797,-4443.353888
534.329629,2738.761985,-7328.038826,-2681.334243
534.329956,3034.844362,-7698.141797,-2374.896044
534.330284,1850.514855,-8290.306550,-2221.676944
534.330612,148.041188,-9252.574275,-1991.848295
534.330939,-1480.411884,-10288.862594,-2451.505594
534.331267,-2960.823768,-10362.883188,-2451.505594
534.331595,-3034.844362,-10807.006753,-2374.896044
534.331923,-2368.659014,-10140.821405,-2145.067394
534.332250,-1110.308913,-9326.594869,-1915.238745
534.332578,1406.391290,-7994.224174,-995.924147
534.332906,4737.318029,-6883.915261,229.828649
534.333234,8068.244768,-5329.482782,1991.848295
534.333561,10214.842000,-5329.482782,3677.258390
534.333889,8438.347739,-7328.038826,4519.963438
534.334217,3404.947333,-10510.924376,4290.134789
534.334544,-3404.947333,-13397.727550,2834.553343
534.334872,-8512.368333,-14582.057057,383.047749
534.335200,-11843.295072,-14359.995275,-1302.362347
534.335528,-11399.171507,-13323.706956,-2298.286494
534.335855,-10214.842000,-10955.047942,-2374.896044
534.336183,-3108.864956,-8438.347739,-2145.067394
534.336511,-3108.864956,-5551.544565,-1608.800546
534.336839,-518.144159,-4293.194464,-3370.820191
534.337166,-2738.761985,-5699.585753,-4290.134789
534.337494,-8586.388927,-6883.915261,-7507.735880
534.337822,-10658.965565,-8216.285956,-9039.926876
534.338149,-13989.892304,-8956.491898,-10265.679673
534.338477,-11473.192101,-8290.306550,-9729.412825
534.338805,-7920.203579,-7994.224174,-8503.660028
534.339133,-222.061783,-7031.956449,-6435.202183
534.339460,3034.844362,-7254.018232,-5209.449386
534.339788,5921.647536,-7920.203579,-4903.011187
534.340116,4293.194464,-9474.636058,-6052.154434
534.340444,3552.988522,-10658.965565,-6588.421283
534.340771,4885.359217,-11103.089130,-6894.859482
534.341099,6883.915261,-11029.068536,-4749.792088
534.341427,11325.150913,-10214.842000,-3370.820191
534.341754,12509.480420,-9844.739029,-2068.457845
534.342082,12805.562797,-10436.903782,-1685.410096
534.342410,12287.418637,-9622.677246,-1991.848295
534.342738,12879.583391,-9400.615463,-1762.019645
534.343065,14434.015869,-9992.780217,-612.876398
534.343393,10658.965565,-10955.047942,-2221.676944
534.343721,5847.626942,-13175.665768,-2145.067394
534.344049,-2072.576638,-13323.706956,-4673.182538
534.344376,-10288.862594,-14434.015869,-7048.078582
534.344704,-9992.780217,-10362.883188,-7507.735880
534.345032,-5551.544565,-6217.729913,-7354.516781
534.345359,-370.102971,-3182.885551,-4673.182538
534.345687,4441.235652,-2146.597232,-2451.505594
534.346015,3256.906145,-2664.741391,-1149.143247
534.346343,-592.164754,-3330.926739,-306.438199
534.346670,-2590.720797,-4737.318029,-1455.581446
534.346998,-6883.915261,-6291.750507,-1225.752797
534.347326,-6069.688724,-7624.121203,-1149.143247
534.347654,-6735.874072,-9992.780217,689.485948
534.347981,-6365.771101,-9548.656652,2757.943793
534.348309,-4367.215058,-9178.553681,4290.134789
534.348637,-2516.700203,-7920.203579,4903.011187
534.348964,-888.247130,-7698.141797,3830.477490
534.349292,-1184.329507,-10362.883188,1991.848295
534.349620,-3923.091493,-11547.212695,0.000000
534.349948,-6587.832884,-11399.171507,-919.314598
534.350275,-4959.379811,-10140.821405,-459.657299
534.350603,-2442.679609,-8438.347739,-229.828649
534.350931,-148.041188,-9104.533087,383.047749
534.351259,444.123565,-9400.615463,689.485948
534.351586,-2146.597232,-9696.697840,1455.581446
534.351914,-3701.029710,-9030.512492,689.485948
534.352242,-3182.885551,-9030.512492,229.828649
534.352569,-1924.535449,-10807.006753,-459.657299
534.352897,-2590.720797,-11843.295072,-995.924147
534.353225,-3627.009116,-11177.109724,-2757.943793
534.353553,-2886.803174,-9474.636058,-1149.143247
534.353880,-370.102971,-5625.565159,-1915.238745
534.354208,518.144159,-6883.915261,-1378.971896
534.354536,1998.556043,-6957.935855,-2911.162892
534.354863,3330.926739,-7772.162391,-4290.134789
534.355191,4885.359217,-7772.162391,-3830.477490
534.355519,5995.668130,-7994.224174,-3447.429741
534.355847,4959.379811,-9474.636058,-3217.601092
534.356175,4959.379811,-12509.480420,-2528.115143
534.356502,5033.400406,-14434.015869,-2068.457845
534.356830,4737.318029,-13101.645173,-1302.362347
534.357158,3997.112087,-12361.439231,-2145.067394
534.357486,3478.967927,-12287.418637,-689.485948
534.357813,1554.432478,-11917.315666,-1455.581446
534.358141,1184.329507,-12065.356855,-536.266849
534.358469,1480.411884,-10214.842000,-612.876398
534.358797,370.102971,-9252.574275,-1762.019645
534.359124,-1924.535449,-9622.677246,-2528.115143
534.359452,-3108.864956,-8216.285956,-3217.601092
534.359780,-3108.864956,-7105.977043,-4060.306139
534.360108,-1258.350101,-5403.503377,-3677.258390
534.360436,-1332.370696,-5033.400406,-2757.943793
534.360763,-1332.370696,-4441.235652,-1991.848295
534.361091,-370.102971,-4885.359217,-689.485948
534.361419,-222.061783,-5921.647536,229.828649
534.361747,-1776.494261,-7550.100608,0.000000
534.362074,-3256.906145,-9474.636058,-919.314598
534.362402,-3849.070898,-9918.759623,0.000000
534.362730,-4219.173869,-9844.739029,153.219100
534.363058,-3182.885551,-8808.450710,459.657299
534.363385,-1036.288319,-8142.265362,1225.752797
534.363713,1702.473667,-7624.121203,1838.629195
534.364041,2738.761985,-6957.935855,2681.334243
534.364369,2664.741391,-8142.265362,2298.286494
534.364697,0.000000,-9622.677246,1455.581446
534.365024,-1332.370696,-10214.842000,306.438199
534.365352,-1332.370696,-10658.965565,0.000000
534.365680,-518.144159,-9474.636058,995.924147
534.366008,0.000000,-8882.471304,1072.533697
534.366335,1480.411884,-8068.244768,1991.848295
534.366663,2516.700203,-7105.977043,2757.943793
534.366991,3256.906145,-7105.977043,3907.087040
534.367319,888.247130,-7476.080014,2834.553343
534.367646,-1924.535449,-9178.553681,1608.800546
534.367974,-4367.215058,-9400.615463,842.705048
534.368302,-4737.318029,-9400.615463,459.657299
534.368630,-3849.070898,-8808.450710,612.876398
534.368958,-1480.411884,-7772.162391,1225.752797
534.369285,1036.288319,-7179.997637,1838.629195
534.369613,2664.741391,-7105.977043,2068.457845
534.369941,1480.411884,-7624.121203,1915.238745
534.370269,-1406.391290,-9696.697840,612.876398
534.370596,-4367.215058,-11547.212695,76.609550
534.370924,-3627.009116,-12435.459826,-1532.190996
534.371252,-3256.906145,-11843.295072,-995.924147
534.371580,-1628.453072,-11251.130318,-459.657299
534.371907,0.000000,-10658.965565,612.876398
534.372235,1702.473667,-10214.842000,1915.238745
534.372563,1406.391290,-9030.512492,2068.457845
534.372891,592.164754,-9770.718434,1455.581446
534.373219,-1924.535449,-10288.862594,0.000000
534.373546,-2960.823768,-10732.986159,-995.924147
534.373874,-2738.761985,-10362.883188,-1149.143247
534.374202,-222.061783,-9400.615463,-459.657299
534.374530,2072.576638,-8660.409521,995.924147
534.374857,3701.029710,-7846.182985,1915.238745
534.375185,5181.441594,-7031.956449,2528.115143
534.375513,4145.153275,-7772.162391,2298.286494
534.375841,1776.494261,-9622.677246,1072.533697
534.376168,-1924.535449,-10140.821405,-1149.143247
534.376496,-2368.659014,-11103.089130,-1149.143247
534.376824,-1406.391290,-11399.171507,-766.095498
534.377152,74.020594,-11325.150913,306.438199
534.377480,518.144159,-10436.903782,1685.410096
534.377807,2590.720797,-9400.615463,1991.848295
534.378135,2368.659014,-8882.471304,1685.410096
534.378463,666.185348,-9178.553681,766.095498
534.378791,-2072.576638,-9696.697840,-842.705048
534.379118,-3627.009116,-10214.842000,-1838.629195
534.379446,-3404.947333,-9474.636058,-1302.362347
534.379774,-2072.576638,-9252.574275,-306.438199
534.380102,-666.185348,-8364.327145,0.000000
534.380429,1184.329507,-7624.121203,1378.971896
534.380757,2220.617826,-6883.915261,1762.019645
534.381085,1258.350101,-5847.626942,1225.752797
534.381413,-592.164754,-7328.038826,0.000000
534.381741,-3108.864956,-8660.409521,-1149.143247
534.382068,-4071.132681,-8956.491898,-1762.019645
534.382396,-2516.700203,-8734.430116,-766.095498
534.382724,-296.082377,-7846.182985,229.828649
534.383052,1110.308913,-7772.162391,1149.143247
534.383379,2738.761985,-7698.141797,1685.410096
534.383707,3701.029710,-7031.956449,1608.800546
534.384035,2664.741391,-7624.121203,1072.533697
534.384363,666.185348,-8956.491898,-459.657299
534.384690,-1406.391290,-9622.677246,-306.438199
534.385018,-1332.370696,-10140.821405,-229.828649
534.385346,74.020594,-9844.739029,536.266849
534.385674,1332.370696,-9474.636058,1532.190996
534.386002,2294.638420,-8882.471304,2528.115143
534.386329,3775.050304,-8438.347739,3524.039291
534.386657,2220.617826,-8142.265362,2681.334243
534.386985,-296.082377,-8882.471304,2145.067394
534.387313,-2664.741391,-9918.759623,536.266849
534.387640,-3775.050304,-9622.677246,229.828649
534.387968,-2960.823768,-8660.409521,612.876398
534.388296,-1776.494261,-8882.471304,1149.143247
534.388624,-1554.432478,-8438.347739,1455.581446
534.388951,-148.041188,-7476.080014,1685.410096
534.389279,888.247130,-6809.894666,1532.190996
534.389607,518.144159,-7105.977043,1378.971896
534.389935,-1036.288319,-8438.347739,0.000000
534.390263,-3849.070898,-9918.759623,-766.095498
534.390590,-4441.235652,-10288.862594,-919.314598
534.390918,-3849.070898,-10436.903782,0.000000
534.391246,-2146.597232,-10288.862594,1302.362347
534.391574,-1332.370696,-10584.944971,1378.971896
534.391901,-222.061783,-10510.924376,2068.457845
534.392229,518.144159,-9178.553681,1532.190996
534.392557,148.041188,-9400.615463,919.314598
534.392885,-1554.432478,-9696.697840,0.000000
534.393212,-2072.576638,-9918.759623,-1072.533697
534.393540,-888.247130,-9992.780217,-1149.143247
534.393868,592.164754,-9548.656652,0.000000
534.394196,1258.350101,-9400.615463,842.705048
534.394524,2664.741391,-9548.656652,1762.019645
534.394851,3997.112087,-9252.574275,2834.553343
534.395179,2960.823768,-8956.491898,1378.971896
534.395507,1184.329507,-9622.677246,919.314598
534.395835,-296.082377,-10658.965565,-306.438199
534.396162,-1554.432478,-11103.089130,-612.876398
534.396490,-1332.370696,-10510.924376,-229.828649
534.396818,74.020594,-10584.944971,76.609550
534.397146,1036.288319,-9844.739029,536.266849
534.397473,1998.556043,-9178.553681,842.705048
534.397801,2664.741391,-8290.306550,842.705048
534.398129,1924.535449,-8068.244768,383.047749
534.398457,0.000000,-8882.471304,0.000000
534.398784,-1406.391290,-9770.718434,-1225.752797
534.399112,-2368.659014,-9918.759623,-1149.143247
534.399440,-1702.473667,-10066.800811,-153.219100
534.399768,-1406.391290,-9992.780217,306.438199
534.400096,-592.164754,-9474.636058,1378.971896
534.400423,0.000000,-8290.306550,1378.971896
534.400751,1036.288319,-7846.182985,1762.019645
534.401079,296.082377,-7994.224174,766.095498
534.401407,-1258.350101,-8808.450710,229.828649
534.401734,-2146.597232,-8956.491898,-536.266849
534.402062,-1998.556043,-9104.533087,-383.047749
534.402390,-1332.370696,-9474.636058,306.438199
534.402718,-888.247130,-9030.512492,766.095498
534.403045,74.020594,-8734.430116,1532.190996
534.403373,1480.411884,-8290.306550,2374.896044
534.403701,1036.288319,-8068.244768,1991.848295
534.404029,0.000000,-8364.327145,919.314598
534.404357,-1036.288319,-8956.491898,153.219100
534.404684,-1406.391290,-9178.553681,0.000000
534.405012,-1110.308913,-9326.594869,-153.219100
534.405340,-740.205942,-9104.533087,766.095498
534.405668,0.000000,-8734.430116,1532.190996
534.405995,1406.391290,-7846.182985,2221.676944
534.406323,1924.535449,-7254.018232,2221.676944
534.406651,962.267725,-8068.244768,2068.457845
534.406979,-1110.308913,-8512.368333,689.485948
534.407306,-2738.761985,-9104.533087,-229.828649
534.407634,-2516.700203,-8882.471304,-766.095498
534.407962,-2664.741391,-9474.636058,-459.657299
534.408290,-1850.514855,-9548.656652,0.000000
534.408618,-740.205942,-8660.409521,76.609550
534.408945,888.247130,-7179.997637,689.485948
534.409273,1776.494261,-7179.997637,995.924147
534.409601,1332.370696,-7772.162391,536.266849
534.409929,-740.205942,-8956.491898,-612.876398
534.410256,-1036.288319,-9400.615463,-689.485948
534.410584,-1184.329507,-9770.718434,-306.438199
534.410912,-592.164754,-10807.006753,459.657299
534.411240,148.041188,-10658.965565,995.924147
534.411567,1850.514855,-10140.821405,2221.676944
534.411895,3552.988522,-9622.677246,3140.991542
534.412223,3034.844362,-9548.656652,3217.601092
534.412551,666.185348,-9696.697840,1225.752797
534.412879,-1406.391290,-10140.821405,76.609550
534.413206,-1924.535449,-9844.739029,-459.657299
534.413534,-2072.576638,-9622.677246,-612.876398
534.413862,-1480.411884,-9030.512492,-919.314598
534.414190,-740.205942,-9326.594869,-383.047749
534.414517,814.226536,-8364.327145,612.876398
534.414845,1110.308913,-7550.100608,689.485948
534.415173,0.000000,-7994.224174,153.219100
534.415501,-666.185348,-8956.491898,0.000000
534.415828,-2886.803174,-9474.636058,-1149.143247
534.416156,-3182.885551,-9548.656652,-919.314598
534.416484,-3256.906145,-9770.718434,-383.047749
534.416812,-1850.514855,-9918.759623,229.828649
534.417140,0.000000,-9252.574275,1149.143247
534.417467,2664.741391,-8142.265362,2145.067394
534.417795,2664.741391,-7698.141797,2221.676944
534.418123,1184.329507,-8364.327145,1532.190996
534.418451,-740.205942,-9400.615463,459.657299
534.418778,-2220.617826,-9326.594869,-153.219100
534.419106,-1332.370696,-8808.450710,76.609550
534.419434,-740.205942,-10066.800811,0.000000
534.419762,296.082377,-9992.780217,689.485948
534.420089,1776.494261,-8956.491898,1225.752797
534.420417,3108.864956,-8512.368333,2145.067394
534.420745,2590.720797,-8216.285956,1685.410096
534.421073,74.020594,-9400.615463,459.657299
534.421401,-1628.453072,-9992.780217,-459.657299
534.421728,-1924.535449,-9770.718434,-689.485948
534.422056,-1184.329507,-9622.677246,153.219100
534.422384,296.082377,-9178.553681,919.314598
534.422712,2146.597232,-8512.368333,1991.848295
534.423039,3849.070898,-8068.244768,3370.820191
534.423367,2960.823768,-8290.306550,3370.820191
534.423695,444.123565,-9104.533087,2528.115143
534.424023,-2664.741391,-10066.800811,1149.143247
534.424350,-3775.050304,-10362.883188,229.828649
534.424678,-3997.112087,-10436.903782,-689.485948
534.425006,-3256.906145,-10807.006753,-229.828649
534.425334,-2220.617826,-9770.718434,76.609550
534.425662,-222.061783,-8882.471304,1072.533697
534.425989,1184.329507,-7698.141797,1378.971896
534.426317,296.082377,-7550.100608,383.047749
534.426645,-1776.494261,-8364.327145,-995.924147
534.426973,-3404.947333,-8808.450710,-2068.457845
534.427300,-3330.926739,-8364.327145,-1991.848295
534.427628,-2664.741391,-8068.244768,-689.485948
534.427956,-518.144159,-8808.450710,612.876398
534.428284,1628.453072,-8660.409521,2298.286494
534.428611,3330.926739,-7846.182985,3294.210641
534.428939,3182.885551,-7920.203579,3524.039291
534.429267,1850.514855,-9178.553681,3370.820191
534.429595,-444.123565,-9696.697840,1225.752797
534.429923,-2220.617826,-9474.636058,0.000000
534.430250,-1776.494261,-9474.636058,-306.438199
534.430578,-814.226536,-9622.677246,0.000000
534.430906,666.185348,-9252.574275,1455.581446
534.431234,2368.659014,-8068.244768,1608.800546
534.431561,2590.720797,-7328.038826,1378.971896
534.431889,1924.535449,-7624.121203,612.876398
534.432217,-444.123565,-8660.409521,-689.485948
534.432545,-3923.091493,-9326.594869,-2068.457845
534.432872,-4219.173869,-9178.553681,-2221.676944
534.433200,-3182.885551,-9326.594869,-1532.190996
534.433528,-1924.535449,-8808.450710,-306.438199
534.433856,0.000000,-8438.347739,766.095498
534.434184,1776.494261,-7772.162391,1991.848295
534.434511,2146.597232,-7402.059420,2221.676944
534.434839,814.226536,-7328.038826,1302.362347
534.435167,-1628.453072,-8216.285956,-229.828649
534.435495,-2368.659014,-9252.574275,-842.705048
534.435822,-2516.700203,-9252.574275,-1225.752797
534.436150,-666.185348,-9252.574275,-306.438199
534.436478,1036.288319,-9992.780217,153.219100
534.436806,1850.514855,-8956.491898,842.705048
534.437133,2664.741391,-9178.553681,1378.971896
534.437461,2368.659014,-9400.615463,689.485948
534.437789,1554.432478,-9770.718434,536.266849
534.438117,-888.247130,-10807.006753,-1225.752797
534.438445,-1406.391290,-11769.274478,-1149.143247
534.438772,-1332.370696,-11769.274478,-536.266849
534.439100,-592.164754,-11029.068536,76.609550
534.439428,592.164754,-10584.944971,1302.362347
534.439756,2812.782580,-9844.739029,2221.676944
534.440083,3256.906145,-9104.533087,2911.162892
534.440411,2442.679609,-9326.594869,2681.334243
534.440739,666.185348,-9770.718434,1838.629195
534.441067,-1332.370696,-9770.718434,1225.752797
534.441394,-1554.432478,-10288.862594,1225.752797
534.441722,-1480.411884,-10510.924376,1149.143247
534.442050,-1702.473667,-9992.780217,1455.581446
534.442378,-1258.350101,-9918.759623,1225.752797
534.442706,-592.164754,-9252.574275,1608.800546
534.443033,222.061783,-8660.409521,1685.410096
534.443361,-740.205942,-9030.512492,153.219100
534.443689,-2590.720797,-9474.636058,-459.657299
534.444017,-3478.967927,-9622.677246,-842.705048
534.444344,-3552.988522,-9474.636058,-1149.143247
534.444672,-2664.741391,-9770.718434,-766.095498
534.445000,-1110.308913,-9696.697840,842.705048
534.445328,444.123565,-8808.450710,1302.362347
534.445655,1776.494261,-7846.182985,2298.286494
534.445983,2590.720797,-7772.162391,2757.943793
534.446311,1258.350101,-8290.306550,2068.457845
534.446639,-296.082377,-9030.512492,1455.581446
534.446967,-518.144159,-9178.553681,995.924147
534.447294,-740.205942,-8882.471304,995.924147
534.447622,-666.185348,-9400.615463,1149.143247
534.447950,-518.144159,-8882.471304,1225.752797
534.448278,814.226536,-7105.977043,1072.533697
534.448605,1702.473667,-7179.997637,1149.143247
534.448933,1998.556043,-6883.915261,383.047749
534.449261,-518.144159,-7846.182985,-995.924147
534.449589,-2368.659014,-8068.244768,-1991.848295
534.449916,-2368.659014,-8068.244768,-1762.019645
534.450244,-1628.453072,-8512.368333,-1762.019645
534.450572,-1332.370696,-8438.347739,-1149.143247
534.450900,74.020594,-8512.368333,0.000000
534.451228,1332.370696,-7624.121203,689.485948
534.451555,2146.597232,-7550.100608,1302.362347
534.451883,1332.370696,-8512.368333,1149.143247
534.452211,-740.205942,-9252.574275,0.000000
534.452539,-888.247130,-9696.697840,76.609550
534.452866,-814.226536,-9548.656652,-383.047749
534.453194,-222.061783,-9474.636058,383.047749
534.453522,370.102971,-9252.574275,842.705048
534.453850,1332.370696,-8808.450710,689.485948
534.454177,2220.617826,-8290.306550,1072.533697
534.454505,1998.556043,-8142.265362,612.876398
534.454833,0.000000,-8660.409521,-766.095498
534.455161,-1998.556043,-9104.533087,-1225.752797
534.455489,-1628.453072,-9622.677246,-1762.019645
534.455816,-1406.391290,-9548.656652,-995.924147
534.456144,-296.082377,-9696.697840,76.609550
534.456472,962.267725,-9844.739029,1455.581446
534.456800,2812.782580,-9548.656652,2834.553343
534.457127,2664.741391,-9548.656652,2681.334243
534.457455,1258.350101,-9992.780217,2834.553343
534.457782,-740.205942,-10584.944971,1608.800546
534.458110,-1850.514855,-11029.068536,842.705048
534.458437,-1924.535449,-11103.089130,1455.581446
534.458765,-1258.350101,-10658.965565,1225.752797
534.459092,-888.247130,-10214.842000,1762.019645
534.459420,666.185348,-9696.697840,2451.505594
534.459748,1332.370696,-9030.512492,2451.505594
534.460075,370.102971,-9252.574275,1838.629195
534.460403,-1628.453072,-10140.821405,229.828649
534.460730,-4293.194464,-9844.739029,-995.924147
534.461058,-5181.441594,-9400.615463,-1762.019645
534.461385,-4515.256246,-8808.450710,-1532.190996
534.461713,-2590.720797,-8956.491898,-229.828649
534.462040,-888.247130,-8586.388927,919.314598
534.462368,518.144159,-8068.244768,1838.629195
534.462695,962.267725,-8068.244768,2757.943793
534.463023,74.020594,-8512.368333,2298.286494
534.463351,-1406.391290,-9178.553681,1225.752797
534.463678,-2368.659014,-9622.677246,842.705048
534.464006,-1406.391290,-9474.636058,383.047749
534.464333,-740.205942,-9104.533087,919.314598
534.464661,962.267725,-8512.368333,1455.581446
534.464988,1702.473667,-8290.306550,1838.629195
534.465316,3034.844362,-8290.306550,2145.067394
534.465643,2146.597232,-7920.203579,1762.019645
534.465971,592.164754,-8660.409521,306.438199
534.466298,-2146.597232,-9252.574275,-1838.629195
534.466626,-2812.782580,-9548.656652,-2374.896044
534.466954,-2368.659014,-9104.533087,-2374.896044
534.467281,-148.041188,-8956.491898,-536.266849
534.467609,592.164754,-8660.409521,-536.266849
534.467936,2220.617826,-8438.347739,995.924147
534.468264,2960.823768,-7994.224174,1455.581446
534.468591,2294.638420,-8142.265362,1378.971896
534.468919,1406.391290,-8956.491898,459.657299
534.469246,-222.061783,-8216.285956,0.000000
534.469574,-814.226536,-9030.512492,-153.219100
534.469901,-518.144159,-9400.615463,306.438199
534.470229,-222.061783,-8956.491898,842.705048
534.470557,148.041188,-8660.409521,689.485948
534.470884,1776.494261,-8512.368333,1072.533697
534.471212,1554.432478,-7994.224174,766.095498
534.471539,444.123565,-8660.409521,153.219100
534.471867,-1924.535449,-9326.594869,-1225.752797
534.472194,-2368.659014,-9548.656652,-1915.238745
534.472522,-2220.617826,-8808.450710,-1072.533697
534.472849,-1406.391290,-9474.636058,-1225.752797
534.473177,-518.144159,-9178.553681,-536.266849
534.473504,888.247130,-8882.471304,842.705048
534.473832,1628.453072,-8512.368333,1991.848295
534.474159,2368.659014,-7846.182985,2145.067394
534.474487,1480.411884,-8512.368333,2145.067394
534.474815,-444.123565,-9844.739029,1378.971896
534.475142,-1480.411884,-10066.800811,1149.143247
534.475470,-1924.535449,-10288.862594,1072.533697
534.475797,-2146.597232,-9548.656652,1455.581446
534.476125,-1924.535449,-9400.615463,1378.971896
534.476452,74.020594,-9178.553681,1685.410096
534.476780,1184.329507,-7476.080014,1378.971896
534.477107,888.247130,-7920.203579,842.705048
534.477435,-518.144159,-8882.471304,0.000000
534.477762,-2886.803174,-9622.677246,-1378.971896
534.478090,-3108.864956,-9992.780217,-1532.190996
534.478418,-2960.823768,-9696.697840,-1455.581446
534.478745,-2442.679609,-9844.739029,-1072.533697
534.479073,-1554.432478,-9992.780217,153.219100
534.479400,1184.329507,-8512.368333,1532.190996
534.479728,1332.370696,-8438.347739,2068.457845
534.480055,1258.350101,-8734.430116,1991.848295
534.480383,-296.082377,-9696.697840,995.924147
534.480710,-1036.288319,-9918.759623,689.485948
534.481038,-888.247130,-9770.718434,306.438199
534.481365,-296.082377,-10140.821405,995.924147
534.481693,0.000000,-9992.780217,1149.143247
534.482021,1702.473667,-9622.677246,2068.457845
534.482348,3923.091493,-8734.430116,2451.505594
534.482676,3404.947333,-8142.265362,2451.505594
534.483003,1924.535449,-9030.512492,766.095498
534.483331,-518.144159,-10510.924376,0.000000
534.483658,-1850.514855,-10658.965565,-1225.752797
534.483986,-2368.659014,-10658.965565,-1378.971896
534.484313,-1702.473667,-10955.047942,-919.314598
534.484641,-1554.432478,-10510.924376,0.000000
534.484968,592.164754,-9400.615463,1072.533697
534.485296,1776.494261,-8512.368333,1685.410096
534.485624,1850.514855,-7994.224174,1915.238745
534.485951,0.000000,-8586.388927,689.485948
534.486279,-1184.329507,-9104.533087,0.000000
534.486606,-1850.514855,-9104.533087,0.000000
534.486934,-1998.556043,-9696.697840,536.266849
534.487261,-1184.329507,-9770.718434,1149.143247
534.487589,222.061783,-9474.636058,2068.457845
534.487916,1998.556043,-8216.285956,3064.381992
534.488244,2072.576638,-7624.121203,2681.334243
534.488571,74.020594,-8734.430116,1302.362347
534.488899,-2886.803174,-8956.491898,-612.876398
534.489227,-4145.153275,-9178.553681,-1302.362347
534.489554,-3701.029710,-8660.409521,-1991.848295
534.489882,-2664.741391,-7846.182985,-1302.362347
534.490209,-888.247130,-7698.141797,-612.876398
534.490537,740.205942,-7402.059420,306.438199
534.490864,2368.659014,-6439.791695,1455.581446
534.491192,1628.453072,-6661.853478,1149.143247
534.491519,-518.144159,-7994.224174,76.609550
534.491847,-2664.741391,-8808.450710,-766.095498
534.492174,-2368.659014,-9696.697840,-612.876398
534.492502,-2146.597232,-9326.594869,-383.047749
534.492830,74.020594,-9104.533087,995.924147
534.493157,1776.494261,-8882.471304,1762.019645
534.493485,3775.050304,-8142.265362,2604.724693
534.493812,3108.864956,-7994.224174,2374.896044
534.494140,1628.453072,-8216.285956,919.314598
534.494467,-1628.453072,-8512.368333,-1378.971896
534.494795,-2590.720797,-8364.327145,-2374.896044
534.495122,-2072.576638,-8586.388927,-2451.505594
534.495450,-296.082377,-8808.450710,-1685.410096
534.495777,1332.370696,-8734.430116,-153.219100
534.496105,2812.782580,-8512.368333,919.314598
534.496433,3997.112087,-8438.347739,2145.067394
534.496760,3108.864956,-9178.553681,1838.629195
534.497088,592.164754,-10214.842000,1302.362347
534.497415,-1998.556043,-11251.130318,383.047749
534.497743,-3034.844362,-11547.212695,76.609550
534.498070,-2812.782580,-11547.212695,689.485948
534.498398,-1554.432478,-10510.924376,1378.971896
534.498725,370.102971,-9622.677246,2221.676944
534.499053,2368.659014,-8956.491898,2834.553343
534.499380,1702.473667,-8068.244768,2451.505594
534.499708,740.205942,-8808.450710,1532.190996
534.500036,-2590.720797,-8808.450710,-229.828649
534.500363,-3849.070898,-9104.533087,-1532.190996
534.500691,-3552.988522,-9474.636058,-1608.800546
534.501018,-2886.803174,-9548.656652,-919.314598
534.501346,-2220.617826,-9770.718434,0.000000
534.501673,-148.041188,-9622.677246,1378.971896
534.502001,1110.308913,-8734.430116,1302.362347
534.502328,888.247130,-9474.636058,2451.505594
534.502656,-444.123565,-10658.965565,1455.581446
534.502983,-2294.638420,-11547.212695,689.485948
534.503311,-3108.864956,-11029.068536,229.828649
534.503639,-2368.659014,-10288.862594,1072.533697
534.503966,-1184.329507,-9918.759623,1072.533697
534.504294,592.164754,-9548.656652,1838.629195
534.504621,2516.700203,-9252.574275,3064.381992
534.504949,3034.844362,-8068.244768,2681.334243
534.505276,2368.659014,-8290.306550,2451.505594
534.505604,-370.102971,-9178.553681,536.266849
534.505931,-2220.617826,-9992.780217,-536.266849
534.506259,-2442.679609,-9770.718434,-995.924147
534.506586,-1776.494261,-9474.636058,-689.485948
534.506914,-444.123565,-9252.574275,-612.876398
534.507242,518.144159,-8734.430116,842.705048
534.507569,1332.370696,-7994.224174,1225.752797
534.507897,2072.576638,-7402.059420,1302.362347
534.508224,1332.370696,-7476.080014,919.314598
534.508552,-666.185348,-8142.265362,-306.438199
534.508879,-2812.782580,-8808.450710,-1072.533697
534.509207,-2738.761985,-9474.636058,-612.876398
534.509534,-1924.535449,-9030.512492,0.000000
534.509862,-592.164754,-8734.430116,612.876398
534.510189,1184.329507,-7920.203579,1532.190996
534.510517,3034.844362,-7476.080014,1915.238745
534.510845,1850.514855,-6957.935855,919.314598
534.511172,0.000000,-8512.368333,0.000000
534.511500,-1776.494261,-9104.533087,-1455.581446
534.511827,-1184.329507,-9104.533087,-2068.457845
534.512155,-740.205942,-9400.615463,-1608.800546
534.512482,148.041188,-9400.615463,-383.047749
534.512810,1406.391290,-9252.574275,536.266849
534.513137,2590.720797,-9030.512492,1685.410096
534.513465,3108.864956,-8068.244768,2298.286494
534.513792,2368.659014,-8882.471304,1762.019645
534.514120,0.000000,-9326.594869,995.924147
534.514448,-2072.576638,-9326.594869,0.000000
534.514775,-2294.638420,-9918.759623,76.609550
534.515103,-1850.514855,-9918.759623,306.438199
534.515430,-592.164754,-8660.409521,689.485948
534.515758,1258.350101,-7994.224174,1378.971896
534.516085,2442.679609,-7105.977043,2068.457845
534.516413,2294.638420,-7105.977043,1685.410096
534.516740,518.144159,-8438.347739,1302.362347
534.517068,-2368.659014,-8882.471304,0.000000
534.517395,-4145.153275,-8808.450710,-995.924147
534.517723,-3034.844362,-10066.800811,-306.438199
534.518051,-2664.741391,-10288.862594,229.828649
534.518378,-2368.659014,-10288.862594,766.095498
534.518706,-148.041188,-9622.677246,1991.848295
534.519033,814.226536,-8660.409521,2451.505594
534.519361,888.247130,-8142.265362,1991.848295
534.519688,-592.164754,-8808.450710,612.876398
534.520016,-2368.659014,-9474.636058,-153.219100
534.520343,-2738.761985,-9400.615463,-536.266849
534.520671,-2220.617826,-8956.491898,0.000000
534.520998,-888.247130,-8586.388927,612.876398
534.521326,592.164754,-9030.512492,1378.971896
534.521654,2442.679609,-8882.471304,2068.457845
534.521981,1924.535449,-9252.574275,2145.067394
534.522309,222.061783,-9252.574275,1225.752797
534.522636,-1850.514855,-10214.842000,0.000000
534.522964,-2146.597232,-10658.965565,-689.485948
534.523291,-1776.494261,-10214.842000,-1149.143247
534.523619,0.000000,-10288.862594,-306.438199
534.523946,518.144159,-9696.697840,153.219100
534.524274,1998.556043,-9474.636058,1838.629195
534.524601,2368.659014,-8808.450710,1762.019645
534.524929,1850.514855,-9252.574275,1455.581446
534.525256,0.000000,-10066.800811,153.219100
534.525584,-1924.535449,-10584.944971,-995.924147
534.525912,-2368.659014,-10732.986159,-1685.410096
534.526239,-1850.514855,-10584.944971,-536.266849
534.526567,-518.144159,-10510.924376,0.000000
534.526894,1184.329507,-9992.780217,1149.143247
534.527222,2516.700203,-8956.491898,1685.410096
534.527549,2812.782580,-9104.533087,1991.848295
534.527877,814.226536,-9474.636058,612.876398
534.528204,-1554.432478,-10288.862594,0.000000
534.528532,-2072.576638,-10140.821405,-612.876398
534.528859,-1258.350101,-9696.697840,-536.266849
534.529187,-814.226536,-9252.574275,0.000000
534.529515,222.061783,-9400.615463,1455.581446
534.529842,1184.329507,-8956.491898,2068.457845
534.530170,2294.638420,-7550.100608,2451.505594
534.530497,1998.556043,-8142.265362,2298.286494
534.530825,-296.082377,-9178.553681,1072.533697
534.531152,-2960.823768,-10140.821405,153.219100
534.531480,-3404.947333,-9844.739029,-229.828649
534.531807,-2960.823768,-9400.615463,0.000000
534.532135,-1702.473667,-9030.512492,842.705048
534.532462,-148.041188,-9030.512492,1685.410096
534.532790,888.247130,-8660.409521,1608.800546
534.533118,962.267725,-7994.224174,2298.286494
534.533445,0.000000,-8216.285956,1455.581446
534.533773,-2516.700203,-8438.347739,0.000000
534.534100,-3034.844362,-8660.409521,-766.095498
534.534428,-2590.720797,-7920.203579,-995.924147
534.534755,-1628.453072,-8364.327145,-689.485948
534.535083,-740.205942,-8216.285956,306.438199
534.535410,0.000000,-7402.059420,842.705048
534.535738,1406.391290,-6661.853478,1378.971896
534.536065,1998.556043,-6957.935855,1532.190996
534.536393,814.226536,-7402.059420,1302.362347
534.536721,-1258.350101,-8734.430116,-153.219100
534.537048,-2072.576638,-9252.574275,-612.876398
534.537376,-1554.432478,-8808.450710,0.000000
534.537703,-740.205942,-9030.512492,153.219100
534.538031,444.123565,-9326.594869,459.657299
534.538358,1480.411884,-9104.533087,1225.752797
534.538686,2368.659014,-7994.224174,1455.581446
534.539013,2072.576638,-7772.162391,1149.143247
534.539341,962.267725,-8216.285956,229.828649
534.539668,-370.102971,-8660.409521,0.000000
534.539996,-444.123565,-9178.553681,-1072.533697
534.540324,-518.144159,-9400.615463,-306.438199
534.540651,-370.102971,-9178.553681,153.219100
534.540979,74.020594,-9326.594869,919.314598
534.541306,1406.391290,-9030.512492,2068.457845
534.541634,1924.535449,-8734.430116,1685.410096
534.541961,814.226536,-9252.574275,1608.800546
534.542289,-1258.350101,-9474.636058,612.876398
534.542616,-2220.617826,-9696.697840,-229.828649
534.542944,-2664.741391,-9474.636058,-612.876398
534.543271,-1850.514855,-9474.636058,0.000000
534.543599,-518.144159,-9474.636058,153.219100
534.543927,148.041188,-9030.512492,536.266849
534.544254,1406.391290,-8512.368333,1455.581446
534.544582,1258.350101,-8142.265362,1225.752797
534.544909,370.102971,-8660.409521,766.095498
534.545237,-1480.411884,-9548.656652,-306.438199
534.545564,-1776.494261,-9918.759623,-612.876398
534.545892,-1702.473667,-10362.883188,-766.095498
534.546219,-1036.288319,-10214.842000,229.828649
534.546547,-148.041188,-9770.718434,766.095498
534.546874,1480.411884,-9696.697840,1915.238745
534.547202,2294.638420,-9326.594869,2068.457845
534.547530,1924.535449,-9622.677246,2374.896044
534.547857,148.041188,-10214.842000,1532.190996
534.548185,-2368.659014,-10510.924376,306.438199
534.548512,-2812.782580,-10658.965565,153.219100
534.548840,-2812.782580,-10881.027347,0.000000
534.549167,-1924.535449,-10140.821405,153.219100
534.549495,-1036.288319,-9474.636058,306.438199
534.549822,0.000000,-8512.368333,842.705048
534.550150,592.164754,-7920.203579,536.266849
534.550477,-296.082377,-8068.244768,76.609550
534.550805,-1850.514855,-8142.265362,-1302.362347
534.551133,-1998.556043,-8660.409521,-1608.800546
534.551460,-2220.617826,-8882.471304,-1455.581446
534.551788,-1258.350101,-9252.574275,-1072.533697
534.552115,-370.102971,-9474.636058,306.438199
534.552443,1554.432478,-8882.471304,1532.190996
534.552770,2886.803174,-8438.347739,2604.724693
534.553098,2960.823768,-8734.430116,2451.505594
534.553425,444.123565,-9326.594869,2374.896044
534.553753,-1480.411884,-10140.821405,306.438199
534.554080,-1924.535449,-9696.697840,0.000000
534.554408,-1110.308913,-9474.636058,0.000000
534.554736,222.061783,-9400.615463,306.438199
534.555063,1332.370696,-8438.347739,1302.362347
534.555391,3034.844362,-8068.244768,2374.896044
534.555718,3182.885551,-7402.059420,1991.848295
534.556046,1554.432478,-8142.265362,1532.190996
534.556373,0.000000,-9030.512492,536.266849
534.556701,-1332.370696,-9252.574275,-383.047749
534.557028,-1628.453072,-8956.491898,76.609550
534.557356,-1702.473667,-9622.677246,459.657299
534.557683,-1332.370696,-9696.697840,919.314598
534.558011,296.082377,-9400.615463,2451.505594
534.558339,1924.535449,-8068.244768,2834.553343
534.558666,1702.473667,-7476.080014,3447.429741
534.558994,-148.041188,-8956.491898,2068.457845
534.559321,-2812.782580,-9474.636058,536.266849
534.559649,-4145.153275,-9252.574275,-459.657299
534.559976,-3552.988522,-8512.368333,-842.705048
534.560304,-2664.741391,-8364.327145,-459.657299
534.560632,-1628.453072,-8882.471304,-153.219100
534.560959,-148.041188,-8512.368333,612.876398
534.561287,666.185348,-7994.224174,689.485948
534.561614,296.082377,-8364.327145,383.047749
534.561942,-1184.329507,-9178.553681,0.000000
534.562269,-2368.659014,-10288.862594,-1149.143247
534.562597,-2442.679609,-10288.862594,-1378.971896
534.562925,-1776.494261,-9696.697840,-1149.143247
534.563252,-592.164754,-9474.636058,0.000000
534.563580,1184.329507,-8956.491898,612.876398
534.563907,3701.029710,-7402.059420,2145.067394
534.564235,4219.173869,-7624.121203,2374.896044
534.564562,2516.700203,-8512.368333,1838.629195
534.564890,0.000000,-9548.656652,612.876398
534.565218,-1110.308913,-10214.842000,0.000000
534.565545,-518.144159,-9474.636058,-536.266849
534.565873,-666.185348,-9770.718434,153.219100
534.566200,962.267725,-9770.718434,383.047749
534.566528,1628.453072,-8956.491898,995.924147
534.566856,2960.823768,-7772.162391,1532.190996
534.567183,1628.453072,-7994.224174,842.705048
534.567511,-222.061783,-9178.553681,0.000000
534.567838,-2220.617826,-9326.594869,-1762.019645
534.568166,-2442.679609,-9474.636058,-1762.019645
534.568493,-2442.679609,-9326.594869,-1149.143247
534.568821,-1406.391290,-9474.636058,536.266849
534.569149,296.082377,-8882.471304,1608.800546
534.569476,1850.514855,-8808.450710,2757.943793
534.569804,2072.576638,-8216.285956,3294.210641
534.570131,444.123565,-9474.636058,2757.943793
534.570459,-2294.638420,-10214.842000,1302.362347
534.570786,-4145.153275,-9992.780217,536.266849
534.571114,-3627.009116,-9844.739029,-229.828649
534.571442,-2220.617826,-9548.656652,0.000000
534.571769,-814.226536,-9326.594869,612.876398
534.572097,518.144159,-9030.512492,1149.143247
534.572424,1406.391290,-7624.121203,2374.896044
534.572752,1406.391290,-7994.224174,1608.800546
534.573079,0.000000,-8808.450710,383.047749
534.573407,-2442.679609,-9696.697840,-842.705048
534.573735,-2442.679609,-9992.780217,-919.314598
534.574062,-2516.700203,-9844.739029,-689.485948
534.574390,-962.267725,-9770.718434,383.047749
534.574717,296.082377,-9548.656652,1302.362347
534.575045,2294.638420,-8882.471304,2681.334243
534.575373,2886.803174,-8512.368333,3064.381992
534.575700,1924.535449,-8734.430116,2757.943793
534.576028,-296.082377,-9474.636058,1302.362347
534.576355,-2442.679609,-9844.739029,0.000000
534.576683,-2146.597232,-9474.636058,-689.485948
534.577010,-1406.391290,-9178.553681,-689.485948
534.577338,0.000000,-8956.491898,0.000000
534.577666,1110.308913,-8512.368333,306.438199
534.577993,2146.597232,-7994.224174,842.705048
534.578321,1628.453072,-7920.203579,459.657299
534.578648,74.020594,-8734.430116,-153.219100
534.578976,-2368.659014,-9474.636058,-1608.800546
534.579303,-2886.803174,-9548.656652,-2757.943793
534.579631,-2146.597232,-8808.450710,-1838.629195
534.579959,-1036.288319,-8808.450710,-612.876398
534.580286,666.185348,-8216.285956,383.047749
534.580614,2516.700203,-8216.285956,1838.629195
534.580941,3330.926739,-7772.162391,2834.553343
534.581269,2516.700203,-8068.244768,2911.162892
534.581596,148.041188,-9178.553681,1991.848295
534.581924,-1554.432478,-9844.739029,612.876398
534.582252,-1998.556043,-10066.800811,0.000000
534.582579,-1406.391290,-10140.821405,536.266849
534.582907,-592.164754,-9326.594869,689.485948
534.583234,0.000000,-9030.512492,919.314598
534.583562,1184.329507,-8364.327145,1378.971896
534.583890,888.247130,-8068.244768,919.314598
534.584217,-592.164754,-8216.285956,76.609550
534.584545,-2442.679609,-7994.224174,-1378.971896
534.584872,-2812.782580,-9178.553681,-1685.410096
534.585200,-2812.782580,-9030.512492,-1838.629195
534.585527,-2146.597232,-9030.512492,-766.095498
534.585855,-444.123565,-9104.533087,153.219100
534.586183,1554.432478,-8734.430116,1532.190996
534.586510,2886.803174,-8142.265362,2757.943793
534.586838,2220.617826,-8734.430116,2757.943793
534.587165,740.205942,-9548.656652,2374.896044
534.587493,-1258.350101,-10362.883188,1072.533697
534.587820,-1702.473667,-10436.903782,689.485948
534.588148,-1036.288319,-9844.739029,383.047749
534.588476,0.000000,-9770.718434,995.924147
534.588803,518.144159,-9474.636058,919.314598
534.589131,1998.556043,-8956.491898,1838.629195
534.589458,1480.411884,-8290.306550,1608.800546
534.589786,814.226536,-8660.409521,383.047749
534.590113,-1998.556043,-9474.636058,-1149.143247
534.590441,-3404.947333,-10140.821405,-1991.848295
534.590769,-3330.926739,-9992.780217,-2145.067394
534.591096,-2368.659014,-9474.636058,-1302.362347
534.591424,-296.082377,-9326.594869,459.657299
534.591751,1480.411884,-9178.553681,1149.143247
534.592079,2516.700203,-8808.450710,2528.115143
534.592406,2072.576638,-9400.615463,2528.115143
534.592734,222.061783,-9474.636058,2145.067394
534.593062,-1998.556043,-10214.842000,766.095498
534.593389,-1776.494261,-10288.862594,76.609550
534.593717,-1406.391290,-10288.862594,306.438199
534.594044,-222.061783,-9844.739029,1072.533697
534.594372,592.164754,-9474.636058,1608.800546
534.594700,1924.535449,-8734.430116,1302.362347
534.595027,2146.597232,-8068.244768,2528.115143
534.595355,1332.370696,-8586.388927,1072.533697
534.595682,-888.247130,-8956.491898,-306.438199
534.596010,-2368.659014,-9622.677246,-766.095498
534.596337,-2590.720797,-9992.780217,-1455.581446
534.596665,-2886.803174,-9400.615463,-919.314598
534.596993,-1406.391290,-9030.512492,76.609550
534.597320,148.041188,-8734.430116,842.705048
534.597648,1480.411884,-8068.244768,2298.286494
534.597975,1480.411884,-7994.224174,2451.505594
534.598303,74.020594,-8364.327145,2604.724693
534.598630,-1406.391290,-8808.450710,1225.752797
534.598958,-2146.597232,-9104.533087,536.266849
534.599286,-1554.432478,-8882.471304,459.657299
534.599613,-888.247130,-8660.409521,459.657299
534.599941,-444.123565,-8438.347739,1149.143247
534.600268,-296.082377,-7920.203579,1072.533697
534.600596,740.205942,-7772.162391,1225.752797
534.600923,518.144159,-7846.182985,459.657299
534.601251,222.061783,-8068.244768,-153.219100
534.601579,-1406.391290,-8956.491898,-1762.019645
534.601906,-2220.617826,-8882.471304,-2298.286494
534.602234,-1776.494261,-9622.677246,-1455.581446
534.602561,-518.144159,-9252.574275,-689.485948
534.602889,962.267725,-8808.450710,76.609550
534.603217,2442.679609,-8586.388927,2145.067394
534.603544,2960.823768,-8586.388927,1378.971896
534.603872,1554.432478,-9326.594869,1915.238745
534.604199,0.000000,-9548.656652,995.924147
534.604527,-1406.391290,-9696.697840,0.000000
534.604854,-740.205942,-9400.615463,-153.219100
534.605182,-518.144159,-8882.471304,0.000000
534.605510,296.082377,-9252.574275,842.705048
534.605837,1184.329507,-8660.409521,1149.143247
534.606165,2146.597232,-8438.347739,1608.800546
534.606492,1036.288319,-8290.306550,766.095498
534.606820,0.000000,-9104.533087,0.000000
534.607147,-3182.885551,-9474.636058,-1762.019645
534.607475,-3775.050304,-9770.718434,-1991.848295
534.607803,-3552.988522,-9474.636058,-1991.848295
534.608130,-2220.617826,-9178.553681,-1072.533697
534.608458,-1036.288319,-8660.409521,153.219100
534.608785,1036.288319,-8660.409521,1455.581446
534.609113,1924.535449,-8216.285956,1685.410096
534.609440,1258.350101,-8364.327145,2068.457845
534.609768,0.000000,-9252.574275,1225.752797
534.610096,-1998.556043,-9918.759623,536.266849
534.610423,-1776.494261,-10140.821405,0.000000
534.610751,-1184.329507,-10140.821405,612.876398
534.611078,0.000000,-9696.697840,1225.752797
534.611406,1258.350101,-9548.656652,2145.067394
534.611734,2146.597232,-9252.574275,2145.067394
534.612061,1554.432478,-8068.244768,1685.410096
534.612389,370.102971,-9400.615463,689.485948
534.612716,-1776.494261,-9622.677246,-1072.533697
534.613044,-2812.782580,-9992.780217,-1608.800546
534.613371,-2368.659014,-9844.739029,-1532.190996
534.613699,-1332.370696,-9844.739029,-536.266849
534.614027,74.020594,-9770.718434,536.266849
534.614354,1776.494261,-9030.512492,1685.410096
534.614682,2516.700203,-8438.347739,2681.334243
534.615009,2072.576638,-8956.491898,2528.115143
534.615337,370.102971,-9622.677246,2374.896044
534.615664,-1258.350101,-10288.862594,1302.362347
534.615992,-1628.453072,-10436.903782,919.314598
534.616320,-1702.473667,-10288.862594,919.314598
534.616647,-1110.308913,-10584.944971,1532.190996
534.616975,-296.082377,-10066.800811,1685.410096
534.617302,666.185348,-9252.574275,2451.505594
534.617630,1110.308913,-8512.368333,1991.848295
534.617957,444.123565,-9326.594869,1072.533697
534.618285,-1628.453072,-10066.800811,-229.828649
534.618613,-3478.967927,-10140.821405,-1302.362347
534.618940,-3108.864956,-9770.718434,-1532.190996
534.619268,-2368.659014,-9326.594869,-1225.752797
534.619595,-1184.329507,-9104.533087,-612.876398
534.619923,74.020594,-8734.430116,383.047749
534.620251,1702.473667,-7698.141797,1302.362347
534.620578,2368.659014,-7402.059420,2298.286494
534.620906,1554.432478,-8142.265362,1532.190996
534.621233,-592.164754,-9252.574275,919.314598
534.621561,-888.247130,-9622.677246,536.266849
534.621888,-888.247130,-9548.656652,766.095498
534.622216,-296.082377,-9400.615463,919.314598
534.622544,962.267725,-9030.512492,1072.533697
534.622871,1998.556043,-8438.347739,1762.019645
534.623199,2886.803174,-7920.203579,1838.629195
534.623526,1998.556043,-7994.224174,1149.143247
534.623854,0.000000,-8216.285956,-306.438199
534.624181,-1332.370696,-8734.430116,-1532.190996
534.624509,-2220.617826,-8512.368333,-2451.505594
534.624837,-1924.535449,-8586.388927,-2068.457845
534.625164,-1184.329507,-8882.471304,-1149.143247
534.625492,-592.164754,-8438.347739,0.000000
534.625819,814.226536,-7476.080014,842.705048
534.626147,1110.308913,-7254.018232,1455.581446
534.626474,518.144159,-7254.018232,842.705048
534.626802,-1258.350101,-8660.409521,306.438199
534.627130,-1776.494261,-9104.533087,0.000000
534.627457,-2072.576638,-8660.409521,-229.828649
534.627785,-740.205942,-8438.347739,459.657299
534.628112,370.102971,-8586.388927,919.314598
534.628440,2072.576638,-8438.347739,1915.238745
534.628768,3034.844362,-7624.121203,2451.505594
534.629095,2442.679609,-7402.059420,2145.067394
534.629423,666.185348,-8290.306550,459.657299
534.629750,-2516.700203,-9622.677246,-995.924147
534.630078,-3182.885551,-9844.739029,-1532.190996
534.630405,-2886.803174,-9400.615463,-1532.190996
534.630733,-1628.453072,-9474.636058,-766.095498
534.631061,-370.102971,-9844.739029,0.000000
534.631388,1110.308913,-9178.553681,1532.190996
534.631716,1554.432478,-8586.388927,2298.286494
534.632043,592.164754,-9178.553681,2145.067394
534.632371,-1850.514855,-10140.821405,842.705048
534.632698,-2960.823768,-10658.965565,306.438199
534.633026,-3182.885551,-10362.883188,0.000000
534.633354,-2072.576638,-9474.636058,612.876398
534.633681,-296.082377,-9104.533087,1838.629195
534.634009,1332.370696,-8808.450710,2528.115143
534.634336,2442.679609,-8216.285956,2528.115143
534.634664,1850.514855,-8216.285956,2451.505594
534.634991,-666.185348,-9030.512492,1072.533697
534.635319,-3256.906145,-9548.656652,-612.876398
534.635647,-3627.009116,-10140.821405,-1685.410096
534.635974,-3256.906145,-10066.800811,-1225.752797
534.636302,-2146.597232,-10066.800811,-842.705048
534.636629,-296.082377,-9622.677246,689.485948
534.636957,1998.556043,-9178.553681,1608.800546
534.637284,2886.803174,-8586.388927,2451.505594
534.637612,2146.597232,-9400.615463,2298.286494
534.637940,-592.164754,-10214.842000,689.485948
534.638267,-2220.617826,-10955.047942,229.828649
534.638595,-2294.638420,-10881.027347,0.000000
534.638922,-1554.432478,-10436.903782,842.705048
534.639250,-148.041188,-10214.842000,1532.190996
534.639578,1332.370696,-9770.718434,2451.505594
534.639905,2664.741391,-8586.388927,2604.724693
534.640233,2590.720797,-8068.244768,2681.334243
534.640560,1110.308913,-8216.285956,1685.410096
534.640888,-1036.288319,-9178.553681,0.000000
534.641215,-2220.617826,-9622.677246,-306.438199
534.641543,-2146.597232,-9326.594869,-1149.143247
534.641871,-2072.576638,-8808.450710,-1225.752797
534.642198,-1110.308913,-8734.430116,-383.047749
534.642526,370.102971,-8364.327145,306.438199
534.642853,1628.453072,-7624.121203,995.924147
534.643181,2220.617826,-7328.038826,919.314598
534.643508,962.267725,-8290.306550,612.876398
534.643836,-1332.370696,-9252.574275,-459.657299
534.644164,-1776.494261,-9474.636058,-306.438199
534.644491,-1702.473667,-9474.636058,-459.657299
534.644819,-148.041188,-9474.636058,459.657299
534.645146,444.123565,-8882.471304,1149.143247
534.645474,1776.494261,-8734.430116,1685.410096
534.645801,2368.659014,-7846.182985,1762.019645
534.646129,1184.329507,-7994.224174,995.924147
534.646457,-444.123565,-8586.388927,0.000000
534.646784,-2146.597232,-9252.574275,-1608.800546
534.647112,-2146.597232,-9326.594869,-1762.019645
534.647439,-1998.556043,-9474.636058,-1762.019645
534.647767,-888.247130,-9252.574275,-1378.971896
534.648095,370.102971,-8660.409521,153.219100
534.648422,2368.659014,-8068.244768,1225.752797
534.648750,2294.638420,-8290.306550,1302.362347
534.649077,1036.288319,-9252.574275,689.485948
534.649405,-1184.329507,-9992.780217,0.000000
534.649732,-1924.535449,-9622.677246,-459.657299
534.650060,-1628.453072,-9178.553681,-689.485948
534.650388,-1332.370696,-9252.574275,0.000000
534.650715,0.000000,-9474.636058,536.266849
534.651043,1480.411884,-9030.512492,1608.800546
534.651370,2368.659014,-7920.203579,2068.457845
534.651698,1628.453072,-7994.224174,1608.800546
534.652025,0.000000,-9252.574275,612.876398
534.652353,-1776.494261,-9548.656652,-766.095498
534.652681,-1554.432478,-9474.636058,-1302.362347
534.653008,-1480.411884,-9474.636058,-1072.533697
534.653336,-518.144159,-9548.656652,0.000000
534.653663,296.082377,-9474.636058,842.705048
534.653991,1406.391290,-8438.347739,1915.238745
534.654318,2146.597232,-7994.224174,2145.067394
534.654646,592.164754,-8882.471304,1838.629195
534.654974,-2294.638420,-9844.739029,995.924147
534.655301,-3108.864956,-9770.718434,536.266849
534.655629,-2738.761985,-9696.697840,76.609550
534.655956,-1776.494261,-10066.800811,1225.752797
534.656284,-740.205942,-9918.759623,1838.629195
534.656612,1332.370696,-9326.594869,2681.334243
534.656937,2368.659014,-8216.285956,3217.601092
534.657264,1998.556043,-8882.471304,2911.162892
534.657592,-962.267725,-9844.739029,1455.581446
534.657919,-3108.864956,-10362.883188,-229.828649
534.658247,-2738.761985,-9474.636058,-689.485948
534.658574,-2072.576638,-8956.491898,-612.876398
534.658902,-1110.308913,-9326.594869,459.657299
534.659229,0.000000,-9104.533087,842.705048
534.659557,1480.411884,-8142.265362,2068.457845
534.659884,1628.453072,-7624.121203,2068.457845
534.660212,74.020594,-8808.450710,1302.362347
534.660539,-2442.679609,-9474.636058,0.000000
534.660867,-3849.070898,-9770.718434,-919.314598
534.661194,-3256.906145,-9326.594869,-995.924147
534.661522,-1998.556043,-9474.636058,0.000000
534.661849,296.082377,-9474.636058,1532.190996
534.662177,2368.659014,-9252.574275,1762.019645
534.662504,3330.926739,-7920.203579,2451.505594
534.662832,2664.741391,-7772.162391,1762.019645
534.663159,296.082377,-9030.512492,766.095498
534.663487,-2368.659014,-9548.656652,-1149.143247
534.663814,-2812.782580,-9474.636058,-1149.143247
534.664142,-1554.432478,-8734.430116,-1149.143247
534.664469,0.000000,-9104.533087,0.000000
534.664797,1036.288319,-8882.471304,919.314598
534.665124,1998.556043,-8512.368333,1532.190996
534.665452,2590.720797,-7698.141797,1378.971896
534.665779,962.267725,-8068.244768,1302.362347
534.666107,-1406.391290,-9474.636058,0.000000
534.666434,-3182.885551,-9696.697840,-1072.533697
534.666762,-2294.638420,-9474.636058,-1072.533697
534.667089,-1480.411884,-8660.409521,-689.485948
534.667416,0.000000,-8216.285956,76.609550
534.667744,962.267725,-8882.471304,1149.143247
534.668071,2146.597232,-8068.244768,1608.800546
534.668399,2146.597232,-7402.059420,1378.971896
534.668726,666.185348,-8512.368333,1072.533697
534.669054,-1406.391290,-9252.574275,-689.485948
534.669381,-2516.700203,-9474.636058,-1072.533697
534.669709,-1258.350101,-8734.430116,-766.095498
534.670036,-1036.288319,-8586.388927,-306.438199
534.670364,222.061783,-8808.450710,536.266849
534.670691,222.061783,-8438.347739,1149.143247
534.671019,1702.473667,-8142.265362,1455.581446
534.671346,1406.391290,-8438.347739,1302.362347
534.671674,0.000000,-9548.656652,306.438199
534.672001,-2072.576638,-10584.944971,-536.266849
534.672329,-2294.638420,-10436.903782,-153.219100
534.672656,-1110.308913,-9918.759623,-306.438199
534.672984,-518.144159,-9696.697840,459.657299
534.673311,222.061783,-9992.780217,842.705048
534.673639,1258.350101,-8808.450710,1762.019645
534.673966,1998.556043,-8512.368333,1378.971896
534.674294,1184.329507,-8586.388927,1915.238745
534.674621,-740.205942,-9474.636058,229.828649
534.674949,-2220.617826,-9770.718434,-153.219100
534.675276,-1332.370696,-9696.697840,-383.047749
534.675604,-1258.350101,-9918.759623,229.828649
534.675931,-370.102971,-10288.862594,842.705048
534.676259,-444.123565,-10140.821405,995.924147
534.676586,1184.329507,-9252.574275,1838.629195
534.676914,1628.453072,-8438.347739,1762.019645
534.677241,370.102971,-9326.594869,1302.362347
534.677568,-814.226536,-9474.636058,995.924147
534.677896,-1480.411884,-9548.656652,0.000000
534.678223,-1480.411884,-9474.636058,0.000000
534.678551,-1406.391290,-9622.677246,536.266849
534.678878,-1110.308913,-9622.677246,842.705048
534.679206,-370.102971,-9178.553681,1149.143247
534.679533,666.185348,-8216.285956,1685.410096
534.679861,148.041188,-8660.409521,1455.581446
534.680188,-1110.308913,-9474.636058,689.485948
534.680516,-2368.659014,-9622.677246,0.000000
534.680843,-1554.432478,-9326.594869,-383.047749
534.681171,-1036.288319,-9104.533087,0.000000
534.681498,-518.144159,-9548.656652,612.876398
534.681826,518.144159,-9548.656652,1302.362347
534.682153,1998.556043,-8290.306550,1991.848295
534.682481,2368.659014,-7698.141797,2298.286494
534.682808,1258.350101,-8808.450710,2145.067394
534.683136,-518.144159,-9400.615463,612.876398
534.683463,-1480.411884,-9548.656652,-153.219100
534.683791,-1258.350101,-9104.533087,0.000000
534.684118,-962.267725,-9326.594869,153.219100
534.684446,-296.082377,-10140.821405,766.095498
534.684773,1036.288319,-9474.636058,1532.190996
534.685101,2146.597232,-8216.285956,1685.410096
534.685428,1480.411884,-7772.162391,1685.410096
534.685756,0.000000,-8808.450710,612.876398
534.686083,-1554.432478,-9030.512492,-689.485948
534.686411,-1924.535449,-9178.553681,-842.705048
534.686738,-2146.597232,-9104.533087,-995.924147
534.687066,-1628.453072,-9326.594869,-153.219100
534.687393,-962.267725,-9252.574275,459.657299
534.687720,1110.308913,-8216.285956,1532.190996
534.688048,1702.473667,-7179.997637,1838.629195
534.688375,444.123565,-8512.368333,1225.752797
534.688703,-1480.411884,-9400.615463,306.438199
534.689030,-2886.803174,-9104.533087,-842.705048
534.689358,-2220.617826,-8808.450710,-995.924147
534.689685,-1332.370696,-8808.450710,-766.095498
534.690013,-148.041188,-9030.512492,0.000000
534.690340,1110.308913,-8808.450710,842.705048
534.690668,2590.720797,-8142.265362,1762.019645
534.690995,2294.638420,-8364.327145,1225.752797
534.691323,888.247130,-9622.677246,995.924147
534.691650,-1554.432478,-10214.842000,-766.095498
534.691978,-2220.617826,-10288.862594,-766.095498
534.692305,-1258.350101,-9918.759623,-842.705048
534.692633,-666.185348,-9770.718434,76.609550
534.692960,740.205942,-9474.636058,536.266849
534.693288,1776.494261,-8290.306550,1762.019645
534.693615,3182.885551,-7846.182985,1991.848295
534.693943,1850.514855,-8364.327145,1762.019645
534.694270,-148.041188,-9548.656652,689.485948
534.694598,-2368.659014,-9474.636058,-536.266849
534.694925,-2664.741391,-9474.636058,-536.266849
534.695253,-2664.741391,-9474.636058,-536.266849
534.695580,-1998.556043,-9770.718434,-306.438199
534.695908,-888.247130,-9770.718434,383.047749
534.696235,518.144159,-8586.388927,1072.533697
534.696563,888.247130,-7698.141797,1532.190996
534.696890,518.144159,-8586.388927,689.485948
534.697218,-1036.288319,-9474.636058,-153.219100
534.697545,-1998.556043,-9622.677246,-766.095498
534.697872,-2072.576638,-9474.636058,-459.657299
534.698200,-1702.473667,-9474.636058,-229.828649
534.698527,-444.123565,-9400.615463,1072.533697
534.698855,1184.329507,-9030.512492,2145.067394
534.699182,2886.803174,-7920.203579,2681.334243
534.699510,2738.761985,-8216.285956,2834.553343
534.699837,1628.453072,-9474.636058,2451.505594
534.700165,-1110.308913,-9474.636058,1149.143247
534.700492,-1776.494261,-10066.800811,766.095498
534.700820,-2220.617826,-10140.821405,229.828649
534.701147,-1850.514855,-10807.006753,612.876398
534.701475,-1480.411884,-10066.800811,995.924147
534.701802,296.082377,-9104.533087,1302.362347
534.702130,1480.411884,-8068.244768,1762.019645
534.702457,666.185348,-8142.265362,995.924147
534.702785,-740.205942,-9252.574275,0.000000
534.703112,-2220.617826,-8956.491898,-995.924147
534.703440,-2072.576638,-8142.265362,-1378.971896
534.703767,-1998.556043,-8660.409521,-612.876398
534.704095,-1332.370696,-9104.533087,153.219100
534.704422,222.061783,-8956.491898,1302.362347
534.704750,1776.494261,-8068.244768,2451.505594
534.705077,2368.659014,-7994.224174,2451.505594
534.705405,592.164754,-8734.430116,1762.019645
534.705732,-1332.370696,-9622.677246,995.924147
534.706060,-2220.617826,-9696.697840,0.000000
534.706387,-1924.535449,-9400.615463,-306.438199
534.706715,-2220.617826,-9548.656652,0.000000
534.707042,-666.185348,-9474.636058,76.609550
534.707370,370.102971,-8660.409521,536.266849
534.707697,2220.617826,-7550.100608,766.095498
534.708025,1258.350101,-7920.203579,306.438199
534.708352,0.000000,-9252.574275,-536.266849
534.708679,-1184.329507,-9770.718434,-1608.800546
534.709007,-1554.432478,-8734.430116,-1378.971896
534.709334,-1110.308913,-9252.574275,-842.705048
534.709662,74.020594,-9474.636058,229.828649
534.709989,1554.432478,-9104.533087,1532.190996
534.710317,3108.864956,-7920.203579,2834.553343
534.710644,3256.906145,-7402.059420,3294.210641
534.710972,1406.391290,-8956.491898,2528.115143
534.711299,-444.123565,-9548.656652,1685.410096
534.711627,-1924.535449,-9770.718434,0.000000
534.711954,-1850.514855,-9474.636058,0.000000
534.712282,-1332.370696,-9400.615463,-153.219100
534.712609,-444.123565,-9474.636058,0.000000
534.712937,444.123565,-8734.430116,689.485948
534.713264,1924.535449,-7550.100608,1225.752797
534.713592,1258.350101,-7476.080014,689.485948
534.713919,-296.082377,-8734.430116,0.000000
534.714247,-3256.906145,-9844.739029,-1532.190996
534.714574,-3923.091493,-9770.718434,-1915.238745
534.714902,-3404.947333,-9474.636058,-1072.533697
534.715229,-1776.494261,-9474.636058,76.609550
534.715557,0.000000,-9400.615463,1455.581446
534.715884,1554.432478,-8882.471304,2451.505594
534.716212,2220.617826,-8290.306550,2987.772442
534.716539,666.185348,-8956.491898,2374.896044
534.716867,-1628.453072,-9474.636058,842.705048
534.717194,-2664.741391,-9992.780217,0.000000
534.717522,-1998.556043,-9548.656652,-766.095498
534.717849,-1258.350101,-9474.636058,0.000000
534.718177,592.164754,-9696.697840,689.485948
534.718504,1480.411884,-9474.636058,1455.581446
534.718831,3256.906145,-8660.409521,2145.067394
534.719159,2442.679609,-9178.553681,1378.971896
534.719486,74.020594,-10066.800811,229.828649
534.719814,-2590.720797,-11325.150913,-1149.143247
534.720141,-3330.926739,-10658.965565,-1685.410096
534.720469,-2220.617826,-9474.636058,-1378.971896
534.720796,0.000000,-9770.718434,-229.828649
534.721124,1554.432478,-8882.471304,1455.581446
534.721451,2738.761985,-8216.285956,2528.115143
534.721779,3108.864956,-7550.100608,3064.381992
534.722106,1628.453072,-8364.327145,2451.505594
534.722434,-666.185348,-10066.800811,1915.238745
534.722761,-2812.782580,-9992.780217,229.828649
534.723089,-2812.782580,-9844.739029,0.000000
534.723416,-2146.597232,-9474.636058,229.828649
534.723744,-1184.329507,-9474.636058,842.705048
534.724071,-222.061783,-8882.471304,1149.143247
534.724399,962.267725,-7698.141797,1532.190996
534.724726,1110.308913,-7550.100608,1302.362347
534.725054,-444.123565,-8734.430116,306.438199
534.725381,-2960.823768,-9474.636058,-919.314598
534.725709,-3997.112087,-8882.471304,-1762.019645
534.726036,-2368.659014,-8734.430116,-1302.362347
534.726364,-1628.453072,-8142.265362,-459.657299
534.726691,0.000000,-8512.368333,842.705048
534.727019,1406.391290,-8290.306550,1838.629195
534.727346,2738.761985,-7772.162391,2757.943793
534.727674,2220.617826,-8142.265362,2834.553343
534.728001,370.102971,-9178.553681,1915.238745
534.728329,-666.185348,-10066.800811,1072.533697
534.728656,0.000000,-9474.636058,1072.533697
534.728983,740.205942,-8512.368333,1378.971896
534.729311,1554.432478,-8364.327145,2451.505594
534.729638,1776.494261,-8512.368333,2298.286494
534.729966,2516.700203,-7920.203579,2834.553343
534.730293,2960.823768,-7846.182985,2757.943793
534.730621,1480.411884,-8290.306550,2068.457845
534.730948,-814.226536,-9104.533087,842.705048
534.731276,-2368.659014,-9622.677246,459.657299
534.731603,-1850.514855,-9326.594869,229.828649
534.731931,-1628.453072,-8660.409521,689.485948
534.732258,-444.123565,-8364.327145,1762.019645
534.732586,-296.082377,-8364.327145,1838.629195
534.732913,148.041188,-8142.265362,2604.724693
534.733241,0.000000,-7698.141797,2987.772442
534.733568,-444.123565,-8364.327145,2757.943793
534.733896,-2072.576638,-9326.594869,2145.067394
534.734223,-3108.864956,-10362.883188,1915.238745
534.734551,-3108.864956,-9474.636058,2145.067394
534.734878,-2368.659014,-9030.512492,2221.676944
534.735206,-1702.473667,-9326.594869,2451.505594
534.735533,-2368.659014,-9696.697840,1991.848295
534.735861,-2294.638420,-9104.533087,1685.410096
534.736188,-1110.308913,-8216.285956,1225.752797
534.736516,-222.061783,-7846.182985,689.485948
534.736843,0.000000,-8586.388927,383.047749
534.737171,-592.164754,-9622.677246,536.266849
534.737498,296.082377,-10140.821405,1149.143247
534.737826,1184.329507,-9548.656652,1991.848295
534.738153,2072.576638,-10288.862594,2834.553343
534.738481,1998.556043,-11177.109724,3753.867940
534.738808,2220.617826,-11547.212695,3907.087040
534.739135,2960.823768,-10807.006753,5056.230287
534.739463,4145.153275,-9696.697840,5132.839837
534.739790,4293.194464,-9844.739029,5745.716235
534.740118,3775.050304,-10658.965565,5745.716235
534.740445,2442.679609,-11325.150913,5209.449386
534.740773,1258.350101,-10510.924376,4903.011187
534.741100,888.247130,-9844.739029,4979.620737
534.741428,592.164754,-9400.615463,4903.011187
534.741755,-962.267725,-9844.739029,3983.696590
534.742083,-2220.617826,-9770.718434,3447.429741
534.742410,-2442.679609,-8512.368333,3217.601092
534.742738,-1850.514855,-7994.224174,3370.820191
534.743065,-2368.659014,-8364.327145,3370.820191
534.743393,-3701.029710,-9844.739029,2911.162892
534.743720,-6735.874072,-11029.068536,1838.629195
534.744048,-8364.327145,-10658.965565,1149.143247
534.744375,-7402.059420,-8882.471304,1149.143247
534.744703,-4441.235652,-7476.080014,1991.848295
534.745030,-1998.556043,-6735.874072,2145.067394
534.745358,-296.082377,-7031.956449,2681.334243
534.745685,-592.164754,-7031.956449,2451.505594
534.746013,0.000000,-6957.935855,3064.381992
534.746340,1998.556043,-7105.977043,3830.477490
534.746668,4145.153275,-8290.306550,4596.572988
534.746995,4071.132681,-9844.739029,5056.230287
534.747323,3404.947333,-11103.089130,5362.668486
534.747650,2442.679609,-11251.130318,5592.497135
534.747978,2664.741391,-10288.862594,5745.716235
534.748305,4663.297435,-9326.594869,6281.983084
534.748633,4515.256246,-9474.636058,5286.058936
534.748960,4219.173869,-10214.842000,5209.449386
534.749287,2220.617826,-10732.986159,4213.525239
534.749615,-1332.370696,-10436.903782,3370.820191
534.749942,-1480.411884,-9252.574275,2528.115143
534.750270,-148.041188,-8216.285956,2834.553343
534.750597,148.041188,-7698.141797,2987.772442
534.750925,-296.082377,-7624.121203,2757.943793
534.751252,-2442.679609,-8512.368333,2987.772442
534.751580,-6069.688724,-7994.224174,1532.190996
534.751907,-7550.100608,-8068.244768,1072.533697
534.752235,-7105.977043,-8364.327145,-153.219100
534.752562,-5033.400406,-8068.244768,0.000000
534.752890,-1554.432478,-6957.935855,1455.581446
534.753217,222.061783,-6291.750507,2298.286494
534.753545,370.102971,-6217.729913,3830.477490
534.753872,-222.061783,-7254.018232,2528.115143
534.754200,-1480.411884,-7772.162391,1455.581446
534.754527,-1184.329507,-8808.450710,766.095498
534.754855,444.123565,-9178.553681,1532.190996
534.755182,3182.885551,-9030.512492,3907.087040
534.755510,5107.421000,-9474.636058,5286.058936
534.755837,6217.729913,-10658.965565,6281.983084
534.756165,5625.565159,-11843.295072,6052.154434
534.756492,3256.906145,-12657.521608,4903.011187
534.756820,518.144159,-12509.480420,3830.477490
534.757147,-814.226536,-11843.295072,3217.601092
534.757475,370.102971,-11251.130318,3600.648841
534.757802,1258.350101,-9844.739029,4060.306139
534.758130,3849.070898,-9400.615463,5362.668486
534.758457,3404.947333,-7550.100608,5669.106685
534.758785,74.020594,-8808.450710,5209.449386
534.759112,-3034.844362,-9326.594869,3294.210641
534.759440,-5551.544565,-8956.491898,1991.848295
534.759767,-6069.688724,-9252.574275,1532.190996
534.760095,-4071.132681,-8290.306550,1608.800546
534.760422,-1702.473667,-7179.997637,3524.039291
534.760750,0.000000,-6439.791695,4979.620737
534.761077,148.041188,-6957.935855,5822.325785
534.761405,-1110.308913,-7624.121203,5132.839837
534.761733,-3034.844362,-8956.491898,3600.648841
534.762060,-4071.132681,-9918.759623,2911.162892
534.762388,-5255.462188,-10658.965565,1072.533697
534.762715,-4441.235652,-10066.800811,1378.971896
534.763043,-1998.556043,-9696.697840,2451.505594
534.763370,740.205942,-8956.491898,3600.648841
534.763698,3034.844362,-8364.327145,4366.744339
534.764025,2886.803174,-8882.471304,3753.867940
534.764353,2072.576638,-9326.594869,3677.258390
534.764681,814.226536,-10436.903782,2911.162892
534.765008,518.144159,-10955.047942,2834.553343
534.765336,222.061783,-10955.047942,3140.991542
534.765663,1258.350101,-10658.965565,4290.134789
534.765991,1554.432478,-9918.759623,4596.572988
534.766318,1480.411884,-9326.594869,4596.572988
534.766646,1332.370696,-9104.533087,4673.182538
534.766973,666.185348,-8438.347739,3064.381992
534.767301,666.185348,-8660.409521,3600.648841
534.767628,740.205942,-7031.956449,2528.115143
534.767956,592.164754,-7994.224174,2604.724693
534.768284,1184.329507,-7105.977043,3064.381992
534.768611,1776.494261,-7402.059420,3294.210641
534.768939,1406.391290,-7772.162391,3983.696590
534.769266,1332.370696,-8438.347739,3830.477490
534.769594,-592.164754,-9252.574275,3983.696590
534.769921,-1924.535449,-9992.780217,3447.429741
534.770249,-1776.494261,-10140.821405,3294.210641
534.770576,-2368.659014,-10140.821405,3217.601092
534.770904,-2294.638420,-10140.821405,2757.943793
534.771231,-1480.411884,-9474.636058,2834.553343
534.771559,-1554.432478,-8882.471304,2604.724693
534.771887,-1036.288319,-8438.347739,2451.505594
534.772214,-1110.308913,-7772.162391,2911.162892
534.772542,-1628.453072,-7698.141797,2374.896044
534.772869,-1406.391290,-7624.121203,2681.334243
534.773197,-1110.308913,-7624.121203,2145.067394
534.773524,-518.144159,-7994.224174,3064.381992
534.773852,0.000000,-8438.347739,3370.820191
534.774179,296.082377,-8290.306550,3600.648841
534.774507,1036.288319,-9696.697840,3983.696590
534.774835,740.205942,-10066.800811,4136.915689
534.775162,0.000000,-10140.821405,4213.525239
534.775490,-518.144159,-10066.800811,3753.867940
534.775817,-296.082377,-9474.636058,3830.477490
534.776145,370.102971,-9844.739029,3140.991542
534.776472,888.247130,-9252.574275,2681.334243
534.776800,888.247130,-9104.533087,2987.772442
534.777127,1332.370696,-9030.512492,2757.943793
534.777455,0.000000,-9622.677246,2604.724693
534.777782,-296.082377,-9770.718434,1991.848295
534.778110,-592.164754,-9918.759623,2374.896044
534.778438,-962.267725,-10214.842000,2298.286494
534.778765,-962.267725,-9548.656652,2221.676944
534.779093,-814.226536,-9474.636058,2221.676944
534.779420,-592.164754,-9918.759623,1991.848295
534.779748,-1332.370696,-9252.574275,1915.238745
534.780075,-1998.556043,-9104.533087,1378.971896
534.780403,-1480.411884,-8586.388927,1532.190996
534.780730,-1036.288319,-8068.244768,1149.143247
534.781058,-370.102971,-7846.182985,1225.752797
534.781385,148.041188,-7402.059420,919.314598
534.781713,0.000000,-7846.182985,1072.533697
534.782041,74.020594,-8364.327145,1072.533697
534.782368,0.000000,-8882.471304,1378.971896
534.782696,-444.123565,-9104.533087,1608.800546
534.783023,0.000000,-10214.842000,1991.848295
534.783351,740.205942,-10955.047942,1685.410096
534.783678,962.267725,-10955.047942,1991.848295
534.784006,1480.411884,-10881.027347,1991.848295
534.784333,1554.432478,-10658.965565,2145.067394
534.784661,814.226536,-10362.883188,2528.115143
534.784989,740.205942,-9992.780217,2068.457845
534.785316,0.000000,-9474.636058,1225.752797
534.785644,-1036.288319,-9252.574275,1149.143247
534.785971,0.000000,-8586.388927,766.095498
534.786299,-518.144159,-8142.265362,1378.971896
534.786626,-444.123565,-8142.265362,842.705048
534.786954,-370.102971,-7920.203579,842.705048
534.787281,-740.205942,-8290.306550,766.095498
534.787609,-1110.308913,-7846.182985,383.047749
534.787936,-888.247130,-7550.100608,459.657299
534.788264,-814.226536,-8068.244768,383.047749
534.788592,-1036.288319,-8142.265362,459.657299
534.788919,-592.164754,-8586.388927,536.266849
534.789247,-592.164754,-9104.533087,842.705048
534.789574,-518.144159,-8734.430116,1302.362347
534.789902,-740.205942,-8734.430116,842.705048
534.790229,-518.144159,-9178.553681,766.095498
534.790557,-222.061783,-9030.512492,306.438199
534.790884,74.020594,-9252.574275,612.876398
534.791212,148.041188,-9400.615463,995.924147
534.791539,518.144159,-9326.594869,919.314598
534.791867,0.000000,-9548.656652,1072.533697
534.792195,0.000000,-9844.739029,1149.143247
534.792522,0.000000,-10066.800811,1225.752797
534.792850,0.000000,-9474.636058,842.705048
534.793177,222.061783,-9252.574275,1072.533697
534.793505,0.000000,-8734.430116,766.095498
534.793832,-296.082377,-8512.368333,842.705048
534.794160,148.041188,-8364.327145,995.924147
534.794487,-296.082377,-8290.306550,612.876398
534.794815,-222.061783,-7772.162391,766.095498
534.795142,-1110.308913,-8586.388927,689.485948
534.795470,-1184.329507,-8808.450710,459.657299
534.795798,-1406.391290,-8882.471304,153.219100
534.796125,-740.205942,-8882.471304,306.438199
534.796453,-740.205942,-9030.512492,459.657299
534.796780,-444.123565,-9104.533087,459.657299
534.797108,0.000000,-9400.615463,536.266849
534.797435,0.000000,-9400.615463,536.266849
534.797763,0.000000,-9474.636058,689.485948
534.798090,0.000000,-9844.739029,536.266849
534.798418,0.000000,-10140.821405,612.876398
534.798746,-370.102971,-9992.780217,229.828649
534.799073,-518.144159,-9918.759623,689.485948
534.799401,-222.061783,-9992.780217,689.485948
534.799728,0.000000,-9696.697840,612.876398
534.800056,518.144159,-9622.677246,1149.143247
534.800383,222.061783,-9252.574275,689.485948
534.800711,148.041188,-8734.430116,383.047749
534.801038,148.041188,-8882.471304,383.047749
534.801366,74.020594,-9326.594869,536.266849
534.801693,0.000000,-9104.533087,1762.019645
534.802021,0.000000,-9400.615463,766.095498
534.802349,148.041188,-9326.594869,459.657299
534.802676,0.000000,-9400.615463,459.657299
534.803004,74.020594,-9326.594869,536.266849
534.803331,370.102971,-8956.491898,229.828649
534.803659,592.164754,-8956.491898,0.000000
534.803986,0.000000,-8956.491898,0.000000
534.804314,-296.082377,-9104.533087,229.828649
534.804641,-444.123565,-9252.574275,306.438199
534.804969,-888.247130,-9030.512492,766.095498
534.805296,-370.102971,-9326.594869,842.705048
534.805624,-1036.288319,-9104.533087,383.047749
534.805952,-592.164754,-9178.553681,153.219100
534.806279,-518.144159,-8734.430116,459.657299
534.806607,-444.123565,-8512.368333,536.266849
534.806934,-296.082377,-8438.347739,229.828649
534.807262,-592.164754,-8216.285956,459.657299
534.807589,-370.102971,-8512.368333,689.485948
534.807917,-740.205942,-8660.409521,689.485948
534.808244,-1036.288319,-8956.491898,689.485948
534.808572,-1184.329507,-8882.471304,995.924147
534.808900,-1258.350101,-8956.491898,1378.971896
534.809227,-740.205942,-9104.533087,995.924147
534.809555,-296.082377,-8882.471304,766.095498
534.809882,-148.041188,-8882.471304,766.095498
534.810210,-444.123565,-8734.430116,1302.362347
534.810537,148.041188,-8586.388927,766.095498
534.810865,-222.061783,-9178.553681,612.876398
534.811192,-444.123565,-9474.636058,766.095498
534.811520,-666.185348,-9400.615463,995.924147
534.811847,-370.102971,-9474.636058,766.095498
534.812175,-444.123565,-8808.450710,766.095498
534.812503,-296.082377,-8808.450710,689.485948
534.812830,-444.123565,-8956.491898,536.266849
534.813158,-444.123565,-9030.512492,689.485948
534.813485,-296.082377,-9030.512492,536.266849
534.813813,-592.164754,-8734.430116,766.095498
534.814140,-666.185348,-9104.533087,842.705048
534.814468,-814.226536,-9326.594869,459.657299
534.814795,-518.144159,-9030.512492,459.657299
534.815123,-296.082377,-8956.491898,459.657299
534.815450,222.061783,-8438.347739,306.438199
534.815778,-148.041188,-8882.471304,306.438199
534.816106,0.000000,-9030.512492,229.828649
534.816433,-148.041188,-9326.594869,0.000000
534.816761,0.000000,-9622.677246,306.438199
534.817088,222.061783,-9548.656652,536.266849
534.817416,74.020594,-9474.636058,229.828649
534.817743,-296.082377,-9992.780217,612.876398
534.818071,0.000000,-9696.697840,536.266849
534.818398,0.000000,-9326.594869,459.657299
534.818726,0.000000,-8808.450710,459.657299
534.819054,148.041188,-8586.388927,612.876398
534.819381,-962.267725,-8438.347739,229.828649
534.819709,-1258.350101,-8734.430116,229.828649
534.820036,-1258.350101,-8808.450710,536.266849
534.820364,-1110.308913,-8808.450710,536.266849
534.820691,-740.205942,-8808.450710,689.485948
534.821019,-148.041188,-8586.388927,689.485948
534.821346,0.000000,-8660.409521,842.705048
534.821674,74.020594,-8660.409521,459.657299
534.822001,296.082377,-8660.409521,536.266849
534.822329,-222.061783,-8956.491898,919.314598
534.822657,-222.061783,-9474.636058,919.314598
534.822984,-370.102971,-10362.883188,1072.533697
534.823312,-592.164754,-10362.883188,1302.362347
534.823639,-296.082377,-9992.780217,1225.752797
534.823967,370.102971,-9622.677246,1072.533697
534.824294,592.164754,-9104.533087,612.876398
534.824622,666.185348,-8438.347739,536.266849
534.824949,296.082377,-8068.244768,229.828649
534.825277,74.020594,-7994.224174,229.828649
534.825604,-444.123565,-8734.430116,612.876398
534.825932,-1332.370696,-8734.430116,766.095498
534.826260,-814.226536,-9252.574275,1072.533697
534.826587,-592.164754,-9326.594869,1149.143247
534.826915,-444.123565,-9104.533087,1072.533697
534.827242,-222.061783,-8660.409521,536.266849
534.827570,370.102971,-8438.347739,612.876398
534.827897,518.144159,-8216.285956,459.657299
534.828225,148.041188,-8216.285956,76.609550
534.828552,0.000000,-8364.327145,383.047749
534.828880,-444.123565,-9400.615463,612.876398
534.829208,-444.123565,-10066.800811,689.485948
534.829535,-518.144159,-9622.677246,229.828649
534.829863,-666.185348,-9548.656652,689.485948
534.830190,-592.164754,-9474.636058,229.828649
534.830518,0.000000,-9252.574275,306.438199
534.830845,0.000000,-8882.471304,306.438199
534.831173,666.185348,-8660.409521,459.657299
534.831500,444.123565,-9104.533087,383.047749
534.831828,0.000000,-9548.656652,459.657299
534.832155,74.020594,-9992.780217,766.095498
534.832483,-222.061783,-9696.697840,919.314598
534.832811,-296.082377,-9400.615463,919.314598
534.833138,-592.164754,-9474.636058,229.828649
534.833466,-740.205942,-9252.574275,383.047749
534.833793,-444.123565,-8734.430116,229.828649
534.834121,-370.102971,-8734.430116,536.266849
534.834448,-296.082377,-9400.615463,995.924147
534.834776,-518.144159,-9178.553681,459.657299
534.835103,-814.226536,-9326.594869,536.266849
534.835431,-592.164754,-9474.636058,612.876398
534.835758,-444.123565,-9548.656652,536.266849
534.836086,-666.185348,-9400.615463,459.657299
534.836414,0.000000,-9326.594869,842.705048
534.836741,-222.061783,-9474.636058,536.266849
534.837069,-296.082377,-9474.636058,536.266849
534.837396,0.000000,-9622.677246,766.095498
534.837724,0.000000,-9622.677246,383.047749
534.838051,-296.082377,-9548.656652,1149.143247
534.838379,-296.082377,-9474.636058,536.266849
534.838706,-444.123565,-9252.574275,689.485948
534.839034,-592.164754,-9400.615463,612.876398
534.839362,-740.205942,-8808.450710,459.657299
534.839689,-592.164754,-8586.388927,459.657299
534.840017,-592.164754,-8586.388927,459.657299
534.840344,-370.102971,-8660.409521,612.876398
534.840672,-518.144159,-8438.347739,536.266849
534.840999,-444.123565,-8512.368333,536.266849
534.841327,-296.082377,-8142.265362,612.876398
534.841654,-296.082377,-8586.388927,229.828649
534.841982,-518.144159,-8882.471304,306.438199
534.842309,-296.082377,-8956.491898,153.219100
534.842637,-370.102971,-9178.553681,383.047749
534.842965,0.000000,-9030.512492,612.876398
534.843292,0.000000,-8882.471304,689.485948
534.843620,0.000000,-9104.533087,689.485948
534.843947,-148.041188,-9326.594869,766.095498
534.844275,-222.061783,-9030.512492,459.657299
534.844602,0.000000,-8734.430116,306.438199
534.844930,0.000000,-8438.347739,1225.752797
534.845257,-296.082377,-8734.430116,536.266849
534.845585,-148.041188,-8956.491898,459.657299
534.845912,-296.082377,-8660.409521,689.485948
534.846240,-296.082377,-8660.409521,766.095498
534.846568,-592.164754,-8364.327145,842.705048
534.846895,-148.041188,-8734.430116,536.266849
534.847223,-444.123565,-8882.471304,689.485948
534.847550,-370.102971,-9030.512492,766.095498
534.847878,-222.061783,-8956.491898,689.485948
534.848205,0.000000,-9178.553681,153.219100
534.848533,-296.082377,-9474.636058,459.657299
534.848860,-296.082377,-9474.636058,689.485948
534.849188,-296.082377,-9474.636058,766.095498
534.849515,0.000000,-9326.594869,536.266849
534.849843,0.000000,-9326.594869,383.047749
534.850171,-296.082377,-8956.491898,689.485948
534.850498,-222.061783,-9474.636058,459.657299
534.850826,-222.061783,-9548.656652,689.485948
534.851153,-296.082377,-9474.636058,459.657299
534.851481,-444.123565,-9030.512492,1072.533697
534.851808,-148.041188,-9252.574275,1149.143247
534.852136,0.000000,-9178.553681,383.047749
534.852463,-148.041188,-9178.553681,536.266849
534.852791,0.000000,-9030.512492,383.047749
534.853119,-222.061783,-8956.491898,383.047749
534.853446,-148.041188,-8956.491898,536.266849
534.853774,-222.061783,-9326.594869,612.876398
534.854101,0.000000,-9474.636058,383.047749
534.854429,74.020594,-9474.636058,459.657299
534.854756,148.041188,-9400.615463,153.219100
534.855084,148.041188,-9252.574275,383.047749
534.855411,222.061783,-9400.615463,306.438199
534.855739,0.000000,-9104.533087,229.828649
534.856066,-222.061783,-9178.553681,306.438199
534.856394,-296.082377,-9474.636058,459.657299
534.856722,74.020594,-9252.574275,459.657299
534.857049,0.000000,-9252.574275,383.047749
534.857377,0.000000,-9326.594869,536.266849
534.857704,0.000000,-9030.512492,306.438199
534.858032,0.000000,-9104.533087,383.047749
534.858359,-148.041188,-8660.409521,842.705048
534.858687,-296.082377,-8438.347739,459.657299
534.859014,-444.123565,-8808.450710,842.705048
534.859342,-592.164754,-8882.471304,536.266849
534.859669,-666.185348,-9252.574275,536.266849
534.859997,-296.082377,-9178.553681,612.876398
534.860325,-296.082377,-8734.430116,689.485948
534.860652,0.000000,-9030.512492,689.485948
534.860980,0.000000,-8882.471304,766.095498
534.861307,-296.082377,-9030.512492,612.876398
534.861635,-222.061783,-9104.533087,766.095498
534.861962,-370.102971,-8734.430116,919.314598
534.862290,-148.041188,-9252.574275,612.876398
534.862617,-370.102971,-9178.553681,536.266849
534.862945,-296.082377,-9326.594869,766.095498
534.863272,-370.102971,-9104.533087,612.876398
534.863600,0.000000,-8808.450710,689.485948
534.863927,0.000000,-9030.512492,536.266849
534.864255,-148.041188,-9030.512492,612.876398
534.864583,-222.061783,-8808.450710,229.828649
534.864910,-222.061783,-9104.533087,689.485948
534.865238,-296.082377,-9030.512492,459.657299
534.865565,-296.082377,-9178.553681,842.705048
534.865893,0.000000,-9474.636058,842.705048
534.866220,-148.041188,-9400.615463,612.876398
534.866548,0.000000,-8956.491898,229.828649
534.866875,-222.061783,-9178.553681,383.047749
534.867203,0.000000,-9178.553681,689.485948
534.867530,-296.082377,-9178.553681,536.266849
534.867858,-370.102971,-8956.491898,459.657299
534.868185,-370.102971,-9326.594869,689.485948
534.868513,-592.164754,-9548.656652,536.266849
534.868841,-148.041188,-9326.594869,1072.533697
534.869168,-518.144159,-8956.491898,76.609550
534.869496,-370.102971,-8882.471304,536.266849
534.869823,-444.123565,-8956.491898,536.266849
534.870151,-666.185348,-8882.471304,383.047749
534.870478,-444.123565,-8882.471304,995.924147
534.870806,-518.144159,-8956.491898,229.828649
534.871133,-740.205942,-9030.512492,689.485948
534.871461,-888.247130,-9178.553681,689.485948
534.871788,-592.164754,-9400.615463,612.876398
534.872116,-370.102971,-9326.594869,612.876398
534.872443,0.000000,-8808.450710,689.485948
534.872771,-370.102971,-8808.450710,689.485948
534.873099,0.000000,-9178.553681,459.657299
534.873426,-518.144159,-8882.471304,766.095498
534.873754,-444.123565,-9030.512492,612.876398
534.874081,-666.185348,-8808.450710,1225.752797
534.874409,-518.144159,-9030.512492,766.095498
534.874736,-592.164754,-8882.471304,536.266849
534.875064,-518.144159,-8808.450710,612.876398
534.875391,-444.123565,-8660.409521,689.485948
534.875719,-592.164754,-8290.306550,306.438199
534.876046,0.000000,-8882.471304,383.047749
534.876374,-444.123565,-8882.471304,383.047749
534.876701,-592.164754,-8882.471304,383.047749
534.877029,-518.144159,-9178.553681,536.266849
534.877357,-296.082377,-8882.471304,689.485948
534.877684,0.000000,-9622.677246,383.047749
534.878012,-148.041188,-8956.491898,689.485948
534.878339,0.000000,-8734.430116,536.266849
534.878667,0.000000,-8660.409521,612.876398
534.878994,-148.041188,-8956.491898,536.266849
534.879322,0.000000,-8586.388927,459.657299
534.879649,-444.123565,-9030.512492,459.657299
534.879977,-370.102971,-9104.533087,306.438199
534.880304,-296.082377,-9252.574275,536.266849
534.880632,0.000000,-9104.533087,459.657299
534.880959,0.000000,-8586.388927,842.705048
534.881287,0.000000,-8808.450710,383.047749
534.881615,0.000000,-8808.450710,306.438199
534.881942,-296.082377,-9104.533087,306.438199
534.882270,-444.123565,-9104.533087,306.438199
534.882597,0.000000,-9030.512492,1149.143247
534.882925,0.000000,-9326.594869,766.095498
534.883252,0.000000,-9548.656652,842.705048
534.883580,0.000000,-9474.636058,766.095498
534.883907,0.000000,-9326.594869,842.705048
534.884235,74.020594,-9474.636058,153.219100
534.884562,-222.061783,-9252.574275,306.438199
534.884890,-148.041188,-9104.533087,153.219100
534.885217,-222.061783,-9326.594869,536.266849
534.885545,-148.041188,-9326.594869,612.876398
534.885873,-518.144159,-9326.594869,689.485948
534.886200,-962.267725,-9474.636058,689.485948
534.886528,0.000000,-9400.615463,612.876398
534.886855,-148.041188,-9252.574275,459.657299
534.887183,-148.041188,-8956.491898,536.266849
534.887510,-222.061783,-9252.574275,536.266849
534.887838,-222.061783,-9326.594869,842.705048
534.888165,-222.061783,-9770.718434,612.876398
534.888493,-148.041188,-9474.636058,995.924147
534.888820,-222.061783,-9622.677246,842.705048
534.889148,-296.082377,-9696.697840,842.705048
534.889475,-370.102971,-9326.594869,1225.752797
534.889803,-222.061783,-9030.512492,229.828649
534.890131,0.000000,-9178.553681,612.876398
534.890458,-148.041188,-9104.533087,612.876398
534.890786,-518.144159,-9178.553681,612.876398
534.891113,0.000000,-9178.553681,1072.533697
534.891441,-370.102971,-8956.491898,459.657299
534.891768,-666.185348,-9326.594869,459.657299
534.892096,-518.144159,-9178.553681,306.438199
534.892423,-518.144159,-9104.533087,536.266849
534.892751,-444.123565,-9030.512492,306.438199
534.893078,0.000000,-8734.430116,536.266849
534.893406,-148.041188,-8956.491898,766.095498
534.893733,-74.020594,-9252.574275,459.657299
534.894061,0.000000,-8956.491898,536.266849
534.894389,0.000000,-9104.533087,306.438199
534.894716,-370.102971,-8882.471304,689.485948
534.895044,296.082377,-9252.574275,536.266849
534.895371,0.000000,-9104.533087,383.047749
534.895699,-370.102971,-8956.491898,536.266849
534.896026,-518.144159,-9178.553681,306.438199
534.896354,-222.061783,-9252.574275,689.485948
534.896681,-370.102971,-8956.491898,612.876398
534.897009,-370.102971,-8808.450710,612.876398
534.897336,-370.102971,-8808.450710,459.657299
534.897664,-370.102971,-8660.409521,383.047749
534.897991,-518.144159,-8512.368333,229.828649
534.898319,-518.144159,-8586.388927,689.485948
534.898647,-370.102971,-8586.388927,459.657299
534.898974,-592.164754,-8734.430116,536.266849
534.899302,-518.144159,-8882.471304,383.047749
534.899629,-370.102971,-8882.471304,766.095498
534.899957,-296.082377,-8512.368333,1072.533697
534.900284,0.000000,-9104.533087,766.095498
534.900612,-370.102971,-9104.533087,766.095498
534.900939,-370.102971,-9030.512492,536.266849
534.901267,-592.164754,-9104.533087,689.485948
534.901594,-296.082377,-8956.491898,842.705048
534.901922,-666.185348,-8512.368333,612.876398
534.902249,-370.102971,-8808.450710,536.266849
534.902577,-370.102971,-8882.471304,536.266849
534.902905,-518.144159,-8882.471304,536.266849
534.903232,0.000000,-8808.450710,383.047749
534.903560,-518.144159,-8660.409521,995.924147
534.903887,-518.144159,-8956.491898,536.266849
534.904215,-444.123565,-9178.553681,536.266849
534.904542,-518.144159,-9252.574275,383.047749
534.904870,-444.123565,-9252.574275,766.095498
534.905197,-148.041188,-8882.471304,689.485948
534.905525,0.000000,-9178.553681,459.657299
534.905852,0.000000,-9400.615463,842.705048
534.906180,0.000000,-9400.615463,536.266849
534.906507,-222.061783,-9104.533087,689.485948
534.906835,-74.020594,-9252.574275,306.438199
534.907163,0.000000,-9400.615463,536.266849
534.907490,-518.144159,-9252.574275,459.657299
534.907818,-296.082377,-9474.636058,689.485948
534.908145,0.000000,-9400.615463,842.705048
534.908473,0.000000,-9178.553681,306.438199
534.908800,0.000000,-9104.533087,995.924147
534.909128,-296.082377,-9030.512492,383.047749
534.909455,-370.102971,-9252.574275,229.828649
534.909783,-370.102971,-9252.574275,383.047749
534.910110,-370.102971,-9252.574275,459.657299
534.910438,-592.164754,-9030.512492,689.485948
534.910765,-296.082377,-9326.594869,612.876398
534.911093,-296.082377,-9474.636058,612.876398
534.911421,0.000000,-9252.574275,842.705048
534.911748,0.000000,-9030.512492,383.047749
534.912076,-222.061783,-8586.388927,0.000000
534.912403,-148.041188,-9030.512492,612.876398
534.912731,0.000000,-9178.553681,459.657299
534.913058,0.000000,-9400.615463,536.266849
534.913386,0.000000,-9326.594869,536.266849
534.913713,370.102971,-9548.656652,536.266849
534.914041,74.020594,-9474.636058,383.047749
534.914368,-222.061783,-9252.574275,306.438199
534.914696,0.000000,-9030.512492,536.266849
534.915023,0.000000,-8956.491898,229.828649
534.915351,74.020594,-9252.574275,612.876398
534.915678,148.041188,-8882.471304,76.609550
534.916006,-222.061783,-9030.512492,459.657299
534.916334,0.000000,-9326.594869,383.047749
534.916661,0.000000,-9326.594869,612.876398
534.916989,0.000000,-9030.512492,459.657299
534.917316,444.123565,-9104.533087,536.266849
534.917644,222.061783,-9178.553681,383.047749
534.917971,0.000000,-8956.491898,459.657299
534.918299,0.000000,-9252.574275,459.657299
534.918626,0.000000,-9326.594869,306.438199
534.918954,0.000000,-9400.615463,229.828649
534.919281,-222.061783,-9178.553681,842.705048
534.919609,-296.082377,-9252.574275,766.095498
534.919936,-444.123565,-9252.574275,612.876398
534.920264,-444.123565,-8882.471304,536.266849
534.920592,-296.082377,-8660.409521,229.828649
534.920919,-296.082377,-8956.491898,459.657299
534.921247,-444.123565,-9178.553681,383.047749
534.921574,-666.185348,-9104.533087,689.485948
534.921902,-666.185348,-9252.574275,919.314598
534.922229,-370.102971,-9474.636058,919.314598
534.922557,-296.082377,-9104.533087,459.657299
534.922884,0.000000,-9326.594869,689.485948
534.923212,-444.123565,-9178.553681,842.705048
534.923539,-370.102971,-9178.553681,612.876398
534.923867,-296.082377,-8956.491898,1225.752797
534.924194,-444.123565,-8882.471304,842.705048
534.924522,-592.164754,-9178.553681,689.485948
534.924850,-814.226536,-9326.594869,612.876398
534.925177,-666.185348,-9326.594869,689.485948
534.925505,-370.102971,-9178.553681,612.876398
534.925832,-592.164754,-8660.409521,383.047749
534.926160,-444.123565,-8882.471304,536.266849
534.926487,-592.164754,-9104.533087,306.438199
534.926815,-296.082377,-9104.533087,229.828649
534.927142,-148.041188,-9104.533087,229.828649
534.927470,-222.061783,-8882.471304,306.438199
534.927797,-296.082377,-9030.512492,612.876398
534.928125,0.000000,-9548.656652,459.657299
534.928452,-222.061783,-9474.636058,383.047749
534.928780,74.020594,-9326.594869,536.266849
534.929108,0.000000,-8734.430116,153.219100
534.929435,0.000000,-9178.553681,306.438199
534.929763,-296.082377,-8956.491898,306.438199
534.930090,-148.041188,-9030.512492,306.438199
534.930418,0.000000,-8660.409521,306.438199
534.930745,-74.020594,-9252.574275,612.876398
534.931073,-222.061783,-8882.471304,1302.362347
534.931400,-666.185348,-9252.574275,536.266849
534.931728,-370.102971,-8882.471304,612.876398
534.932055,-370.102971,-8660.409521,459.657299
534.932383,-296.082377,-8438.347739,383.047749
534.932710,-222.061783,-8882.471304,766.095498
534.933038,-444.123565,-9104.533087,612.876398
534.933366,-592.164754,-8956.491898,612.876398
534.933693,0.000000,-8808.450710,612.876398
534.934021,-222.061783,-8808.450710,612.876398
534.934348,-222.061783,-8660.409521,1225.752797
534.934676,-444.123565,-9030.512492,612.876398
534.935003,-518.144159,-8882.471304,842.705048
534.935331,-444.123565,-8882.471304,536.266849
534.935658,-296.082377,-8882.471304,689.485948
534.935986,-296.082377,-9104.533087,536.266849
534.936313,-296.082377,-8808.450710,306.438199
534.936641,-222.061783,-9178.553681,689.485948
534.936968,0.000000,-8956.491898,842.705048
534.937296,-296.082377,-9104.533087,689.485948
534.937624,-518.144159,-9178.553681,383.047749
534.937951,74.020594,-9400.615463,1072.533697
534.938279,0.000000,-9252.574275,383.047749
534.938606,74.020594,-9252.574275,536.266849
534.938934,0.000000,-9400.615463,612.876398
534.939261,0.000000,-9400.615463,536.266849
534.939589,0.000000,-9030.512492,1072.533697
534.939916,74.020594,-9252.574275,459.657299
534.940244,0.000000,-9252.574275,459.657299
534.940571,-222.061783,-9326.594869,536.266849
534.940899,0.000000,-9252.574275,229.828649
534.941226,-444.123565,-9178.553681,689.485948
534.941554,148.041188,-9326.594869,689.485948
534.941882,0.000000,-9474.636058,612.876398
534.942209,-370.102971,-9178.553681,612.876398
534.942537,-296.082377,-9104.533087,459.657299
534.942864,-148.041188,-8956.491898,536.266849
534.943192,74.020594,-9104.533087,766.095498
534.943519,-148.041188,-9326.594869,459.657299
534.943847,0.000000,-9474.636058,459.657299
534.944174,-222.061783,-9474.636058,766.095498
534.944502,-222.061783,-9474.636058,842.705048
534.944829,-148.041188,-9326.594869,919.314598
534.945157,0.000000,-9474.636058,459.657299
534.945484,0.000000,-9326.594869,383.047749
534.945812,0.000000,-9326.594869,536.266849
534.946140,0.000000,-9252.574275,612.876398
534.946467,-296.082377,-9104.533087,1455.581446
534.946795,-296.082377,-9104.533087,612.876398
534.947122,-592.164754,-9178.553681,383.047749
534.947450,-518.144159,-9104.533087,383.047749
534.947777,-370.102971,-9326.594869,306.438199
534.948105,-518.144159,-8586.388927,536.266849
534.948432,-148.041188,-8734.430116,919.314598
534.948760,-222.061783,-9030.512492,612.876398
534.949087,-296.082377,-8956.491898,383.047749
534.949415,-148.041188,-9178.553681,306.438199
534.949742,-444.123565,-9030.512492,0.000000
534.950070,-444.123565,-9178.553681,842.705048
534.950398,-148.041188,-9252.574275,612.876398
534.950725,0.000000,-9104.533087,459.657299
534.951053,0.000000,-9030.512492,536.266849
534.951380,0.000000,-9104.533087,459.657299
534.951708,-444.123565,-8512.368333,536.266849
534.952035,-296.082377,-9104.533087,536.266849
534.952363,-666.185348,-8956.491898,459.657299
534.952690,-444.123565,-9030.512492,536.266849
534.953018,-666.185348,-9030.512492,689.485948
534.953345,-296.082377,-8734.430116,842.705048
534.953673,-592.164754,-8586.388927,689.485948
534.954000,-148.041188,-8586.388927,612.876398
534.954328,-296.082377,-8586.388927,459.657299
534.954656,-444.123565,-8586.388927,536.266849
534.954983,-518.144159,-8586.388927,689.485948
534.955311,-296.082377,-8882.471304,689.485948
534.955638,-592.164754,-8808.450710,689.485948
534.955966,-370.102971,-9030.512492,689.485948
534.956293,-666.185348,-9030.512492,536.266849
534.956621,0.000000,-8808.450710,459.657299
534.956948,0.000000,-8956.491898,766.095498
534.957276,-296.082377,-8956.491898,766.095498
534.957603,-296.082377,-9104.533087,459.657299
534.957931,-370.102971,-8956.491898,536.266849
534.958258,-370.102971,-9326.594869,766.095498
534.958586,-222.061783,-8956.491898,459.657299
534.958914,-518.144159,-9178.553681,766.095498
534.959241,-444.123565,-9030.512492,612.876398
534.959569,-296.082377,-8956.491898,536.266849
534.959896,-370.102971,-9030.512492,459.657299
534.960224,-518.144159,-8216.285956,689.485948
534.960551,-222.061783,-9030.512492,383.047749
534.960879,-592.164754,-9178.553681,536.266849
534.961206,-592.164754,-9252.574275,536.266849
534.961534,-296.082377,-9326.594869,689.485948
534.961862,-518.144159,-9178.553681,766.095498
534.962189,0.000000,-9252.574275,689.485948
534.962517,-444.123565,-9474.636058,536.266849
534.962844,-444.123565,-9326.594869,536.266849
534.963172,-518.144159,-9400.615463,383.047749
534.963500,-370.102971,-9252.574275,76.609550
534.963827,-370.102971,-9178.553681,919.314598
534.964155,-148.041188,-9400.615463,536.266849
534.964483,-296.082377,-9326.594869,612.876398
534.964810,-518.144159,-9104.533087,536.266849
534.965138,-370.102971,-9104.533087,612.876398
534.965466,-444.123565,-9030.512492,919.314598
534.965793,-148.041188,-8808.450710,536.266849
534.966121,-222.061783,-8956.491898,766.095498
534.966448,-222.061783,-8956.491898,612.876398
534.966776,-444.123565,-9104.533087,612.876398
534.967104,-444.123565,-8438.347739,1072.533697
534.967431,0.000000,-9104.533087,842.705048
534.967759,0.000000,-9252.574275,766.095498
534.968087,-148.041188,-9252.574275,536.266849
534.968414,0.000000,-9178.553681,383.047749
534.968742,-74.020594,-8956.491898,842.705048
534.969070,0.000000,-8956.491898,766.095498
534.969397,0.000000,-9178.553681,612.876398
534.969725,0.000000,-9252.574275,459.657299
534.970053,0.000000,-9252.574275,306.438199
534.970380,-74.020594,-9104.533087,306.438199
534.970708,-148.041188,-8808.450710,612.876398
534.971035,0.000000,-9104.533087,383.047749
534.971363,0.000000,-8882.471304,229.828649
534.971691,74.020594,-8808.450710,153.219100
534.972018,0.000000,-9178.553681,306.438199
534.972346,296.082377,-9178.553681,536.266849
534.972674,0.000000,-9252.574275,153.219100
534.973001,0.000000,-8882.471304,229.828649
534.973329,-222.061783,-9030.512492,612.876398
534.973657,0.000000,-9030.512492,536.266849
534.973984,0.000000,-9104.533087,842.705048
534.974312,74.020594,-9104.533087,689.485948
534.974639,-148.041188,-8808.450710,459.657299
534.974967,-370.102971,-9104.533087,689.485948
534.975295,-444.123565,-9474.636058,536.266849
534.975622,0.000000,-9474.636058,306.438199
534.975950,-518.144159,-9326.594869,612.876398
534.976278,0.000000,-9178.553681,383.047749
534.976605,-148.041188,-9252.574275,536.266849
534.976933,-222.061783,-9178.553681,612.876398
534.977261,-444.123565,-9474.636058,689.485948
534.977588,-296.082377,-8956.491898,689.485948
534.977916,-370.102971,-9474.636058,459.657299
534.978243,-592.164754,-9252.574275,459.657299
534.978571,0.000000,-9474.636058,536.266849
534.978899,0.000000,-9474.636058,689.485948
534.979226,74.020594,-9104.533087,383.047749
534.979554,0.000000,-9178.553681,689.485948
534.979882,-222.061783,-9252.574275,612.876398
534.980209,-148.041188,-9030.512492,459.657299
534.980537,-444.123565,-9030.512492,536.266849
534.980865,-296.082377,-8956.491898,612.876398
534.981192,-296.082377,-9326.594869,689.485948
534.981520,-296.082377,-9178.553681,612.876398
534.981847,-518.144159,-9030.512492,612.876398
534.982175,-222.061783,-9400.615463,536.266849
534.982503,-296.082377,-8956.491898,689.485948
534.982830,0.000000,-8734.430116,689.485948
534.983158,-370.102971,-9178.553681,536.266849
534.983486,0.000000,-9104.533087,766.095498
534.983813,-296.082377,-9252.574275,919.314598
534.984141,-370.102971,-9252.574275,919.314598
534.984469,0.000000,-9326.594869,1302.362347
534.984796,0.000000,-9326.594869,995.924147
534.985124,-518.144159,-9178.553681,689.485948
534.985451,-518.144159,-9030.512492,689.485948
534.985779,-518.144159,-9178.553681,842.705048
534.986107,-444.123565,-8882.471304,995.924147
534.986434,-740.205942,-8660.409521,229.828649
534.986762,-370.102971,-9104.533087,536.266849
534.987090,-740.205942,-8660.409521,689.485948
534.987417,-814.226536,-8734.430116,536.266849
534.987745,-518.144159,-8438.347739,229.828649
534.988073,-592.164754,-8290.306550,383.047749
534.988400,-370.102971,-8660.409521,459.657299
534.988728,-296.082377,-8808.450710,459.657299
534.989056,-444.123565,-8956.491898,383.047749
534.989383,-222.061783,-9030.512492,536.266849
534.989711,0.000000,-8956.491898,1072.533697
534.990038,0.000000,-8882.471304,153.219100
534.990366,0.000000,-9252.574275,306.438199
534.990694,0.000000,-9252.574275,459.657299
534.991021,0.000000,-9252.574275,383.047749
534.991349,148.041188,-9178.553681,536.266849
534.991677,-148.041188,-9030.512492,306.438199
534.992004,0.000000,-9030.512492,306.438199
534.992332,0.000000,-8956.491898,306.438199
534.992660,0.000000,-8956.491898,229.828649
534.992987,-296.082377,-8882.471304,153.219100
534.993315,-148.041188,-9030.512492,229.828649
534.993642,-148.041188,-9030.512492,383.047749
534.993970,-148.041188,-9178.553681,536.266849
534.994298,-148.041188,-9178.553681,459.657299
534.994625,0.000000,-9474.636058,0.000000
534.994953,-222.061783,-8882.471304,383.047749
534.995281,0.000000,-9474.636058,612.876398
534.995608,0.000000,-9400.615463,612.876398
534.995936,74.020594,-9474.636058,612.876398
534.996264,-222.061783,-9178.553681,995.924147
534.996591,-148.041188,-9474.636058,1072.533697
534.996919,-666.185348,-9178.553681,459.657299
534.997246,-296.082377,-9400.615463,766.095498
534.997574,-296.082377,-9178.553681,766.095498
534.997902,-222.061783,-9178.553681,612.876398
534.998229,-444.123565,-9030.512492,766.095498
534.998557,-296.082377,-9104.533087,842.705048
534.998885,-222.061783,-9104.533087,995.924147
534.999212,-370.102971,-8956.491898,689.485948
534.999540,-370.102971,-8956.491898,536.266849
534.999868,-296.082377,-9178.553681,689.485948
535.000195,-296.082377,-9326.594869,995.924147
535.000523,-222.061783,-9400.615463,842.705048
535.000850,-148.041188,-9474.636058,612.876398
535.001178,0.000000,-9400.615463,536.266849
535.001506,-222.061783,-9474.636058,1378.971896
535.001833,222.061783,-9474.636058,76.609550
535.002161,0.000000,-9400.615463,612.876398
535.002489,148.041188,-9400.615463,229.828649
535.002816,0.000000,-9474.636058,153.219100
535.003144,0.000000,-9326.594869,459.657299
535.003472,0.000000,-9474.636058,995.924147
535.003799,0.000000,-9252.574275,459.657299
535.004127,0.000000,-9252.574275,459.657299
535.004454,-148.041188,-9030.512492,459.657299
535.004782,-148.041188,-9178.553681,383.047749
535.005110,0.000000,-8882.471304,612.876398
535.005437,-296.082377,-8808.450710,536.266849
535.005765,-370.102971,-9030.512492,306.438199
535.006093,-444.123565,-9252.574275,459.657299
535.006420,-296.082377,-9030.512492,459.657299
535.006748,-148.041188,-8438.347739,689.485948
535.007076,0.000000,-9178.553681,383.047749
535.007403,-148.041188,-9252.574275,766.095498
535.007731,-370.102971,-9400.615463,612.876398
535.008059,-740.205942,-8956.491898,689.485948
535.008386,-222.061783,-9178.553681,536.266849
535.008714,-370.102971,-9030.512492,459.657299
535.009041,-518.144159,-9178.553681,612.876398
535.009369,-592.164754,-9178.553681,689.485948
535.009697,-444.123565,-9030.512492,766.095498
535.010024,-592.164754,-8882.471304,919.314598
535.010352,-296.082377,-9178.553681,306.438199
535.010680,-518.144159,-8882.471304,383.047749
535.011007,-370.102971,-8808.450710,306.438199
535.011335,-592.164754,-8734.430116,383.047749
535.011663,-222.061783,-8808.450710,229.828649
535.011990,-296.082377,-8586.388927,76.609550
535.012318,-222.061783,-8882.471304,383.047749
535.012645,0.000000,-8808.450710,459.657299
535.012973,0.000000,-8882.471304,536.266849
535.013301,-148.041188,-9030.512492,383.047749
535.013628,0.000000,-9030.512492,76.609550
535.013956,-74.020594,-9178.553681,383.047749
535.014284,-296.082377,-9104.533087,306.438199
535.014611,0.000000,-9104.533087,383.047749
535.014939,0.000000,-9252.574275,459.657299
535.015267,-444.123565,-8660.409521,689.485948
535.015594,-370.102971,-8660.409521,612.876398
535.015922,-296.082377,-9104.533087,459.657299
535.016249,-296.082377,-8956.491898,306.438199
535.016577,-296.082377,-9030.512492,612.876398
535.016905,-444.123565,-9030.512492,995.924147
535.017232,-370.102971,-9030.512492,536.266849
535.017560,-518.144159,-9252.574275,919.314598
535.017888,-444.123565,-9252.574275,689.485948
535.018215,-444.123565,-9252.574275,536.266849
535.018543,-222.061783,-9104.533087,919.314598
535.018871,0.000000,-9548.656652,766.095498
535.019198,-222.061783,-9178.553681,689.485948
535.019526,-444.123565,-9252.574275,766.095498
535.019853,-666.185348,-9104.533087,766.095498
535.020181,-666.185348,-9178.553681,842.705048
535.020509,-518.144159,-8956.491898,689.485948
535.020836,-592.164754,-9400.615463,689.485948
535.021164,-592.164754,-9104.533087,766.095498
535.021492,-444.123565,-8956.491898,612.876398
535.021819,-370.102971,-9030.512492,689.485948
535.022147,-222.061783,-8808.450710,459.657299
535.022475,-222.061783,-8882.471304,536.266849
535.022802,-518.144159,-9252.574275,383.047749
535.023130,-592.164754,-9474.636058,459.657299
535.023457,0.000000,-9474.636058,383.047749
535.023785,0.000000,-9474.636058,612.876398
535.024113,370.102971,-9252.574275,1072.533697
535.024440,0.000000,-9178.553681,842.705048
535.024768,-222.061783,-9252.574275,459.657299
535.025096,-296.082377,-9252.574275,536.266849
535.025423,0.000000,-9326.594869,306.438199
535.025751,0.000000,-9178.553681,1072.533697
535.026079,0.000000,-9326.594869,306.438199
535.026406,74.020594,-9178.553681,459.657299
535.026734,0.000000,-9104.533087,459.657299
535.027062,-222.061783,-8808.450710,229.828649
535.027389,222.061783,-9178.553681,0.000000
535.027717,0.000000,-8808.450710,383.047749
535.028044,-296.082377,-8956.491898,612.876398
535.028372,-296.082377,-9104.533087,536.266849
535.028700,-370.102971,-9400.615463,383.047749
535.029027,-370.102971,-9326.594869,995.924147
535.029355,0.000000,-8956.491898,995.924147
535.029683,0.000000,-9104.533087,766.095498
535.030010,-148.041188,-9104.533087,689.485948
535.030338,-222.061783,-9178.553681,766.095498
535.030666,-444.123565,-8808.450710,459.657299
535.030993,-296.082377,-8882.471304,229.828649
535.031321,-518.144159,-9030.512492,612.876398
535.031648,-370.102971,-9104.533087,536.266849
535.031976,-222.061783,-8956.491898,766.095498
535.032304,-296.082377,-8956.491898,689.485948
535.032631,-148.041188,-8734.430116,229.828649
535.032959,-148.041188,-8808.450710,612.876398
535.033287,-222.061783,-8882.471304,229.828649
535.033614,-518.144159,-8660.409521,229.828649
535.033942,-444.123565,-9030.512492,612.876398
535.034270,-666.185348,-9104.533087,995.924147
535.034597,-222.061783,-9104.533087,842.705048
535.034925,0.000000,-9474.636058,842.705048
535.035252,0.000000,-9252.574275,766.095498
535.035580,0.000000,-9326.594869,536.266849
535.035908,0.000000,-9326.594869,766.095498
535.036235,-296.082377,-9326.594869,766.095498
535.036563,-296.082377,-9326.594869,306.438199
535.036891,-592.164754,-9400.615463,306.438199
535.037218,-518.144159,-9326.594869,536.266849
535.037546,-518.144159,-9400.615463,689.485948
535.037874,-222.061783,-9252.574275,536.266849
535.038201,-444.123565,-8808.450710,612.876398
535.038529,-444.123565,-8734.430116,229.828649
535.038856,-370.102971,-8586.388927,459.657299
535.039184,-444.123565,-8808.450710,459.657299
535.039512,0.000000,-8660.409521,459.657299
535.039839,-296.082377,-9104.533087,766.095498
535.040167,-444.123565,-9178.553681,919.314598
535.040495,-370.102971,-9326.594869,689.485948
535.040822,-444.123565,-9252.574275,536.266849
535.041150,74.020594,-9252.574275,919.314598
535.041478,0.000000,-8956.491898,459.657299
535.041805,0.000000,-9326.594869,536.266849
535.042133,-296.082377,-9326.594869,689.485948
535.042460,-444.123565,-9252.574275,612.876398
535.042788,-444.123565,-9104.533087,1072.533697
535.043116,0.000000,-9400.615463,229.828649
535.043443,-444.123565,-9400.615463,612.876398
535.043771,-740.205942,-9252.574275,459.657299
535.044099,-518.144159,-9030.512492,383.047749
535.044426,-296.082377,-8734.430116,612.876398
535.044754,-296.082377,-8882.471304,229.828649
535.045082,-444.123565,-8734.430116,536.266849
535.045409,-370.102971,-8882.471304,459.657299
535.045737,-296.082377,-9104.533087,459.657299
535.046065,-222.061783,-9030.512492,459.657299
535.046392,-148.041188,-9104.533087,689.485948
535.046720,-148.041188,-9178.553681,689.485948
535.047047,-148.041188,-8956.491898,612.876398
535.047375,0.000000,-8956.491898,383.047749
535.047703,-148.041188,-9178.553681,459.657299
535.048030,-444.123565,-8808.450710,919.314598
535.048358,0.000000,-8734.430116,612.876398
535.048686,-296.082377,-9104.533087,536.266849
535.049013,-296.082377,-9178.553681,383.047749
535.049341,-370.102971,-9252.574275,612.876398
535.049669,-148.041188,-9030.512492,536.266849
535.049996,74.020594,-8882.471304,229.828649
535.050324,-370.102971,-8956.491898,459.657299
535.050651,-370.102971,-9400.615463,459.657299
535.050979,-592.164754,-9326.594869,383.047749
535.051307,-518.144159,-9104.533087,612.876398
535.051634,0.000000,-9474.636058,766.095498
535.051962,0.000000,-9104.533087,229.828649
535.052290,0.000000,-9178.553681,612.876398
535.052617,-222.061783,-9030.512492,459.657299
535.052945,-148.041188,-8956.491898,459.657299
535.053273,0.000000,-8734.430116,689.485948
535.053600,0.000000,-9178.553681,383.047749
535.053928,-444.123565,-9252.574275,536.266849
535.054255,-148.041188,-9178.553681,689.485948
535.054583,-296.082377,-9326.594869,536.266849
535.054911,0.000000,-9104.533087,459.657299
535.055238,-148.041188,-8956.491898,536.266849
535.055566,0.000000,-9104.533087,383.047749
535.055894,-148.041188,-9104.533087,612.876398
535.056221,-296.082377,-9252.574275,536.266849
535.056549,-296.082377,-9400.615463,689.485948
535.056877,74.020594,-9548.656652,306.438199
535.057204,0.000000,-9178.553681,459.657299
535.057532,74.020594,-9252.574275,689.485948
535.057859,0.000000,-9400.615463,612.876398
535.058187,0.000000,-9548.656652,842.705048
535.058515,0.000000,-9400.615463,766.095498
535.058842,-148.041188,-9252.574275,536.266849
535.059170,-296.082377,-9326.594869,689.485948
535.059498,-444.123565,-9474.636058,842.705048
535.059825,-370.102971,-9474.636058,689.485948
535.060153,0.000000,-9178.553681,766.095498
535.060480,-222.061783,-8956.491898,612.876398
535.060808,-296.082377,-8734.430116,536.266849
535.061136,-296.082377,-9178.553681,612.876398
535.061463,-370.102971,-9178.553681,536.266849
535.061791,-740.205942,-8882.471304,76.609550
535.062118,-592.164754,-9030.512492,1225.752797
535.062446,-518.144159,-9326.594869,689.485948
535.062774,-592.164754,-9400.615463,612.876398
535.063101,0.000000,-9474.636058,842.705048
535.063429,0.000000,-9104.533087,1302.362347
535.063756,370.102971,-9178.553681,76.609550
535.064084,-148.041188,-9400.615463,536.266849
535.064411,-222.061783,-9104.533087,536.266849
535.064739,-222.061783,-9104.533087,306.438199
535.065067,0.000000,-9178.553681,459.657299
535.065394,-296.082377,-8956.491898,995.924147
535.065722,0.000000,-9104.533087,766.095498
535.066049,-592.164754,-8956.491898,536.266849
535.066377,-296.082377,-9030.512492,229.828649
535.066705,-148.041188,-8882.471304,229.828649
535.067032,74.020594,-8808.450710,612.876398
535.067360,0.000000,-8364.327145,153.219100
535.067687,-74.020594,-9030.512492,306.438199
535.068015,-148.041188,-8956.491898,459.657299
535.068343,-222.061783,-9178.553681,612.876398
535.068670,-222.061783,-9178.553681,536.266849
535.068998,0.000000,-8660.409521,459.657299
535.069325,-222.061783,-9030.512492,306.438199
535.069653,0.000000,-8956.491898,306.438199
535.069981,-222.061783,-9030.512492,383.047749
535.070308,-148.041188,-9030.512492,383.047749
535.070636,-444.123565,-8586.388927,383.047749
535.070963,-148.041188,-9030.512492,306.438199
535.071291,-518.144159,-9030.512492,612.876398
535.071618,-370.102971,-9030.512492,536.266849
535.071946,-296.082377,-9030.512492,536.266849
535.072274,-296.082377,-8882.471304,459.657299
535.072601,-370.102971,-8882.471304,536.266849
535.072929,-370.102971,-8734.430116,459.657299
535.073256,-370.102971,-8956.491898,459.657299
535.073584,-444.123565,-9104.533087,612.876398
535.073912,-222.061783,-9178.553681,306.438199
535.074239,0.000000,-9104.533087,689.485948
535.074567,-222.061783,-9326.594869,919.314598
535.074894,-370.102971,-9400.615463,459.657299
535.075222,-444.123565,-9178.553681,689.485948
535.075550,-444.123565,-9252.574275,536.266849
535.075877,-666.185348,-9178.553681,995.924147
535.076205,-370.102971,-9178.553681,383.047749
535.076532,-814.226536,-9252.574275,689.485948
535.076860,-370.102971,-9474.636058,612.876398
535.077187,-296.082377,-9326.594869,766.095498
535.077515,-518.144159,-8882.471304,536.266849
535.077843,-444.123565,-9030.512492,842.705048
535.078170,-370.102971,-9252.574275,459.657299
535.078498,-444.123565,-8882.471304,459.657299
535.078825,-444.123565,-9104.533087,536.266849
535.079153,-370.102971,-9030.512492,919.314598
535.079481,-444.123565,-9252.574275,612.876398
535.079808,-296.082377,-9474.636058,689.485948
535.080136,-222.061783,-9474.636058,766.095498
535.080463,-148.041188,-9400.615463,766.095498
535.080791,-222.061783,-9178.553681,1302.362347
535.081119,-148.041188,-8586.388927,919.314598
535.081446,-148.041188,-9178.553681,536.266849
535.081774,0.000000,-9252.574275,536.266849
535.082101,0.000000,-9252.574275,536.266849
535.082429,0.000000,-9178.553681,689.485948
535.082756,-148.041188,-9178.553681,536.266849
535.083084,-222.061783,-9474.636058,536.266849
535.083412,-148.041188,-9178.553681,459.657299
535.083739,0.000000,-8956.491898,306.438199
535.084067,0.000000,-8808.450710,306.438199
535.084394,-370.102971,-8808.450710,612.876398
535.084722,-222.061783,-9326.594869,76.609550
535.085050,-370.102971,-9252.574275,153.219100
535.085377,-148.041188,-9030.512492,459.657299
535.085705,-222.061783,-9030.512492,612.876398
535.086032,0.000000,-9178.553681,919.314598
535.086360,0.000000,-9178.553681,766.095498
535.086688,148.041188,-9104.533087,306.438199
535.087015,0.000000,-8586.388927,536.266849
535.087343,-222.061783,-8882.471304,383.047749
535.087670,74.020594,-9474.636058,689.485948
535.087998,-222.061783,-9252.574275,459.657299
535.088325,-370.102971,-8808.450710,459.657299
535.088653,0.000000,-8734.430116,612.876398
535.088981,-296.082377,-9030.512492,459.657299
535.089308,-296.082377,-9104.533087,766.095498
535.089636,-296.082377,-9030.512492,383.047749
535.089963,-296.082377,-8586.388927,229.828649
535.090291,-666.185348,-8882.471304,459.657299
535.090619,-370.102971,-9252.574275,689.485948
535.090946,-518.144159,-9326.594869,766.095498
535.091274,-296.082377,-9030.512492,842.705048
535.091601,-518.144159,-9326.594869,689.485948
535.091929,-444.123565,-9474.636058,689.485948
535.092257,-666.185348,-9326.594869,689.485948
535.092584,-518.144159,-9104.533087,766.095498
535.092912,-370.102971,-8956.491898,153.219100
535.093239,0.000000,-9178.553681,919.314598
535.093567,-370.102971,-9326.594869,766.095498
535.093895,-888.247130,-9030.512492,689.485948
535.094222,-518.144159,-9178.553681,689.485948
535.094550,-518.144159,-8808.450710,689.485948
535.094877,-370.102971,-8882.471304,842.705048
535.095205,-222.061783,-8956.491898,536.266849
535.095532,-370.102971,-8808.450710,383.047749
535.095860,-370.102971,-8586.388927,306.438199
535.096188,-296.082377,-9104.533087,536.266849
535.096515,-74.020594,-9178.553681,459.657299
535.096843,-370.102971,-9104.533087,536.266849
535.097170,-370.102971,-9252.574275,383.047749
535.097498,-296.082377,-9252.574275,536.266849
535.097826,-296.082377,-9252.574275,229.828649
535.098153,-148.041188,-9030.512492,76.609550
535.098481,0.000000,-8808.450710,383.047749
535.098808,-296.082377,-8956.491898,229.828649
535.099136,-370.102971,-9030.512492,153.219100
535.099464,-370.102971,-9326.594869,383.047749
535.099791,-518.144159,-8734.430116,306.438199
535.100119,0.000000,-8882.471304,383.047749
535.100446,0.000000,-8734.430116,536.266849
535.100774,-222.061783,-8882.471304,459.657299
535.101101,-444.123565,-8808.450710,459.657299
535.101429,-592.164754,-8808.450710,383.047749
535.101757,-222.061783,-8882.471304,76.609550
535.102084,-222.061783,-9030.512492,766.095498
535.102412,-222.061783,-9252.574275,766.095498
535.102739,-296.082377,-9252.574275,766.095498
535.103067,0.000000,-9326.594869,689.485948
535.103395,296.082377,-9030.512492,1072.533697
535.103722,-296.082377,-8956.491898,919.314598
535.104050,-296.082377,-9178.553681,766.095498
535.104377,-296.082377,-9104.533087,689.485948
535.104705,-444.123565,-9474.636058,536.266849
535.105033,-370.102971,-9178.553681,1378.971896
535.105360,-296.082377,-8956.491898,689.485948
535.105688,-296.082377,-9178.553681,689.485948
535.106015,-148.041188,-8956.491898,766.095498
535.106343,0.000000,-9030.512492,689.485948
535.106670,-296.082377,-8586.388927,689.485948
535.106998,-444.123565,-8956.491898,536.266849
535.107326,-148.041188,-9252.574275,536.266849
535.107653,-296.082377,-9326.594869,689.485948
535.107981,-296.082377,-9104.533087,689.485948
535.108308,148.041188,-9252.574275,536.266849
535.108636,0.000000,-9326.594869,153.219100
535.108964,-148.041188,-9104.533087,383.047749
535.109291,0.000000,-9030.512492,536.266849
535.109619,0.000000,-9178.553681,153.219100
535.109946,-222.061783,-9326.594869,459.657299
535.110274,-148.041188,-9178.553681,536.266849
535.110602,-296.082377,-9178.553681,689.485948
535.110929,-222.061783,-9178.553681,459.657299
535.111257,-370.102971,-9178.553681,306.438199
535.111584,-222.061783,-9030.512492,459.657299
535.111912,-148.041188,-8956.491898,766.095498
535.112239,-222.061783,-8734.430116,306.438199
535.112567,-370.102971,-9030.512492,459.657299
535.112895,-444.123565,-9326.594869,459.657299
535.113222,-444.123565,-9400.615463,612.876398
535.113550,-518.144159,-9178.553681,842.705048
535.113877,0.000000,-9400.615463,689.485948
535.114205,0.000000,-9252.574275,459.657299
535.114533,-222.061783,-9030.512492,842.705048
535.114860,74.020594,-8882.471304,459.657299
535.115188,-296.082377,-8882.471304,459.657299
535.115515,-222.061783,-8882.471304,383.047749
535.115843,-740.205942,-9326.594869,612.876398
535.116171,-740.205942,-9252.574275,689.485948
535.116498,-518.144159,-9252.574275,612.876398
535.116826,-518.144159,-9104.533087,612.876398
535.117153,-296.082377,-8882.471304,0.000000
535.117481,-592.164754,-8808.450710,459.657299
535.117809,-296.082377,-8956.491898,536.266849
535.118136,-296.082377,-9030.512492,383.047749
535.118464,-444.123565,-9030.512492,306.438199
535.118791,-296.082377,-9030.512492,766.095498
535.119119,0.000000,-9400.615463,459.657299
535.119446,0.000000,-9400.615463,612.876398
535.119774,0.000000,-9252.574275,459.657299
535.120102,0.000000,-9252.574275,306.438199
535.120429,296.082377,-9030.512492,383.047749
535.120757,74.020594,-8808.450710,459.657299
535.121084,0.000000,-8956.491898,459.657299
535.121412,148.041188,-9030.512492,612.876398
535.121740,0.000000,-9326.594869,689.485948
535.122067,-222.061783,-9252.574275,766.095498
535.122395,-962.267725,-9030.512492,1149.143247
535.122722,-370.102971,-9178.553681,459.657299
535.123050,-370.102971,-9178.553681,536.266849
535.123378,-666.185348,-9104.533087,153.219100
535.123705,-592.164754,-8882.471304,689.485948
535.124033,-148.041188,-8808.450710,306.438199
535.124360,-592.164754,-9252.574275,919.314598
535.124688,-444.123565,-9178.553681,842.705048
535.125015,-444.123565,-9252.574275,842.705048
535.125343,-518.144159,-9252.574275,612.876398
535.125671,-296.082377,-9178.553681,842.705048
535.125998,-740.205942,-8882.471304,153.219100
535.126326,-666.185348,-8956.491898,459.657299
535.126653,-444.123565,-9030.512492,919.314598
535.126981,-666.185348,-8882.471304,536.266849
535.127309,-592.164754,-8956.491898,689.485948
535.127636,-222.061783,-8956.491898,459.657299
535.127964,-444.123565,-8956.491898,459.657299
535.128291,-370.102971,-8734.430116,536.266849
535.128619,-370.102971,-8808.450710,612.876398
535.128947,-296.082377,-8734.430116,459.657299
535.129274,0.000000,-8586.388927,459.657299
535.129602,-370.102971,-9178.553681,689.485948
535.129929,-296.082377,-9400.615463,459.657299
535.130257,-222.061783,-9252.574275,766.095498
535.130584,-148.041188,-9326.594869,459.657299
535.130912,0.000000,-9104.533087,919.314598
