#time,accel_x,accel_y,accel_z
587.001537,-222.061783,-8512.368333,612.876398
587.001864,-370.102971,-9104.533087,459.657299
587.002192,-296.082377,-9030.512492,459.657299
587.002520,-444.123565,-8956.491898,612.876398
587.002847,-370.102971,-9104.533087,689.485948
587.003175,-296.082377,-8660.409521,766.095498
587.003502,-222.061783,-9178.553681,612.876398
587.003830,-296.082377,-9104.533087,306.438199
587.004158,-296.082377,-9030.512492,383.047749
587.004485,-148.041188,-9252.574275,536.266849
587.004813,-296.082377,-8882.471304,229.828649
587.005140,-592.164754,-9030.512492,995.924147
587.005468,0.000000,-9104.533087,536.266849
587.005796,-148.041188,-9252.574275,459.657299
587.006123,-222.061783,-9326.594869,536.266849
587.006451,-296.082377,-8956.491898,766.095498
587.006779,0.000000,-9178.553681,766.095498
587.007106,0.000000,-9104.533087,536.266849
587.007434,0.000000,-9326.594869,536.266849
587.007761,-296.082377,-9326.594869,459.657299
587.008089,0.000000,-9252.574275,536.266849
587.008417,74.020594,-8956.491898,459.657299
587.008744,-148.041188,-9252.574275,612.876398
587.009072,-370.102971,-9104.533087,536.266849
587.009399,-296.082377,-9178.553681,536.266849
587.009727,-222.061783,-8956.491898,766.095498
587.010055,0.000000,-9178.553681,536.266849
587.010382,0.000000,-9030.512492,766.095498
587.010710,-370.102971,-9104.533087,689.485948
587.011037,-296.082377,-9104.533087,536.266849
587.011365,-296.082377,-9178.553681,536.266849
587.011693,-518.144159,-8734.430116,536.266849
587.012020,-370.102971,-8882.471304,459.657299
587.012348,-222.061783,-8956.491898,459.657299
587.012675,-296.082377,-9104.533087,536.266849
587.013003,-296.082377,-8882.471304,612.876398
587.013331,-370.102971,-9104.533087,459.657299
587.013658,-296.082377,-9252.574275,383.047749
587.013986,-296.082377,-9104.533087,612.876398
587.014314,-518.144159,-9178.553681,306.438199
587.014641,-814.226536,-9326.594869,229.828649
587.014969,-1332.370696,-9474.636058,0.000000
587.015296,-1110.308913,-9474.636058,-459.657299
587.015624,-1036.288319,-9104.533087,0.000000
587.015952,-444.123565,-8956.491898,-306.438199
587.016279,-518.144159,-9030.512492,-383.047749
587.016607,-814.226536,-9252.574275,-689.485948
587.016934,-1036.288319,-9104.533087,-612.876398
587.017262,-1258.350101,-8956.491898,-919.314598
587.017590,-1258.350101,-9178.553681,-1149.143247
587.017917,-962.267725,-9178.553681,-1685.410096
587.018245,-740.205942,-9252.574275,-1378.971896
587.018572,-296.082377,-8956.491898,-995.924147
587.018900,0.000000,-9030.512492,-1072.533697
587.019228,0.000000,-9178.553681,-1532.190996
587.019555,-148.041188,-9104.533087,-1455.581446
587.019883,-148.041188,-9252.574275,-1608.800546
587.020210,0.000000,-9178.553681,-1762.019645
587.020538,74.020594,-9104.533087,-1532.190996
587.020866,444.123565,-9400.615463,-1685.410096
587.021193,370.102971,-9400.615463,-1685.410096
587.021521,222.061783,-9178.553681,-1532.190996
587.021849,518.144159,-9252.574275,-1762.019645
587.022176,814.226536,-9474.636058,-1915.238745
587.022504,222.061783,-9474.636058,-1762.019645
587.022831,148.041188,-9400.615463,-1991.848295
587.023159,222.061783,-9252.574275,-1915.238745
587.023487,148.041188,-9326.594869,-1915.238745
587.023814,296.082377,-9252.574275,-1532.190996
587.024142,-222.061783,-8734.430116,-1608.800546
587.024469,-296.082377,-9400.615463,-1762.019645
587.024797,-740.205942,-9178.553681,-2145.067394
587.025125,-1184.329507,-9104.533087,-2068.457845
587.025452,-1258.350101,-9104.533087,-2451.505594
587.025780,-1628.453072,-9326.594869,-2757.943793
587.026107,-1776.494261,-9178.553681,-2757.943793
587.026435,-2146.597232,-9030.512492,-2987.772442
587.026763,-2146.597232,-9030.512492,-3140.991542
587.027090,-2220.617826,-8956.491898,-3447.429741
587.027418,-2072.576638,-8882.471304,-3524.039291
587.027745,-2146.597232,-8734.430116,-3907.087040
587.028073,-2146.597232,-8808.450710,-4060.306139
587.028401,-1628.453072,-8882.471304,-4213.525239
587.028728,-1258.350101,-8882.471304,-3830.477490
587.029056,-444.123565,-9104.533087,-4136.915689
587.029383,0.000000,-8808.450710,-3600.648841
587.029711,888.247130,-8882.471304,-3064.381992
587.030039,1406.391290,-9104.533087,-2681.334243
587.030366,1776.494261,-9030.512492,-2298.286494
587.030694,2220.617826,-9252.574275,-1991.848295
587.031022,1998.556043,-9252.574275,-1762.019645
587.031349,1406.391290,-9992.780217,-2068.457845
587.031677,444.123565,-10362.883188,-2451.505594
587.032004,-666.185348,-10362.883188,-3140.991542
587.032332,-1110.308913,-10362.883188,-3600.648841
587.032660,-1480.411884,-9770.718434,-4213.525239
587.032987,-1702.473667,-9770.718434,-4826.401637
587.033315,-666.185348,-8882.471304,-4596.572988
587.033642,370.102971,-7920.203579,-4290.134789
587.033970,1850.514855,-7328.038826,-3677.258390
587.034298,2812.782580,-7698.141797,-3217.601092
587.034625,2664.741391,-7402.059420,-2145.067394
587.034953,1628.453072,-8438.347739,-2068.457845
587.035280,0.000000,-9622.677246,-1838.629195
587.035608,-1702.473667,-10288.862594,-2068.457845
587.035936,-2960.823768,-10584.944971,-2451.505594
587.036263,-2738.761985,-10510.924376,-2068.457845
587.036591,-1480.411884,-9844.739029,-1455.581446
587.036918,2738.761985,-7698.141797,76.609550
587.037246,7328.038826,-5995.668130,2451.505594
587.037574,10955.047942,-5107.421000,4749.792088
587.037901,10066.800811,-6513.812290,4673.182538
587.038229,5773.606348,-9400.615463,4443.353888
587.038557,-444.123565,-11695.253884,2451.505594
587.038884,-6217.729913,-13323.706956,766.095498
587.039212,-10955.047942,-14211.954086,-919.314598
587.039539,-12805.562797,-14211.954086,-2834.553343
587.039867,-11769.274478,-12731.542202,-3370.820191
587.040195,-10140.821405,-9992.780217,-4673.182538
587.040522,-6143.709319,-7550.100608,-3600.648841
587.040850,-3034.844362,-4293.194464,-4903.011187
587.041177,-370.102971,-3478.967927,-4290.134789
587.041505,-2368.659014,-4589.276840,-6128.763984
587.041833,-4293.194464,-6365.771101,-6741.640382
587.042160,-10436.903782,-8364.327145,-8580.269578
587.042488,-11843.295072,-9326.594869,-9116.536426
587.042815,-10955.047942,-9696.697840,-8733.488677
587.043143,-7179.997637,-9178.553681,-7967.393179
587.043471,0.000000,-8142.265362,-6281.983084
587.043798,5625.565159,-7772.162391,-4213.525239
587.044126,8364.327145,-7105.977043,-3753.867940
587.044453,9918.759623,-8956.491898,-3370.820191
587.044781,7550.100608,-10436.903782,-5209.449386
587.045109,6365.771101,-11029.068536,-6281.983084
587.045436,8512.368333,-11843.295072,-5669.106685
587.045764,10288.862594,-10066.800811,-4519.963438
587.046092,13323.706956,-9474.636058,-2221.676944
587.046419,14656.077652,-10436.903782,0.000000
587.046747,11695.253884,-10881.027347,-459.657299
587.047074,9770.718434,-11399.171507,-689.485948
587.047402,8808.450710,-11399.171507,-1685.410096
587.047730,4959.379811,-11029.068536,-1532.190996
587.048057,5625.565159,-10732.986159,-1149.143247
587.048385,-740.205942,-12805.562797,-2604.724693
587.048712,-8882.471304,-13693.809927,-5362.668486
587.049040,-14211.954086,-11917.315666,-7814.174080
587.049368,-14582.057057,-8142.265362,-8350.440928
587.049695,-10955.047942,-2590.720797,-7737.564530
587.050023,-296.082377,370.102971,-6281.983084
587.050350,2812.782580,222.061783,-2604.724693
587.050678,3627.009116,-962.267725,-2145.067394
587.051006,1184.329507,-3552.988522,0.000000
587.051333,-2886.803174,-5033.400406,-919.314598
587.051661,-5477.523971,-7402.059420,0.000000
587.051988,-6143.709319,-10732.986159,612.876398
587.052316,-5033.400406,-12287.418637,2451.505594
587.052644,-4885.359217,-12509.480420,4060.306139
587.052971,-1554.432478,-11769.274478,6665.030833
587.053299,592.164754,-9178.553681,6511.811733
587.053627,2220.617826,-9622.677246,4979.620737
587.053954,962.267725,-10584.944971,2145.067394
587.054282,-1998.556043,-11917.315666,-612.876398
587.054609,-3923.091493,-10362.883188,-1915.238745
587.054937,-2442.679609,-8364.327145,-689.485948
587.055265,444.123565,-7179.997637,-153.219100
587.055592,1110.308913,-7254.018232,229.828649
587.055920,0.000000,-9696.697840,612.876398
587.056247,-3775.050304,-9844.739029,-689.485948
587.056575,-7698.141797,-8734.430116,-1072.533697
587.056903,-4885.359217,-8586.388927,-1532.190996
587.057230,-4959.379811,-11029.068536,-1838.629195
587.057558,-5033.400406,-11547.212695,-2451.505594
587.057885,-5107.421000,-11399.171507,-3064.381992
587.058213,-3478.967927,-8068.244768,-2987.772442
587.058540,-2960.823768,-6143.709319,-3140.991542
587.058868,-148.041188,-4959.379811,-3524.039291
587.059195,740.205942,-6957.935855,-4826.401637
587.059523,2368.659014,-8438.347739,-5669.106685
587.059850,4219.173869,-7920.203579,-5745.716235
587.060178,5773.606348,-8956.491898,-3907.087040
587.060505,5699.585753,-10732.986159,-3600.648841
587.060833,4293.194464,-13471.748144,-3447.429741
587.061160,4071.132681,-15100.201217,-3600.648841
587.061487,3775.050304,-15174.221811,-3600.648841
587.061815,2590.720797,-13027.624579,-3370.820191
587.062142,2516.700203,-12657.521608,-3370.820191
587.062470,2590.720797,-11769.274478,-3064.381992
587.062797,3627.009116,-10436.903782,-2145.067394
587.063125,4145.153275,-9178.553681,-2374.896044
587.063452,2960.823768,-8068.244768,-2911.162892
587.063780,1332.370696,-7254.018232,-4213.525239
587.064107,222.061783,-7402.059420,-4519.963438
587.064434,-1332.370696,-6365.771101,-5209.449386
587.064762,-1480.411884,-6217.729913,-6128.763984
587.065089,-1184.329507,-6069.688724,-4213.525239
587.065417,444.123565,-3775.050304,-2911.162892
587.065744,814.226536,-5551.544565,-1302.362347
587.066072,0.000000,-7476.080014,-1149.143247
587.066399,-1628.453072,-9178.553681,-1225.752797
587.066727,-3330.926739,-9696.697840,-1915.238745
587.067054,-4515.256246,-9918.759623,-2528.115143
587.067381,-6439.791695,-10807.006753,-2834.553343
587.067709,-4959.379811,-9178.553681,-2221.676944
587.068036,-2368.659014,-7698.141797,-1915.238745
587.068364,-296.082377,-7624.121203,-1149.143247
587.068691,-592.164754,-7624.121203,-1838.629195
587.069019,-2146.597232,-8586.388927,-2221.676944
587.069346,-3849.070898,-8216.285956,-3600.648841
587.069673,-3849.070898,-8882.471304,-4903.011187
587.070001,-3552.988522,-8882.471304,-5056.230287
587.070328,-1480.411884,-7994.224174,-3907.087040
587.070656,3034.844362,-5921.647536,-2298.286494
587.070983,5403.503377,-5625.565159,-383.047749
587.071311,5255.462188,-6439.791695,995.924147
587.071638,4219.173869,-8068.244768,1149.143247
587.071966,1998.556043,-9104.533087,229.828649
587.072293,1480.411884,-10066.800811,689.485948
587.072620,-444.123565,-10658.965565,306.438199
587.072948,1036.288319,-10066.800811,842.705048
587.073275,2590.720797,-9400.615463,1225.752797
587.073603,3923.091493,-9770.718434,1838.629195
587.073930,3404.947333,-9252.574275,919.314598
587.074258,888.247130,-8068.244768,-919.314598
587.074585,148.041188,-9918.759623,-766.095498
587.074913,-1184.329507,-9622.677246,-766.095498
587.075240,-3182.885551,-10066.800811,-1378.971896
587.075567,-740.205942,-11177.109724,-766.095498
587.075895,-888.247130,-10955.047942,-536.266849
587.076222,-2516.700203,-10881.027347,0.000000
587.076550,-3256.906145,-10362.883188,-459.657299
587.076877,-4737.318029,-9992.780217,-995.924147
587.077205,-4885.359217,-10214.842000,0.000000
587.077532,-4885.359217,-9178.553681,-1072.533697
587.077860,-5403.503377,-8364.327145,-1532.190996
587.078187,-4515.256246,-8290.306550,-1225.752797
587.078514,-4515.256246,-8068.244768,-1532.190996
587.078842,-4293.194464,-8216.285956,-1762.019645
587.079169,-2368.659014,-7105.977043,-1608.800546
587.079497,1110.308913,-7105.977043,-689.485948
587.079824,3627.009116,-7105.977043,229.828649
587.080152,3404.947333,-7698.141797,459.657299
587.080479,3478.967927,-10510.924376,1225.752797
587.080806,2294.638420,-11621.233289,459.657299
587.081134,740.205942,-12213.398043,689.485948
587.081461,1480.411884,-12361.439231,919.314598
587.081789,3701.029710,-12213.398043,2068.457845
587.082116,4737.318029,-12287.418637,2757.943793
587.082444,4663.297435,-11991.336260,3600.648841
587.082771,1480.411884,-10807.006753,1072.533697
587.083099,962.267725,-10658.965565,1838.629195
587.083426,0.000000,-9622.677246,-536.266849
587.083753,-1998.556043,-9992.780217,-1302.362347
587.084081,-666.185348,-8586.388927,-536.266849
587.084408,296.082377,-7254.018232,-306.438199
587.084736,0.000000,-7031.956449,0.000000
587.085063,-666.185348,-7254.018232,0.000000
587.085391,-1332.370696,-7179.997637,153.219100
587.085718,-3182.885551,-6809.894666,-766.095498
587.086046,-2960.823768,-6957.935855,-1302.362347
587.086373,-3701.029710,-7624.121203,-919.314598
587.086700,-3923.091493,-8438.347739,-842.705048
587.087028,-3552.988522,-8364.327145,0.000000
587.087355,-3478.967927,-8438.347739,459.657299
587.087683,-1924.535449,-7624.121203,536.266849
587.088010,-1924.535449,-7846.182985,0.000000
587.088338,0.000000,-7476.080014,0.000000
587.088665,888.247130,-7550.100608,229.828649
587.088993,1480.411884,-8290.306550,536.266849
587.089320,1258.350101,-8956.491898,766.095498
587.089647,1184.329507,-9548.656652,1149.143247
587.089975,740.205942,-9770.718434,1455.581446
587.090302,740.205942,-10288.862594,1685.410096
587.090630,1924.535449,-9992.780217,2681.334243
587.090957,2294.638420,-9474.636058,2451.505594
587.091285,1924.535449,-9178.553681,2681.334243
587.091612,1554.432478,-9400.615463,2528.115143
587.091939,0.000000,-8808.450710,919.314598
587.092267,-1184.329507,-8438.347739,1685.410096
587.092594,888.247130,-7698.141797,1302.362347
587.092922,1332.370696,-8216.285956,2068.457845
587.093249,2146.597232,-6439.791695,2528.115143
587.093577,1554.432478,-7550.100608,1455.581446
587.093904,148.041188,-7994.224174,1225.752797
587.094232,-1554.432478,-8882.471304,76.609550
587.094559,-2812.782580,-9104.533087,-1072.533697
587.094886,-3330.926739,-9178.553681,-536.266849
587.095214,-1554.432478,-9400.615463,-766.095498
587.095541,-1332.370696,-10436.903782,-153.219100
587.095869,-740.205942,-10658.965565,0.000000
587.096196,-814.226536,-10881.027347,229.828649
587.096524,-2220.617826,-10436.903782,-306.438199
587.096851,-3404.947333,-11103.089130,-1072.533697
587.097179,-2516.700203,-10955.047942,-1072.533697
587.097506,-592.164754,-10288.862594,-842.705048
587.097833,148.041188,-9918.759623,-383.047749
587.098161,222.061783,-10214.842000,612.876398
587.098488,296.082377,-10881.027347,612.876398
587.098816,-666.185348,-10066.800811,0.000000
587.099143,-148.041188,-10066.800811,0.000000
587.099471,592.164754,-10140.821405,459.657299
587.099798,1258.350101,-10066.800811,229.828649
587.100126,1924.535449,-10140.821405,1225.752797
587.100453,2072.576638,-9696.697840,1072.533697
587.100780,2220.617826,-9474.636058,1072.533697
587.101108,1110.308913,-10066.800811,536.266849
587.101435,1258.350101,-10584.944971,612.876398
587.101763,1776.494261,-9770.718434,1455.581446
587.102090,1110.308913,-10140.821405,1302.362347
587.102418,296.082377,-9770.718434,1455.581446
587.102745,-518.144159,-10732.986159,919.314598
587.103073,-1480.411884,-9770.718434,536.266849
587.103400,-2960.823768,-9400.615463,76.609550
587.103727,-2368.659014,-8956.491898,153.219100
587.104055,-1332.370696,-8068.244768,459.657299
587.104382,-518.144159,-7624.121203,766.095498
587.104710,-518.144159,-7920.203579,1149.143247
587.105037,-1110.308913,-8142.265362,536.266849
587.105365,-1554.432478,-7624.121203,612.876398
587.105692,-1406.391290,-6735.874072,459.657299
587.106019,296.082377,-6291.750507,1455.581446
587.106347,888.247130,-7105.977043,1685.410096
587.106674,148.041188,-7698.141797,1532.190996
587.107002,-1332.370696,-9104.533087,2068.457845
587.107329,-2146.597232,-8364.327145,995.924147
587.107657,-3034.844362,-8660.409521,153.219100
587.107984,-2294.638420,-7994.224174,153.219100
587.108312,-666.185348,-7698.141797,383.047749
587.108639,740.205942,-7624.121203,153.219100
587.108966,444.123565,-7550.100608,612.876398
587.109294,296.082377,-7698.141797,536.266849
587.109621,148.041188,-7624.121203,229.828649
587.109949,-296.082377,-8660.409521,153.219100
587.110276,-518.144159,-8734.430116,766.095498
587.110604,444.123565,-8290.306550,689.485948
587.110931,296.082377,-7994.224174,1225.752797
587.111259,740.205942,-8808.450710,1838.629195
587.111586,-592.164754,-9400.615463,1072.533697
587.111913,-962.267725,-9252.574275,842.705048
587.112241,-1776.494261,-8956.491898,0.000000
587.112568,-888.247130,-7698.141797,-536.266849
587.112896,370.102971,-8216.285956,0.000000
587.113223,1184.329507,-8364.327145,0.000000
587.113551,1406.391290,-8586.388927,153.219100
587.113878,1036.288319,-9252.574275,76.609550
587.114206,1258.350101,-8808.450710,76.609550
587.114533,1036.288319,-8956.491898,383.047749
587.114860,2220.617826,-9844.739029,1149.143247
587.115188,2146.597232,-10362.883188,1762.019645
587.115515,888.247130,-11843.295072,1915.238745
587.115843,-1406.391290,-12953.603985,1378.971896
587.116170,-2664.741391,-13101.645173,536.266849
587.116498,-4071.132681,-13101.645173,-153.219100
587.116825,-3330.926739,-11695.253884,-689.485948
587.117152,-1480.411884,-10066.800811,-1149.143247
587.117480,-148.041188,-9474.636058,-689.485948
587.117807,0.000000,-8512.368333,-919.314598
587.118135,74.020594,-7920.203579,-459.657299
587.118462,518.144159,-7550.100608,-153.219100
587.118790,740.205942,-7698.141797,-995.924147
587.119117,1184.329507,-8216.285956,153.219100
587.119445,1702.473667,-8660.409521,1149.143247
587.119772,1702.473667,-8734.430116,2374.896044
587.120099,-592.164754,-10288.862594,2451.505594
587.120427,-1406.391290,-11547.212695,2298.286494
587.120754,-3849.070898,-12065.356855,1762.019645
587.121082,-3997.112087,-11325.150913,995.924147
587.121409,-3034.844362,-9548.656652,689.485948
587.121737,-962.267725,-8364.327145,383.047749
587.122064,0.000000,-8290.306550,766.095498
587.122392,222.061783,-7402.059420,0.000000
587.122719,1036.288319,-6513.812290,-153.219100
587.123046,592.164754,-5995.668130,-306.438199
587.123374,962.267725,-6439.791695,0.000000
587.123701,1258.350101,-6883.915261,1072.533697
587.124029,1258.350101,-8216.285956,1149.143247
587.124356,-222.061783,-9548.656652,1685.410096
587.124684,-2072.576638,-10881.027347,1991.848295
587.125011,-2812.782580,-10881.027347,1685.410096
587.125339,-4071.132681,-10066.800811,1149.143247
587.125666,-3627.009116,-9400.615463,919.314598
587.125993,-1998.556043,-8956.491898,0.000000
587.126321,-1036.288319,-7846.182985,0.000000
587.126648,-518.144159,-6143.709319,-459.657299
587.126976,962.267725,-5699.585753,-536.266849
587.127303,1850.514855,-5403.503377,-459.657299
587.127631,1776.494261,-6217.729913,-842.705048
587.127958,3182.885551,-7179.997637,76.609550
587.128286,3849.070898,-7476.080014,995.924147
587.128613,3404.947333,-9178.553681,1838.629195
587.128940,1480.411884,-11177.109724,2068.457845
587.129268,296.082377,-12731.542202,2298.286494
587.129595,-2442.679609,-13397.727550,1378.971896
587.129923,-2812.782580,-13175.665768,1302.362347
587.130250,-2516.700203,-12213.398043,842.705048
587.130578,-1184.329507,-11177.109724,612.876398
587.130905,-592.164754,-10436.903782,-612.876398
587.131232,0.000000,-9548.656652,0.000000
587.131560,444.123565,-8068.244768,-689.485948
587.131887,592.164754,-7179.997637,-766.095498
587.132215,1702.473667,-6513.812290,-153.219100
587.132542,2812.782580,-6365.771101,76.609550
587.132870,2368.659014,-7328.038826,919.314598
587.133197,1406.391290,-9474.636058,1608.800546
587.133525,-740.205942,-10362.883188,1532.190996
587.133852,-2294.638420,-10584.944971,1225.752797
587.134179,-3775.050304,-10881.027347,1072.533697
587.134507,-3108.864956,-11103.089130,306.438199
587.134834,-2738.761985,-10955.047942,459.657299
587.135162,-2886.803174,-9918.759623,-306.438199
587.135489,-2368.659014,-9548.656652,-612.876398
587.135817,-2368.659014,-8734.430116,-766.095498
587.136144,-740.205942,-7105.977043,-1532.190996
587.136472,592.164754,-6957.935855,-1608.800546
587.136799,2590.720797,-6883.915261,-612.876398
587.137126,3330.926739,-7179.997637,76.609550
587.137454,3034.844362,-8586.388927,1302.362347
587.137781,1776.494261,-9992.780217,2911.162892
587.138109,148.041188,-11103.089130,2145.067394
587.138436,-1776.494261,-11843.295072,1532.190996
587.138764,-2664.741391,-11769.274478,842.705048
587.139091,-2368.659014,-11251.130318,1149.143247
587.139419,-2072.576638,-10066.800811,1762.019645
587.139746,-1110.308913,-9030.512492,459.657299
587.140073,-370.102971,-7846.182985,0.000000
587.140401,1332.370696,-7179.997637,-153.219100
587.140728,2072.576638,-5773.606348,-459.657299
587.141056,3256.906145,-5181.441594,0.000000
587.141383,4885.359217,-5625.565159,919.314598
587.141711,3849.070898,-7031.956449,2068.457845
587.142038,2368.659014,-9178.553681,2681.334243
587.142365,666.185348,-10362.883188,2987.772442
587.142693,-1776.494261,-11251.130318,2604.724693
587.143020,-3478.967927,-13101.645173,2298.286494
587.143348,-3849.070898,-12213.398043,2374.896044
587.143675,-3775.050304,-11547.212695,1762.019645
587.144003,-3256.906145,-10510.924376,612.876398
587.144330,-3108.864956,-9030.512492,0.000000
587.144658,-2738.761985,-7402.059420,-536.266849
587.144985,-1702.473667,-5847.626942,-1149.143247
587.145312,-592.164754,-5329.482782,-995.924147
587.145640,1702.473667,-5551.544565,-383.047749
587.145967,1924.535449,-5773.606348,229.828649
587.146295,1850.514855,-7402.059420,1838.629195
587.146622,592.164754,-9474.636058,1915.238745
587.146950,-1702.473667,-10066.800811,1302.362347
587.147277,-2960.823768,-11177.109724,1072.533697
587.147605,-3627.009116,-11621.233289,766.095498
587.147932,-2886.803174,-11029.068536,536.266849
587.148259,-1850.514855,-10584.944971,153.219100
587.148587,-1776.494261,-9918.759623,-229.828649
587.148914,-1110.308913,-8882.471304,-1149.143247
587.149242,222.061783,-8216.285956,-1608.800546
587.149569,1036.288319,-7105.977043,-2068.457845
587.149897,3923.091493,-7105.977043,-1378.971896
587.150224,4663.297435,-6883.915261,-1072.533697
587.150552,5847.626942,-7920.203579,459.657299
587.150879,4219.173869,-9622.677246,1302.362347
587.151206,2812.782580,-11769.274478,1455.581446
587.151534,0.000000,-12509.480420,1302.362347
587.151861,-1776.494261,-12805.562797,1302.362347
587.152189,-2294.638420,-12213.398043,919.314598
587.152516,-1850.514855,-11695.253884,842.705048
587.152844,-1924.535449,-10881.027347,459.657299
587.153171,-1184.329507,-9326.594869,153.219100
587.153499,-444.123565,-7994.224174,-689.485948
587.153826,-296.082377,-6069.688724,-1149.143247
587.154153,0.000000,-5107.421000,-1225.752797
587.154481,2368.659014,-5329.482782,-612.876398
587.154808,2442.679609,-4885.359217,76.609550
587.155136,2146.597232,-7254.018232,1455.581446
587.155463,444.123565,-8660.409521,1762.019645
587.155791,-1554.432478,-9918.759623,1532.190996
587.156118,-4145.153275,-11621.233289,1072.533697
587.156445,-5329.482782,-12583.501014,1072.533697
587.156773,-4293.194464,-12287.418637,1072.533697
587.157100,-3849.070898,-11621.233289,842.705048
587.157428,-3627.009116,-11103.089130,919.314598
587.157755,-3108.864956,-9474.636058,153.219100
587.158083,-2664.741391,-7772.162391,-842.705048
587.158410,-444.123565,-6365.771101,-1072.533697
587.158738,1258.350101,-4959.379811,-1302.362347
587.159065,3552.988522,-5255.462188,0.000000
587.159392,3404.947333,-6365.771101,612.876398
587.159720,2960.823768,-8068.244768,1915.238745
587.160048,1998.556043,-8364.327145,2298.286494
587.160375,444.123565,-10140.821405,1991.848295
587.160703,-592.164754,-11473.192101,2221.676944
587.161031,-888.247130,-11843.295072,2298.286494
587.161358,-962.267725,-11547.212695,2298.286494
587.161686,-740.205942,-11103.089130,2298.286494
587.162013,-814.226536,-10510.924376,1455.581446
587.162341,-592.164754,-9474.636058,76.609550
587.162669,-444.123565,-7698.141797,-919.314598
587.162996,1998.556043,-6513.812290,-612.876398
587.163324,3330.926739,-5477.523971,-306.438199
587.163652,4589.276840,-6143.709319,153.219100
587.163979,3182.885551,-7772.162391,995.924147
587.164307,1924.535449,-9178.553681,1149.143247
587.164635,-666.185348,-10732.986159,1378.971896
587.164962,-2442.679609,-12213.398043,1915.238745
587.165290,-3701.029710,-12805.562797,1838.629195
587.165618,-3552.988522,-12805.562797,2451.505594
587.165945,-3775.050304,-12065.356855,1915.238745
587.166273,-3923.091493,-11695.253884,1378.971896
587.166601,-3701.029710,-9696.697840,229.828649
587.166928,-3330.926739,-7550.100608,-995.924147
587.167256,-2590.720797,-5699.585753,-1302.362347
587.167584,-148.041188,-4663.297435,-1532.190996
587.167911,1776.494261,-3923.091493,-1302.362347
587.168239,2516.700203,-4663.297435,0.000000
587.168567,1850.514855,-6365.771101,229.828649
587.168894,518.144159,-8142.265362,76.609550
587.169222,-888.247130,-10140.821405,536.266849
587.169550,-2072.576638,-11547.212695,612.876398
587.169877,-962.267725,-11843.295072,1455.581446
587.170205,-1036.288319,-11843.295072,1149.143247
587.170533,-1776.494261,-11251.130318,1072.533697
587.170860,-1184.329507,-11843.295072,1302.362347
587.171188,-1850.514855,-9844.739029,-383.047749
587.171516,-888.247130,-8364.327145,-1302.362347
587.171843,1554.432478,-6883.915261,-919.314598
587.172171,4737.318029,-6069.688724,-689.485948
587.172499,5255.462188,-6069.688724,-229.828649
587.172826,4811.338623,-6587.832884,919.314598
587.173154,3775.050304,-8734.430116,1608.800546
587.173481,1184.329507,-9696.697840,1072.533697
587.173809,148.041188,-10732.986159,1915.238745
587.174137,-962.267725,-11621.233289,1915.238745
587.174464,-1258.350101,-11843.295072,1685.410096
587.174792,-2072.576638,-11843.295072,1685.410096
587.175120,-2738.761985,-11473.192101,1532.190996
587.175447,-2812.782580,-9844.739029,306.438199
587.175775,-2664.741391,-8512.368333,-459.657299
587.176103,-2072.576638,-6883.915261,-1378.971896
587.176430,148.041188,-6143.709319,-1149.143247
587.176758,1480.411884,-6217.729913,-383.047749
587.177086,1998.556043,-6365.771101,612.876398
587.177413,814.226536,-7846.182985,919.314598
587.177741,-370.102971,-8216.285956,1225.752797
587.178069,-2146.597232,-10214.842000,842.705048
587.178396,-2590.720797,-11399.171507,1302.362347
587.178724,-2146.597232,-11473.192101,1532.190996
587.179052,-2442.679609,-11473.192101,2298.286494
587.179379,-1924.535449,-11325.150913,1608.800546
587.179707,-2220.617826,-11547.212695,1149.143247
587.180035,-1850.514855,-9992.780217,0.000000
587.180362,-1258.350101,-8364.327145,-689.485948
587.180690,296.082377,-6735.874072,-459.657299
587.181018,2960.823768,-5773.606348,0.000000
587.181345,3627.009116,-6439.791695,383.047749
587.181673,2516.700203,-7624.121203,766.095498
587.182001,1776.494261,-8586.388927,842.705048
587.182328,0.000000,-9030.512492,766.095498
587.182656,-296.082377,-9918.759623,1225.752797
587.182984,-296.082377,-10288.862594,1915.238745
587.183311,-296.082377,-11177.109724,1915.238745
587.183639,-1406.391290,-11991.336260,1762.019645
587.183966,-1850.514855,-11843.295072,1532.190996
587.184294,-1702.473667,-10362.883188,536.266849
587.184622,-1184.329507,-9400.615463,153.219100
587.184949,-518.144159,-8142.265362,-536.266849
587.185277,1628.453072,-8068.244768,153.219100
587.185605,2294.638420,-6809.894666,153.219100
587.185932,2442.679609,-7105.977043,612.876398
587.186260,2368.659014,-7105.977043,842.705048
587.186588,444.123565,-8438.347739,459.657299
587.186915,-1480.411884,-9770.718434,229.828649
587.187243,-2220.617826,-10066.800811,383.047749
587.187571,-1406.391290,-9548.656652,1149.143247
587.187898,-2146.597232,-9326.594869,1149.143247
587.188226,-2220.617826,-10140.821405,1685.410096
587.188554,-2442.679609,-10658.965565,1302.362347
587.188881,-3108.864956,-9474.636058,0.000000
587.189209,-3330.926739,-8068.244768,-536.266849
587.189537,-1850.514855,-6587.832884,-689.485948
587.189864,740.205942,-6217.729913,-383.047749
587.190192,888.247130,-6291.750507,0.000000
587.190520,1184.329507,-7179.997637,76.609550
587.190847,222.061783,-7920.203579,-229.828649
587.191175,0.000000,-8364.327145,766.095498
587.191503,0.000000,-9252.574275,306.438199
587.191830,592.164754,-9474.636058,842.705048
587.192158,222.061783,-10288.862594,919.314598
587.192486,-888.247130,-11399.171507,919.314598
587.192813,-888.247130,-11621.233289,689.485948
587.193141,-1184.329507,-10288.862594,229.828649
587.193469,-518.144159,-9770.718434,-383.047749
587.193796,962.267725,-9178.553681,-459.657299
587.194124,2590.720797,-8438.347739,-306.438199
587.194452,2516.700203,-8438.347739,229.828649
587.194779,1924.535449,-8586.388927,0.000000
587.195107,888.247130,-8808.450710,-306.438199
587.195434,518.144159,-9474.636058,-536.266849
587.195762,-370.102971,-10362.883188,-766.095498
587.196090,222.061783,-10214.842000,-153.219100
587.196417,518.144159,-10362.883188,612.876398
587.196745,148.041188,-9992.780217,919.314598
587.197073,592.164754,-10066.800811,1149.143247
587.197400,148.041188,-9992.780217,612.876398
587.197728,-518.144159,-9696.697840,0.000000
587.198056,-740.205942,-9474.636058,-153.219100
587.198383,296.082377,-8216.285956,306.438199
587.198711,814.226536,-7846.182985,919.314598
587.199039,592.164754,-9326.594869,1455.581446
587.199366,-370.102971,-9992.780217,1378.971896
587.199694,-222.061783,-9622.677246,1378.971896
587.200022,-1628.453072,-9474.636058,1072.533697
587.200349,-1998.556043,-9992.780217,1455.581446
587.200677,-1406.391290,-10362.883188,1378.971896
587.201005,-1110.308913,-10658.965565,1685.410096
587.201332,-1554.432478,-10510.924376,1762.019645
587.201660,-1036.288319,-9844.739029,1608.800546
587.201988,-2220.617826,-9474.636058,995.924147
587.202315,-2368.659014,-8586.388927,689.485948
587.202643,-1480.411884,-7402.059420,536.266849
587.202971,-222.061783,-6957.935855,612.876398
587.203298,74.020594,-7328.038826,1072.533697
587.203626,-1184.329507,-8216.285956,1149.143247
587.203954,-1332.370696,-7994.224174,1072.533697
587.204281,-2294.638420,-8216.285956,459.657299
587.204609,-1998.556043,-9178.553681,842.705048
587.204937,-518.144159,-8438.347739,842.705048
587.205264,370.102971,-7994.224174,1149.143247
587.205592,888.247130,-8438.347739,1455.581446
587.205919,370.102971,-8808.450710,1608.800546
587.206247,370.102971,-9178.553681,1072.533697
587.206575,-296.082377,-8586.388927,383.047749
587.206902,370.102971,-8068.244768,383.047749
587.207230,1776.494261,-7698.141797,995.924147
587.207558,1480.411884,-8142.265362,919.314598
587.207885,1110.308913,-9030.512492,1225.752797
587.208213,370.102971,-9030.512492,995.924147
587.208541,74.020594,-8586.388927,536.266849
587.208868,-296.082377,-8956.491898,0.000000
587.209196,0.000000,-8734.430116,0.000000
587.209524,592.164754,-8438.347739,0.000000
587.209851,740.205942,-8068.244768,76.609550
587.210179,74.020594,-8216.285956,76.609550
587.210507,666.185348,-8438.347739,76.609550
587.210834,-518.144159,-8216.285956,-612.876398
587.211162,-1184.329507,-7624.121203,-766.095498
587.211490,-148.041188,-7624.121203,-612.876398
587.211817,740.205942,-7624.121203,76.609550
587.212145,0.000000,-8438.347739,153.219100
587.212473,-518.144159,-9178.553681,536.266849
587.212800,-1628.453072,-9696.697840,-306.438199
587.213128,-2516.700203,-9622.677246,-842.705048
587.213456,-2738.761985,-10214.842000,-919.314598
587.213783,-2442.679609,-9770.718434,-1149.143247
587.214111,-1628.453072,-9474.636058,-1225.752797
587.214439,-888.247130,-9918.759623,-766.095498
587.214766,-370.102971,-9326.594869,-536.266849
587.215094,-296.082377,-9104.533087,-995.924147
587.215422,74.020594,-9548.656652,-612.876398
587.215749,222.061783,-9252.574275,-383.047749
587.216077,1628.453072,-9326.594869,383.047749
587.216405,1850.514855,-9918.759623,1302.362347
587.216732,1036.288319,-11473.192101,2298.286494
587.217060,74.020594,-11399.171507,2221.676944
587.217387,-1110.308913,-11621.233289,1685.410096
587.217715,-1702.473667,-11325.150913,1455.581446
587.218043,-666.185348,-10362.883188,995.924147
587.218370,888.247130,-9548.656652,1455.581446
587.218698,2294.638420,-8808.450710,2145.067394
587.219026,2516.700203,-8882.471304,1685.410096
587.219353,2664.741391,-8882.471304,1608.800546
587.219681,1776.494261,-9252.574275,1302.362347
587.220009,1036.288319,-9622.677246,1608.800546
587.220336,1332.370696,-9696.697840,2528.115143
587.220664,1628.453072,-9696.697840,2681.334243
587.220992,0.000000,-10658.965565,2681.334243
587.221319,-1554.432478,-11325.150913,2604.724693
587.221647,-3256.906145,-11547.212695,2145.067394
587.221975,-4959.379811,-11103.089130,1149.143247
587.222302,-5181.441594,-10658.965565,229.828649
587.222630,-4071.132681,-9326.594869,0.000000
587.222958,-3627.009116,-8586.388927,-306.438199
587.223285,-2738.761985,-8512.368333,0.000000
587.223613,-2072.576638,-7031.956449,-153.219100
587.223941,-1332.370696,-5699.585753,-229.828649
587.224268,-740.205942,-5773.606348,0.000000
587.224596,370.102971,-5847.626942,0.000000
587.224924,1036.288319,-6735.874072,995.924147
587.225251,74.020594,-8068.244768,1455.581446
587.225579,-1184.329507,-9252.574275,2528.115143
587.225907,-666.185348,-9696.697840,1991.848295
587.226234,-1702.473667,-9918.759623,995.924147
587.226562,-1480.411884,-9696.697840,306.438199
587.226890,74.020594,-8808.450710,0.000000
587.227217,1480.411884,-7772.162391,-229.828649
587.227545,2516.700203,-7105.977043,383.047749
587.227872,2812.782580,-7031.956449,-306.438199
587.228200,3478.967927,-7105.977043,0.000000
587.228528,2590.720797,-7179.997637,-766.095498
587.228855,2960.823768,-7476.080014,153.219100
587.229183,3997.112087,-7772.162391,612.876398
587.229511,3775.050304,-8512.368333,1762.019645
587.229838,2220.617826,-10066.800811,2221.676944
587.230166,0.000000,-11547.212695,2374.896044
587.230494,-2368.659014,-11325.150913,1072.533697
587.230821,-3849.070898,-10658.965565,229.828649
587.231149,-3701.029710,-9770.718434,-229.828649
587.231477,-2664.741391,-9030.512492,-842.705048
587.231804,-1850.514855,-8438.347739,-1225.752797
587.232132,-1332.370696,-7550.100608,-1608.800546
587.232460,-222.061783,-6217.729913,-1685.410096
587.232787,-666.185348,-6069.688724,-1608.800546
587.233115,-888.247130,-7105.977043,-1608.800546
587.233443,0.000000,-7772.162391,-766.095498
587.233770,592.164754,-8364.327145,229.828649
587.234098,592.164754,-9844.739029,1225.752797
587.234426,-592.164754,-11325.150913,1608.800546
587.234753,-1702.473667,-12583.501014,1915.238745
587.235081,-3478.967927,-12657.521608,766.095498
587.235409,-3849.070898,-12509.480420,306.438199
587.235736,-1924.535449,-11547.212695,306.438199
587.236064,-814.226536,-10510.924376,919.314598
587.236392,888.247130,-8956.491898,-306.438199
587.236719,1184.329507,-8216.285956,-459.657299
587.237047,2590.720797,-7402.059420,-459.657299
587.237375,2516.700203,-6513.812290,-612.876398
587.237702,3701.029710,-6809.894666,536.266849
587.238030,4219.173869,-7550.100608,766.095498
587.238358,3478.967927,-9326.594869,2298.286494
587.238685,1406.391290,-11103.089130,3140.991542
587.239013,-518.144159,-12213.398043,2911.162892
587.239340,-3108.864956,-13027.624579,2374.896044
587.239668,-4219.173869,-12657.521608,2145.067394
587.239996,-4293.194464,-11399.171507,1302.362347
587.240323,-2886.803174,-9622.677246,766.095498
587.240651,-2146.597232,-8290.306550,536.266849
587.240979,-1776.494261,-7994.224174,76.609550
587.241306,-592.164754,-6291.750507,306.438199
587.241634,-222.061783,-5403.503377,-919.314598
587.241962,0.000000,-5625.565159,-612.876398
587.242289,1036.288319,-5921.647536,-153.219100
587.242617,1850.514855,-7179.997637,1302.362347
587.242945,1036.288319,-8586.388927,2528.115143
587.243272,-222.061783,-10436.903782,2757.943793
587.243600,-1924.535449,-11843.295072,2911.162892
587.243928,-4293.194464,-12509.480420,1915.238745
587.244255,-4515.256246,-12509.480420,1302.362347
587.244583,-2960.823768,-10288.862594,995.924147
587.244911,-1924.535449,-8882.471304,766.095498
587.245238,-814.226536,-8882.471304,153.219100
587.245566,222.061783,-7698.141797,-536.266849
587.245894,888.247130,-5625.565159,-1149.143247
587.246221,2146.597232,-5033.400406,-1072.533697
587.246549,3108.864956,-5255.462188,-1378.971896
587.246877,4145.153275,-6735.874072,0.000000
587.247204,3256.906145,-7994.224174,689.485948
587.247532,2368.659014,-9770.718434,1762.019645
587.247860,1332.370696,-11399.171507,2298.286494
587.248187,-592.164754,-12435.459826,1762.019645
587.248515,-2590.720797,-13249.686362,1532.190996
587.248843,-2738.761985,-12139.377449,766.095498
587.249170,-1702.473667,-11029.068536,766.095498
587.249498,-1554.432478,-10214.842000,153.219100
587.249825,-1628.453072,-8438.347739,-536.266849
587.250153,-222.061783,-7772.162391,-919.314598
587.250481,-370.102971,-5551.544565,-1991.848295
587.250808,1406.391290,-4959.379811,-1455.581446
587.251136,3404.947333,-5107.421000,-383.047749
587.251464,3849.070898,-5995.668130,383.047749
587.251791,2146.597232,-8068.244768,1455.581446
587.252119,518.144159,-10436.903782,1762.019645
587.252447,-1406.391290,-11473.192101,1838.629195
587.252774,-3627.009116,-12731.542202,1685.410096
587.253102,-5181.441594,-13101.645173,1149.143247
587.253430,-4293.194464,-12065.356855,995.924147
587.253757,-3256.906145,-10436.903782,76.609550
587.254085,-2072.576638,-9104.533087,0.000000
587.254413,-740.205942,-8068.244768,-459.657299
587.254740,444.123565,-6439.791695,-1225.752797
587.255068,1406.391290,-6291.750507,-842.705048
587.255396,2886.803174,-5625.565159,-383.047749
587.255723,4219.173869,-5773.606348,689.485948
587.256051,2960.823768,-7476.080014,1532.190996
587.256379,1850.514855,-10066.800811,2451.505594
587.256706,222.061783,-10807.006753,2451.505594
587.257034,-1628.453072,-11399.171507,2451.505594
587.257362,-3552.988522,-12583.501014,1532.190996
587.257689,-3034.844362,-12213.398043,1762.019645
587.258017,-2738.761985,-10955.047942,1072.533697
587.258345,-2368.659014,-9548.656652,919.314598
587.258672,-1332.370696,-8882.471304,-459.657299
587.259000,-740.205942,-7550.100608,-1225.752797
587.259328,-814.226536,-6661.853478,-1608.800546
587.259655,592.164754,-5847.626942,-1608.800546
587.259983,2294.638420,-5625.565159,-689.485948
587.260311,3034.844362,-5995.668130,612.876398
587.260638,2220.617826,-8364.327145,1072.533697
587.260966,666.185348,-9844.739029,1455.581446
587.261293,-740.205942,-10732.986159,1532.190996
587.261621,-3034.844362,-11991.336260,1302.362347
587.261949,-3330.926739,-11843.295072,1685.410096
587.262276,-2516.700203,-11695.253884,919.314598
587.262604,-2368.659014,-10955.047942,383.047749
587.262931,-1776.494261,-9844.739029,153.219100
587.263259,0.000000,-8216.285956,-306.438199
587.263586,1036.288319,-6957.935855,-766.095498
587.263914,2294.638420,-6143.709319,-919.314598
587.264241,3997.112087,-6069.688724,-536.266849
587.264569,5403.503377,-6217.729913,919.314598
587.264896,4811.338623,-8068.244768,1762.019645
587.265224,3256.906145,-9548.656652,2528.115143
587.265551,888.247130,-11325.150913,2451.505594
587.265879,-2146.597232,-13027.624579,1915.238745
587.266206,-3552.988522,-13619.789333,1838.629195
587.266534,-3404.947333,-12805.562797,1608.800546
587.266861,-2590.720797,-12287.418637,1608.800546
587.267189,-2590.720797,-11843.295072,919.314598
587.267516,-2516.700203,-10362.883188,76.609550
587.267844,-2072.576638,-8882.471304,-995.924147
587.268171,-1184.329507,-6957.935855,-1685.410096
587.268499,814.226536,-5995.668130,-1608.800546
587.268826,2590.720797,-5255.462188,76.609550
587.269154,2812.782580,-5995.668130,0.000000
587.269481,1184.329507,-8586.388927,919.314598
587.269809,518.144159,-9548.656652,1302.362347
587.270136,-1924.535449,-10732.986159,1225.752797
587.270464,-2960.823768,-11843.295072,1915.238745
587.270791,-3256.906145,-12435.459826,1302.362347
587.271119,-2294.638420,-12583.501014,1608.800546
587.271446,-2590.720797,-11251.130318,995.924147
587.271774,-1036.288319,-9474.636058,919.314598
587.272101,-222.061783,-8216.285956,-689.485948
587.272429,-222.061783,-6587.832884,-1072.533697
587.272756,296.082377,-6291.750507,-1302.362347
587.273084,2812.782580,-5625.565159,-995.924147
587.273411,3997.112087,-4737.318029,-306.438199
587.273739,4071.132681,-6587.832884,995.924147
587.274067,3849.070898,-9178.553681,2145.067394
587.274394,962.267725,-9548.656652,1685.410096
587.274722,-1480.411884,-11103.089130,1762.019645
587.275049,-2072.576638,-11399.171507,2068.457845
587.275377,-2146.597232,-10881.027347,2145.067394
587.275704,-1776.494261,-9918.759623,1455.581446
587.276032,-2960.823768,-10066.800811,1532.190996
587.276359,-2516.700203,-8216.285956,153.219100
587.276687,-2368.659014,-6291.750507,-689.485948
587.277014,-2294.638420,-5255.462188,-1378.971896
587.277342,-518.144159,-4663.297435,-1685.410096
587.277669,1332.370696,-4663.297435,-689.485948
587.277997,2072.576638,-5477.523971,306.438199
587.278324,1702.473667,-6661.853478,1225.752797
587.278652,1332.370696,-8734.430116,1608.800546
587.278979,-1036.288319,-10066.800811,1838.629195
587.279307,-2664.741391,-11251.130318,1762.019645
587.279634,-2812.782580,-11547.212695,1302.362347
587.279962,-2442.679609,-11399.171507,1302.362347
587.280289,-3108.864956,-11029.068536,1072.533697
587.280617,-2516.700203,-10584.944971,766.095498
587.280944,-1998.556043,-8882.471304,-306.438199
587.281272,-1406.391290,-7846.182985,-1302.362347
587.281599,-370.102971,-7031.956449,-1685.410096
587.281927,2886.803174,-5995.668130,-995.924147
587.282254,3997.112087,-5403.503377,-306.438199
587.282582,4293.194464,-7254.018232,842.705048
587.282909,3108.864956,-10066.800811,1532.190996
587.283237,1036.288319,-10732.986159,1608.800546
587.283564,-814.226536,-12509.480420,1762.019645
587.283892,-1924.535449,-12879.583391,1991.848295
587.284219,-518.144159,-12435.459826,2374.896044
587.284547,-1332.370696,-12657.521608,2221.676944
587.284874,-1036.288319,-11991.336260,1762.019645
587.285202,-888.247130,-11325.150913,766.095498
587.285530,-1628.453072,-9326.594869,-459.657299
587.285857,-1110.308913,-8364.327145,-1378.971896
587.286185,814.226536,-6957.935855,-1302.362347
587.286512,2368.659014,-6439.791695,-995.924147
587.286840,3108.864956,-6883.915261,-306.438199
587.287167,2294.638420,-8438.347739,383.047749
587.287495,1924.535449,-9326.594869,1149.143247
587.287822,0.000000,-10288.862594,689.485948
587.288150,-1776.494261,-12361.439231,1532.190996
587.288477,-2146.597232,-12361.439231,1915.238745
587.288805,-2886.803174,-12287.418637,1685.410096
587.289132,-3404.947333,-12139.377449,1608.800546
587.289460,-3552.988522,-11399.171507,689.485948
587.289787,-2886.803174,-10214.842000,0.000000
587.290115,-2590.720797,-8438.347739,-919.314598
587.290442,-592.164754,-7031.956449,-1532.190996
587.290770,1702.473667,-5847.626942,-919.314598
587.291097,3034.844362,-5995.668130,-306.438199
587.291425,2590.720797,-7179.997637,0.000000
587.291752,1850.514855,-8438.347739,229.828649
587.292080,740.205942,-8734.430116,229.828649
587.292407,-518.144159,-10214.842000,842.705048
587.292735,-740.205942,-11177.109724,1149.143247
587.293062,-592.164754,-11251.130318,2298.286494
587.293390,-962.267725,-11843.295072,1915.238745
587.293717,-2368.659014,-11325.150913,1685.410096
587.294045,-740.205942,-9844.739029,1302.362347
587.294372,-1184.329507,-8882.471304,459.657299
587.294700,-518.144159,-7328.038826,153.219100
587.295027,888.247130,-6143.709319,0.000000
587.295355,2886.803174,-5107.421000,383.047749
587.295682,2738.761985,-5033.400406,153.219100
587.296010,3182.885551,-6587.832884,1072.533697
587.296337,1850.514855,-6809.894666,536.266849
587.296665,74.020594,-8660.409521,536.266849
587.296993,-888.247130,-9918.759623,995.924147
587.297320,-444.123565,-9992.780217,1838.629195
587.297648,-888.247130,-10510.924376,2068.457845
587.297975,-1702.473667,-11399.171507,2374.896044
587.298303,-2368.659014,-10584.944971,1685.410096
587.298630,-2738.761985,-9252.574275,459.657299
587.298958,-3256.906145,-8512.368333,-383.047749
587.299285,-1628.453072,-6513.812290,-1072.533697
587.299613,444.123565,-5625.565159,-1225.752797
587.299940,518.144159,-5329.482782,0.000000
587.300268,296.082377,-6957.935855,0.000000
587.300595,74.020594,-7254.018232,306.438199
587.300923,-1480.411884,-8438.347739,76.609550
587.301250,-2368.659014,-9992.780217,76.609550
587.301578,-1924.535449,-9844.739029,1072.533697
587.301905,-888.247130,-10436.903782,1149.143247
587.302233,-1036.288319,-10658.965565,1302.362347
587.302560,-1110.308913,-10807.006753,1455.581446
587.302888,-962.267725,-9918.759623,919.314598
587.303215,-1628.453072,-9326.594869,0.000000
587.303543,0.000000,-8290.306550,0.000000
587.303870,1480.411884,-7254.018232,-153.219100
587.304198,2664.741391,-7254.018232,229.828649
587.304525,2072.576638,-7994.224174,536.266849
587.304853,1406.391290,-8586.388927,689.485948
587.305180,888.247130,-8808.450710,766.095498
587.305508,370.102971,-10140.821405,689.485948
587.305835,-518.144159,-10807.006753,459.657299
587.306163,444.123565,-11029.068536,1225.752797
587.306490,-518.144159,-11251.130318,842.705048
587.306818,-740.205942,-11251.130318,1302.362347
587.307145,-222.061783,-10732.986159,1149.143247
587.307473,-1110.308913,-9696.697840,229.828649
587.307800,-1628.453072,-9104.533087,76.609550
587.308128,-814.226536,-8438.347739,153.219100
587.308456,148.041188,-7550.100608,229.828649
587.308783,148.041188,-7698.141797,0.000000
587.309111,370.102971,-8734.430116,919.314598
587.309438,-370.102971,-9030.512492,766.095498
587.309766,-1702.473667,-9252.574275,153.219100
587.310093,-2294.638420,-9622.677246,383.047749
587.310421,-962.267725,-9548.656652,612.876398
587.310748,-1184.329507,-9992.780217,536.266849
587.311076,-1184.329507,-10658.965565,919.314598
587.311403,-740.205942,-10584.944971,842.705048
587.311731,148.041188,-10732.986159,689.485948
587.312058,-1184.329507,-9696.697840,229.828649
587.312386,0.000000,-9622.677246,459.657299
587.312713,1110.308913,-8882.471304,919.314598
587.313041,1258.350101,-8438.347739,612.876398
587.313368,592.164754,-9252.574275,1225.752797
587.313696,0.000000,-9104.533087,995.924147
587.314023,-444.123565,-9252.574275,689.485948
587.314351,-1184.329507,-9104.533087,306.438199
587.314678,-1036.288319,-9030.512492,306.438199
587.315006,0.000000,-8882.471304,612.876398
587.315333,-296.082377,-8956.491898,919.314598
587.315661,0.000000,-9474.636058,1225.752797
587.315988,74.020594,-9104.533087,1149.143247
587.316316,-666.185348,-8438.347739,306.438199
587.316643,-962.267725,-8956.491898,229.828649
587.316971,148.041188,-8734.430116,766.095498
587.317298,592.164754,-7550.100608,536.266849
587.317626,666.185348,-8068.244768,842.705048
587.317953,444.123565,-8438.347739,919.314598
587.318281,444.123565,-8734.430116,689.485948
587.318608,-888.247130,-9104.533087,459.657299
587.318936,-1258.350101,-8808.450710,153.219100
587.319263,-740.205942,-8438.347739,229.828649
587.319591,-296.082377,-8586.388927,306.438199
587.319919,0.000000,-9030.512492,689.485948
587.320246,-518.144159,-9400.615463,612.876398
587.320574,-666.185348,-9474.636058,995.924147
587.320901,-1702.473667,-8956.491898,229.828649
587.321229,-518.144159,-8586.388927,459.657299
587.321556,222.061783,-8216.285956,612.876398
587.321884,1110.308913,-8216.285956,919.314598
587.322211,370.102971,-8438.347739,1378.971896
587.322539,814.226536,-9030.512492,1378.971896
587.322866,-814.226536,-8956.491898,383.047749
587.323194,-1628.453072,-9548.656652,459.657299
587.323521,-1850.514855,-9696.697840,-153.219100
587.323849,-1036.288319,-9548.656652,689.485948
587.324176,-444.123565,-9104.533087,76.609550
587.324504,-962.267725,-9474.636058,459.657299
587.324831,-222.061783,-9400.615463,766.095498
587.325159,-592.164754,-9178.553681,0.000000
587.325486,-444.123565,-9178.553681,0.000000
587.325814,1036.288319,-8956.491898,-459.657299
587.326141,1998.556043,-8660.409521,612.876398
587.326469,1554.432478,-9326.594869,766.095498
587.326796,962.267725,-9622.677246,1072.533697
587.327124,222.061783,-10288.862594,689.485948
587.327451,-888.247130,-10066.800811,76.609550
587.327779,-2072.576638,-10288.862594,-612.876398
587.328106,-518.144159,-9770.718434,76.609550
587.328434,-518.144159,-9474.636058,229.828649
587.328761,222.061783,-9992.780217,842.705048
587.329089,0.000000,-9770.718434,459.657299
587.329416,74.020594,-8808.450710,995.924147
587.329744,0.000000,-8216.285956,153.219100
587.330071,1554.432478,-7550.100608,612.876398
587.330399,2368.659014,-7698.141797,842.705048
587.330726,2368.659014,-8438.347739,1532.190996
587.331054,296.082377,-9400.615463,2221.676944
587.331382,0.000000,-10140.821405,1685.410096
587.331709,-2294.638420,-10584.944971,919.314598
587.332037,-3404.947333,-11029.068536,306.438199
587.332364,-2516.700203,-10288.862594,919.314598
587.332692,-1554.432478,-9844.739029,306.438199
587.333019,-1110.308913,-9400.615463,536.266849
587.333347,-888.247130,-9326.594869,842.705048
587.333674,-222.061783,-8660.409521,766.095498
587.334002,-888.247130,-7550.100608,76.609550
587.334329,-814.226536,-7920.203579,919.314598
587.334657,444.123565,-7105.977043,536.266849
587.334984,740.205942,-7402.059420,919.314598
587.335312,0.000000,-8586.388927,1455.581446
587.335639,-518.144159,-9104.533087,1685.410096
587.335967,-1480.411884,-9400.615463,1455.581446
587.336294,-2738.761985,-10066.800811,689.485948
587.336622,-2664.741391,-9548.656652,153.219100
587.336949,-1110.308913,-9104.533087,459.657299
587.337277,-296.082377,-8882.471304,536.266849
587.337604,222.061783,-8512.368333,842.705048
587.337932,666.185348,-8364.327145,76.609550
587.338259,740.205942,-7772.162391,-229.828649
587.338587,592.164754,-7328.038826,0.000000
587.338914,1924.535449,-7624.121203,536.266849
587.339242,2738.761985,-7772.162391,1532.190996
587.339569,1850.514855,-8660.409521,1915.238745
587.339897,592.164754,-10288.862594,2298.286494
587.340224,-962.267725,-10732.986159,1608.800546
587.340552,-2442.679609,-10658.965565,306.438199
587.340879,-3404.947333,-11103.089130,76.609550
587.341207,-1184.329507,-9844.739029,459.657299
587.341534,-296.082377,-8216.285956,689.485948
587.341862,814.226536,-8216.285956,1149.143247
587.342189,1554.432478,-8216.285956,1532.190996
587.342517,1998.556043,-7846.182985,1455.581446
587.342845,1332.370696,-6735.874072,1149.143247
587.343172,1332.370696,-7624.121203,1532.190996
587.343500,2368.659014,-7550.100608,2221.676944
587.343827,2442.679609,-8068.244768,2987.772442
587.344155,1924.535449,-9474.636058,4060.306139
587.344482,592.164754,-10362.883188,4290.134789
587.344810,-1110.308913,-11325.150913,4213.525239
587.345137,-3849.070898,-12139.377449,2911.162892
587.345465,-4737.318029,-12509.480420,2068.457845
587.345792,-3775.050304,-11251.130318,1838.629195
587.346120,-2886.803174,-9548.656652,1149.143247
587.346447,-1332.370696,-9622.677246,995.924147
587.346775,-222.061783,-8216.285956,1378.971896
587.347102,296.082377,-7179.997637,1532.190996
587.347430,0.000000,-7105.977043,1225.752797
587.347757,148.041188,-7105.977043,1072.533697
587.348085,1036.288319,-8068.244768,2145.067394
587.348412,0.000000,-9400.615463,2528.115143
587.348740,-962.267725,-11177.109724,3140.991542
587.349067,-1036.288319,-11251.130318,4060.306139
587.349395,-1258.350101,-10955.047942,4443.353888
587.349722,-1554.432478,-11325.150913,3753.867940
587.350050,-1036.288319,-10881.027347,4366.744339
587.350377,370.102971,-9918.759623,4290.134789
587.350705,1258.350101,-8734.430116,3907.087040
587.351032,1184.329507,-8290.306550,3064.381992
587.351360,1480.411884,-8142.265362,3447.429741
587.351687,1258.350101,-7624.121203,2834.553343
587.352015,1036.288319,-7402.059420,2451.505594
587.352342,1924.535449,-8068.244768,3370.820191
587.352670,2442.679609,-8438.347739,4443.353888
587.352997,2590.720797,-9030.512492,5362.668486
587.353325,2738.761985,-9548.656652,6052.154434
587.353652,666.185348,-11325.150913,6358.592633
587.353980,-2368.659014,-11695.253884,5975.544884
587.354308,-3552.988522,-11029.068536,4903.011187
587.354635,-4589.276840,-10732.986159,4290.134789
587.354963,-4737.318029,-10214.842000,3677.258390
587.355290,-4293.194464,-8216.285956,3370.820191
587.355618,-2072.576638,-6217.729913,3600.648841
587.355945,-592.164754,-5625.565159,2987.772442
587.356273,-1480.411884,-5995.668130,2145.067394
587.356600,-2812.782580,-5477.523971,766.095498
587.356928,-2442.679609,-5625.565159,459.657299
587.357255,-2146.597232,-7105.977043,612.876398
587.357583,-1184.329507,-7550.100608,1225.752797
587.357910,1036.288319,-7402.059420,2757.943793
587.358238,3552.988522,-7920.203579,4903.011187
587.358565,4219.173869,-9178.553681,6128.763984
587.358893,2368.659014,-10881.027347,6128.763984
587.359220,-592.164754,-11843.295072,4903.011187
587.359548,-1332.370696,-12139.377449,4060.306139
587.359875,-1332.370696,-11547.212695,3524.039291
587.360203,222.061783,-10658.965565,3064.381992
587.360530,1776.494261,-9400.615463,3294.210641
587.360858,3182.885551,-8290.306550,3217.601092
587.361185,3775.050304,-7254.018232,3447.429741
587.361513,3552.988522,-7179.997637,3064.381992
587.361840,1850.514855,-7846.182985,2604.724693
587.362168,-1332.370696,-9474.636058,842.705048
587.362495,-3034.844362,-10584.944971,383.047749
587.362823,-3108.864956,-10140.821405,536.266849
587.363150,-2072.576638,-9918.759623,1762.019645
587.363478,-444.123565,-9992.780217,2911.162892
587.363806,-444.123565,-9474.636058,3907.087040
587.364133,-370.102971,-9622.677246,4136.915689
587.364461,222.061783,-8956.491898,4060.306139
587.364789,-370.102971,-8660.409521,3600.648841
587.365116,-740.205942,-9400.615463,3140.991542
587.365444,-1258.350101,-9252.574275,2834.553343
587.365771,-518.144159,-8956.491898,2911.162892
587.366099,666.185348,-8660.409521,3447.429741
587.366427,1480.411884,-8438.347739,3753.867940
587.366754,1850.514855,-9400.615463,3830.477490
587.367082,1702.473667,-10510.924376,3907.087040
587.367409,518.144159,-10732.986159,3447.429741
587.367737,740.205942,-10658.965565,3370.820191
587.368065,1258.350101,-10881.027347,3753.867940
587.368392,74.020594,-11769.274478,4136.915689
587.368720,-888.247130,-12065.356855,4290.134789
587.369047,-2146.597232,-11843.295072,3753.867940
587.369375,-2442.679609,-10066.800811,3600.648841
587.369703,-1332.370696,-8734.430116,3600.648841
587.370030,-814.226536,-8142.265362,3600.648841
587.370358,-740.205942,-7624.121203,3294.210641
587.370685,-1184.329507,-7550.100608,3370.820191
587.371013,-1184.329507,-6883.915261,3294.210641
587.371341,74.020594,-6217.729913,3677.258390
587.371668,2072.576638,-7179.997637,4366.744339
587.371996,2072.576638,-8364.327145,4673.182538
587.372323,370.102971,-9548.656652,4596.572988
587.372651,-1702.473667,-10658.965565,4673.182538
587.372979,-2590.720797,-10732.986159,4136.915689
587.373306,-1998.556043,-9992.780217,3830.477490
587.373634,-518.144159,-9622.677246,3600.648841
587.373961,296.082377,-9326.594869,3983.696590
587.374289,0.000000,-9326.594869,3447.429741
587.374617,-518.144159,-9104.533087,2911.162892
587.374944,-666.185348,-8290.306550,2528.115143
587.375272,0.000000,-7476.080014,2911.162892
587.375600,666.185348,-7402.059420,3064.381992
587.375927,1110.308913,-7476.080014,3064.381992
587.376255,-370.102971,-8586.388927,3064.381992
587.376582,-1850.514855,-8586.388927,2987.772442
587.376910,-2368.659014,-8512.368333,2451.505594
587.377238,-1850.514855,-8808.450710,2681.334243
587.377565,-740.205942,-8586.388927,2757.943793
587.377893,444.123565,-8438.347739,3140.991542
587.378220,1036.288319,-8068.244768,3370.820191
587.378548,148.041188,-7624.121203,3140.991542
587.378876,0.000000,-8216.285956,2987.772442
587.379203,-666.185348,-7920.203579,1991.848295
587.379531,-222.061783,-8216.285956,1608.800546
587.379858,666.185348,-8364.327145,1762.019645
587.380186,1776.494261,-8068.244768,2987.772442
587.380514,2442.679609,-8734.430116,3907.087040
587.380841,2368.659014,-9622.677246,4443.353888
587.381169,1554.432478,-10436.903782,4443.353888
587.381496,370.102971,-11103.089130,3677.258390
587.381824,-888.247130,-11177.109724,2911.162892
587.382152,-1184.329507,-11103.089130,3064.381992
587.382479,-518.144159,-10362.883188,4060.306139
587.382807,518.144159,-9622.677246,3983.696590
587.383134,1702.473667,-9252.574275,5286.058936
587.383462,1480.411884,-9178.553681,4903.011187
587.383790,-370.102971,-9104.533087,4136.915689
587.384117,-2664.741391,-8808.450710,2604.724693
587.384445,-3849.070898,-9104.533087,2068.457845
587.384772,-3775.050304,-8734.430116,1915.238745
587.385100,-2146.597232,-8290.306550,2451.505594
587.385428,0.000000,-7624.121203,3064.381992
587.385755,814.226536,-7624.121203,4213.525239
587.386083,444.123565,-8660.409521,4519.963438
587.386411,-888.247130,-9178.553681,4136.915689
587.386738,-2368.659014,-10140.821405,3447.429741
587.387066,-2960.823768,-11029.068536,2681.334243
587.387393,-3330.926739,-10732.986159,2145.067394
587.387721,-2516.700203,-10658.965565,2451.505594
587.388049,-592.164754,-9474.636058,3370.820191
587.388376,1406.391290,-9252.574275,3983.696590
587.388704,2368.659014,-8660.409521,4443.353888
587.389031,2294.638420,-9104.533087,4290.134789
587.389359,1554.432478,-9178.553681,4136.915689
587.389687,1110.308913,-9770.718434,3140.991542
587.390014,148.041188,-9992.780217,3064.381992
587.390342,296.082377,-10066.800811,3447.429741
587.390669,296.082377,-9770.718434,3907.087040
587.390997,444.123565,-9474.636058,4060.306139
587.391325,-518.144159,-8882.471304,4060.306139
587.391652,-888.247130,-8808.450710,3294.210641
587.391980,-666.185348,-8660.409521,2604.724693
587.392307,-296.082377,-8216.285956,2604.724693
587.392635,296.082377,-7846.182985,2681.334243
587.392963,1406.391290,-7476.080014,3524.039291
587.393290,1628.453072,-7624.121203,3677.258390
587.393618,1110.308913,-7624.121203,3677.258390
587.393945,444.123565,-8216.285956,3907.087040
587.394273,-222.061783,-8956.491898,3830.477490
587.394601,-666.185348,-9178.553681,3524.039291
587.394928,-962.267725,-9696.697840,4060.306139
587.395256,-1110.308913,-9844.739029,3753.867940
587.395584,-1332.370696,-9474.636058,3753.867940
587.395911,-1184.329507,-9474.636058,3677.258390
587.396239,-962.267725,-9030.512492,3140.991542
587.396566,-1110.308913,-8290.306550,3217.601092
587.396894,-814.226536,-8364.327145,2681.334243
587.397222,-592.164754,-8068.244768,2451.505594
587.397549,-666.185348,-7920.203579,2528.115143
587.397877,-592.164754,-7846.182985,2604.724693
587.398204,-444.123565,-7624.121203,3217.601092
587.398532,-444.123565,-8068.244768,2834.553343
587.398860,-444.123565,-8586.388927,3140.991542
587.399187,0.000000,-9252.574275,3140.991542
587.399515,-222.061783,-9548.656652,3140.991542
587.399842,-148.041188,-9622.677246,3983.696590
587.400170,0.000000,-9622.677246,3064.381992
587.400498,-222.061783,-9474.636058,3140.991542
587.400825,222.061783,-9474.636058,2911.162892
587.401153,296.082377,-9030.512492,2604.724693
587.401480,666.185348,-8808.450710,2374.896044
587.401808,1184.329507,-9252.574275,2757.943793
587.402136,814.226536,-9400.615463,2298.286494
587.402463,74.020594,-9696.697840,2221.676944
587.402791,0.000000,-10214.842000,2374.896044
587.403118,-444.123565,-10066.800811,2451.505594
587.403446,-592.164754,-9992.780217,2221.676944
587.403774,-518.144159,-10066.800811,1991.848295
587.404101,-888.247130,-10140.821405,1991.848295
587.404429,-1184.329507,-9844.739029,1532.190996
587.404756,-1480.411884,-9770.718434,1532.190996
587.405084,-1924.535449,-9252.574275,1302.362347
587.405412,-1258.350101,-9178.553681,1302.362347
587.405739,-518.144159,-8586.388927,1225.752797
587.406067,0.000000,-8142.265362,1149.143247
587.406395,518.144159,-8216.285956,1302.362347
587.406722,1110.308913,-8068.244768,1149.143247
587.407050,592.164754,-9030.512492,1455.581446
587.407377,0.000000,-9104.533087,1608.800546
587.407705,0.000000,-9548.656652,1225.752797
587.408033,0.000000,-9992.780217,1532.190996
587.408360,666.185348,-10362.883188,1838.629195
587.408688,962.267725,-9770.718434,2145.067394
587.409015,1332.370696,-9844.739029,2145.067394
587.409343,1480.411884,-9622.677246,2298.286494
587.409671,962.267725,-9696.697840,2145.067394
587.409998,296.082377,-9252.574275,1762.019645
587.410326,-814.226536,-9178.553681,1455.581446
587.410653,-1036.288319,-8956.491898,1455.581446
587.410981,-962.267725,-8808.450710,1072.533697
587.411309,-888.247130,-8586.388927,1225.752797
587.411636,-740.205942,-8512.368333,1302.362347
587.411964,-888.247130,-8290.306550,1532.190996
587.412291,-1036.288319,-8364.327145,842.705048
587.412619,-1332.370696,-8438.347739,766.095498
587.412947,-1554.432478,-7920.203579,383.047749
587.413274,-1258.350101,-7920.203579,612.876398
587.413602,-814.226536,-8290.306550,-306.438199
587.413929,-444.123565,-8586.388927,459.657299
587.414257,-592.164754,-8660.409521,995.924147
587.414585,-518.144159,-8660.409521,1072.533697
587.414912,-370.102971,-8956.491898,1225.752797
587.415240,-222.061783,-9252.574275,919.314598
587.415567,444.123565,-8956.491898,1225.752797
587.415895,370.102971,-8956.491898,766.095498
587.416223,518.144159,-9030.512492,459.657299
587.416550,666.185348,-9178.553681,1072.533697
587.416878,666.185348,-9252.574275,919.314598
587.417206,444.123565,-9104.533087,1378.971896
587.417533,0.000000,-9474.636058,842.705048
587.417861,0.000000,-9474.636058,766.095498
587.418188,0.000000,-9474.636058,612.876398
587.418516,-222.061783,-9104.533087,689.485948
587.418844,74.020594,-8438.347739,459.657299
587.419171,-370.102971,-8808.450710,459.657299
587.419499,-296.082377,-8956.491898,689.485948
587.419826,-666.185348,-8734.430116,536.266849
587.420154,-962.267725,-8586.388927,459.657299
587.420482,-1036.288319,-8808.450710,459.657299
587.420809,-1110.308913,-8882.471304,229.828649
587.421137,-1110.308913,-9400.615463,153.219100
587.421464,-1110.308913,-9104.533087,229.828649
587.421792,-518.144159,-9252.574275,689.485948
587.422120,-296.082377,-9104.533087,459.657299
587.422447,0.000000,-9400.615463,459.657299
587.422775,0.000000,-9326.594869,306.438199
587.423102,0.000000,-9622.677246,459.657299
587.423430,0.000000,-9918.759623,306.438199
587.423758,-444.123565,-9696.697840,536.266849
587.424085,0.000000,-9548.656652,1225.752797
587.424413,0.000000,-9844.739029,612.876398
587.424740,0.000000,-9622.677246,689.485948
587.425068,148.041188,-9622.677246,612.876398
587.425396,296.082377,-9252.574275,459.657299
587.425723,740.205942,-9030.512492,612.876398
587.426051,296.082377,-8956.491898,689.485948
587.426378,74.020594,-8956.491898,459.657299
587.426706,0.000000,-9178.553681,612.876398
587.427034,-296.082377,-9400.615463,536.266849
587.427361,0.000000,-9400.615463,842.705048
587.427689,0.000000,-9400.615463,383.047749
587.428017,0.000000,-9178.553681,153.219100
587.428344,0.000000,-8882.471304,306.438199
587.428672,0.000000,-8808.450710,383.047749
587.428999,0.000000,-8512.368333,459.657299
587.429327,0.000000,-8586.388927,0.000000
587.429655,-518.144159,-8660.409521,459.657299
587.429982,-592.164754,-9030.512492,306.438199
587.430310,-740.205942,-9178.553681,383.047749
587.430637,-888.247130,-9252.574275,612.876398
587.430965,-1036.288319,-8808.450710,919.314598
587.431293,-740.205942,-8660.409521,459.657299
587.431620,-444.123565,-8734.430116,459.657299
587.431948,-518.144159,-8586.388927,536.266849
587.432275,-444.123565,-8364.327145,459.657299
587.432603,-518.144159,-7846.182985,459.657299
587.432931,-518.144159,-8808.450710,766.095498
587.433258,-740.205942,-8808.450710,919.314598
587.433586,-962.267725,-9178.553681,766.095498
587.433913,-962.267725,-9178.553681,766.095498
587.434241,-888.247130,-8734.430116,1302.362347
587.434569,-740.205942,-8882.471304,612.876398
587.434896,-592.164754,-8660.409521,689.485948
587.435224,-444.123565,-8808.450710,842.705048
587.435551,0.000000,-8882.471304,766.095498
587.435879,-296.082377,-8882.471304,1072.533697
587.436207,-666.185348,-9104.533087,995.924147
587.436534,-666.185348,-9474.636058,995.924147
587.436862,-592.164754,-9474.636058,919.314598
587.437189,-370.102971,-9400.615463,689.485948
587.437517,-296.082377,-9326.594869,383.047749
587.437845,-370.102971,-9030.512492,842.705048
587.438172,-222.061783,-8956.491898,612.876398
587.438500,-518.144159,-9178.553681,612.876398
587.438828,-518.144159,-9178.553681,612.876398
587.439155,-296.082377,-9400.615463,459.657299
587.439483,-444.123565,-9104.533087,995.924147
587.439810,-370.102971,-9400.615463,383.047749
587.440138,-222.061783,-9400.615463,229.828649
587.440466,0.000000,-8956.491898,459.657299
587.440793,0.000000,-8882.471304,229.828649
587.441121,370.102971,-8734.430116,612.876398
587.441448,0.000000,-8882.471304,0.000000
587.441776,0.000000,-9400.615463,383.047749
587.442104,-370.102971,-9474.636058,689.485948
587.442431,-444.123565,-9622.677246,689.485948
587.442759,0.000000,-9474.636058,612.876398
587.443086,222.061783,-9918.759623,459.657299
587.443414,0.000000,-9178.553681,612.876398
587.443742,-148.041188,-8956.491898,153.219100
587.444069,0.000000,-8660.409521,229.828649
587.444397,-666.185348,-8660.409521,383.047749
587.444724,-740.205942,-8882.471304,0.000000
587.445052,-1332.370696,-8734.430116,306.438199
587.445380,-1110.308913,-8882.471304,689.485948
587.445707,-962.267725,-8882.471304,689.485948
587.446035,-518.144159,-8808.450710,536.266849
587.446362,0.000000,-8364.327145,612.876398
587.446690,296.082377,-8660.409521,842.705048
587.447018,592.164754,-8364.327145,536.266849
587.447345,222.061783,-8734.430116,766.095498
587.447673,0.000000,-9252.574275,689.485948
587.448000,-592.164754,-9474.636058,1608.800546
587.448328,-370.102971,-9622.677246,842.705048
587.448656,-370.102971,-9770.718434,1225.752797
587.448983,-148.041188,-9474.636058,766.095498
587.449311,444.123565,-8956.491898,612.876398
587.449639,740.205942,-8364.327145,995.924147
587.449966,1036.288319,-7698.141797,383.047749
587.450294,296.082377,-7772.162391,229.828649
587.450621,0.000000,-8142.265362,229.828649
587.450949,-444.123565,-8808.450710,536.266849
587.451277,-814.226536,-9252.574275,689.485948
587.451604,-666.185348,-9622.677246,995.924147
587.451932,-370.102971,-9474.636058,612.876398
587.452259,-296.082377,-9178.553681,536.266849
587.452587,0.000000,-8808.450710,459.657299
587.452915,370.102971,-8364.327145,153.219100
587.453242,148.041188,-8216.285956,612.876398
587.453570,0.000000,-8586.388927,229.828649
587.453897,-296.082377,-9104.533087,383.047749
587.454225,-740.205942,-9548.656652,459.657299
587.454553,-888.247130,-9770.718434,689.485948
587.454880,-888.247130,-9918.759623,1072.533697
587.455208,-592.164754,-9622.677246,153.219100
587.455535,-370.102971,-9400.615463,459.657299
587.455863,222.061783,-9104.533087,306.438199
587.456191,518.144159,-8956.491898,306.438199
587.456518,444.123565,-8586.388927,306.438199
587.456846,666.185348,-9474.636058,612.876398
587.457173,0.000000,-9696.697840,919.314598
587.457501,-666.185348,-9844.739029,1072.533697
587.457829,-740.205942,-9992.780217,1149.143247
587.458156,-888.247130,-9918.759623,995.924147
587.458484,-370.102971,-9030.512492,689.485948
587.458812,-222.061783,-9252.574275,306.438199
587.459139,-444.123565,-8660.409521,536.266849
587.459467,-518.144159,-8808.450710,459.657299
587.459794,-518.144159,-8808.450710,612.876398
587.460122,-592.164754,-9104.533087,612.876398
587.460450,-888.247130,-9400.615463,1378.971896
587.460777,-592.164754,-9622.677246,842.705048
587.461105,-518.144159,-9770.718434,842.705048
587.461432,-740.205942,-9474.636058,383.047749
587.461760,-518.144159,-9326.594869,0.000000
587.462087,0.000000,-9326.594869,1302.362347
587.462415,-296.082377,-9474.636058,612.876398
587.462742,-222.061783,-9548.656652,689.485948
587.463070,-444.123565,-9548.656652,612.876398
587.463397,-518.144159,-9548.656652,766.095498
587.463725,-296.082377,-9474.636058,689.485948
587.464052,-666.185348,-9178.553681,306.438199
587.464380,-666.185348,-8882.471304,229.828649
587.464707,-592.164754,-8290.306550,153.219100
587.465035,-592.164754,-8142.265362,0.000000
587.465362,-370.102971,-7846.182985,383.047749
587.465690,-592.164754,-8290.306550,229.828649
587.466017,-370.102971,-8734.430116,612.876398
587.466345,-592.164754,-8660.409521,766.095498
587.466672,-444.123565,-9104.533087,689.485948
587.467000,-370.102971,-9252.574275,1378.971896
587.467327,-370.102971,-8734.430116,689.485948
587.467655,-518.144159,-8956.491898,766.095498
587.467982,-296.082377,-8734.430116,306.438199
587.468310,-370.102971,-8882.471304,536.266849
587.468637,-370.102971,-9030.512492,459.657299
587.468965,-222.061783,-8882.471304,612.876398
587.469292,-444.123565,-8734.430116,842.705048
587.469620,-370.102971,-8956.491898,612.876398
587.469947,-592.164754,-8882.471304,536.266849
587.470275,-370.102971,-8882.471304,383.047749
587.470602,148.041188,-8734.430116,766.095498
587.470930,148.041188,-8956.491898,0.000000
587.471257,148.041188,-9030.512492,536.266849
587.471585,0.000000,-9252.574275,766.095498
587.471912,0.000000,-9178.553681,689.485948
587.472240,222.061783,-9252.574275,612.876398
587.472567,444.123565,-8956.491898,306.438199
587.472895,0.000000,-9178.553681,536.266849
587.473222,-148.041188,-9178.553681,229.828649
587.473550,-222.061783,-9030.512492,229.828649
587.473877,-296.082377,-8660.409521,306.438199
587.474205,-444.123565,-8586.388927,689.485948
587.474532,0.000000,-8808.450710,306.438199
587.474860,-296.082377,-8882.471304,459.657299
587.475188,0.000000,-8956.491898,459.657299
587.475515,0.000000,-9474.636058,612.876398
587.475843,-370.102971,-9104.533087,459.657299
587.476170,0.000000,-9400.615463,459.657299
587.476498,-370.102971,-9548.656652,459.657299
587.476825,-222.061783,-9622.677246,766.095498
587.477153,-148.041188,-9622.677246,842.705048
587.477480,0.000000,-9030.512492,919.314598
587.477808,0.000000,-9474.636058,919.314598
587.478135,0.000000,-9474.636058,459.657299
587.478463,74.020594,-9030.512492,612.876398
587.478790,-148.041188,-8808.450710,689.485948
587.479118,0.000000,-8808.450710,612.876398
587.479445,0.000000,-8882.471304,229.828649
587.479773,0.000000,-9326.594869,383.047749
587.480100,-296.082377,-9400.615463,229.828649
587.480428,74.020594,-9548.656652,306.438199
587.480755,148.041188,-9622.677246,689.485948
587.481083,222.061783,-9400.615463,1455.581446
587.481410,222.061783,-9326.594869,919.314598
587.481738,222.061783,-9030.512492,459.657299
587.482065,370.102971,-9400.615463,536.266849
587.482393,74.020594,-9178.553681,76.609550
587.482720,222.061783,-9030.512492,536.266849
587.483048,0.000000,-8808.450710,612.876398
587.483375,-370.102971,-9030.512492,612.876398
587.483703,-444.123565,-9252.574275,153.219100
587.484030,-370.102971,-9030.512492,153.219100
587.484358,-222.061783,-9030.512492,766.095498
587.484685,-296.082377,-8956.491898,459.657299
587.485013,-222.061783,-9252.574275,383.047749
587.485340,-148.041188,-9326.594869,536.266849
587.485668,0.000000,-9104.533087,536.266849
587.485995,0.000000,-9326.594869,612.876398
587.486323,0.000000,-9474.636058,612.876398
587.486650,-296.082377,-9474.636058,536.266849
587.486978,-444.123565,-9104.533087,536.266849
587.487305,-518.144159,-9030.512492,689.485948
587.487633,-444.123565,-9030.512492,306.438199
587.487960,-222.061783,-9252.574275,612.876398
587.488288,-592.164754,-8956.491898,383.047749
587.488615,-296.082377,-8882.471304,383.047749
587.488943,-296.082377,-8882.471304,536.266849
587.489270,-444.123565,-9252.574275,306.438199
587.489598,0.000000,-9104.533087,995.924147
587.489925,-148.041188,-9104.533087,766.095498
587.490253,-222.061783,-8808.450710,459.657299
587.490580,0.000000,-8956.491898,689.485948
587.490908,0.000000,-9178.553681,306.438199
587.491235,-518.144159,-8882.471304,689.485948
587.491563,-222.061783,-9030.512492,306.438199
587.491890,-518.144159,-9030.512492,536.266849
587.492218,-814.226536,-9178.553681,459.657299
587.492545,-814.226536,-9252.574275,689.485948
587.492873,-592.164754,-9104.533087,689.485948
587.493200,-740.205942,-8808.450710,689.485948
587.493528,-296.082377,-9178.553681,383.047749
587.493855,-222.061783,-8956.491898,383.047749
587.494183,-296.082377,-9030.512492,459.657299
587.494510,-296.082377,-9104.533087,919.314598
587.494838,-296.082377,-9326.594869,612.876398
587.495165,-370.102971,-9252.574275,612.876398
587.495493,-666.185348,-9326.594869,689.485948
587.495820,-740.205942,-8882.471304,612.876398
587.496148,-888.247130,-8956.491898,536.266849
587.496475,-740.205942,-8882.471304,842.705048
587.496803,-740.205942,-8586.388927,306.438199
587.497130,-888.247130,-8512.368333,306.438199
587.497458,-518.144159,-8586.388927,459.657299
587.497785,-814.226536,-8660.409521,459.657299
587.498113,-592.164754,-8956.491898,459.657299
587.498440,-740.205942,-8808.450710,842.705048
587.498768,-518.144159,-8882.471304,612.876398
587.499095,-518.144159,-9104.533087,842.705048
587.499423,-148.041188,-9178.553681,536.266849
587.499750,222.061783,-9104.533087,306.438199
587.500078,-370.102971,-8882.471304,1225.752797
587.500405,0.000000,-8808.450710,536.266849
587.500733,0.000000,-9030.512492,536.266849
587.501060,-222.061783,-9252.574275,536.266849
587.501388,-296.082377,-9548.656652,689.485948
587.501716,-296.082377,-8512.368333,919.314598
587.502043,-296.082377,-9030.512492,689.485948
587.502371,-222.061783,-9030.512492,612.876398
587.502698,0.000000,-9178.553681,459.657299
587.503026,74.020594,-9104.533087,459.657299
587.503353,222.061783,-8660.409521,612.876398
587.503681,148.041188,-8882.471304,383.047749
587.504008,0.000000,-9030.512492,459.657299
587.504336,0.000000,-9030.512492,536.266849
587.504663,-222.061783,-9104.533087,153.219100
587.504991,-370.102971,-8808.450710,766.095498
587.505318,0.000000,-8660.409521,76.609550
587.505646,0.000000,-9104.533087,153.219100
587.505973,0.000000,-8882.471304,383.047749
587.506301,0.000000,-8956.491898,306.438199
587.506628,148.041188,-8956.491898,536.266849
587.506956,222.061783,-9030.512492,383.047749
587.507283,0.000000,-9252.574275,229.828649
587.507611,0.000000,-9400.615463,536.266849
587.507938,0.000000,-9474.636058,536.266849
587.508266,0.000000,-9400.615463,689.485948
587.508593,-74.020594,-9252.574275,766.095498
587.508921,-222.061783,-9474.636058,919.314598
587.509248,-296.082377,-9474.636058,536.266849
587.509576,-370.102971,-9770.718434,536.266849
587.509903,-518.144159,-9178.553681,459.657299
587.510231,-148.041188,-9030.512492,1225.752797
587.510558,0.000000,-9326.594869,306.438199
587.510886,0.000000,-9400.615463,383.047749
587.511213,-370.102971,-9104.533087,229.828649
587.511541,-148.041188,-9178.553681,689.485948
587.511868,-444.123565,-9030.512492,536.266849
587.512196,74.020594,-9178.553681,229.828649
587.512523,0.000000,-9474.636058,306.438199
587.512851,-148.041188,-9326.594869,612.876398
587.513178,0.000000,-9474.636058,536.266849
587.513506,-370.102971,-8882.471304,153.219100
587.513833,0.000000,-9326.594869,995.924147
587.514161,0.000000,-9326.594869,689.485948
587.514488,-148.041188,-9104.533087,536.266849
587.514816,-148.041188,-9178.553681,383.047749
587.515143,0.000000,-9400.615463,612.876398
587.515471,0.000000,-9474.636058,459.657299
587.515798,-222.061783,-9400.615463,536.266849
587.516126,0.000000,-9548.656652,689.485948
587.516453,74.020594,-9178.553681,689.485948
587.516781,74.020594,-9252.574275,612.876398
587.517108,0.000000,-9178.553681,995.924147
587.517436,148.041188,-9252.574275,612.876398
587.517763,-222.061783,-9030.512492,689.485948
587.518091,-666.185348,-9104.533087,459.657299
587.518418,-592.164754,-9326.594869,689.485948
587.518746,-740.205942,-9104.533087,842.705048
587.519073,-444.123565,-8734.430116,766.095498
587.519401,-740.205942,-8808.450710,842.705048
587.519728,-592.164754,-8808.450710,689.485948
587.520056,-444.123565,-8586.388927,766.095498
587.520383,-148.041188,-8586.388927,766.095498
587.520711,-148.041188,-8808.450710,919.314598
587.521038,-518.144159,-8882.471304,536.266849
587.521366,-592.164754,-9104.533087,612.876398
587.521693,-518.144159,-9326.594869,842.705048
587.522021,-740.205942,-9326.594869,842.705048
587.522348,-1036.288319,-8586.388927,766.095498
587.522676,-592.164754,-9030.512492,612.876398
587.523003,-592.164754,-8808.450710,612.876398
587.523331,-518.144159,-8586.388927,689.485948
587.523658,-518.144159,-8586.388927,383.047749
587.523986,-148.041188,-8660.409521,689.485948
587.524313,-222.061783,-8364.327145,229.828649
587.524641,-370.102971,-8734.430116,76.609550
587.524968,-296.082377,-8808.450710,383.047749
587.525296,-370.102971,-8882.471304,689.485948
587.525623,0.000000,-9104.533087,536.266849
587.525951,-370.102971,-8660.409521,919.314598
587.526278,-592.164754,-8882.471304,459.657299
587.526606,-444.123565,-8956.491898,306.438199
587.526933,-518.144159,-8882.471304,459.657299
587.527261,-444.123565,-8882.471304,459.657299
587.527588,-296.082377,-8808.450710,536.266849
587.527916,-296.082377,-8734.430116,459.657299
587.528243,-444.123565,-8808.450710,536.266849
587.528571,-444.123565,-9104.533087,383.047749
587.528899,-222.061783,-9030.512492,383.047749
587.529226,-666.185348,-8438.347739,459.657299
587.529554,-222.061783,-8956.491898,459.657299
587.529881,0.000000,-9326.594869,306.438199
587.530209,-148.041188,-9326.594869,766.095498
587.530536,0.000000,-9326.594869,689.485948
587.530864,0.000000,-8734.430116,612.876398
587.531191,-296.082377,-9030.512492,536.266849
587.531519,-370.102971,-9030.512492,459.657299
587.531846,-592.164754,-8882.471304,383.047749
587.532174,-222.061783,-8882.471304,536.266849
587.532501,-222.061783,-8808.450710,766.095498
587.532829,-296.082377,-8956.491898,459.657299
587.533156,-296.082377,-9178.553681,689.485948
587.533484,-148.041188,-9030.512492,612.876398
587.533811,-222.061783,-9178.553681,612.876398
587.534139,-148.041188,-9474.636058,919.314598
587.534466,0.000000,-9474.636058,919.314598
587.534794,0.000000,-9326.594869,383.047749
587.535121,74.020594,-9474.636058,536.266849
587.535449,-148.041188,-9400.615463,612.876398
587.535776,-296.082377,-9474.636058,612.876398
587.536104,-444.123565,-9252.574275,919.314598
587.536431,-296.082377,-9474.636058,383.047749
587.536759,-222.061783,-9474.636058,459.657299
587.537086,-148.041188,-9474.636058,459.657299
587.537414,0.000000,-9326.594869,766.095498
587.537741,148.041188,-9326.594869,612.876398
587.538069,0.000000,-9252.574275,536.266849
587.538396,0.000000,-9326.594869,842.705048
587.538724,0.000000,-9252.574275,536.266849
587.539051,-222.061783,-9252.574275,459.657299
587.539379,0.000000,-9252.574275,919.314598
587.539706,-222.061783,-9104.533087,1378.971896
587.540034,-518.144159,-9104.533087,919.314598
587.540361,-444.123565,-9178.553681,842.705048
587.540689,-370.102971,-9178.553681,689.485948
587.541016,-444.123565,-9104.533087,1072.533697
587.541344,-888.247130,-9178.553681,689.485948
587.541671,0.000000,-9178.553681,459.657299
587.541999,-148.041188,-9326.594869,919.314598
587.542326,-296.082377,-9548.656652,766.095498
587.542654,-370.102971,-9474.636058,612.876398
587.542981,-296.082377,-9178.553681,766.095498
587.543309,0.000000,-9696.697840,842.705048
587.543636,0.000000,-9622.677246,536.266849
587.543964,0.000000,-9474.636058,459.657299
587.544291,-148.041188,-9178.553681,459.657299
587.544619,74.020594,-8734.430116,689.485948
587.544946,-148.041188,-8882.471304,229.828649
587.545274,-370.102971,-9178.553681,536.266849
587.545601,-592.164754,-9104.533087,689.485948
587.545929,-296.082377,-9178.553681,306.438199
587.546256,-148.041188,-9104.533087,919.314598
587.546584,-74.020594,-8660.409521,229.828649
587.546911,0.000000,-8956.491898,766.095498
587.547239,0.000000,-8882.471304,536.266849
587.547566,-370.102971,-8808.450710,383.047749
587.547894,-148.041188,-8956.491898,383.047749
587.548221,-148.041188,-8882.471304,766.095498
587.548549,-666.185348,-9030.512492,229.828649
587.548876,-222.061783,-9400.615463,383.047749
587.549204,-666.185348,-9178.553681,306.438199
587.549531,-518.144159,-9030.512492,536.266849
587.549859,-222.061783,-8882.471304,919.314598
587.550186,-222.061783,-8882.471304,459.657299
587.550514,-518.144159,-9030.512492,383.047749
587.550841,-518.144159,-8808.450710,536.266849
587.551169,-444.123565,-8882.471304,536.266849
587.551496,-370.102971,-8808.450710,842.705048
587.551824,-370.102971,-8808.450710,383.047749
587.552151,-518.144159,-8808.450710,689.485948
587.552479,-444.123565,-8586.388927,612.876398
587.552806,-740.205942,-8438.347739,689.485948
587.553134,-740.205942,-8512.368333,689.485948
587.553461,-444.123565,-8364.327145,842.705048
587.553789,-740.205942,-8512.368333,383.047749
587.554116,-666.185348,-8660.409521,536.266849
587.554444,-592.164754,-8808.450710,536.266849
587.554771,-666.185348,-9104.533087,689.485948
587.555099,-444.123565,-8882.471304,689.485948
587.555427,-518.144159,-8882.471304,306.438199
587.555754,-296.082377,-9104.533087,306.438199
587.556082,-296.082377,-9030.512492,306.438199
587.556409,-222.061783,-9030.512492,383.047749
587.556737,0.000000,-9252.574275,306.438199
587.557064,-222.061783,-8882.471304,536.266849
587.557392,-148.041188,-9030.512492,306.438199
587.557719,0.000000,-8882.471304,229.828649
587.558047,0.000000,-9030.512492,229.828649
587.558374,-222.061783,-9104.533087,383.047749
587.558702,74.020594,-8882.471304,229.828649
587.559029,0.000000,-8956.491898,383.047749
587.559357,0.000000,-9030.512492,229.828649
587.559684,0.000000,-9178.553681,536.266849
587.560012,0.000000,-9326.594869,689.485948
587.560339,0.000000,-9474.636058,689.485948
587.560667,-222.061783,-9548.656652,459.657299
587.560994,0.000000,-9622.677246,689.485948
587.561322,-148.041188,-9770.718434,612.876398
587.561649,-148.041188,-9548.656652,459.657299
587.561977,0.000000,-9326.594869,153.219100
587.562304,-148.041188,-9252.574275,383.047749
587.562632,0.000000,-9252.574275,459.657299
587.562959,0.000000,-9178.553681,689.485948
587.563287,0.000000,-9252.574275,536.266849
587.563614,-222.061783,-9178.553681,842.705048
587.563942,0.000000,-9326.594869,612.876398
587.564270,-444.123565,-9400.615463,766.095498
587.564597,-666.185348,-9252.574275,842.705048
587.564925,-296.082377,-9252.574275,995.924147
587.565252,-148.041188,-9178.553681,689.485948
587.565580,-148.041188,-9252.574275,383.047749
587.565908,-296.082377,-9326.594869,766.095498
587.566235,-296.082377,-9178.553681,766.095498
587.566563,-592.164754,-9326.594869,689.485948
587.566890,-666.185348,-9326.594869,1302.362347
587.567218,-222.061783,-9178.553681,459.657299
587.567546,0.000000,-9104.533087,459.657299
587.567873,-148.041188,-9252.574275,459.657299
587.568201,0.000000,-9252.574275,459.657299
587.568529,0.000000,-9326.594869,459.657299
587.568856,148.041188,-9252.574275,919.314598
587.569184,-222.061783,-9400.615463,459.657299
587.569511,-296.082377,-9400.615463,536.266849
587.569839,-370.102971,-9326.594869,612.876398
587.570167,-370.102971,-9104.533087,459.657299
587.570494,-222.061783,-9104.533087,766.095498
587.570822,0.000000,-8956.491898,229.828649
587.571149,-296.082377,-9030.512492,612.876398
587.571477,-222.061783,-8734.430116,306.438199
587.571805,-222.061783,-8512.368333,306.438199
587.572132,0.000000,-8364.327145,536.266849
587.572460,74.020594,-8660.409521,306.438199
587.572787,0.000000,-8882.471304,459.657299
587.573115,0.000000,-9178.553681,459.657299
587.573443,0.000000,-9400.615463,229.828649
587.573770,0.000000,-9400.615463,689.485948
587.574098,0.000000,-9178.553681,306.438199
587.574425,0.000000,-9400.615463,689.485948
587.574753,148.041188,-9326.594869,229.828649
587.575081,0.000000,-9178.553681,459.657299
587.575408,-222.061783,-9178.553681,229.828649
587.575736,-296.082377,-9178.553681,229.828649
587.576063,-444.123565,-8882.471304,383.047749
587.576391,-296.082377,-9252.574275,459.657299
587.576719,-296.082377,-8882.471304,153.219100
587.577046,-444.123565,-8882.471304,459.657299
587.577374,-444.123565,-8660.409521,995.924147
587.577701,-148.041188,-9104.533087,459.657299
587.578029,-370.102971,-8956.491898,689.485948
587.578357,-222.061783,-9030.512492,842.705048
587.578684,-296.082377,-8734.430116,612.876398
587.579012,-296.082377,-8586.388927,459.657299
587.579339,-666.185348,-8512.368333,766.095498
587.579667,-666.185348,-8734.430116,919.314598
587.579995,-740.205942,-8808.450710,536.266849
587.580322,-666.185348,-8660.409521,536.266849
587.580650,-592.164754,-8882.471304,612.876398
587.580977,-740.205942,-8512.368333,383.047749
587.581305,-370.102971,-8882.471304,536.266849
587.581633,-518.144159,-8734.430116,842.705048
587.581960,-814.226536,-9030.512492,689.485948
587.582288,-666.185348,-9252.574275,842.705048
587.582616,0.000000,-9474.636058,1072.533697
587.582943,-592.164754,-9178.553681,612.876398
587.583271,-592.164754,-9030.512492,536.266849
587.583598,-444.123565,-9104.533087,766.095498
587.583926,-518.144159,-8660.409521,306.438199
587.584254,-296.082377,-8956.491898,995.924147
587.584581,-296.082377,-8290.306550,229.828649
587.584909,-666.185348,-8586.388927,536.266849
587.585236,-666.185348,-8882.471304,459.657299
587.585564,-444.123565,-9104.533087,536.266849
587.585892,-296.082377,-9030.512492,229.828649
587.586219,0.000000,-9030.512492,689.485948
587.586547,-148.041188,-9104.533087,689.485948
587.586874,0.000000,-9326.594869,612.876398
587.587202,0.000000,-9178.553681,383.047749
587.587530,0.000000,-9326.594869,459.657299
587.587857,222.061783,-9252.574275,612.876398
587.588185,0.000000,-9326.594869,383.047749
587.588512,-222.061783,-9474.636058,536.266849
587.588840,-444.123565,-9474.636058,536.266849
587.589168,0.000000,-9326.594869,76.609550
587.589495,0.000000,-9178.553681,0.000000
587.589823,-222.061783,-8956.491898,536.266849
587.590150,0.000000,-9326.594869,459.657299
587.590478,-222.061783,-9252.574275,689.485948
587.590806,-222.061783,-9178.553681,689.485948
587.591133,0.000000,-9178.553681,536.266849
587.591461,0.000000,-9178.553681,536.266849
587.591788,-222.061783,-9548.656652,689.485948
587.592116,-444.123565,-9474.636058,766.095498
587.592444,-518.144159,-8882.471304,689.485948
587.592771,-296.082377,-8956.491898,995.924147
587.593099,-518.144159,-9030.512492,383.047749
587.593426,-666.185348,-9030.512492,536.266849
587.593754,-444.123565,-9104.533087,536.266849
587.594082,-518.144159,-9030.512492,689.485948
587.594409,-518.144159,-9400.615463,842.705048
587.594737,-444.123565,-9104.533087,383.047749
587.595064,-296.082377,-9326.594869,459.657299
587.595392,-148.041188,-9696.697840,612.876398
587.595720,-148.041188,-9474.636058,459.657299
587.596047,0.000000,-9400.615463,766.095498
587.596375,222.061783,-9178.553681,842.705048
587.596703,74.020594,-9400.615463,995.924147
587.597030,0.000000,-9400.615463,306.438199
587.597358,-148.041188,-9252.574275,459.657299
587.597685,0.000000,-9326.594869,459.657299
587.598013,-222.061783,-8882.471304,612.876398
587.598341,-444.123565,-9178.553681,0.000000
587.598668,0.000000,-9178.553681,0.000000
587.598996,0.000000,-9030.512492,153.219100
587.599323,148.041188,-9178.553681,0.000000
587.599651,-444.123565,-9030.512492,0.000000
587.599979,74.020594,-9178.553681,0.000000
587.600306,148.041188,-9178.553681,383.047749
587.600634,0.000000,-9326.594869,459.657299
587.600961,0.000000,-9252.574275,383.047749
587.601289,-222.061783,-9474.636058,229.828649
587.601617,0.000000,-9400.615463,995.924147
587.601944,-296.082377,-9030.512492,612.876398
587.602272,-222.061783,-9104.533087,536.266849
587.602599,-370.102971,-9030.512492,459.657299
587.602927,0.000000,-9030.512492,536.266849
587.603255,0.000000,-8734.430116,689.485948
587.603582,0.000000,-8882.471304,766.095498
587.603910,-518.144159,-9252.574275,766.095498
587.604237,-592.164754,-9030.512492,919.314598
587.604565,-444.123565,-8956.491898,842.705048
587.604893,-518.144159,-8586.388927,766.095498
587.605220,-296.082377,-8660.409521,995.924147
587.605548,-666.185348,-8734.430116,919.314598
587.605875,-592.164754,-8956.491898,842.705048
587.606203,-888.247130,-8660.409521,766.095498
587.606531,-814.226536,-8512.368333,1072.533697
587.606858,-740.205942,-8512.368333,383.047749
587.607186,-740.205942,-8734.430116,612.876398
587.607513,-518.144159,-9104.533087,689.485948
587.607841,-444.123565,-9178.553681,919.314598
587.608169,0.000000,-9178.553681,536.266849
587.608496,0.000000,-9326.594869,306.438199
587.608824,-222.061783,-8956.491898,842.705048
587.609151,0.000000,-9400.615463,842.705048
587.609479,0.000000,-9474.636058,766.095498
587.609807,0.000000,-9474.636058,766.095498
587.610134,296.082377,-8882.471304,842.705048
587.610462,74.020594,-9326.594869,919.314598
587.610790,-296.082377,-9252.574275,383.047749
587.611117,-370.102971,-9030.512492,383.047749
587.611445,-148.041188,-8808.450710,306.438199
587.611772,0.000000,-8808.450710,536.266849
587.612100,-518.144159,-8734.430116,612.876398
587.612428,-148.041188,-8956.491898,612.876398
587.612755,-148.041188,-9104.533087,383.047749
587.613083,-444.123565,-9104.533087,612.876398
587.613410,-370.102971,-9474.636058,536.266849
587.613738,-444.123565,-9104.533087,383.047749
587.614066,-444.123565,-9252.574275,612.876398
587.614393,-592.164754,-9252.574275,536.266849
587.614721,-518.144159,-9178.553681,383.047749
587.615048,-666.185348,-8956.491898,536.266849
587.615376,-370.102971,-9400.615463,383.047749
587.615704,-444.123565,-9030.512492,612.876398
587.616031,-444.123565,-9104.533087,536.266849
587.616359,-592.164754,-9104.533087,536.266849
587.616686,-444.123565,-9030.512492,612.876398
587.617014,-296.082377,-8882.471304,612.876398
587.617342,-296.082377,-8956.491898,766.095498
587.617669,-370.102971,-9104.533087,689.485948
587.617997,-444.123565,-9326.594869,766.095498
587.618324,-370.102971,-9178.553681,766.095498
587.618652,0.000000,-8956.491898,689.485948
587.618980,-74.020594,-8808.450710,766.095498
587.619307,0.000000,-8956.491898,383.047749
587.619635,0.000000,-8808.450710,459.657299
587.619962,0.000000,-8956.491898,383.047749
587.620290,-296.082377,-8882.471304,229.828649
587.620618,0.000000,-8660.409521,459.657299
587.620945,74.020594,-9030.512492,153.219100
587.621273,0.000000,-9178.553681,153.219100
587.621600,296.082377,-9474.636058,306.438199
587.621928,74.020594,-9474.636058,612.876398
587.622256,74.020594,-8956.491898,383.047749
587.622583,222.061783,-9326.594869,459.657299
587.622911,0.000000,-9252.574275,459.657299
587.623238,0.000000,-9252.574275,459.657299
587.623566,0.000000,-9474.636058,229.828649
587.623894,0.000000,-9104.533087,383.047749
587.624221,-370.102971,-8512.368333,766.095498
587.624549,-148.041188,-8882.471304,612.876398
587.624877,0.000000,-9104.533087,612.876398
587.625204,0.000000,-9178.553681,612.876398
587.625532,-296.082377,-9178.553681,536.266849
587.625859,-444.123565,-8734.430116,995.924147
587.626187,-296.082377,-9104.533087,689.485948
587.626515,-296.082377,-9326.594869,536.266849
587.626842,-296.082377,-9400.615463,995.924147
587.627170,0.000000,-9400.615463,1532.190996
587.627497,0.000000,-9104.533087,995.924147
587.627825,-814.226536,-9252.574275,919.314598
587.628153,-592.164754,-9326.594869,842.705048
587.628480,-518.144159,-9178.553681,766.095498
587.628808,-370.102971,-9178.553681,612.876398
587.629135,-296.082377,-8734.430116,1378.971896
587.629463,-370.102971,-9030.512492,995.924147
587.629791,-444.123565,-9326.594869,842.705048
587.630118,-222.061783,-9326.594869,842.705048
587.630446,-370.102971,-9252.574275,459.657299
587.630773,-444.123565,-9030.512492,919.314598
587.631101,0.000000,-9400.615463,766.095498
587.631429,0.000000,-9400.615463,766.095498
587.631756,0.000000,-9326.594869,689.485948
587.632084,0.000000,-9178.553681,612.876398
587.632411,74.020594,-8956.491898,612.876398
587.632739,-148.041188,-9178.553681,459.657299
587.633067,-222.061783,-8882.471304,383.047749
587.633394,-222.061783,-9030.512492,383.047749
587.633722,-148.041188,-9104.533087,459.657299
587.634049,-296.082377,-8956.491898,536.266849
587.634377,-148.041188,-8660.409521,153.219100
587.634705,-148.041188,-8956.491898,229.828649
587.635032,-222.061783,-9104.533087,306.438199
587.635360,-296.082377,-9104.533087,383.047749
587.635687,-296.082377,-9104.533087,383.047749
587.636015,74.020594,-9030.512492,842.705048
587.636343,-296.082377,-8734.430116,306.438199
587.636670,-370.102971,-8882.471304,383.047749
587.636998,-370.102971,-8882.471304,536.266849
587.637325,-518.144159,-8956.491898,536.266849
587.637653,-518.144159,-8364.327145,229.828649
587.637981,-370.102971,-8586.388927,229.828649
587.638308,-296.082377,-8660.409521,306.438199
587.638636,-444.123565,-8808.450710,459.657299
587.638964,-592.164754,-8882.471304,459.657299
587.639291,-518.144159,-8808.450710,536.266849
587.639619,-296.082377,-9030.512492,1149.143247
587.639946,-444.123565,-9178.553681,612.876398
587.640274,-370.102971,-9252.574275,536.266849
587.640602,-370.102971,-9104.533087,612.876398
587.640929,-444.123565,-8808.450710,689.485948
587.641257,74.020594,-9030.512492,612.876398
587.641584,-592.164754,-8586.388927,536.266849
587.641912,-518.144159,-8808.450710,306.438199
587.642240,-444.123565,-8734.430116,153.219100
587.642567,0.000000,-8808.450710,459.657299
587.642895,-444.123565,-8808.450710,306.438199
587.643222,0.000000,-8882.471304,689.485948
587.643550,-444.123565,-9030.512492,459.657299
587.643878,-222.061783,-9178.553681,766.095498
587.644205,-296.082377,-9104.533087,766.095498
587.644533,-148.041188,-9400.615463,306.438199
587.644860,0.000000,-9252.574275,1072.533697
587.645188,-296.082377,-9400.615463,536.266849
587.645516,0.000000,-9326.594869,536.266849
587.645843,0.000000,-9400.615463,766.095498
587.646171,-296.082377,-8956.491898,459.657299
587.646498,-370.102971,-8660.409521,689.485948
587.646826,0.000000,-9474.636058,383.047749
587.647154,-296.082377,-9474.636058,689.485948
587.647481,-148.041188,-9400.615463,306.438199
587.647809,-296.082377,-9474.636058,612.876398
587.648136,0.000000,-9178.553681,536.266849
587.648464,-518.144159,-9474.636058,842.705048
587.648792,-592.164754,-9548.656652,689.485948
587.649119,-518.144159,-9548.656652,995.924147
587.649447,-518.144159,-9474.636058,689.485948
587.649774,-296.082377,-9474.636058,919.314598
587.650102,-296.082377,-9326.594869,459.657299
587.650430,-444.123565,-9326.594869,536.266849
587.650757,-296.082377,-9252.574275,306.438199
587.651085,-296.082377,-9178.553681,536.266849
587.651412,0.000000,-9104.533087,306.438199
587.651740,0.000000,-9326.594869,383.047749
587.652068,-148.041188,-9474.636058,459.657299
587.652395,0.000000,-9474.636058,612.876398
587.652723,0.000000,-9474.636058,612.876398
587.653051,148.041188,-9400.615463,995.924147
587.653378,518.144159,-9030.512492,689.485948
587.653706,370.102971,-9474.636058,919.314598
587.654033,148.041188,-9252.574275,459.657299
587.654361,74.020594,-9178.553681,459.657299
587.654689,0.000000,-9178.553681,229.828649
587.655016,-370.102971,-8956.491898,995.924147
587.655344,0.000000,-9178.553681,76.609550
587.655671,0.000000,-9252.574275,536.266849
587.655999,-222.061783,-8882.471304,383.047749
587.656327,-296.082377,-8808.450710,536.266849
587.656654,222.061783,-8882.471304,459.657299
587.656982,0.000000,-9030.512492,612.876398
587.657309,0.000000,-8808.450710,536.266849
587.657637,0.000000,-8660.409521,612.876398
587.657965,0.000000,-8882.471304,459.657299
587.658292,0.000000,-8512.368333,612.876398
587.658620,0.000000,-8512.368333,459.657299
587.658947,-592.164754,-8586.388927,612.876398
587.659275,-296.082377,-8808.450710,689.485948
587.659603,-592.164754,-8808.450710,612.876398
587.659930,-666.185348,-8586.388927,842.705048
587.660258,-296.082377,-9104.533087,919.314598
587.660585,-592.164754,-9104.533087,842.705048
587.660913,-740.205942,-9104.533087,842.705048
587.661241,-518.144159,-9030.512492,995.924147
587.661568,-444.123565,-9030.512492,1072.533697
587.661896,-370.102971,-8660.409521,995.924147
587.662223,-296.082377,-9104.533087,766.095498
587.662551,-370.102971,-8956.491898,842.705048
587.662879,-666.185348,-8956.491898,689.485948
587.663206,-666.185348,-9178.553681,842.705048
587.663534,-444.123565,-8734.430116,1072.533697
587.663861,-518.144159,-9030.512492,459.657299
587.664189,-518.144159,-9178.553681,536.266849
587.664517,-518.144159,-9178.553681,306.438199
587.664844,-444.123565,-9104.533087,459.657299
587.665172,-148.041188,-9030.512492,459.657299
587.665500,-148.041188,-9326.594869,459.657299
587.665828,-444.123565,-9104.533087,229.828649
587.666155,-666.185348,-9178.553681,306.438199
587.666483,-222.061783,-9178.553681,76.609550
587.666811,-370.102971,-9104.533087,459.657299
587.667138,0.000000,-9178.553681,76.609550
587.667466,-222.061783,-9104.533087,229.828649
587.667794,-222.061783,-9104.533087,0.000000
587.668121,-148.041188,-8882.471304,0.000000
587.668449,-222.061783,-9030.512492,153.219100
587.668777,0.000000,-9104.533087,536.266849
587.669104,-148.041188,-9030.512492,459.657299
587.669432,-222.061783,-9252.574275,536.266849
587.669760,-222.061783,-9326.594869,459.657299
587.670087,-296.082377,-9178.553681,612.876398
587.670415,0.000000,-8734.430116,536.266849
587.670743,222.061783,-9178.553681,536.266849
587.671070,-370.102971,-8956.491898,536.266849
587.671398,-518.144159,-9178.553681,766.095498
587.671726,-666.185348,-9178.553681,459.657299
587.672053,-222.061783,-8956.491898,766.095498
587.672381,-296.082377,-9326.594869,306.438199
587.672709,-592.164754,-8734.430116,766.095498
587.673036,-518.144159,-8882.471304,306.438199
587.673364,-444.123565,-9104.533087,766.095498
587.673692,-444.123565,-8808.450710,766.095498
587.674019,-296.082377,-8882.471304,689.485948
587.674347,-296.082377,-9252.574275,995.924147
587.674675,-444.123565,-9326.594869,689.485948
587.675002,-370.102971,-9104.533087,842.705048
587.675330,-148.041188,-8956.491898,919.314598
587.675658,0.000000,-8956.491898,842.705048
587.675986,0.000000,-9178.553681,612.876398
587.676313,-148.041188,-8956.491898,536.266849
587.676641,0.000000,-9030.512492,612.876398
587.676969,-296.082377,-9104.533087,459.657299
587.677296,0.000000,-8956.491898,1149.143247
587.677624,0.000000,-9178.553681,306.438199
587.677952,0.000000,-9400.615463,612.876398
587.678279,0.000000,-9178.553681,612.876398
587.678607,0.000000,-9474.636058,383.047749
587.678935,222.061783,-9178.553681,306.438199
587.679262,296.082377,-9400.615463,306.438199
587.679590,0.000000,-9252.574275,229.828649
587.679918,0.000000,-9474.636058,459.657299
587.680245,0.000000,-9548.656652,229.828649
587.680573,-222.061783,-9474.636058,459.657299
587.680901,0.000000,-9400.615463,383.047749
587.681228,0.000000,-9252.574275,383.047749
587.681556,0.000000,-9326.594869,383.047749
587.681884,0.000000,-9326.594869,229.828649
587.682211,74.020594,-9326.594869,383.047749
587.682539,-296.082377,-9104.533087,306.438199
587.682867,0.000000,-9474.636058,689.485948
587.683194,-222.061783,-9474.636058,612.876398
587.683522,0.000000,-9474.636058,842.705048
587.683850,-296.082377,-9474.636058,919.314598
587.684177,0.000000,-9474.636058,1455.581446
587.684505,-222.061783,-9178.553681,689.485948
587.684833,-518.144159,-9252.574275,612.876398
587.685161,-444.123565,-9104.533087,689.485948
587.685488,-296.082377,-9104.533087,766.095498
587.685816,-296.082377,-8956.491898,1072.533697
587.686144,0.000000,-9030.512492,919.314598
587.686471,-740.205942,-9252.574275,612.876398
587.686799,-444.123565,-9326.594869,766.095498
587.687127,-666.185348,-9030.512492,766.095498
587.687454,-518.144159,-8956.491898,459.657299
587.687782,-222.061783,-8660.409521,459.657299
587.688110,-370.102971,-8882.471304,842.705048
587.688437,-222.061783,-8808.450710,459.657299
587.688765,-370.102971,-8882.471304,536.266849
587.689093,-370.102971,-8882.471304,536.266849
587.689420,-444.123565,-8734.430116,1072.533697
587.689748,-296.082377,-8882.471304,459.657299
587.690076,-296.082377,-8660.409521,306.438199
587.690403,-148.041188,-9104.533087,153.219100
587.690731,74.020594,-8660.409521,229.828649
587.691059,0.000000,-8660.409521,459.657299
587.691386,296.082377,-8882.471304,306.438199
587.691714,-148.041188,-9030.512492,459.657299
587.692042,0.000000,-9104.533087,229.828649
587.692369,-148.041188,-9030.512492,459.657299
587.692697,0.000000,-9178.553681,0.000000
587.693025,0.000000,-9474.636058,612.876398
587.693352,0.000000,-9178.553681,153.219100
587.693680,-296.082377,-8808.450710,383.047749
587.694008,-296.082377,-8734.430116,76.609550
587.694336,-222.061783,-8808.450710,229.828649
587.694663,-296.082377,-8956.491898,612.876398
587.694991,-222.061783,-8882.471304,689.485948
587.695319,-222.061783,-8956.491898,306.438199
587.695646,-370.102971,-9030.512492,536.266849
587.695974,-148.041188,-9252.574275,459.657299
587.696302,-296.082377,-9252.574275,766.095498
587.696629,0.000000,-8808.450710,842.705048
587.696957,0.000000,-9104.533087,612.876398
587.697285,0.000000,-9252.574275,689.485948
587.697612,-148.041188,-9326.594869,842.705048
587.697940,-148.041188,-9104.533087,612.876398
587.698268,-444.123565,-9178.553681,1225.752797
587.698595,-592.164754,-9030.512492,689.485948
587.698923,-518.144159,-9252.574275,995.924147
587.699251,-592.164754,-9252.574275,612.876398
587.699578,-592.164754,-9252.574275,842.705048
587.699906,-296.082377,-8956.491898,612.876398
587.700234,-518.144159,-9474.636058,689.485948
587.700561,-444.123565,-9400.615463,612.876398
587.700889,-370.102971,-9178.553681,842.705048
587.701217,-222.061783,-9400.615463,842.705048
587.701544,-296.082377,-9326.594869,383.047749
587.701872,-518.144159,-9400.615463,612.876398
587.702200,-740.205942,-9474.636058,766.095498
587.702527,-518.144159,-9326.594869,459.657299
587.702855,-518.144159,-9178.553681,612.876398
587.703183,-370.102971,-8882.471304,229.828649
587.703510,-518.144159,-8882.471304,612.876398
587.703838,-222.061783,-8956.491898,306.438199
587.704166,0.000000,-9030.512492,536.266849
587.704494,0.000000,-9178.553681,229.828649
587.704821,222.061783,-9474.636058,612.876398
587.705149,-518.144159,-9030.512492,842.705048
587.705477,-370.102971,-9474.636058,612.876398
587.705804,-148.041188,-9474.636058,536.266849
587.706132,0.000000,-9474.636058,689.485948
587.706460,0.000000,-9326.594869,536.266849
587.706787,-222.061783,-9326.594869,1149.143247
587.707115,-222.061783,-9326.594869,229.828649
587.707443,0.000000,-9326.594869,229.828649
587.707770,-296.082377,-8956.491898,536.266849
587.708098,-222.061783,-8808.450710,229.828649
587.708426,148.041188,-9252.574275,536.266849
587.708753,296.082377,-9326.594869,689.485948
587.709081,0.000000,-9400.615463,536.266849
587.709409,-222.061783,-9252.574275,689.485948
587.709736,-296.082377,-9030.512492,383.047749
587.710064,0.000000,-9326.594869,842.705048
587.710392,0.000000,-9030.512492,612.876398
587.710719,0.000000,-9178.553681,536.266849
587.711047,-74.020594,-9030.512492,536.266849
587.711375,-296.082377,-8956.491898,536.266849
587.711702,-666.185348,-8586.388927,612.876398
587.712030,-222.061783,-8364.327145,383.047749
587.712358,-740.205942,-8808.450710,229.828649
587.712685,-296.082377,-8734.430116,383.047749
587.713013,0.000000,-8882.471304,306.438199
587.713341,-296.082377,-9104.533087,612.876398
587.713669,0.000000,-8882.471304,153.219100
587.713996,-222.061783,-8882.471304,536.266849
587.714324,0.000000,-9104.533087,536.266849
587.714652,-296.082377,-9326.594869,383.047749
587.714979,0.000000,-9252.574275,383.047749
587.715307,74.020594,-9178.553681,689.485948
587.715635,-74.020594,-9104.533087,459.657299
587.715962,-444.123565,-9030.512492,229.828649
587.716290,-370.102971,-8882.471304,459.657299
587.716618,-370.102971,-8660.409521,459.657299
587.716945,0.000000,-8808.450710,306.438199
587.717273,-222.061783,-8734.430116,1072.533697
587.717601,-222.061783,-9178.553681,536.266849
587.717928,-296.082377,-9326.594869,612.876398
587.718256,-444.123565,-9252.574275,536.266849
587.718584,0.000000,-9474.636058,766.095498
587.718911,-296.082377,-9474.636058,536.266849
587.719239,-444.123565,-9474.636058,536.266849
587.719567,-370.102971,-9474.636058,612.876398
587.719894,-296.082377,-9104.533087,536.266849
587.720222,-296.082377,-9030.512492,536.266849
587.720550,-814.226536,-9178.553681,842.705048
587.720877,-518.144159,-8882.471304,153.219100
587.721205,-592.164754,-8734.430116,536.266849
587.721533,-592.164754,-8956.491898,383.047749
587.721860,-666.185348,-9104.533087,689.485948
587.722188,-370.102971,-8808.450710,229.828649
587.722516,-296.082377,-9030.512492,612.876398
587.722844,0.000000,-9252.574275,612.876398
587.723171,-296.082377,-9474.636058,766.095498
587.723499,-222.061783,-9252.574275,689.485948
587.723827,0.000000,-9474.636058,689.485948
587.724154,-296.082377,-9400.615463,1072.533697
587.724482,-666.185348,-9400.615463,459.657299
587.724810,-148.041188,-9474.636058,383.047749
587.725137,-370.102971,-9178.553681,459.657299
587.725465,-296.082377,-8734.430116,612.876398
587.725793,0.000000,-8956.491898,689.485948
587.726120,-148.041188,-8956.491898,459.657299
587.726448,0.000000,-9178.553681,229.828649
587.726776,-222.061783,-9178.553681,536.266849
587.727103,0.000000,-9030.512492,459.657299
587.727431,0.000000,-9104.533087,766.095498
587.727759,-148.041188,-9252.574275,842.705048
587.728086,-296.082377,-9178.553681,459.657299
587.728414,-148.041188,-9252.574275,383.047749
587.728742,-370.102971,-9252.574275,459.657299
587.729069,-296.082377,-9104.533087,689.485948
587.729397,-740.205942,-8956.491898,689.485948
587.729725,-666.185348,-8882.471304,842.705048
587.730052,-592.164754,-8956.491898,536.266849
587.730380,-518.144159,-8882.471304,536.266849
587.730708,-814.226536,-8586.388927,536.266849
587.731035,-444.123565,-9104.533087,842.705048
587.731363,-296.082377,-9178.553681,766.095498
587.731691,-444.123565,-9178.553681,842.705048
587.732018,-222.061783,-9400.615463,766.095498
587.732346,-296.082377,-9474.636058,842.705048
587.732674,-222.061783,-9326.594869,689.485948
587.733002,-444.123565,-9400.615463,995.924147
587.733329,-444.123565,-9474.636058,842.705048
587.733657,-666.185348,-9326.594869,766.095498
587.733985,-666.185348,-9178.553681,689.485948
587.734312,0.000000,-9104.533087,919.314598
587.734640,-592.164754,-8660.409521,689.485948
587.734968,-444.123565,-8956.491898,459.657299
587.735295,-296.082377,-8882.471304,689.485948
587.735623,-222.061783,-9178.553681,459.657299
587.735951,0.000000,-9326.594869,689.485948
587.736278,-296.082377,-8586.388927,612.876398
587.736606,148.041188,-9104.533087,459.657299
587.736934,0.000000,-9178.553681,536.266849
587.737261,0.000000,-9252.574275,459.657299
587.737589,-222.061783,-9252.574275,459.657299
587.737917,-370.102971,-8808.450710,766.095498
587.738244,-370.102971,-9252.574275,383.047749
587.738572,0.000000,-9400.615463,383.047749
587.738900,-222.061783,-9252.574275,459.657299
587.739227,-148.041188,-9030.512492,459.657299
587.739555,148.041188,-8660.409521,153.219100
587.739883,0.000000,-8956.491898,306.438199
587.740210,-370.102971,-9178.553681,383.047749
587.740538,-518.144159,-9178.553681,383.047749
587.740866,-296.082377,-9252.574275,459.657299
587.741193,0.000000,-9400.615463,383.047749
587.741521,-148.041188,-9104.533087,612.876398
587.741849,0.000000,-9178.553681,612.876398
587.742177,-148.041188,-9252.574275,536.266849
587.742504,-148.041188,-9030.512492,459.657299
587.742832,-148.041188,-8808.450710,76.609550
587.743160,-370.102971,-8512.368333,995.924147
587.743487,-518.144159,-8808.450710,229.828649
587.743815,-296.082377,-8956.491898,306.438199
587.744143,-370.102971,-9030.512492,459.657299
587.744470,0.000000,-9178.553681,689.485948
587.744798,0.000000,-8808.450710,536.266849
587.745126,222.061783,-8882.471304,229.828649
587.745453,74.020594,-9104.533087,536.266849
587.745781,370.102971,-9104.533087,536.266849
587.746109,74.020594,-9252.574275,383.047749
587.746436,-296.082377,-8808.450710,612.876398
587.746764,-148.041188,-9548.656652,766.095498
587.747092,-296.082377,-9622.677246,766.095498
587.747419,-148.041188,-9474.636058,612.876398
587.747747,0.000000,-9474.636058,766.095498
587.748075,-296.082377,-9104.533087,995.924147
587.748402,0.000000,-9030.512492,229.828649
587.748730,-296.082377,-8808.450710,229.828649
587.749058,-592.164754,-8808.450710,229.828649
587.749385,-666.185348,-8808.450710,229.828649
587.749713,-518.144159,-8956.491898,919.314598
587.750041,-666.185348,-8956.491898,536.266849
587.750368,-518.144159,-9252.574275,689.485948
587.750696,-370.102971,-9252.574275,536.266849
587.751024,-296.082377,-9104.533087,536.266849
587.751352,0.000000,-8956.491898,842.705048
587.751679,-592.164754,-8512.368333,766.095498
587.752007,-444.123565,-9252.574275,766.095498
587.752335,-370.102971,-9178.553681,689.485948
587.752662,-296.082377,-9178.553681,689.485948
587.752990,-296.082377,-9104.533087,919.314598
587.753318,-148.041188,-9252.574275,842.705048
587.753645,-444.123565,-9252.574275,612.876398
587.753973,-518.144159,-9326.594869,612.876398
587.754301,-592.164754,-9326.594869,229.828649
587.754628,-296.082377,-9252.574275,689.485948
587.754956,-296.082377,-9104.533087,1149.143247
587.755284,0.000000,-9474.636058,919.314598
587.755611,-222.061783,-9326.594869,459.657299
587.755939,0.000000,-9400.615463,536.266849
587.756267,-296.082377,-9326.594869,612.876398
587.756594,0.000000,-9474.636058,919.314598
587.756922,-222.061783,-9104.533087,459.657299
587.757250,-148.041188,-9400.615463,306.438199
587.757577,0.000000,-9326.594869,306.438199
587.757905,0.000000,-9326.594869,229.828649
587.758233,0.000000,-8956.491898,766.095498
587.758560,74.020594,-9326.594869,306.438199
587.758888,0.000000,-8956.491898,229.828649
587.759216,0.000000,-9030.512492,306.438199
587.759543,0.000000,-8808.450710,153.219100
587.759871,0.000000,-9030.512492,76.609550
587.760199,222.061783,-9030.512492,459.657299
587.760526,0.000000,-9326.594869,459.657299
587.760854,-296.082377,-9252.574275,459.657299
587.761182,-222.061783,-9326.594869,536.266849
587.761510,-444.123565,-9252.574275,459.657299
587.761837,0.000000,-9326.594869,76.609550
587.762165,-148.041188,-9178.553681,536.266849
587.762493,0.000000,-9104.533087,689.485948
587.762820,-148.041188,-9104.533087,689.485948
587.763148,-148.041188,-8882.471304,689.485948
587.763476,-296.082377,-9252.574275,1149.143247
587.763803,0.000000,-8882.471304,919.314598
587.764131,-222.061783,-9400.615463,612.876398
587.764459,-518.144159,-8956.491898,842.705048
587.764786,-296.082377,-9030.512492,612.876398
587.765114,-74.020594,-8438.347739,1225.752797
587.765442,0.000000,-8586.388927,842.705048
587.765769,-222.061783,-9104.533087,919.314598
587.766097,-148.041188,-8956.491898,842.705048
587.766425,-370.102971,-9030.512492,766.095498
587.766752,-592.164754,-9104.533087,229.828649
587.767080,-518.144159,-9104.533087,689.485948
587.767408,-444.123565,-9400.615463,766.095498
587.767735,-370.102971,-9252.574275,995.924147
587.768063,-148.041188,-9178.553681,383.047749
587.768391,-296.082377,-9326.594869,536.266849
587.768718,-148.041188,-9030.512492,383.047749
587.769046,-370.102971,-9252.574275,229.828649
587.769374,-222.061783,-9178.553681,306.438199
587.769701,-222.061783,-9474.636058,459.657299
587.770029,-370.102971,-9326.594869,306.438199
587.770357,-370.102971,-9474.636058,766.095498
587.770684,0.000000,-9252.574275,766.095498
587.771012,0.000000,-9178.553681,536.266849
587.771340,0.000000,-9252.574275,383.047749
587.771668,0.000000,-9104.533087,306.438199
587.771995,-222.061783,-8956.491898,76.609550
587.772323,-296.082377,-8808.450710,0.000000
587.772651,-444.123565,-8882.471304,229.828649
587.772978,-666.185348,-9178.553681,612.876398
587.773306,-592.164754,-9104.533087,536.266849
587.773634,-370.102971,-9030.512492,536.266849
587.773961,-296.082377,-8734.430116,459.657299
587.774289,-148.041188,-8734.430116,536.266849
587.774617,0.000000,-8882.471304,306.438199
587.774944,-296.082377,-8956.491898,229.828649
587.775272,-444.123565,-9252.574275,612.876398
587.775600,-814.226536,-9104.533087,612.876398
587.775927,0.000000,-9326.594869,689.485948
587.776255,-222.061783,-9326.594869,689.485948
587.776583,-148.041188,-9178.553681,536.266849
587.776910,-148.041188,-9030.512492,689.485948
587.777238,74.020594,-8586.388927,459.657299
587.777566,0.000000,-9030.512492,612.876398
587.777893,-296.082377,-8660.409521,383.047749
587.778221,-444.123565,-8808.450710,612.876398
587.778549,-518.144159,-8882.471304,536.266849
587.778876,-370.102971,-9326.594869,689.485948
587.779204,0.000000,-9030.512492,612.876398
587.779532,-148.041188,-8882.471304,766.095498
587.779859,0.000000,-8734.430116,459.657299
587.780187,148.041188,-9030.512492,459.657299
587.780515,0.000000,-8956.491898,306.438199
587.780842,0.000000,-8660.409521,536.266849
587.781170,-370.102971,-9104.533087,689.485948
587.781498,-222.061783,-9252.574275,383.047749
587.781826,-444.123565,-9622.677246,612.876398
587.782153,-222.061783,-9622.677246,995.924147
587.782481,0.000000,-9474.636058,536.266849
587.782809,74.020594,-9400.615463,842.705048
587.783136,-148.041188,-8956.491898,459.657299
587.783464,0.000000,-8956.491898,459.657299
587.783792,0.000000,-9030.512492,459.657299
587.784119,148.041188,-9030.512492,612.876398
587.784447,0.000000,-9474.636058,612.876398
587.784775,-296.082377,-9770.718434,995.924147
587.785102,-370.102971,-9548.656652,689.485948
587.785430,-370.102971,-9474.636058,842.705048
587.785758,-222.061783,-9178.553681,536.266849
587.786085,0.000000,-8808.450710,536.266849
587.786413,-148.041188,-8734.430116,306.438199
587.786741,-222.061783,-8808.450710,383.047749
587.787068,-222.061783,-8808.450710,536.266849
587.787396,-296.082377,-9252.574275,612.876398
587.787724,-296.082377,-9030.512492,612.876398
587.788051,-592.164754,-9400.615463,842.705048
587.788379,-592.164754,-9252.574275,689.485948
587.788707,0.000000,-9252.574275,766.095498
587.789034,518.144159,-8882.471304,766.095498
587.789362,1332.370696,-8660.409521,1532.190996
587.789690,1184.329507,-8734.430116,1149.143247
587.790017,1036.288319,-9178.553681,1685.410096
587.790345,444.123565,-9474.636058,1685.410096
587.790673,0.000000,-9770.718434,1915.238745
587.791000,-296.082377,-9326.594869,1838.629195
587.791328,0.000000,-8586.388927,2068.457845
587.791656,148.041188,-8956.491898,1991.848295
587.791984,0.000000,-9178.553681,1991.848295
587.792311,74.020594,-9030.512492,2145.067394
587.792639,-148.041188,-8586.388927,2221.676944
587.792967,74.020594,-7772.162391,2374.896044
587.793294,0.000000,-8808.450710,2221.676944
587.793622,-518.144159,-8660.409521,2451.505594
587.793950,-592.164754,-8586.388927,2604.724693
587.794277,-888.247130,-8808.450710,2757.943793
587.794605,-518.144159,-8660.409521,2911.162892
587.794933,-962.267725,-8882.471304,2681.334243
587.795260,-740.205942,-8734.430116,2604.724693
587.795588,-814.226536,-8808.450710,2911.162892
587.795916,-888.247130,-9104.533087,3294.210641
587.796243,-740.205942,-8882.471304,3217.601092
587.796571,-962.267725,-8512.368333,3140.991542
587.796899,-740.205942,-8586.388927,3294.210641
587.797226,-666.185348,-8734.430116,3294.210641
587.797554,-444.123565,-8808.450710,3140.991542
587.797882,-444.123565,-8808.450710,3677.258390
587.798209,-296.082377,-8586.388927,2834.553343
587.798537,0.000000,-8882.471304,3217.601092
587.798865,0.000000,-8882.471304,3370.820191
587.799192,-222.061783,-9326.594869,3447.429741
587.799520,0.000000,-9326.594869,3524.039291
587.799848,0.000000,-8734.430116,3370.820191
587.800175,148.041188,-9104.533087,3600.648841
587.800503,444.123565,-9104.533087,3677.258390
587.800831,888.247130,-8956.491898,4060.306139
587.801158,1406.391290,-9104.533087,4136.915689
587.801486,1480.411884,-8660.409521,5209.449386
587.801814,1702.473667,-9030.512492,4979.620737
587.802142,1036.288319,-9400.615463,5056.230287
587.802469,592.164754,-9696.697840,4979.620737
587.802797,296.082377,-9622.677246,4826.401637
587.803125,-222.061783,-9696.697840,5056.230287
587.803452,-518.144159,-9844.739029,4749.792088
587.803780,-592.164754,-9548.656652,4290.134789
587.804108,-1110.308913,-9400.615463,4213.525239
587.804435,-1110.308913,-9400.615463,3830.477490
587.804763,-1702.473667,-9252.574275,3370.820191
587.805091,-1924.535449,-9030.512492,3753.867940
587.805418,-2294.638420,-8956.491898,3140.991542
587.805746,-1850.514855,-8660.409521,3064.381992
587.806074,-1110.308913,-8364.327145,3600.648841
587.806401,0.000000,-8142.265362,4443.353888
587.806729,1184.329507,-7994.224174,4903.011187
587.807057,1702.473667,-8068.244768,5822.325785
587.807384,1998.556043,-8660.409521,6665.030833
587.807712,1406.391290,-9252.574275,6741.640382
587.808040,370.102971,-10140.821405,6741.640382
587.808367,-888.247130,-10732.986159,6281.983084
587.808695,-2146.597232,-11325.150913,5362.668486
587.809023,-2738.761985,-11103.089130,4673.182538
587.809350,-2442.679609,-10214.842000,4060.306139
587.809678,-1184.329507,-9326.594869,3907.087040
587.810006,444.123565,-7994.224174,4519.963438
587.810333,2220.617826,-7105.977043,4826.401637
587.810661,2294.638420,-7105.977043,4290.134789
587.810989,-148.041188,-8808.450710,3370.820191
587.811316,-5107.421000,-10881.027347,1149.143247
587.811644,-9770.718434,-12287.418637,-1149.143247
587.811972,-11695.253884,-12065.356855,-3447.429741
587.812300,-10066.800811,-9844.739029,-3753.867940
587.812627,-5699.585753,-8142.265362,-2528.115143
587.812955,370.102971,-5847.626942,-1762.019645
587.813283,5033.400406,-5107.421000,1378.971896
587.813610,8364.327145,-3404.947333,1608.800546
587.813938,11399.171507,-4293.194464,4519.963438
587.814266,9104.533087,-5995.668130,4366.744339
587.814593,9030.512492,-8734.430116,5439.278036
587.814921,3997.112087,-12879.583391,5515.887586
587.815249,1702.473667,-13323.706956,4903.011187
587.815576,740.205942,-14285.974681,6205.373534
587.815904,1702.473667,-13545.768739,6358.592633
587.816232,4885.359217,-11251.130318,6588.421283
587.816559,7772.162391,-9252.574275,7737.564530
587.816887,9696.697840,-7920.203579,7584.345430
587.817215,6957.935855,-8734.430116,6971.469032
587.817542,2812.782580,-9474.636058,5056.230287
587.817870,-3552.988522,-10214.842000,3370.820191
587.818198,-7179.997637,-10288.862594,2221.676944
587.818525,-9178.553681,-9474.636058,1762.019645
587.818853,-6365.771101,-8586.388927,3907.087040
587.819181,-5329.482782,-6513.812290,5515.887586
587.819508,-2812.782580,-5921.647536,7124.688131
587.819836,-3997.112087,-6883.915261,8273.831378
587.820164,-6439.791695,-7105.977043,5822.325785
587.820491,-7772.162391,-8216.285956,5286.058936
587.820819,-8512.368333,-7920.203579,4443.353888
587.821147,-7698.141797,-7179.997637,4366.744339
587.821474,-5625.565159,-7550.100608,4979.620737
587.821802,-2072.576638,-6957.935855,6741.640382
587.822130,2072.576638,-4811.338623,8273.831378
587.822458,6365.771101,-4663.297435,10189.070123
587.822785,7920.203579,-5255.462188,10725.336972
587.823113,4663.297435,-8956.491898,8963.317327
587.823441,-1406.391290,-14434.015869,6894.859482
587.823768,-8586.388927,-17764.942608,3064.381992
587.824096,-12213.398043,-17690.922014,612.876398
587.824424,-10658.965565,-15914.427753,-1072.533697
587.824751,-5773.606348,-13397.727550,-536.266849
587.825079,0.000000,-10066.800811,-306.438199
587.825407,2294.638420,-8586.388927,766.095498
587.825734,3256.906145,-6661.853478,-919.314598
587.826062,-2220.617826,-6883.915261,-3064.381992
587.826390,-222.061783,-6661.853478,-4749.792088
587.826717,0.000000,-7105.977043,-3753.867940
587.827045,2368.659014,-7105.977043,-3677.258390
587.827373,5255.462188,-7402.059420,-766.095498
587.827700,7846.182985,-9030.512492,3140.991542
587.828028,7328.038826,-8512.368333,4596.572988
587.828356,8512.368333,-9104.533087,5592.497135
587.828683,7994.224174,-10362.883188,4213.525239
587.829011,4663.297435,-12805.562797,3294.210641
587.829339,2886.803174,-14508.036463,2451.505594
587.829666,2146.597232,-13101.645173,995.924147
587.829994,3552.988522,-9992.780217,2374.896044
587.830322,8216.285956,-8660.409521,3294.210641
587.830649,9844.739029,-8364.327145,4519.963438
587.830977,7179.997637,-7624.121203,3677.258390
587.831305,2146.597232,-9030.512492,2068.457845
587.831632,-4737.318029,-9474.636058,842.705048
587.831960,-7550.100608,-9622.677246,-229.828649
587.832288,-7846.182985,-11103.089130,0.000000
587.832616,-7105.977043,-11473.192101,1685.410096
587.832943,-5255.462188,-10288.862594,2451.505594
587.833271,-3923.091493,-8068.244768,5132.839837
587.833599,-2368.659014,-5255.462188,6205.373534
587.833926,-1258.350101,-4663.297435,6971.469032
