#time,accel_x,accel_y,accel_z
564.031187,-296.082377,-9178.553681,229.828649
564.031515,-296.082377,-9326.594869,536.266849
564.031843,-296.082377,-9252.574275,536.266849
564.032171,-148.041188,-9030.512492,612.876398
564.032499,0.000000,-8808.450710,689.485948
564.032827,-444.123565,-9030.512492,842.705048
564.033155,-148.041188,-9178.553681,459.657299
564.033482,-444.123565,-9030.512492,612.876398
564.033810,0.000000,-8882.471304,536.266849
564.034138,74.020594,-9030.512492,1302.362347
564.034466,-444.123565,-9030.512492,383.047749
564.034794,-296.082377,-9252.574275,689.485948
564.035122,-296.082377,-8882.471304,689.485948
564.035450,-148.041188,-9104.533087,306.438199
564.035777,-296.082377,-9030.512492,306.438199
564.036105,0.000000,-8734.430116,612.876398
564.036433,-222.061783,-9030.512492,766.095498
564.036761,-148.041188,-9178.553681,689.485948
564.037089,-222.061783,-9030.512492,766.095498
564.037417,0.000000,-8882.471304,766.095498
564.037745,-370.102971,-8956.491898,383.047749
564.038072,0.000000,-9030.512492,536.266849
564.038400,-222.061783,-9104.533087,306.438199
564.038728,-370.102971,-9030.512492,612.876398
564.039056,-518.144159,-8956.491898,459.657299
564.039384,74.020594,-9104.533087,536.266849
564.039712,-222.061783,-9030.512492,306.438199
564.040040,-222.061783,-9104.533087,459.657299
564.040367,-296.082377,-9178.553681,612.876398
564.040695,-296.082377,-9400.615463,306.438199
564.041023,-1110.308913,-8882.471304,76.609550
564.041351,-1258.350101,-9400.615463,0.000000
564.041679,-1184.329507,-9474.636058,-459.657299
564.042007,-962.267725,-9104.533087,-536.266849
564.042335,-444.123565,-9104.533087,-383.047749
564.042663,-666.185348,-8808.450710,153.219100
564.042990,-592.164754,-9400.615463,-766.095498
564.043318,-1184.329507,-9326.594869,-995.924147
564.043646,-1406.391290,-9030.512492,-1378.971896
564.043974,-1036.288319,-9326.594869,-1532.190996
564.044302,-962.267725,-9030.512492,-919.314598
564.044630,-444.123565,-9326.594869,-919.314598
564.044958,-296.082377,-9178.553681,-1225.752797
564.045285,0.000000,-9252.574275,-1072.533697
564.045613,0.000000,-9252.574275,-1455.581446
564.045941,-222.061783,-9326.594869,-1685.410096
564.046269,0.000000,-9178.553681,-2221.676944
564.046597,222.061783,-9178.553681,-1685.410096
564.046925,222.061783,-9252.574275,-1762.019645
564.047253,370.102971,-9326.594869,-1762.019645
564.047580,370.102971,-9474.636058,-1608.800546
564.047908,370.102971,-8586.388927,-1378.971896
564.048236,666.185348,-8956.491898,-1302.362347
564.048564,296.082377,-9474.636058,-1532.190996
564.048892,0.000000,-9474.636058,-1838.629195
564.049220,222.061783,-9400.615463,-1608.800546
564.049548,74.020594,-9104.533087,-1455.581446
564.049875,148.041188,-9104.533087,-1915.238745
564.050203,0.000000,-9252.574275,-1685.410096
564.050531,-518.144159,-9400.615463,-1608.800546
564.050859,-592.164754,-9400.615463,-1838.629195
564.051187,-1258.350101,-8956.491898,-1991.848295
564.051515,-814.226536,-9178.553681,-2681.334243
564.051843,-1554.432478,-9252.574275,-2451.505594
564.052171,-1924.535449,-9252.574275,-2681.334243
564.052498,-1850.514855,-8882.471304,-2834.553343
564.052826,-2146.597232,-8734.430116,-2987.772442
564.053154,-1554.432478,-8882.471304,-3064.381992
564.053482,-2368.659014,-8882.471304,-3600.648841
564.053810,-2072.576638,-9030.512492,-3830.477490
564.054138,-2146.597232,-8882.471304,-4060.306139
564.054466,-2072.576638,-8956.491898,-3983.696590
564.054793,-1628.453072,-8438.347739,-4136.915689
564.055121,-1184.329507,-8808.450710,-3983.696590
564.055449,-370.102971,-8660.409521,-3907.087040
564.055777,518.144159,-8956.491898,-3447.429741
564.056105,1110.308913,-8956.491898,-3140.991542
564.056433,1850.514855,-8882.471304,-2528.115143
564.056761,2294.638420,-8956.491898,-2528.115143
564.057088,2516.700203,-9400.615463,-1915.238745
564.057416,2368.659014,-9548.656652,-2221.676944
564.057744,1628.453072,-10288.862594,-2145.067394
564.058072,814.226536,-10510.924376,-2298.286494
564.058400,-296.082377,-10658.965565,-3447.429741
564.058728,-1480.411884,-10584.944971,-3983.696590
564.059056,-1850.514855,-10362.883188,-4519.963438
564.059384,-1702.473667,-9622.677246,-4903.011187
564.059711,-1406.391290,-8734.430116,-4903.011187
564.060039,518.144159,-7698.141797,-4903.011187
564.060367,1850.514855,-7105.977043,-3677.258390
564.060695,2664.741391,-7105.977043,-3140.991542
564.061023,2886.803174,-7476.080014,-2451.505594
564.061351,1702.473667,-8438.347739,-1991.848295
564.061679,-296.082377,-9326.594869,-2374.896044
564.062006,-2368.659014,-10140.821405,-1991.848295
564.062334,-3997.112087,-11029.068536,-2681.334243
564.062662,-4219.173869,-11029.068536,-2757.943793
564.062990,-3108.864956,-10362.883188,-2681.334243
564.063318,-1036.288319,-9178.553681,-2681.334243
564.063646,1850.514855,-7550.100608,-306.438199
564.063974,6291.750507,-5921.647536,919.314598
564.064301,10140.821405,-4811.338623,2681.334243
564.064629,11177.109724,-5477.523971,4213.525239
564.064957,8882.471304,-8364.327145,4749.792088
564.065285,1998.556043,-11621.233289,3907.087040
564.065613,-4811.338623,-14063.912898,1991.848295
564.065941,-9844.739029,-14804.118840,-306.438199
564.066269,-12065.356855,-14730.098246,-919.314598
564.066596,-10066.800811,-12657.521608,-2451.505594
564.066924,-8364.327145,-11103.089130,-1532.190996
564.067252,-1554.432478,-7179.997637,-842.705048
564.067580,-2072.576638,-5181.441594,-919.314598
564.067908,-518.144159,-4219.173869,-2911.162892
564.068236,-4441.235652,-5921.647536,-5209.449386
564.068564,-9178.553681,-7254.018232,-7584.345430
564.068892,-12583.501014,-8808.450710,-9882.631924
564.069219,-13989.892304,-8734.430116,-10342.289223
564.069547,-11399.171507,-7920.203579,-9806.022374
564.069875,-6217.729913,-7402.059420,-7354.516781
564.070203,1036.288319,-6587.832884,-5286.058936
564.070531,2812.782580,-6365.771101,-4979.620737
564.070859,5551.544565,-8216.285956,-4596.572988
564.071187,3552.988522,-9844.739029,-6205.373534
564.071514,2368.659014,-10881.027347,-6894.859482
564.071842,4441.235652,-10881.027347,-7354.516781
564.072170,7920.203579,-10140.821405,-5286.058936
564.072498,11399.171507,-10362.883188,-3217.601092
564.072826,12731.542202,-9548.656652,-1991.848295
564.073154,13175.665768,-10362.883188,-1225.752797
564.073482,12879.583391,-9918.759623,-1149.143247
564.073809,13249.686362,-9104.533087,-1378.971896
564.074137,13545.768739,-9770.718434,-1915.238745
564.074465,9622.677246,-11917.315666,-1762.019645
564.074793,5107.421000,-13249.686362,-3753.867940
564.075121,-3627.009116,-14804.118840,-5515.887586
564.075449,-10510.924376,-13989.892304,-7431.126331
564.075777,-8734.430116,-10214.842000,-7890.783629
564.076104,-3182.885551,-5255.462188,-6588.421283
564.076432,1998.556043,-2738.761985,-3983.696590
564.076760,4959.379811,-1628.453072,-2374.896044
564.077088,2516.700203,-2590.720797,-995.924147
564.077416,-1332.370696,-3775.050304,-689.485948
564.077744,-4071.132681,-4515.256246,-1991.848295
564.078072,-6809.894666,-7254.018232,-995.924147
564.078400,-6217.729913,-8216.285956,-995.924147
564.078727,-6513.812290,-10140.821405,842.705048
564.079055,-5181.441594,-9474.636058,2911.162892
564.079383,-3849.070898,-8882.471304,4826.401637
564.079711,-2072.576638,-7550.100608,4903.011187
564.080039,-1406.391290,-8660.409521,3064.381992
564.080367,-3701.029710,-10658.965565,842.705048
564.080695,-5773.606348,-12065.356855,-1608.800546
564.081022,-7550.100608,-10881.027347,-1915.238745
564.081350,-4515.256246,-8882.471304,-1225.752797
564.081678,-1036.288319,-8586.388927,0.000000
564.082006,740.205942,-8512.368333,536.266849
564.082334,0.000000,-9326.594869,766.095498
564.082662,-2368.659014,-9474.636058,689.485948
564.082990,-4367.215058,-8882.471304,0.000000
564.083317,-3627.009116,-9770.718434,0.000000
564.083645,-2960.823768,-11843.295072,-689.485948
564.083973,-3701.029710,-11917.315666,-2451.505594
564.084301,-3849.070898,-11473.192101,-1608.800546
564.084629,-1332.370696,-8734.430116,-2068.457845
564.084957,-1480.411884,-6661.853478,-2068.457845
564.085285,1924.535449,-6291.750507,-2451.505594
564.085612,2072.576638,-7402.059420,-3983.696590
564.085940,2442.679609,-7328.038826,-4903.011187
564.086268,4885.359217,-7624.121203,-4749.792088
564.086596,5699.585753,-8364.327145,-3830.477490
564.086924,4737.318029,-9844.739029,-3983.696590
564.087252,4737.318029,-13323.706956,-3064.381992
564.087580,4071.132681,-15026.180623,-3447.429741
564.087908,2368.659014,-13397.727550,-3600.648841
564.088235,2516.700203,-12583.501014,-3217.601092
564.088563,1406.391290,-12139.377449,-3524.039291
564.088891,1702.473667,-11843.295072,-2987.772442
564.089219,2590.720797,-11103.089130,-2681.334243
564.089547,2368.659014,-9622.677246,-2834.553343
564.089874,814.226536,-8956.491898,-3907.087040
564.090202,-740.205942,-8364.327145,-4366.744339
564.090530,-1258.350101,-7920.203579,-5056.230287
564.090857,-1628.453072,-6513.812290,-5745.716235
564.091185,-1184.329507,-6291.750507,-4903.011187
564.091513,0.000000,-5329.482782,-4443.353888
564.091840,1110.308913,-4589.276840,-2451.505594
564.092168,1332.370696,-5329.482782,-1455.581446
564.092496,74.020594,-7550.100608,-919.314598
564.092823,-1554.432478,-9030.512492,-2298.286494
564.093151,-1924.535449,-9474.636058,-1302.362347
564.093479,-2886.803174,-10066.800811,-1455.581446
564.093806,-3330.926739,-10066.800811,-1149.143247
564.094134,-2368.659014,-8882.471304,-689.485948
564.094462,-518.144159,-8216.285956,-459.657299
564.094789,74.020594,-7698.141797,0.000000
564.095117,-1628.453072,-8512.368333,-1455.581446
564.095445,-2516.700203,-9030.512492,-1915.238745
564.095772,-2220.617826,-8882.471304,-2221.676944
564.096100,-1258.350101,-8142.265362,-1915.238745
564.096428,370.102971,-8216.285956,-919.314598
564.096755,2738.761985,-8068.244768,0.000000
564.097083,3627.009116,-6069.688724,995.924147
564.097411,3849.070898,-6587.832884,2068.457845
564.097738,1332.370696,-8734.430116,2145.067394
564.098066,-1480.411884,-9178.553681,536.266849
564.098394,-1998.556043,-9326.594869,612.876398
564.098721,-1702.473667,-9770.718434,995.924147
564.099049,-1406.391290,-9400.615463,1685.410096
564.099377,296.082377,-8364.327145,2374.896044
564.099704,2516.700203,-7031.956449,3294.210641
564.100032,1776.494261,-8068.244768,2374.896044
564.100360,-666.185348,-9030.512492,459.657299
564.100687,-3182.885551,-9178.553681,-995.924147
564.101015,-3108.864956,-9252.574275,-2068.457845
564.101343,-3330.926739,-10436.903782,-1685.410096
564.101670,-2738.761985,-10584.944971,0.000000
564.101998,-592.164754,-10807.006753,76.609550
564.102326,1554.432478,-10658.965565,1532.190996
564.102653,-1036.288319,-11103.089130,1072.533697
564.102981,-2220.617826,-11547.212695,1072.533697
564.103309,-3997.112087,-10955.047942,0.000000
564.103637,-3256.906145,-10436.903782,-229.828649
564.103964,-2368.659014,-9474.636058,153.219100
564.104292,-222.061783,-7994.224174,1532.190996
564.104620,2368.659014,-6883.915261,2451.505594
564.104947,2738.761985,-8142.265362,2911.162892
564.105275,1110.308913,-8956.491898,2298.286494
564.105603,-740.205942,-8956.491898,842.705048
564.105930,-518.144159,-9104.533087,0.000000
564.106258,-370.102971,-9992.780217,76.609550
564.106586,0.000000,-9770.718434,1072.533697
564.106913,1998.556043,-9622.677246,1838.629195
564.107241,3034.844362,-10140.821405,1915.238745
564.107569,1776.494261,-11325.150913,2145.067394
564.107896,-740.205942,-11991.336260,1149.143247
564.108224,-2072.576638,-11177.109724,-153.219100
564.108552,-1702.473667,-10732.986159,-536.266849
564.108879,-2220.617826,-10362.883188,-995.924147
564.109207,-1924.535449,-9474.636058,-689.485948
564.109535,-370.102971,-8586.388927,76.609550
564.109862,-74.020594,-8438.347739,153.219100
564.110190,-2294.638420,-8956.491898,-536.266849
564.110518,-3182.885551,-8364.327145,-1455.581446
564.110845,-2590.720797,-8438.347739,-2221.676944
564.111173,-2294.638420,-8364.327145,-2221.676944
564.111501,-1480.411884,-7550.100608,-2298.286494
564.111828,1036.288319,-6439.791695,-842.705048
564.112156,2442.679609,-6365.771101,-306.438199
564.112484,2220.617826,-7698.141797,153.219100
564.112811,1332.370696,-8290.306550,0.000000
564.113139,518.144159,-7846.182985,-383.047749
564.113467,1850.514855,-8660.409521,459.657299
564.113794,2294.638420,-8734.430116,766.095498
564.114122,3330.926739,-8364.327145,1608.800546
564.114450,4145.153275,-8734.430116,2145.067394
564.114777,3997.112087,-9992.780217,2834.553343
564.115105,1628.453072,-10436.903782,2451.505594
564.115433,814.226536,-10436.903782,1991.848295
564.115760,0.000000,-11029.068536,1225.752797
564.116088,222.061783,-10584.944971,1378.971896
564.116416,-518.144159,-9400.615463,1302.362347
564.116743,666.185348,-7550.100608,1838.629195
564.117071,962.267725,-7550.100608,2451.505594
564.117399,-1110.308913,-8290.306550,1915.238745
564.117726,-2886.803174,-8142.265362,1149.143247
564.118054,-4737.318029,-8068.244768,0.000000
564.118382,-5181.441594,-8142.265362,0.000000
564.118709,-5033.400406,-8216.285956,229.828649
564.119037,-4515.256246,-6883.915261,612.876398
564.119365,-2220.617826,-5921.647536,919.314598
564.119692,-1850.514855,-7105.977043,1378.971896
564.120020,-2294.638420,-7402.059420,919.314598
564.120348,-2812.782580,-7402.059420,229.828649
564.120675,-3108.864956,-8142.265362,-459.657299
564.121003,-2368.659014,-9696.697840,-229.828649
564.121331,-1480.411884,-10066.800811,612.876398
564.121658,296.082377,-9622.677246,1149.143247
564.121986,2442.679609,-9622.677246,2221.676944
564.122314,1628.453072,-10955.047942,2221.676944
564.122641,814.226536,-11177.109724,1225.752797
564.122969,666.185348,-11103.089130,153.219100
564.123297,592.164754,-11621.233289,153.219100
564.123624,592.164754,-11029.068536,0.000000
564.123952,1628.453072,-9992.780217,383.047749
564.124280,3256.906145,-9770.718434,1149.143247
564.124607,3627.009116,-10288.862594,1915.238745
564.124935,2146.597232,-10362.883188,1915.238745
564.125263,592.164754,-10288.862594,306.438199
564.125590,-592.164754,-10658.965565,153.219100
564.125918,-1110.308913,-10362.883188,-536.266849
564.126246,-444.123565,-10214.842000,0.000000
564.126573,1184.329507,-8586.388927,229.828649
564.126901,2294.638420,-9474.636058,842.705048
564.127229,0.000000,-10362.883188,842.705048
564.127557,-518.144159,-9992.780217,383.047749
564.127884,-1850.514855,-9844.739029,-689.485948
564.128212,-1998.556043,-10436.903782,-1149.143247
564.128540,-2368.659014,-10362.883188,-1149.143247
564.128867,-1332.370696,-9844.739029,-229.828649
564.129195,-370.102971,-9178.553681,-689.485948
564.129523,148.041188,-9326.594869,536.266849
564.129850,-444.123565,-8956.491898,459.657299
564.130178,-1258.350101,-8882.471304,-153.219100
564.130506,-1406.391290,-9622.677246,-153.219100
564.130833,-1702.473667,-9474.636058,-383.047749
564.131161,-1036.288319,-8586.388927,536.266849
564.131489,518.144159,-7698.141797,919.314598
564.131816,1480.411884,-8438.347739,2374.896044
564.132144,74.020594,-8734.430116,2145.067394
564.132472,-222.061783,-8512.368333,1991.848295
564.132799,-1110.308913,-8290.306550,383.047749
564.133127,-1924.535449,-8660.409521,153.219100
564.133455,-1924.535449,-8734.430116,76.609550
564.133782,-296.082377,-7402.059420,383.047749
564.134110,2294.638420,-6587.832884,1762.019645
564.134438,3034.844362,-7550.100608,2298.286494
564.134765,1850.514855,-7772.162391,1838.629195
564.135093,0.000000,-8586.388927,1378.971896
564.135421,0.000000,-9326.594869,766.095498
564.135748,-1258.350101,-9178.553681,919.314598
564.136076,-296.082377,-9030.512492,1378.971896
564.136404,1332.370696,-8808.450710,1685.410096
564.136731,1036.288319,-8808.450710,2757.943793
564.137059,148.041188,-8882.471304,2221.676944
564.137387,-962.267725,-8068.244768,1455.581446
564.137714,-2146.597232,-8216.285956,0.000000
564.138042,-3478.967927,-8882.471304,-689.485948
564.138370,-2812.782580,-7920.203579,-612.876398
564.138697,-2072.576638,-6809.894666,-1149.143247
564.139025,0.000000,-6735.874072,76.609550
564.139353,-296.082377,-7105.977043,0.000000
564.139680,-592.164754,-7254.018232,153.219100
564.140008,-1332.370696,-7105.977043,-842.705048
564.140336,-1554.432478,-9178.553681,-229.828649
564.140663,-2516.700203,-10066.800811,-306.438199
564.140991,-1258.350101,-9992.780217,383.047749
564.141319,148.041188,-9400.615463,1455.581446
564.141646,518.144159,-10288.862594,1685.410096
564.141974,-592.164754,-10881.027347,1149.143247
564.142302,-888.247130,-10066.800811,612.876398
564.142629,-444.123565,-10140.821405,612.876398
564.142957,-962.267725,-10658.965565,0.000000
564.143285,148.041188,-9844.739029,-383.047749
564.143612,1924.535449,-8882.471304,-383.047749
564.143940,3256.906145,-8882.471304,459.657299
564.144268,2812.782580,-9474.636058,919.314598
564.144595,1406.391290,-9400.615463,612.876398
564.144923,592.164754,-9548.656652,229.828649
564.145251,740.205942,-10955.047942,459.657299
564.145578,518.144159,-10584.944971,919.314598
564.145906,1332.370696,-10362.883188,1608.800546
564.146234,1850.514855,-10140.821405,2145.067394
564.146561,1184.329507,-11547.212695,2451.505594
564.146889,-1406.391290,-11621.233289,1915.238745
564.147217,-2886.803174,-10436.903782,536.266849
564.147544,-3108.864956,-10881.027347,-153.219100
564.147872,-3849.070898,-10510.924376,-995.924147
564.148200,-3108.864956,-9326.594869,-1532.190996
564.148527,-1258.350101,-7772.162391,-1149.143247
564.148855,74.020594,-7550.100608,-689.485948
564.149183,-370.102971,-7550.100608,-766.095498
564.149510,-518.144159,-7179.997637,-842.705048
564.149838,74.020594,-7254.018232,-229.828649
564.150166,148.041188,-8882.471304,0.000000
564.150494,444.123565,-9696.697840,995.924147
564.150821,1036.288319,-9178.553681,2451.505594
564.151149,1998.556043,-9474.636058,3294.210641
564.151477,518.144159,-10436.903782,4443.353888
564.151804,-1480.411884,-10658.965565,3140.991542
564.152132,-2368.659014,-9770.718434,1838.629195
564.152460,-2442.679609,-9992.780217,1302.362347
564.152787,-2368.659014,-9252.574275,459.657299
564.153115,-518.144159,-7179.997637,-229.828649
564.153443,1554.432478,-5329.482782,306.438199
564.153770,3108.864956,-5329.482782,995.924147
564.154098,1554.432478,-5625.565159,383.047749
564.154426,222.061783,-5847.626942,0.000000
564.154753,-888.247130,-6883.915261,-689.485948
564.155081,-1776.494261,-7698.141797,-229.828649
564.155409,-1924.535449,-8216.285956,76.609550
564.155736,-1184.329507,-8290.306550,1072.533697
564.156064,296.082377,-8290.306550,2681.334243
564.156392,-518.144159,-9030.512492,2911.162892
564.156719,-2368.659014,-9326.594869,2681.334243
564.157047,-2886.803174,-9030.512492,612.876398
564.157375,-3552.988522,-9770.718434,0.000000
564.157702,-3923.091493,-9252.574275,-995.924147
564.158030,-3256.906145,-8068.244768,-1915.238745
564.158358,-814.226536,-7254.018232,-766.095498
564.158685,592.164754,-7402.059420,-1225.752797
564.159013,222.061783,-7846.182985,-1149.143247
564.159341,814.226536,-7772.162391,-1455.581446
564.159668,1406.391290,-8290.306550,-1608.800546
564.159996,1702.473667,-9918.759623,-842.705048
564.160324,1850.514855,-10732.986159,-383.047749
564.160651,2590.720797,-11177.109724,1072.533697
564.160979,3256.906145,-11843.295072,2451.505594
564.161307,1702.473667,-12953.603985,2604.724693
564.161634,444.123565,-12657.521608,1991.848295
564.161962,-370.102971,-11843.295072,1685.410096
564.162290,-370.102971,-12361.439231,306.438199
564.162617,-296.082377,-11547.212695,0.000000
564.162945,-148.041188,-10066.800811,-229.828649
564.163273,1406.391290,-9030.512492,0.000000
564.163600,1702.473667,-9696.697840,76.609550
564.163928,888.247130,-9252.574275,-536.266849
564.164256,222.061783,-8586.388927,-1149.143247
564.164583,814.226536,-8734.430116,-919.314598
564.164911,518.144159,-9474.636058,-229.828649
564.165239,888.247130,-9696.697840,306.438199
564.165566,814.226536,-9326.594869,1532.190996
564.165894,888.247130,-9918.759623,2528.115143
564.166222,-1258.350101,-10732.986159,2528.115143
564.166549,-3182.885551,-10658.965565,2068.457845
564.166877,-3923.091493,-9918.759623,1608.800546
564.167205,-2960.823768,-9770.718434,1302.362347
564.167532,-2960.823768,-9252.574275,383.047749
564.167860,-962.267725,-7846.182985,1072.533697
564.168188,0.000000,-7105.977043,919.314598
564.168515,-222.061783,-7624.121203,383.047749
564.168843,-1554.432478,-7846.182985,229.828649
564.169171,-2220.617826,-7550.100608,-842.705048
564.169498,-1332.370696,-7994.224174,-766.095498
564.169826,-666.185348,-8438.347739,0.000000
564.170154,962.267725,-8068.244768,1608.800546
564.170481,1924.535449,-7476.080014,2604.724693
564.170809,2368.659014,-8290.306550,4213.525239
564.171137,592.164754,-9030.512492,3677.258390
564.171464,-814.226536,-9326.594869,2911.162892
564.171792,-2516.700203,-9178.553681,1302.362347
564.172120,-2516.700203,-9918.759623,689.485948
564.172447,-2886.803174,-8808.450710,766.095498
564.172775,-740.205942,-7772.162391,766.095498
564.173103,814.226536,-6809.894666,919.314598
564.173430,1036.288319,-7105.977043,689.485948
564.173758,0.000000,-7031.956449,-306.438199
564.174086,0.000000,-7031.956449,-842.705048
564.174414,296.082377,-7846.182985,-1302.362347
564.174741,74.020594,-8956.491898,-995.924147
564.175069,666.185348,-8882.471304,0.000000
564.175397,2220.617826,-8734.430116,1608.800546
564.175724,2368.659014,-10214.842000,2834.553343
564.176052,814.226536,-10732.986159,3064.381992
564.176380,-740.205942,-10955.047942,2298.286494
564.176707,-1998.556043,-10955.047942,1149.143247
564.177035,-3330.926739,-11917.315666,153.219100
564.177363,-3108.864956,-10584.944971,-536.266849
564.177690,-1480.411884,-8512.368333,-459.657299
564.178018,518.144159,-8142.265362,-383.047749
564.178346,1110.308913,-7698.141797,-383.047749
564.178673,518.144159,-7772.162391,-995.924147
564.179001,370.102971,-7402.059420,-1455.581446
564.179329,0.000000,-7846.182985,-1991.848295
564.179656,-296.082377,-8882.471304,-1762.019645
564.179984,0.000000,-9400.615463,-919.314598
564.180312,740.205942,-9918.759623,306.438199
564.180639,1406.391290,-10881.027347,1838.629195
564.180967,-148.041188,-11103.089130,1608.800546
564.181295,-592.164754,-10807.006753,1608.800546
564.181622,-1258.350101,-10066.800811,459.657299
564.181950,-1628.453072,-10881.027347,153.219100
564.182278,-1554.432478,-9400.615463,-459.657299
564.182605,-888.247130,-8364.327145,-459.657299
564.182933,814.226536,-8216.285956,0.000000
564.183261,-296.082377,-8364.327145,-612.876398
564.183588,-74.020594,-8216.285956,-995.924147
564.183916,-148.041188,-8142.265362,-1762.019645
564.184244,1110.308913,-9104.533087,-306.438199
564.184571,0.000000,-9474.636058,-459.657299
564.184899,1702.473667,-9474.636058,766.095498
564.185227,2738.761985,-9326.594869,1685.410096
564.185554,2738.761985,-10584.944971,3217.601092
564.185882,1480.411884,-9844.739029,3370.820191
564.186210,296.082377,-9918.759623,2374.896044
564.186537,-1036.288319,-10510.924376,1991.848295
564.186865,-2368.659014,-11029.068536,1608.800546
564.187193,-2812.782580,-9474.636058,1149.143247
564.187520,-1702.473667,-7624.121203,919.314598
564.187848,148.041188,-7179.997637,1608.800546
564.188175,-1258.350101,-7624.121203,612.876398
564.188503,-592.164754,-6587.832884,0.000000
564.188831,-592.164754,-6513.812290,-1072.533697
564.189158,518.144159,-7254.018232,-459.657299
564.189486,0.000000,-8068.244768,459.657299
564.189813,1036.288319,-8660.409521,1378.971896
564.190141,1184.329507,-8586.388927,2757.943793
564.190468,296.082377,-10140.821405,3524.039291
564.190796,-1776.494261,-10362.883188,3140.991542
564.191123,-2960.823768,-10362.883188,1608.800546
564.191451,-3552.988522,-10658.965565,1608.800546
564.191779,-3923.091493,-10436.903782,842.705048
564.192106,-3182.885551,-9030.512492,842.705048
564.192434,-1776.494261,-7031.956449,459.657299
564.192761,-296.082377,-7772.162391,689.485948
564.193089,-1554.432478,-8216.285956,-306.438199
564.193416,-2072.576638,-7846.182985,-1455.581446
564.193744,-1554.432478,-6957.935855,-2451.505594
564.194071,-296.082377,-7772.162391,-2145.067394
564.194399,814.226536,-8142.265362,-1608.800546
564.194727,2886.803174,-8142.265362,306.438199
564.195054,4219.173869,-8956.491898,1838.629195
564.195382,2886.803174,-10214.842000,2451.505594
564.195709,1258.350101,-11029.068536,2221.676944
564.196037,-222.061783,-10955.047942,995.924147
564.196364,-666.185348,-11843.295072,306.438199
564.196692,-1554.432478,-11547.212695,229.828649
564.197019,-666.185348,-10288.862594,229.828649
564.197347,1036.288319,-8734.430116,612.876398
564.197674,2664.741391,-8512.368333,612.876398
564.198002,1184.329507,-8808.450710,-612.876398
564.198330,296.082377,-8734.430116,-1762.019645
564.198657,-148.041188,-8660.409521,-2451.505594
564.198985,0.000000,-9548.656652,-2528.115143
564.199312,0.000000,-8956.491898,-2221.676944
564.199640,1702.473667,-8364.327145,-383.047749
564.199967,2960.823768,-9474.636058,1225.752797
564.200295,1924.535449,-10362.883188,2145.067394
564.200622,0.000000,-10362.883188,2298.286494
564.200950,-1850.514855,-10362.883188,1225.752797
564.201278,-2886.803174,-11695.253884,1225.752797
564.201605,-3997.112087,-11399.171507,612.876398
564.201933,-3108.864956,-10214.842000,1149.143247
564.202260,-666.185348,-7920.203579,1302.362347
564.202588,518.144159,-7846.182985,1991.848295
564.202915,-370.102971,-7920.203579,1072.533697
564.203243,-962.267725,-7328.038826,459.657299
564.203570,-1776.494261,-7254.018232,-995.924147
564.203898,-1776.494261,-7624.121203,-1685.410096
564.204226,-1776.494261,-7994.224174,-1455.581446
564.204553,592.164754,-7476.080014,76.609550
564.204881,2146.597232,-7624.121203,2221.676944
564.205208,2368.659014,-8216.285956,2834.553343
564.205536,740.205942,-9104.533087,2604.724693
564.205863,-1110.308913,-9474.636058,2145.067394
564.206191,-2590.720797,-11325.150913,1762.019645
564.206518,-4441.235652,-11325.150913,689.485948
564.206846,-3034.844362,-9400.615463,1455.581446
564.207173,-1184.329507,-8068.244768,1149.143247
564.207501,370.102971,-7624.121203,1302.362347
564.207829,0.000000,-7328.038826,612.876398
564.208156,1184.329507,-6513.812290,0.000000
564.208484,666.185348,-6957.935855,-766.095498
564.208811,814.226536,-7846.182985,-919.314598
564.209139,888.247130,-7772.162391,-689.485948
564.209466,2294.638420,-7846.182985,229.828649
564.209794,3330.926739,-9400.615463,2068.457845
564.210121,1480.411884,-9622.677246,2528.115143
564.210449,296.082377,-10658.965565,2987.772442
564.210777,-888.247130,-10955.047942,2451.505594
564.211104,-1258.350101,-11621.233289,1915.238745
564.211432,-2220.617826,-11251.130318,1378.971896
564.211759,-1036.288319,-9474.636058,1532.190996
564.212087,-148.041188,-8216.285956,1225.752797
564.212414,0.000000,-8364.327145,766.095498
564.212742,-666.185348,-8068.244768,306.438199
564.213069,-1702.473667,-7328.038826,-1072.533697
564.213397,-1036.288319,-7920.203579,-1302.362347
564.213725,-1850.514855,-8808.450710,-2145.067394
564.214052,-962.267725,-8660.409521,-995.924147
564.214380,0.000000,-8660.409521,-229.828649
564.214707,888.247130,-9622.677246,1225.752797
564.215035,-740.205942,-10955.047942,1302.362347
564.215362,-1998.556043,-10955.047942,1378.971896
564.215690,-2146.597232,-10732.986159,766.095498
564.216017,-1850.514855,-11325.150913,842.705048
564.216345,-1924.535449,-10881.027347,689.485948
564.216673,-148.041188,-9844.739029,1072.533697
564.217000,518.144159,-9252.574275,842.705048
564.217328,-148.041188,-9474.636058,689.485948
564.217655,-1406.391290,-9178.553681,-383.047749
564.217983,-888.247130,-8438.347739,-1532.190996
564.218310,0.000000,-8882.471304,-1915.238745
564.218638,1110.308913,-8956.491898,-2068.457845
564.218965,1776.494261,-9178.553681,-383.047749
564.219293,3775.050304,-8142.265362,689.485948
564.219620,3775.050304,-9326.594869,1915.238745
564.219948,1258.350101,-10658.965565,1915.238745
564.220276,-296.082377,-11103.089130,1149.143247
564.220603,-2072.576638,-10732.986159,612.876398
564.220931,-2368.659014,-11251.130318,459.657299
564.221258,-2220.617826,-10066.800811,459.657299
564.221586,-148.041188,-8438.347739,1072.533697
564.221913,1036.288319,-8068.244768,1608.800546
564.222241,666.185348,-7994.224174,1532.190996
564.222568,0.000000,-7550.100608,536.266849
564.222896,-296.082377,-6587.832884,-689.485948
564.223224,74.020594,-7846.182985,-1149.143247
564.223551,0.000000,-8512.368333,-1072.533697
564.223879,444.123565,-8956.491898,0.000000
564.224206,1850.514855,-8364.327145,1302.362347
564.224534,1776.494261,-9030.512492,2528.115143
564.224861,0.000000,-9548.656652,2451.505594
564.225189,-1258.350101,-9622.677246,2145.067394
564.225516,-1924.535449,-10140.821405,842.705048
564.225844,-2220.617826,-10066.800811,995.924147
564.226172,-2220.617826,-8438.347739,612.876398
564.226499,-296.082377,-6809.894666,1685.410096
564.226827,814.226536,-6883.915261,2221.676944
564.227154,-370.102971,-6957.935855,1915.238745
564.227482,-1036.288319,-7328.038826,1072.533697
564.227809,-1776.494261,-6883.915261,0.000000
564.228137,-1776.494261,-8512.368333,0.000000
564.228464,-2886.803174,-9474.636058,-459.657299
564.228792,-1036.288319,-8438.347739,229.828649
564.229120,1184.329507,-7772.162391,1455.581446
564.229447,1702.473667,-8290.306550,2068.457845
564.229775,148.041188,-8808.450710,1915.238745
564.230102,-1184.329507,-9178.553681,1072.533697
564.230430,-1628.453072,-9622.677246,229.828649
564.230757,-2146.597232,-9548.656652,-153.219100
564.231085,-1850.514855,-9252.574275,0.000000
564.231412,-888.247130,-8586.388927,229.828649
564.231740,0.000000,-9030.512492,842.705048
564.232067,-518.144159,-8956.491898,689.485948
564.232395,0.000000,-8438.347739,0.000000
564.232723,296.082377,-8290.306550,-689.485948
564.233050,370.102971,-10362.883188,-1072.533697
564.233378,-148.041188,-10584.944971,-1532.190996
564.233705,1184.329507,-9696.697840,-612.876398
564.234033,1998.556043,-9178.553681,-229.828649
564.234360,1924.535449,-11103.089130,1149.143247
564.234688,296.082377,-11473.192101,459.657299
564.235015,-518.144159,-10584.944971,0.000000
564.235343,-444.123565,-10807.006753,-76.609550
564.235671,-962.267725,-11547.212695,229.828649
564.235998,0.000000,-10955.047942,-459.657299
564.236326,814.226536,-9622.677246,229.828649
564.236653,1554.432478,-10066.800811,536.266849
564.236981,1406.391290,-10140.821405,919.314598
564.237308,592.164754,-9252.574275,153.219100
564.237636,740.205942,-8882.471304,-383.047749
564.237963,222.061783,-10140.821405,0.000000
564.238291,148.041188,-10658.965565,0.000000
564.238619,1036.288319,-9400.615463,842.705048
564.238946,1480.411884,-9400.615463,1838.629195
564.239274,592.164754,-10807.006753,2451.505594
564.239601,-1776.494261,-10881.027347,1838.629195
564.239929,-2146.597232,-9992.780217,1378.971896
564.240256,-2220.617826,-9770.718434,766.095498
564.240584,-2146.597232,-9770.718434,1072.533697
564.240911,-1776.494261,-8660.409521,1455.581446
564.241239,-888.247130,-7846.182985,1302.362347
564.241566,-666.185348,-8364.327145,2298.286494
564.241894,-1776.494261,-7698.141797,1455.581446
564.242222,-1850.514855,-7105.977043,459.657299
564.242549,-1702.473667,-7402.059420,-229.828649
564.242877,-1406.391290,-8068.244768,-459.657299
564.243204,-1776.494261,-7772.162391,229.828649
564.243532,74.020594,-6957.935855,1072.533697
564.243859,814.226536,-7698.141797,2298.286494
564.244187,0.000000,-9030.512492,2451.505594
564.244514,-1332.370696,-8734.430116,2068.457845
564.244842,-2146.597232,-8364.327145,689.485948
564.245170,-1850.514855,-9252.574275,459.657299
564.245497,-2368.659014,-9474.636058,0.000000
564.245825,-592.164754,-7772.162391,612.876398
564.246152,1776.494261,-6661.853478,1149.143247
564.246480,2886.803174,-6957.935855,1608.800546
564.246807,1924.535449,-7254.018232,1378.971896
564.247135,1110.308913,-7179.997637,459.657299
564.247462,518.144159,-7772.162391,-383.047749
564.247790,0.000000,-8808.450710,-383.047749
564.248118,74.020594,-9030.512492,-306.438199
564.248445,1554.432478,-8216.285956,842.705048
564.248773,2590.720797,-9252.574275,1762.019645
564.249100,1554.432478,-9400.615463,2068.457845
564.249428,592.164754,-9030.512492,1225.752797
564.249755,-296.082377,-9030.512492,-536.266849
564.250083,-1480.411884,-9844.739029,-383.047749
564.250410,-2886.803174,-9696.697840,-1302.362347
564.250738,-1628.453072,-8290.306550,-689.485948
564.251066,-296.082377,-7179.997637,-153.219100
564.251393,1184.329507,-7254.018232,842.705048
564.251721,0.000000,-7179.997637,76.609550
564.252048,518.144159,-7328.038826,153.219100
564.252376,-740.205942,-8660.409521,-842.705048
564.252703,-2220.617826,-9992.780217,-995.924147
564.253031,-2516.700203,-9252.574275,-919.314598
564.253358,0.000000,-9400.615463,0.000000
564.253686,1110.308913,-10362.883188,1685.410096
564.254013,592.164754,-11177.109724,2145.067394
564.254341,0.000000,-10955.047942,1762.019645
564.254669,-666.185348,-11103.089130,842.705048
564.254996,-1998.556043,-11547.212695,0.000000
564.255324,-2738.761985,-11769.274478,-995.924147
564.255651,-2294.638420,-10584.944971,-1072.533697
564.255979,-1036.288319,-9770.718434,-919.314598
564.256306,0.000000,-9622.677246,-229.828649
564.256634,296.082377,-8586.388927,-459.657299
564.256961,370.102971,-8290.306550,-536.266849
564.257289,814.226536,-9178.553681,-689.485948
564.257617,148.041188,-9844.739029,-536.266849
564.257944,296.082377,-9400.615463,383.047749
564.258272,1406.391290,-8956.491898,1608.800546
564.258599,1332.370696,-10881.027347,2298.286494
564.258927,0.000000,-11621.233289,2298.286494
564.259254,-518.144159,-10955.047942,2068.457845
564.259582,-888.247130,-10288.862594,1072.533697
564.259909,0.000000,-10732.986159,1225.752797
564.260237,0.000000,-9400.615463,536.266849
564.260565,740.205942,-8512.368333,1455.581446
564.260892,1998.556043,-7698.141797,1225.752797
564.261220,1776.494261,-8808.450710,1532.190996
564.261547,888.247130,-7476.080014,1225.752797
564.261875,666.185348,-8142.265362,919.314598
564.262202,296.082377,-9622.677246,919.314598
564.262530,-370.102971,-9844.739029,1225.752797
564.262857,222.061783,-9548.656652,2298.286494
564.263185,592.164754,-9252.574275,3140.991542
564.263512,0.000000,-10362.883188,3217.601092
564.263840,-2294.638420,-10214.842000,2834.553343
564.264168,-3997.112087,-9252.574275,1149.143247
564.264495,-4515.256246,-8734.430116,306.438199
564.264823,-4515.256246,-8734.430116,-306.438199
564.265150,-3775.050304,-7105.977043,229.828649
564.265478,-1850.514855,-6143.709319,612.876398
564.265805,-666.185348,-5921.647536,229.828649
564.266133,-1036.288319,-6735.874072,306.438199
564.266460,-1850.514855,-6513.812290,-689.485948
564.266788,-1628.453072,-6513.812290,-2221.676944
564.267116,-1036.288319,-7402.059420,-766.095498
564.267443,-222.061783,-8142.265362,-459.657299
564.267771,1258.350101,-7698.141797,766.095498
564.268098,2664.741391,-8512.368333,2451.505594
564.268426,2442.679609,-9770.718434,3064.381992
564.268753,74.020594,-10436.903782,2911.162892
564.269081,-518.144159,-10510.924376,1302.362347
564.269408,-1924.535449,-10510.924376,-306.438199
564.269736,-1554.432478,-10807.006753,-1302.362347
564.270064,-1110.308913,-8882.471304,-1608.800546
564.270391,2294.638420,-7550.100608,-1149.143247
564.270719,2738.761985,-6809.894666,0.000000
564.271046,3997.112087,-6661.853478,306.438199
564.271374,2368.659014,-6735.874072,-766.095498
564.271701,1924.535449,-7402.059420,-1149.143247
564.272029,148.041188,-10066.800811,-1455.581446
564.272356,-1036.288319,-9992.780217,-612.876398
564.272684,222.061783,-10140.821405,689.485948
564.273012,1406.391290,-9696.697840,2145.067394
564.273339,2072.576638,-10807.006753,3370.820191
564.273667,0.000000,-10881.027347,2604.724693
564.273994,-962.267725,-10362.883188,1915.238745
564.274322,-2738.761985,-10436.903782,0.000000
564.274649,-3701.029710,-10658.965565,-1302.362347
564.274977,-3552.988522,-9474.636058,-1838.629195
564.275304,-1184.329507,-8142.265362,-1302.362347
564.275632,296.082377,-7994.224174,0.000000
564.275959,888.247130,-7994.224174,0.000000
564.276287,1036.288319,-8216.285956,153.219100
564.276615,-222.061783,-9104.533087,0.000000
564.276942,-1036.288319,-11621.233289,76.609550
564.277270,-3108.864956,-11695.253884,0.000000
564.277597,-1110.308913,-10955.047942,1302.362347
564.277925,-444.123565,-10510.924376,2374.896044
564.278252,1406.391290,-11177.109724,3830.477490
564.278580,-148.041188,-10732.986159,3370.820191
564.278907,0.000000,-9696.697840,2911.162892
564.279235,-1702.473667,-9474.636058,1455.581446
564.279563,-2294.638420,-9770.718434,153.219100
564.279890,-2368.659014,-8512.368333,-459.657299
564.280218,-740.205942,-7698.141797,-306.438199
564.280545,814.226536,-7105.977043,0.000000
564.280873,1036.288319,-7254.018232,842.705048
564.281200,1554.432478,-7476.080014,229.828649
564.281528,1110.308913,-7328.038826,0.000000
564.281855,1406.391290,-9326.594869,383.047749
564.282183,518.144159,-9474.636058,689.485948
564.282511,666.185348,-9326.594869,2451.505594
564.282838,1258.350101,-10288.862594,2681.334243
564.283166,0.000000,-10881.027347,3140.991542
564.283493,-1850.514855,-10584.944971,2528.115143
564.283821,-2220.617826,-9918.759623,1685.410096
564.284148,-2146.597232,-9474.636058,536.266849
564.284476,-2072.576638,-8734.430116,536.266849
564.284803,-2072.576638,-7254.018232,0.000000
564.285131,-592.164754,-5699.585753,-459.657299
564.285459,0.000000,-6513.812290,-153.219100
564.285786,-518.144159,-6809.894666,-1532.190996
564.286114,-962.267725,-5699.585753,-1225.752797
564.286441,-444.123565,-6661.853478,-1532.190996
564.286769,148.041188,-8512.368333,-459.657299
564.287096,0.000000,-9030.512492,229.828649
564.287424,1184.329507,-9030.512492,1915.238745
564.287751,1998.556043,-9252.574275,3140.991542
564.288079,518.144159,-10732.986159,2987.772442
564.288406,-1554.432478,-10732.986159,2068.457845
564.288734,-2146.597232,-10436.903782,689.485948
564.289062,-1998.556043,-10288.862594,-153.219100
564.289389,-1998.556043,-9770.718434,0.000000
564.289717,-222.061783,-8216.285956,-612.876398
564.290044,1554.432478,-7254.018232,-459.657299
564.290371,1036.288319,-8142.265362,-306.438199
564.290699,222.061783,-8142.265362,-1149.143247
564.291026,74.020594,-7772.162391,-1455.581446
564.291354,444.123565,-7550.100608,-2374.896044
564.291681,1258.350101,-9622.677246,-1149.143247
564.292009,1480.411884,-9770.718434,-229.828649
564.292336,2516.700203,-9548.656652,1685.410096
564.292664,2738.761985,-10288.862594,3064.381992
564.292991,1110.308913,-11251.130318,2911.162892
564.293319,-1036.288319,-11621.233289,2068.457845
564.293646,-2516.700203,-11103.089130,919.314598
564.293974,-2960.823768,-11843.295072,229.828649
564.294301,-3034.844362,-10807.006753,-306.438199
564.294629,-740.205942,-8734.430116,-383.047749
564.294956,666.185348,-7550.100608,306.438199
564.295284,1184.329507,-8216.285956,459.657299
564.295611,222.061783,-8586.388927,-383.047749
564.295938,-444.123565,-8290.306550,-919.314598
564.296266,-666.185348,-7920.203579,-1378.971896
564.296593,0.000000,-9696.697840,-306.438199
564.296921,0.000000,-9992.780217,536.266849
564.297248,888.247130,-9992.780217,2298.286494
564.297576,1554.432478,-10732.986159,3524.039291
564.297903,148.041188,-11251.130318,4060.306139
564.298231,-1036.288319,-11251.130318,3830.477490
564.298558,-2368.659014,-10362.883188,2374.896044
564.298886,-2442.679609,-10807.006753,1608.800546
564.299213,-3256.906145,-9548.656652,459.657299
564.299541,-1850.514855,-7772.162391,383.047749
564.299868,-222.061783,-6143.709319,-153.219100
564.300196,1406.391290,-6439.791695,1149.143247
564.300523,740.205942,-6291.750507,0.000000
564.300851,518.144159,-6735.874072,-229.828649
564.301178,-444.123565,-7994.224174,-1072.533697
564.301505,-370.102971,-9548.656652,-229.828649
564.301833,-148.041188,-9178.553681,459.657299
564.302160,1332.370696,-9252.574275,2145.067394
564.302488,1554.432478,-10214.842000,3064.381992
564.302815,296.082377,-10732.986159,3217.601092
564.303143,-296.082377,-9474.636058,2834.553343
564.303470,-1036.288319,-8216.285956,1608.800546
564.303798,-1924.535449,-9696.697840,383.047749
564.304125,-3627.009116,-9474.636058,-919.314598
564.304453,-2368.659014,-8512.368333,-766.095498
564.304780,-1258.350101,-7105.977043,-842.705048
564.305108,-370.102971,-7031.956449,-1072.533697
564.305435,-592.164754,-6735.874072,-1608.800546
564.305763,0.000000,-6513.812290,-2145.067394
564.306090,0.000000,-8290.306550,-1838.629195
564.306418,0.000000,-8586.388927,-2068.457845
564.306745,0.000000,-8438.347739,-306.438199
564.307072,1702.473667,-8512.368333,536.266849
564.307400,1702.473667,-9770.718434,1991.848295
564.307727,148.041188,-10658.965565,2068.457845
564.308055,-518.144159,-9992.780217,1302.362347
564.308382,-592.164754,-9844.739029,1225.752797
564.308710,-1036.288319,-10584.944971,153.219100
564.309037,-1480.411884,-9770.718434,-229.828649
564.309365,0.000000,-8734.430116,-536.266849
564.309692,1036.288319,-8660.409521,-306.438199
564.310020,1036.288319,-8438.347739,-689.485948
564.310347,592.164754,-7550.100608,-1685.410096
564.310675,1258.350101,-7994.224174,-1762.019645
564.311002,1702.473667,-9252.574275,-1532.190996
564.311330,1628.453072,-10214.842000,-612.876398
564.311657,2294.638420,-9474.636058,459.657299
564.311985,3108.864956,-10436.903782,2374.896044
564.312312,2146.597232,-11473.192101,3217.601092
564.312639,-370.102971,-11843.295072,2911.162892
564.312967,-1776.494261,-11621.233289,2298.286494
564.313294,-2886.803174,-11547.212695,1762.019645
564.313622,-3182.885551,-11695.253884,1072.533697
564.313949,-3404.947333,-9844.739029,1072.533697
564.314277,-1332.370696,-8808.450710,1302.362347
564.314604,-592.164754,-8882.471304,1225.752797
564.314932,-962.267725,-9474.636058,0.000000
564.315259,-2220.617826,-8068.244768,-383.047749
564.315587,-1258.350101,-7994.224174,-1532.190996
564.315914,-814.226536,-8808.450710,-1455.581446
564.316242,0.000000,-9622.677246,-612.876398
564.316569,1480.411884,-9474.636058,842.705048
564.316897,2590.720797,-9030.512492,2604.724693
564.317224,2368.659014,-10140.821405,3524.039291
564.317552,-518.144159,-11029.068536,2911.162892
564.317879,-2220.617826,-10955.047942,2374.896044
564.318206,-2960.823768,-11621.233289,1838.629195
564.318534,-3182.885551,-11547.212695,1302.362347
564.318861,-2590.720797,-9696.697840,766.095498
564.319189,0.000000,-7698.141797,1685.410096
564.319516,814.226536,-6883.915261,1302.362347
564.319844,1406.391290,-6661.853478,995.924147
564.320171,814.226536,-5995.668130,-383.047749
564.320499,370.102971,-5995.668130,-1378.971896
564.320826,0.000000,-7920.203579,-1685.410096
564.321154,-1036.288319,-8216.285956,-1532.190996
564.321481,592.164754,-7994.224174,229.828649
564.321809,1924.535449,-7994.224174,1685.410096
564.322136,2368.659014,-9030.512492,2911.162892
564.322464,370.102971,-9622.677246,2911.162892
564.322791,-814.226536,-9326.594869,1915.238745
564.323119,-2368.659014,-9770.718434,1149.143247
564.323446,-3552.988522,-9918.759623,383.047749
564.323773,-2368.659014,-8290.306550,76.609550
564.324101,-222.061783,-6439.791695,536.266849
564.324428,1628.453072,-6439.791695,1149.143247
564.324756,814.226536,-6587.832884,383.047749
564.325083,592.164754,-5847.626942,-383.047749
564.325411,0.000000,-5773.606348,-1685.410096
564.325738,-444.123565,-7624.121203,-1532.190996
564.326066,-2072.576638,-8956.491898,-1991.848295
564.326393,-814.226536,-9252.574275,-612.876398
564.326721,592.164754,-9178.553681,842.705048
564.327048,1480.411884,-9474.636058,2298.286494
564.327376,444.123565,-9770.718434,3064.381992
564.327703,-370.102971,-10214.842000,1608.800546
564.328031,-1628.453072,-10214.842000,1149.143247
564.328358,-3256.906145,-9918.759623,-153.219100
564.328686,-3108.864956,-9178.553681,-459.657299
564.329013,-1332.370696,-8068.244768,0.000000
564.329341,-222.061783,-8290.306550,-153.219100
564.329668,-370.102971,-8364.327145,-459.657299
564.329995,666.185348,-7402.059420,-919.314598
564.330323,222.061783,-8142.265362,-1378.971896
564.330650,370.102971,-9474.636058,-1762.019645
564.330978,-296.082377,-9844.739029,-1149.143247
564.331305,1332.370696,-9696.697840,0.000000
564.331633,2442.679609,-10362.883188,1302.362347
564.331960,1850.514855,-11621.233289,2374.896044
564.332288,518.144159,-11843.295072,2604.724693
564.332615,148.041188,-11177.109724,2221.676944
564.332943,-296.082377,-12213.398043,2298.286494
564.333270,-1332.370696,-11917.315666,1685.410096
564.333598,-1480.411884,-10955.047942,1762.019645
564.333925,-148.041188,-9622.677246,1455.581446
564.334253,296.082377,-9918.759623,1685.410096
564.334580,-814.226536,-8956.491898,306.438199
564.334908,-518.144159,-8660.409521,-153.219100
564.335235,-814.226536,-8290.306550,-995.924147
564.335562,-296.082377,-8956.491898,-919.314598
564.335890,-444.123565,-9030.512492,-229.828649
564.336217,1258.350101,-7920.203579,1225.752797
564.336545,1924.535449,-9104.533087,1762.019645
564.336872,222.061783,-10362.883188,2068.457845
564.337200,-1184.329507,-10288.862594,1838.629195
564.337527,-2220.617826,-9992.780217,1608.800546
564.337855,-2294.638420,-10214.842000,1455.581446
564.338182,-2516.700203,-10436.903782,1225.752797
564.338510,-1184.329507,-9178.553681,1915.238745
564.338837,-148.041188,-8364.327145,2221.676944
564.339165,0.000000,-8290.306550,1838.629195
564.339492,-1480.411884,-7550.100608,383.047749
564.339820,-1332.370696,-7698.141797,-766.095498
564.340147,-1924.535449,-8068.244768,-2068.457845
564.340475,-888.247130,-9030.512492,-1762.019645
564.340802,-148.041188,-8660.409521,-1378.971896
564.341129,2072.576638,-7920.203579,0.000000
564.341457,3256.906145,-9326.594869,1762.019645
564.341784,1998.556043,-9992.780217,1532.190996
564.342112,74.020594,-10066.800811,1072.533697
564.342439,-1110.308913,-9844.739029,0.000000
564.342767,-1628.453072,-9844.739029,-153.219100
564.343094,-2294.638420,-9474.636058,0.000000
564.343422,-740.205942,-8364.327145,842.705048
564.343749,518.144159,-7476.080014,1225.752797
564.344077,1184.329507,-7920.203579,1532.190996
564.344404,222.061783,-6957.935855,689.485948
564.344732,148.041188,-6143.709319,-229.828649
564.345059,148.041188,-7476.080014,-1455.581446
564.345387,-444.123565,-8364.327145,-1685.410096
564.345714,-296.082377,-7920.203579,-1225.752797
564.346042,1924.535449,-7624.121203,0.000000
564.346369,2664.741391,-7772.162391,1225.752797
564.346696,1776.494261,-9474.636058,1608.800546
564.347024,888.247130,-9548.656652,1455.581446
564.347351,-666.185348,-9696.697840,766.095498
564.347679,-1850.514855,-11399.171507,306.438199
564.348006,-2738.761985,-10658.965565,689.485948
564.348334,-888.247130,-9400.615463,995.924147
564.348661,296.082377,-8734.430116,1532.190996
564.348989,444.123565,-9178.553681,1608.800546
564.349316,-740.205942,-8808.450710,1455.581446
564.349644,-518.144159,-8290.306550,689.485948
564.349971,-1258.350101,-8438.347739,0.000000
564.350299,-2220.617826,-9030.512492,-1072.533697
564.350626,-1850.514855,-8216.285956,-1072.533697
564.350954,-222.061783,-7772.162391,153.219100
564.351281,814.226536,-8438.347739,995.924147
564.351609,444.123565,-8734.430116,1378.971896
564.351936,-222.061783,-9178.553681,1685.410096
564.352263,-1036.288319,-9696.697840,1072.533697
564.352591,-2368.659014,-11621.233289,919.314598
564.352918,-3182.885551,-10658.965565,536.266849
564.353246,-2072.576638,-9770.718434,919.314598
564.353573,-592.164754,-9104.533087,1225.752797
564.353901,-740.205942,-9178.553681,842.705048
564.354228,-518.144159,-8956.491898,842.705048
564.354556,0.000000,-8364.327145,153.219100
564.354883,888.247130,-8660.409521,76.609550
564.355211,148.041188,-9104.533087,-229.828649
564.355538,1110.308913,-9178.553681,536.266849
564.355866,1776.494261,-9178.553681,842.705048
564.356193,1258.350101,-10436.903782,1532.190996
564.356521,-222.061783,-10584.944971,1532.190996
564.356848,-296.082377,-10288.862594,1532.190996
564.357176,-888.247130,-10362.883188,1072.533697
564.357503,-592.164754,-10658.965565,919.314598
564.357830,-1258.350101,-9992.780217,612.876398
564.358158,148.041188,-8734.430116,1072.533697
564.358485,592.164754,-8364.327145,612.876398
564.358813,0.000000,-8290.306550,612.876398
564.359140,-370.102971,-7476.080014,76.609550
564.359468,-370.102971,-7105.977043,-459.657299
564.359795,-592.164754,-8068.244768,-766.095498
564.360123,-370.102971,-8142.265362,-536.266849
564.360450,0.000000,-8364.327145,459.657299
564.360778,666.185348,-8512.368333,995.924147
564.361105,444.123565,-10066.800811,1762.019645
564.361433,-1184.329507,-10584.944971,1072.533697
564.361760,-1702.473667,-10140.821405,842.705048
564.362088,-2072.576638,-9474.636058,-612.876398
564.362415,-1776.494261,-10140.821405,0.000000
564.362743,-1184.329507,-9178.553681,306.438199
564.363070,370.102971,-7994.224174,842.705048
564.363397,1036.288319,-8438.347739,536.266849
564.363725,-148.041188,-8142.265362,1149.143247
564.364052,-592.164754,-7994.224174,76.609550
564.364380,-888.247130,-8586.388927,-306.438199
564.364707,-518.144159,-9400.615463,-459.657299
564.365035,-888.247130,-9474.636058,-153.219100
564.365362,962.267725,-8956.491898,995.924147
564.365690,1628.453072,-8734.430116,1762.019645
564.366017,1406.391290,-9992.780217,2221.676944
564.366345,0.000000,-9696.697840,1225.752797
564.366672,-518.144159,-9474.636058,689.485948
564.367000,-1184.329507,-9548.656652,-153.219100
564.367327,-1924.535449,-9844.739029,-766.095498
564.367655,-1554.432478,-9474.636058,-383.047749
564.367982,148.041188,-8142.265362,306.438199
564.368310,666.185348,-8586.388927,919.314598
564.368637,222.061783,-8882.471304,689.485948
564.368964,0.000000,-8290.306550,612.876398
564.369292,-518.144159,-8216.285956,-306.438199
564.369619,-666.185348,-9918.759623,-153.219100
564.369947,-888.247130,-9844.739029,0.000000
564.370274,740.205942,-8660.409521,842.705048
564.370602,1554.432478,-8882.471304,1915.238745
564.370929,1110.308913,-9770.718434,2068.457845
564.371257,-370.102971,-9770.718434,1608.800546
564.371584,-888.247130,-9252.574275,995.924147
564.371912,-1480.411884,-9400.615463,76.609550
564.372239,-1776.494261,-9770.718434,0.000000
564.372567,-1184.329507,-8660.409521,76.609550
564.372894,222.061783,-7994.224174,1072.533697
564.373222,1258.350101,-8290.306550,1378.971896
564.373549,0.000000,-8438.347739,1072.533697
564.373877,-370.102971,-9030.512492,1302.362347
564.374204,-1184.329507,-9474.636058,0.000000
564.374531,-1850.514855,-10140.821405,-76.609550
564.374859,-1406.391290,-9844.739029,229.828649
564.375186,0.000000,-9252.574275,1072.533697
564.375514,1184.329507,-9474.636058,1991.848295
564.375841,888.247130,-9992.780217,1378.971896
564.376169,-296.082377,-8956.491898,1378.971896
564.376496,-296.082377,-8586.388927,612.876398
564.376824,-1554.432478,-9622.677246,-153.219100
564.377151,-2590.720797,-10214.842000,-459.657299
564.377479,-1924.535449,-8586.388927,76.609550
564.377806,0.000000,-7772.162391,383.047749
564.378134,1332.370696,-8438.347739,1149.143247
564.378461,666.185348,-8512.368333,766.095498
564.378789,518.144159,-8586.388927,766.095498
564.379116,0.000000,-9252.574275,229.828649
564.379444,-1628.453072,-10066.800811,-689.485948
564.379771,-1776.494261,-9918.759623,-612.876398
564.380099,222.061783,-8882.471304,383.047749
564.380426,1702.473667,-8808.450710,1072.533697
564.380753,1998.556043,-8956.491898,1838.629195
564.381081,1258.350101,-8956.491898,1302.362347
564.381408,74.020594,-8512.368333,536.266849
564.381736,-1406.391290,-9474.636058,-842.705048
564.382063,-2442.679609,-10140.821405,-1302.362347
564.382391,-1480.411884,-9474.636058,-766.095498
564.382718,-666.185348,-8586.388927,-536.266849
564.383046,814.226536,-9104.533087,306.438199
564.383373,888.247130,-8956.491898,766.095498
564.383701,1258.350101,-8216.285956,766.095498
564.384028,1036.288319,-8438.347739,383.047749
564.384356,518.144159,-8882.471304,0.000000
564.384683,518.144159,-8660.409521,229.828649
564.385011,1332.370696,-8364.327145,1302.362347
564.385338,1480.411884,-8808.450710,1991.848295
564.385666,814.226536,-9622.677246,2451.505594
564.385993,-296.082377,-9400.615463,2145.067394
564.386320,-1258.350101,-9104.533087,1225.752797
564.386648,-1924.535449,-10436.903782,612.876398
564.386975,-3182.885551,-9770.718434,-229.828649
564.387303,-1850.514855,-8956.491898,306.438199
564.387630,-814.226536,-8290.306550,995.924147
564.387958,74.020594,-9030.512492,689.485948
564.388285,-740.205942,-8734.430116,612.876398
564.388613,-740.205942,-8216.285956,612.876398
564.388940,-1184.329507,-8068.244768,0.000000
564.389268,-1258.350101,-8808.450710,229.828649
564.389595,-1184.329507,-9252.574275,842.705048
564.389923,0.000000,-8364.327145,1302.362347
564.390250,444.123565,-9178.553681,2145.067394
564.390578,-1110.308913,-9474.636058,2068.457845
564.390905,-1554.432478,-9474.636058,2145.067394
564.391233,-2368.659014,-9548.656652,612.876398
564.391561,-2738.761985,-10436.903782,153.219100
564.391888,-2738.761985,-9622.677246,-306.438199
564.392216,-592.164754,-8290.306550,0.000000
564.392543,296.082377,-7698.141797,153.219100
564.392871,1406.391290,-8068.244768,995.924147
564.393199,1036.288319,-8290.306550,0.000000
564.393526,888.247130,-7772.162391,76.609550
564.393854,1258.350101,-8660.409521,-229.828649
564.394182,962.267725,-9178.553681,76.609550
564.394509,1554.432478,-9252.574275,1762.019645
564.394837,1924.535449,-9400.615463,2451.505594
564.395165,1554.432478,-10955.047942,3140.991542
564.395492,-222.061783,-10881.027347,2528.115143
564.395820,-1702.473667,-10436.903782,1608.800546
564.396148,-2516.700203,-9770.718434,0.000000
564.396475,-2368.659014,-9844.739029,-383.047749
564.396803,-2516.700203,-9548.656652,-536.266849
564.397131,-370.102971,-7772.162391,0.000000
564.397458,444.123565,-7105.977043,-229.828649
564.397786,1332.370696,-7624.121203,306.438199
564.398114,-444.123565,-7698.141797,-459.657299
564.398441,-592.164754,-7846.182985,-842.705048
564.398769,-962.267725,-8586.388927,-1072.533697
564.399097,-1776.494261,-9178.553681,-536.266849
564.399424,-296.082377,-9400.615463,536.266849
564.399752,1036.288319,-9696.697840,2221.676944
564.400079,1184.329507,-9770.718434,2681.334243
564.400407,0.000000,-10140.821405,2451.505594
564.400735,-962.267725,-10066.800811,1838.629195
564.401062,-2220.617826,-10288.862594,0.000000
564.401390,-1850.514855,-11547.212695,-689.485948
564.401718,-2368.659014,-10288.862594,-536.266849
564.402045,74.020594,-8734.430116,0.000000
564.402373,1480.411884,-8216.285956,0.000000
564.402701,1628.453072,-8660.409521,76.609550
564.403028,1184.329507,-8660.409521,-842.705048
564.403356,1258.350101,-8068.244768,0.000000
564.403684,1184.329507,-9178.553681,-536.266849
564.404011,1480.411884,-8808.450710,153.219100
564.404339,2812.782580,-9030.512492,1685.410096
564.404667,3552.988522,-9252.574275,3677.258390
564.404994,3034.844362,-10732.986159,4673.182538
564.405322,518.144159,-10584.944971,4519.963438
564.405650,-1258.350101,-10288.862594,3830.477490
564.405977,-2368.659014,-10362.883188,2681.334243
564.406305,-2886.803174,-10584.944971,2145.067394
564.406632,-2590.720797,-9400.615463,1991.848295
564.406960,-518.144159,-7624.121203,2221.676944
564.407288,888.247130,-7031.956449,2528.115143
564.407615,296.082377,-7402.059420,2528.115143
564.407943,-592.164754,-7402.059420,2068.457845
564.408271,-296.082377,-7105.977043,1608.800546
564.408598,-740.205942,-7624.121203,1455.581446
564.408926,-2368.659014,-9178.553681,1838.629195
564.409254,-2368.659014,-9474.636058,3064.381992
564.409581,-1258.350101,-9548.656652,4443.353888
564.409909,-888.247130,-9474.636058,5439.278036
564.410237,-1850.514855,-9622.677246,5822.325785
564.410564,-2442.679609,-9474.636058,4443.353888
564.410892,-2294.638420,-8586.388927,3524.039291
564.411220,-2738.761985,-9030.512492,2911.162892
564.411547,-3182.885551,-8808.450710,2221.676944
564.411875,-1332.370696,-7476.080014,2451.505594
564.412203,1702.473667,-6735.874072,3370.820191
564.412530,3034.844362,-6439.791695,3677.258390
564.412858,2738.761985,-7179.997637,3677.258390
564.413186,2368.659014,-7994.224174,3294.210641
564.413513,1628.453072,-8512.368333,2681.334243
564.413841,592.164754,-9622.677246,3140.991542
564.414168,-296.082377,-10436.903782,3064.381992
564.414496,-148.041188,-10584.944971,3677.258390
564.414824,1406.391290,-9770.718434,4903.011187
564.415151,2516.700203,-9770.718434,5975.544884
564.415479,1406.391290,-9770.718434,6052.154434
564.415807,0.000000,-10362.883188,4673.182538
564.416134,-1554.432478,-10658.965565,4213.525239
564.416462,-3034.844362,-9548.656652,2451.505594
564.416790,-3034.844362,-9474.636058,2374.896044
564.417117,-3034.844362,-9030.512492,2145.067394
564.417445,-1628.453072,-8512.368333,1762.019645
564.417773,-592.164754,-7402.059420,2374.896044
564.418100,296.082377,-6957.935855,2374.896044
564.418428,0.000000,-7920.203579,1608.800546
564.418756,-2886.803174,-9474.636058,766.095498
564.419083,-4737.318029,-10881.027347,153.219100
564.419411,-5551.544565,-10807.006753,0.000000
564.419739,-3552.988522,-9992.780217,842.705048
564.420066,-666.185348,-9548.656652,2068.457845
564.420394,2368.659014,-9474.636058,3447.429741
564.420721,4367.215058,-8808.450710,4213.525239
564.421049,5625.565159,-8438.347739,5132.839837
564.421377,4885.359217,-9178.553681,5132.839837
564.421704,3627.009116,-10510.924376,4673.182538
564.422032,2072.576638,-11843.295072,4366.744339
564.422360,2072.576638,-11325.150913,4136.915689
564.422687,3182.885551,-10510.924376,4826.401637
564.423015,4737.318029,-10584.944971,5822.325785
564.423343,4145.153275,-10732.986159,5286.058936
564.423670,2368.659014,-11621.233289,5975.544884
564.423998,1110.308913,-9992.780217,5056.230287
564.424326,-592.164754,-9770.718434,4519.963438
564.424653,-1258.350101,-9622.677246,3600.648841
564.424981,-2368.659014,-10288.862594,2987.772442
564.425309,-4959.379811,-10584.944971,2528.115143
564.425636,-5773.606348,-9474.636058,1991.848295
564.425964,-5773.606348,-7624.121203,2068.457845
564.426292,-4589.276840,-6587.832884,2374.896044
564.426619,-3330.926739,-6587.832884,2374.896044
564.426947,-3923.091493,-6661.853478,1915.238745
564.427275,-4367.215058,-6809.894666,1302.362347
564.427602,-3849.070898,-6365.771101,1149.143247
564.427930,-1776.494261,-6069.688724,2221.676944
564.428257,1480.411884,-6661.853478,3677.258390
564.428585,2960.823768,-8216.285956,4826.401637
564.428913,2368.659014,-9770.718434,4979.620737
564.429240,444.123565,-10584.944971,5362.668486
564.429568,0.000000,-10510.924376,4903.011187
564.429896,1628.453072,-10288.862594,4903.011187
564.430223,3627.009116,-9770.718434,4903.011187
564.430551,4663.297435,-10436.903782,4903.011187
564.430879,3478.967927,-10436.903782,4749.792088
564.431206,2294.638420,-10584.944971,4596.572988
564.431534,592.164754,-9326.594869,3677.258390
564.431862,1776.494261,-8586.388927,4443.353888
564.432189,3182.885551,-7920.203579,3447.429741
564.432517,444.123565,-8068.244768,3907.087040
564.432845,148.041188,-8808.450710,2834.553343
564.433172,-3478.967927,-9252.574275,3064.381992
564.433500,-5773.606348,-8808.450710,1991.848295
564.433828,-5477.523971,-8364.327145,1149.143247
564.434155,-3849.070898,-8290.306550,1915.238745
564.434483,-1998.556043,-7698.141797,1762.019645
564.434810,-740.205942,-7105.977043,2221.676944
564.435138,-1702.473667,-6809.894666,2604.724693
564.435466,-1850.514855,-7105.977043,1915.238745
564.435793,-2368.659014,-7550.100608,995.924147
564.436121,-2072.576638,-7920.203579,306.438199
564.436449,-148.041188,-8364.327145,995.924147
564.436776,1850.514855,-8142.265362,2451.505594
564.437104,3923.091493,-8734.430116,4213.525239
564.437432,4589.276840,-9770.718434,5286.058936
564.437759,3849.070898,-11177.109724,5209.449386
564.438087,1924.535449,-12213.398043,4519.963438
564.438415,0.000000,-13027.624579,3447.429741
564.438742,-1554.432478,-12509.480420,3140.991542
564.439070,-148.041188,-11695.253884,3677.258390
564.439398,2220.617826,-10214.842000,4979.620737
564.439725,4589.276840,-9696.697840,5592.497135
564.440053,4145.153275,-9178.553681,4903.011187
564.440381,1184.329507,-9252.574275,4749.792088
564.440708,-1628.453072,-9252.574275,3064.381992
564.441036,-4589.276840,-9474.636058,1455.581446
564.441363,-4959.379811,-9474.636058,995.924147
564.441691,-3182.885551,-8808.450710,1685.410096
564.442019,-592.164754,-7254.018232,3140.991542
564.442346,740.205942,-6883.915261,4749.792088
564.442674,888.247130,-7328.038826,5592.497135
564.443002,-444.123565,-7994.224174,5132.839837
564.443329,-2516.700203,-9400.615463,3983.696590
564.443657,-4589.276840,-10362.883188,2681.334243
564.443985,-5699.585753,-10436.903782,1608.800546
564.444312,-4293.194464,-9770.718434,1838.629195
564.444640,-2294.638420,-9178.553681,2834.553343
564.444968,370.102971,-8586.388927,3600.648841
564.445295,2146.597232,-7772.162391,3983.696590
564.445623,2146.597232,-7994.224174,3907.087040
564.445951,1480.411884,-8734.430116,3217.601092
564.446278,222.061783,-9030.512492,2451.505594
564.446606,-222.061783,-10140.821405,2221.676944
564.446934,222.061783,-10214.842000,2681.334243
564.447261,1036.288319,-10066.800811,3830.477490
564.447589,1036.288319,-9844.739029,4519.963438
564.447917,1036.288319,-9400.615463,4596.572988
564.448244,444.123565,-9104.533087,4443.353888
564.448572,444.123565,-8882.471304,3753.867940
564.448899,370.102971,-8512.368333,3064.381992
564.449227,592.164754,-8068.244768,2451.505594
564.449555,1184.329507,-7920.203579,3294.210641
564.449882,2220.617826,-7105.977043,2987.772442
564.450210,1924.535449,-7328.038826,3600.648841
564.450538,1850.514855,-7846.182985,3907.087040
564.450865,1258.350101,-8512.368333,3753.867940
564.451193,0.000000,-9252.574275,3830.477490
564.451521,-1036.288319,-9474.636058,3447.429741
564.451848,-1998.556043,-9696.697840,3217.601092
564.452176,-1850.514855,-10214.842000,3294.210641
564.452504,-1924.535449,-9992.780217,3140.991542
564.452831,-1702.473667,-9622.677246,3447.429741
564.453159,-1332.370696,-9104.533087,2757.943793
564.453487,-1406.391290,-8438.347739,2757.943793
564.453814,-1480.411884,-7920.203579,2298.286494
564.454142,-1480.411884,-7698.141797,1915.238745
564.454470,-1628.453072,-7550.100608,2221.676944
564.454797,-1184.329507,-7698.141797,2221.676944
564.455125,-962.267725,-7624.121203,2911.162892
564.455452,-296.082377,-8364.327145,3217.601092
564.455780,0.000000,-9030.512492,3140.991542
564.456108,370.102971,-9770.718434,3600.648841
564.456435,370.102971,-10362.883188,3907.087040
564.456763,-370.102971,-9770.718434,3753.867940
564.457091,-518.144159,-10362.883188,3677.258390
564.457418,-296.082377,-9992.780217,3294.210641
564.457746,370.102971,-9696.697840,3370.820191
564.458074,1036.288319,-9474.636058,2987.772442
564.458401,1702.473667,-9178.553681,3370.820191
564.458729,1776.494261,-9622.677246,2681.334243
564.459057,0.000000,-9918.759623,2604.724693
564.459384,370.102971,-9992.780217,2451.505594
564.459712,-518.144159,-10362.883188,2451.505594
564.460040,-222.061783,-9918.759623,2451.505594
564.460367,-444.123565,-10140.821405,2451.505594
564.460695,0.000000,-9696.697840,2528.115143
564.461023,-518.144159,-9770.718434,2298.286494
564.461350,-1184.329507,-9696.697840,2221.676944
564.461678,-1702.473667,-9326.594869,1762.019645
564.462006,-1776.494261,-9178.553681,1532.190996
564.462333,-1702.473667,-8438.347739,1608.800546
564.462661,-962.267725,-7994.224174,1455.581446
564.462988,-296.082377,-7402.059420,1302.362347
564.463316,0.000000,-7402.059420,1302.362347
564.463644,0.000000,-7328.038826,1378.971896
564.463971,0.000000,-8364.327145,1378.971896
564.464299,-592.164754,-8882.471304,1225.752797
564.464627,-518.144159,-9622.677246,1378.971896
564.464954,0.000000,-10436.903782,1608.800546
564.465282,444.123565,-10362.883188,1762.019645
564.465610,1184.329507,-10436.903782,2451.505594
564.465937,1258.350101,-10436.903782,2145.067394
564.466265,740.205942,-10362.883188,2068.457845
564.466593,222.061783,-9770.718434,1762.019645
564.466920,0.000000,-9326.594869,1455.581446
564.467248,-370.102971,-8808.450710,1225.752797
564.467576,148.041188,-8734.430116,612.876398
564.467903,-148.041188,-8586.388927,842.705048
564.468231,222.061783,-8068.244768,766.095498
564.468559,444.123565,-8068.244768,612.876398
564.468886,-444.123565,-8142.265362,306.438199
564.469214,-518.144159,-8290.306550,383.047749
564.469541,-888.247130,-8068.244768,383.047749
564.469869,-1110.308913,-7994.224174,0.000000
564.470197,-814.226536,-8142.265362,306.438199
564.470524,-814.226536,-8364.327145,383.047749
564.470852,-444.123565,-8734.430116,689.485948
564.471180,-296.082377,-8808.450710,536.266849
564.471507,-296.082377,-8734.430116,842.705048
564.471835,0.000000,-9030.512492,536.266849
564.472163,370.102971,-9104.533087,842.705048
564.472490,74.020594,-8660.409521,229.828649
564.472818,74.020594,-8808.450710,306.438199
564.473146,0.000000,-9178.553681,689.485948
564.473473,0.000000,-9474.636058,919.314598
564.473801,0.000000,-9622.677246,1378.971896
564.474129,0.000000,-9474.636058,995.924147
564.474456,-444.123565,-9474.636058,995.924147
564.474784,-222.061783,-9474.636058,919.314598
564.475112,0.000000,-9178.553681,536.266849
564.475439,0.000000,-8512.368333,995.924147
564.475767,0.000000,-8512.368333,1149.143247
564.476095,-444.123565,-8734.430116,1072.533697
564.476422,-518.144159,-8586.388927,995.924147
564.476750,-888.247130,-9030.512492,1225.752797
564.477077,-962.267725,-8734.430116,1072.533697
564.477405,-814.226536,-8808.450710,919.314598
564.477733,-1110.308913,-9326.594869,766.095498
564.478060,-740.205942,-9104.533087,689.485948
564.478388,-740.205942,-9104.533087,766.095498
564.478716,-296.082377,-9030.512492,842.705048
564.479043,222.061783,-9400.615463,842.705048
564.479371,0.000000,-9474.636058,842.705048
564.479699,0.000000,-9696.697840,842.705048
564.480026,-148.041188,-9918.759623,612.876398
564.480354,-444.123565,-9770.718434,612.876398
564.480682,-518.144159,-9622.677246,76.609550
564.481009,-148.041188,-9918.759623,766.095498
564.481337,-222.061783,-9696.697840,766.095498
564.481665,0.000000,-9474.636058,612.876398
564.481992,74.020594,-9400.615463,383.047749
564.482320,444.123565,-9252.574275,919.314598
564.482648,222.061783,-9030.512492,612.876398
564.482975,0.000000,-9178.553681,536.266849
564.483303,-222.061783,-9178.553681,612.876398
564.483630,-148.041188,-9400.615463,689.485948
564.483958,0.000000,-9400.615463,536.266849
564.484286,74.020594,-9474.636058,612.876398
564.484613,222.061783,-9030.512492,919.314598
564.484941,370.102971,-8956.491898,383.047749
564.485269,222.061783,-8882.471304,306.438199
564.485596,-222.061783,-8734.430116,306.438199
564.485924,0.000000,-8364.327145,306.438199
564.486252,-592.164754,-8808.450710,229.828649
564.486579,-518.144159,-9030.512492,306.438199
564.486907,-592.164754,-9030.512492,383.047749
564.487235,-814.226536,-8882.471304,306.438199
564.487562,-740.205942,-8734.430116,459.657299
564.487890,-518.144159,-8364.327145,229.828649
564.488218,-592.164754,-8290.306550,536.266849
564.488545,-518.144159,-8438.347739,76.609550
564.488873,-444.123565,-8586.388927,383.047749
564.489201,-444.123565,-8586.388927,459.657299
564.489528,-444.123565,-8512.368333,1225.752797
564.489856,-962.267725,-8956.491898,689.485948
564.490184,-888.247130,-9030.512492,689.485948
564.490511,-962.267725,-8956.491898,766.095498
564.490839,-592.164754,-9104.533087,612.876398
564.491166,-296.082377,-8364.327145,689.485948
564.491494,0.000000,-8734.430116,536.266849
564.491822,0.000000,-8882.471304,536.266849
564.492149,0.000000,-8956.491898,459.657299
564.492477,-296.082377,-9252.574275,459.657299
564.492805,-222.061783,-9326.594869,919.314598
564.493132,-518.144159,-9474.636058,919.314598
564.493460,-222.061783,-9622.677246,612.876398
564.493788,-296.082377,-9474.636058,459.657299
564.494115,0.000000,-9252.574275,766.095498
564.494443,222.061783,-9326.594869,76.609550
564.494771,-148.041188,-8660.409521,842.705048
564.495098,-148.041188,-8956.491898,842.705048
564.495426,-296.082377,-9178.553681,689.485948
564.495754,-370.102971,-9252.574275,612.876398
564.496082,-740.205942,-9178.553681,459.657299
564.496409,-444.123565,-8882.471304,919.314598
564.496737,-148.041188,-9252.574275,536.266849
564.497065,-222.061783,-9030.512492,612.876398
564.497392,-296.082377,-8882.471304,229.828649
564.497720,-222.061783,-8956.491898,689.485948
564.498048,-370.102971,-9104.533087,842.705048
564.498375,74.020594,-9474.636058,536.266849
564.498703,-592.164754,-9474.636058,536.266849
564.499031,-370.102971,-9770.718434,766.095498
564.499358,-518.144159,-9622.677246,842.705048
564.499686,0.000000,-9770.718434,1072.533697
564.500014,0.000000,-9326.594869,383.047749
564.500341,-296.082377,-9178.553681,766.095498
564.500669,-370.102971,-8808.450710,383.047749
564.500997,-814.226536,-8660.409521,306.438199
564.501324,-1258.350101,-8734.430116,306.438199
564.501652,-1036.288319,-8660.409521,995.924147
564.501980,-1036.288319,-8882.471304,842.705048
564.502307,-814.226536,-8734.430116,766.095498
564.502635,-370.102971,-8660.409521,842.705048
564.502963,74.020594,-8586.388927,459.657299
564.503290,518.144159,-8142.265362,229.828649
564.503618,370.102971,-8290.306550,306.438199
564.503946,222.061783,-8882.471304,459.657299
564.504273,0.000000,-9474.636058,919.314598
564.504601,-518.144159,-9770.718434,995.924147
564.504929,-444.123565,-9622.677246,1072.533697
564.505256,0.000000,-10066.800811,1072.533697
564.505584,222.061783,-9696.697840,919.314598
564.505912,592.164754,-9252.574275,612.876398
564.506239,592.164754,-8438.347739,229.828649
564.506567,962.267725,-7994.224174,153.219100
564.506895,148.041188,-7846.182985,459.657299
564.507222,0.000000,-8364.327145,459.657299
564.507550,-888.247130,-8808.450710,459.657299
564.507878,-888.247130,-9252.574275,842.705048
564.508205,-740.205942,-9474.636058,995.924147
564.508533,-740.205942,-9326.594869,459.657299
564.508861,-222.061783,-9252.574275,612.876398
564.509188,0.000000,-8660.409521,153.219100
564.509516,148.041188,-8290.306550,383.047749
564.509844,222.061783,-8290.306550,229.828649
564.510171,0.000000,-8512.368333,76.609550
564.510499,-444.123565,-9030.512492,229.828649
564.510827,-666.185348,-9400.615463,383.047749
564.511154,-1110.308913,-9622.677246,459.657299
564.511482,-1036.288319,-9696.697840,536.266849
564.511810,-666.185348,-9474.636058,153.219100
564.512137,-592.164754,-8882.471304,459.657299
564.512465,148.041188,-9030.512492,0.000000
564.512793,518.144159,-8956.491898,76.609550
564.513121,370.102971,-8956.491898,306.438199
564.513448,444.123565,-9400.615463,306.438199
564.513776,-222.061783,-9696.697840,995.924147
564.514104,-370.102971,-10436.903782,1072.533697
564.514431,-518.144159,-10066.800811,689.485948
564.514759,-666.185348,-9992.780217,1302.362347
564.515087,-444.123565,-9992.780217,919.314598
564.515414,-296.082377,-9030.512492,536.266849
564.515742,-222.061783,-8586.388927,383.047749
564.516070,-370.102971,-8660.409521,459.657299
564.516397,-592.164754,-8808.450710,536.266849
564.516725,-666.185348,-9326.594869,842.705048
564.517053,-740.205942,-8808.450710,1378.971896
564.517380,-888.247130,-9104.533087,612.876398
564.517708,-740.205942,-9252.574275,689.485948
564.518036,-592.164754,-9474.636058,612.876398
564.518363,-740.205942,-9400.615463,383.047749
564.518691,-740.205942,-8956.491898,995.924147
564.519019,0.000000,-9104.533087,689.485948
564.519346,-296.082377,-9252.574275,689.485948
564.519674,-370.102971,-9548.656652,995.924147
564.520002,-592.164754,-9474.636058,842.705048
564.520329,-296.082377,-9104.533087,612.876398
564.520657,-370.102971,-9104.533087,459.657299
564.520985,-888.247130,-8956.491898,306.438199
564.521312,-962.267725,-8734.430116,536.266849
564.521640,-296.082377,-8512.368333,459.657299
564.521968,-296.082377,-8586.388927,383.047749
564.522295,-518.144159,-8068.244768,459.657299
564.522623,-296.082377,-8734.430116,383.047749
564.522951,-148.041188,-8956.491898,612.876398
564.523278,-148.041188,-9104.533087,612.876398
564.523606,0.000000,-9104.533087,536.266849
564.523934,0.000000,-8808.450710,383.047749
564.524261,0.000000,-9252.574275,536.266849
564.524589,0.000000,-9030.512492,459.657299
564.524917,-148.041188,-9178.553681,306.438199
564.525244,0.000000,-9178.553681,459.657299
564.525572,0.000000,-9178.553681,383.047749
564.525900,0.000000,-9030.512492,306.438199
564.526227,0.000000,-8808.450710,459.657299
564.526555,-222.061783,-8660.409521,306.438199
564.526883,-222.061783,-8808.450710,229.828649
564.527210,74.020594,-8956.491898,612.876398
564.527538,0.000000,-8660.409521,536.266849
564.527866,-296.082377,-8586.388927,612.876398
564.528193,0.000000,-9104.533087,689.485948
564.528521,-296.082377,-9474.636058,842.705048
564.528849,0.000000,-9326.594869,612.876398
564.529177,0.000000,-8586.388927,1072.533697
564.529504,0.000000,-9030.512492,612.876398
564.529832,-222.061783,-9104.533087,612.876398
564.530160,-222.061783,-9030.512492,612.876398
564.530487,-148.041188,-8956.491898,689.485948
564.530815,-148.041188,-8808.450710,1762.019645
564.531143,-518.144159,-9030.512492,536.266849
564.531470,-666.185348,-9030.512492,459.657299
564.531798,-518.144159,-8956.491898,459.657299
564.532126,0.000000,-8956.491898,612.876398
564.532453,-296.082377,-8808.450710,995.924147
564.532781,0.000000,-8956.491898,306.438199
564.533109,-222.061783,-8956.491898,383.047749
564.533436,-222.061783,-9030.512492,383.047749
564.533764,0.000000,-9474.636058,459.657299
564.534092,0.000000,-9474.636058,766.095498
564.534419,0.000000,-9844.739029,1149.143247
564.534747,0.000000,-9474.636058,536.266849
564.535075,0.000000,-9474.636058,842.705048
564.535402,-148.041188,-9400.615463,612.876398
564.535730,0.000000,-9326.594869,459.657299
564.536058,518.144159,-8882.471304,689.485948
564.536385,0.000000,-8808.450710,383.047749
564.536713,0.000000,-9326.594869,383.047749
564.537041,-222.061783,-9400.615463,689.485948
564.537368,-370.102971,-9400.615463,612.876398
564.537696,0.000000,-9622.677246,689.485948
564.538024,222.061783,-9474.636058,229.828649
564.538351,-148.041188,-9474.636058,536.266849
564.538679,74.020594,-9400.615463,459.657299
564.539007,0.000000,-9400.615463,306.438199
564.539334,-222.061783,-8956.491898,689.485948
564.539662,-592.164754,-9104.533087,383.047749
564.539990,-518.144159,-9252.574275,689.485948
564.540317,-666.185348,-9178.553681,689.485948
564.540645,-592.164754,-9252.574275,536.266849
564.540973,-296.082377,-9400.615463,842.705048
564.541300,-296.082377,-8734.430116,459.657299
564.541628,-666.185348,-8586.388927,536.266849
564.541956,-518.144159,-8586.388927,229.828649
564.542283,-444.123565,-8734.430116,536.266849
564.542611,0.000000,-8882.471304,536.266849
564.542939,-370.102971,-8956.491898,995.924147
564.543266,0.000000,-9326.594869,612.876398
564.543594,0.000000,-9326.594869,689.485948
564.543922,0.000000,-9326.594869,689.485948
564.544249,0.000000,-9400.615463,766.095498
564.544577,0.000000,-9252.574275,842.705048
564.544905,0.000000,-9326.594869,229.828649
564.545232,0.000000,-9104.533087,689.485948
564.545560,-296.082377,-9104.533087,536.266849
564.545888,-370.102971,-8956.491898,612.876398
564.546216,-444.123565,-8586.388927,766.095498
564.546543,0.000000,-8734.430116,383.047749
564.546871,-370.102971,-8660.409521,383.047749
564.547199,-222.061783,-8882.471304,306.438199
564.547526,0.000000,-8734.430116,306.438199
564.547854,-148.041188,-8956.491898,536.266849
564.548182,0.000000,-9030.512492,383.047749
564.548509,0.000000,-9326.594869,689.485948
564.548837,-148.041188,-9474.636058,536.266849
564.549165,0.000000,-9474.636058,459.657299
564.549492,-296.082377,-9474.636058,842.705048
564.549820,0.000000,-9474.636058,229.828649
564.550148,-370.102971,-9326.594869,612.876398
564.550475,-592.164754,-9178.553681,229.828649
564.550803,-666.185348,-8882.471304,229.828649
564.551131,-592.164754,-8882.471304,459.657299
564.551458,-370.102971,-8734.430116,842.705048
564.551786,0.000000,-8882.471304,153.219100
564.552114,-444.123565,-8882.471304,459.657299
564.552441,-666.185348,-8956.491898,612.876398
564.552769,-518.144159,-8956.491898,689.485948
564.553097,-296.082377,-8734.430116,536.266849
564.553424,-222.061783,-9178.553681,842.705048
564.553752,-222.061783,-9178.553681,689.485948
564.554080,-444.123565,-9326.594869,766.095498
564.554407,-666.185348,-9178.553681,919.314598
564.554735,-814.226536,-9326.594869,689.485948
564.555063,-444.123565,-8586.388927,766.095498
564.555390,-518.144159,-9030.512492,995.924147
564.555718,-666.185348,-8956.491898,459.657299
564.556046,-740.205942,-8956.491898,612.876398
564.556373,-592.164754,-8734.430116,306.438199
564.556701,-444.123565,-8586.388927,306.438199
564.557029,-444.123565,-8512.368333,459.657299
564.557356,-370.102971,-9178.553681,306.438199
564.557684,-370.102971,-9326.594869,459.657299
564.558012,-444.123565,-9104.533087,612.876398
564.558339,0.000000,-8956.491898,995.924147
564.558667,222.061783,-9252.574275,536.266849
564.558995,0.000000,-9474.636058,612.876398
564.559322,-296.082377,-9252.574275,612.876398
564.559650,-222.061783,-8956.491898,383.047749
564.559978,74.020594,-8660.409521,0.000000
564.560305,-222.061783,-8882.471304,536.266849
564.560633,-666.185348,-8882.471304,459.657299
564.560961,-222.061783,-8734.430116,383.047749
564.561288,-148.041188,-8586.388927,306.438199
564.561616,-222.061783,-8660.409521,229.828649
564.561944,0.000000,-8956.491898,842.705048
564.562271,0.000000,-8956.491898,459.657299
564.562599,0.000000,-9104.533087,459.657299
564.562927,222.061783,-9252.574275,689.485948
564.563255,74.020594,-9400.615463,612.876398
564.563582,444.123565,-9474.636058,229.828649
564.563910,222.061783,-9474.636058,689.485948
564.564238,0.000000,-9326.594869,842.705048
564.564565,-370.102971,-9326.594869,689.485948
564.564893,-222.061783,-9400.615463,612.876398
564.565221,-370.102971,-8734.430116,919.314598
564.565548,74.020594,-8882.471304,153.219100
564.565876,-296.082377,-8808.450710,383.047749
564.566204,-148.041188,-8734.430116,766.095498
564.566531,-296.082377,-8882.471304,383.047749
564.566859,0.000000,-8808.450710,842.705048
564.567187,74.020594,-9252.574275,766.095498
564.567514,-148.041188,-9474.636058,842.705048
564.567842,0.000000,-9474.636058,766.095498
564.568170,222.061783,-9548.656652,459.657299
564.568497,222.061783,-9548.656652,842.705048
564.568825,444.123565,-9030.512492,612.876398
564.569153,0.000000,-9474.636058,612.876398
564.569480,0.000000,-9696.697840,536.266849
564.569808,-296.082377,-9474.636058,612.876398
564.570136,-296.082377,-9474.636058,536.266849
564.570463,-370.102971,-9326.594869,1608.800546
564.570791,-444.123565,-9178.553681,229.828649
564.571119,-222.061783,-9326.594869,459.657299
564.571446,-370.102971,-9030.512492,306.438199
564.571774,-296.082377,-8808.450710,383.047749
564.572102,-518.144159,-8882.471304,766.095498
564.572429,-222.061783,-9178.553681,459.657299
564.572757,-444.123565,-9548.656652,536.266849
564.573085,-222.061783,-9474.636058,383.047749
564.573412,-148.041188,-9326.594869,919.314598
564.573740,0.000000,-9400.615463,689.485948
564.574068,0.000000,-9622.677246,536.266849
564.574395,-296.082377,-9252.574275,536.266849
564.574723,-592.164754,-8956.491898,383.047749
564.575051,-814.226536,-8882.471304,306.438199
564.575378,-888.247130,-8660.409521,229.828649
564.575706,-814.226536,-9326.594869,919.314598
564.576034,-592.164754,-8808.450710,459.657299
564.576361,-666.185348,-8882.471304,612.876398
564.576689,-444.123565,-8586.388927,612.876398
564.577017,-148.041188,-8956.491898,459.657299
564.577344,-222.061783,-8808.450710,306.438199
564.577672,0.000000,-8586.388927,306.438199
564.578000,-148.041188,-8808.450710,459.657299
564.578327,-370.102971,-9178.553681,766.095498
564.578655,-592.164754,-9178.553681,689.485948
564.578983,-1036.288319,-8734.430116,689.485948
564.579311,-444.123565,-9400.615463,1225.752797
564.579638,-444.123565,-9104.533087,766.095498
564.579966,0.000000,-8734.430116,536.266849
564.580294,0.000000,-8660.409521,536.266849
564.580621,-296.082377,-8216.285956,383.047749
564.580949,-518.144159,-8142.265362,229.828649
564.581277,-370.102971,-8438.347739,536.266849
564.581604,-444.123565,-8808.450710,459.657299
564.581932,-666.185348,-8956.491898,612.876398
564.582260,-592.164754,-8956.491898,689.485948
564.582587,-222.061783,-8660.409521,689.485948
564.582915,-222.061783,-9030.512492,689.485948
564.583243,0.000000,-9104.533087,612.876398
564.583570,-222.061783,-9104.533087,612.876398
564.583898,-444.123565,-8882.471304,536.266849
564.584226,-518.144159,-9030.512492,766.095498
564.584553,-518.144159,-9030.512492,689.485948
564.584881,-592.164754,-9400.615463,842.705048
564.585209,-592.164754,-8956.491898,766.095498
564.585536,-518.144159,-8734.430116,536.266849
564.585864,-518.144159,-8808.450710,459.657299
564.586192,-814.226536,-8290.306550,536.266849
564.586519,-296.082377,-8734.430116,459.657299
564.586847,-370.102971,-8956.491898,536.266849
564.587175,0.000000,-8956.491898,229.828649
564.587502,0.000000,-9252.574275,766.095498
564.587830,0.000000,-9326.594869,995.924147
564.588158,0.000000,-9474.636058,612.876398
564.588485,0.000000,-9474.636058,612.876398
564.588813,-296.082377,-9474.636058,612.876398
564.589141,0.000000,-9326.594869,306.438199
564.589468,0.000000,-9400.615463,229.828649
564.589796,74.020594,-9400.615463,536.266849
564.590124,0.000000,-9326.594869,612.876398
564.590451,0.000000,-9252.574275,536.266849
564.590779,0.000000,-9178.553681,383.047749
564.591107,74.020594,-9030.512492,459.657299
564.591434,0.000000,-9104.533087,0.000000
564.591762,148.041188,-9104.533087,229.828649
564.592089,0.000000,-9252.574275,536.266849
564.592417,0.000000,-9252.574275,612.876398
564.592745,296.082377,-9474.636058,766.095498
564.593072,222.061783,-9178.553681,459.657299
564.593400,-296.082377,-9178.553681,766.095498
564.593727,0.000000,-9400.615463,689.485948
564.594055,0.000000,-9326.594869,612.876398
564.594383,-222.061783,-9030.512492,612.876398
564.594710,0.000000,-8808.450710,689.485948
564.595038,-592.164754,-8808.450710,459.657299
564.595365,-888.247130,-9252.574275,612.876398
564.595693,-592.164754,-9178.553681,689.485948
564.596021,-444.123565,-8956.491898,536.266849
564.596348,0.000000,-9030.512492,229.828649
564.596676,0.000000,-9252.574275,842.705048
564.597003,0.000000,-9030.512492,766.095498
564.597331,0.000000,-9178.553681,689.485948
564.597659,-222.061783,-9252.574275,612.876398
564.597986,-296.082377,-9252.574275,919.314598
564.598314,-296.082377,-9474.636058,842.705048
564.598641,-148.041188,-9622.677246,612.876398
564.598969,-444.123565,-9326.594869,919.314598
564.599297,-370.102971,-9252.574275,919.314598
564.599624,-148.041188,-9030.512492,612.876398
564.599952,-296.082377,-8808.450710,0.000000
564.600280,-444.123565,-8956.491898,383.047749
564.600607,-592.164754,-9104.533087,459.657299
564.600935,-518.144159,-8808.450710,459.657299
564.601262,-296.082377,-9104.533087,612.876398
564.601590,148.041188,-9030.512492,919.314598
564.601918,0.000000,-9030.512492,536.266849
564.602245,0.000000,-9326.594869,766.095498
564.602573,0.000000,-9252.574275,536.266849
564.602900,0.000000,-9252.574275,459.657299
564.603228,148.041188,-9400.615463,842.705048
564.603556,-148.041188,-8882.471304,383.047749
564.603883,-148.041188,-9030.512492,306.438199
564.604211,-296.082377,-9252.574275,536.266849
564.604538,-666.185348,-9326.594869,536.266849
564.604866,-444.123565,-8808.450710,459.657299
564.605194,-518.144159,-8734.430116,995.924147
564.605521,-666.185348,-8956.491898,612.876398
564.605849,-666.185348,-9030.512492,842.705048
564.606176,-444.123565,-8956.491898,612.876398
564.606504,0.000000,-8808.450710,536.266849
564.606832,-370.102971,-8290.306550,842.705048
564.607159,-222.061783,-8956.491898,612.876398
564.607487,-296.082377,-9104.533087,689.485948
564.607814,-444.123565,-9104.533087,995.924147
564.608142,-444.123565,-9326.594869,689.485948
564.608470,-296.082377,-8882.471304,689.485948
564.608797,-370.102971,-9178.553681,689.485948
564.609125,-370.102971,-9104.533087,766.095498
564.609452,-592.164754,-8956.491898,536.266849
564.609780,-518.144159,-9030.512492,536.266849
564.610108,-222.061783,-8660.409521,612.876398
564.610435,-518.144159,-8882.471304,306.438199
564.610763,-296.082377,-8882.471304,689.485948
564.611090,-370.102971,-9030.512492,459.657299
564.611418,-592.164754,-8882.471304,229.828649
564.611746,-148.041188,-9030.512492,766.095498
564.612073,-148.041188,-9252.574275,612.876398
564.612401,-296.082377,-9030.512492,536.266849
564.612728,0.000000,-9104.533087,383.047749
564.613056,-222.061783,-9178.553681,306.438199
564.613384,-222.061783,-9104.533087,383.047749
564.613711,-222.061783,-9030.512492,766.095498
564.614039,-296.082377,-9178.553681,536.266849
564.614366,-592.164754,-9104.533087,612.876398
564.614694,-444.123565,-8882.471304,306.438199
564.615022,-296.082377,-9030.512492,229.828649
564.615349,-148.041188,-8364.327145,383.047749
564.615677,-148.041188,-8364.327145,536.266849
564.616004,-148.041188,-8956.491898,689.485948
564.616332,-222.061783,-9178.553681,459.657299
564.616660,-296.082377,-9030.512492,612.876398
564.616987,0.000000,-9030.512492,1072.533697
564.617315,74.020594,-9474.636058,536.266849
564.617643,-222.061783,-9474.636058,842.705048
564.617970,-222.061783,-9400.615463,612.876398
564.618298,0.000000,-9400.615463,995.924147
564.618625,0.000000,-9178.553681,842.705048
564.618953,-148.041188,-9252.574275,612.876398
564.619281,-444.123565,-8956.491898,536.266849
564.619608,-518.144159,-8660.409521,689.485948
564.619936,-518.144159,-8734.430116,0.000000
564.620263,-444.123565,-8956.491898,689.485948
564.620591,0.000000,-8808.450710,383.047749
564.620919,-370.102971,-9178.553681,842.705048
564.621246,-592.164754,-9252.574275,383.047749
564.621574,-444.123565,-9326.594869,536.266849
564.621901,0.000000,-9326.594869,306.438199
564.622229,148.041188,-9030.512492,306.438199
564.622557,74.020594,-9474.636058,612.876398
564.622884,-370.102971,-9326.594869,459.657299
564.623212,-296.082377,-9696.697840,612.876398
564.623539,-296.082377,-9326.594869,536.266849
564.623867,0.000000,-9030.512492,459.657299
564.624195,0.000000,-8734.430116,0.000000
564.624522,0.000000,-9104.533087,229.828649
564.624850,74.020594,-9030.512492,229.828649
564.625177,0.000000,-8882.471304,229.828649
564.625505,0.000000,-8586.388927,229.828649
564.625833,-222.061783,-8882.471304,612.876398
564.626160,0.000000,-9474.636058,459.657299
564.626488,0.000000,-9474.636058,383.047749
564.626815,0.000000,-9548.656652,459.657299
564.627143,0.000000,-9696.697840,459.657299
564.627471,0.000000,-9622.677246,459.657299
564.627798,0.000000,-9474.636058,689.485948
564.628126,0.000000,-9400.615463,689.485948
564.628453,-222.061783,-9326.594869,383.047749
564.628781,-444.123565,-9326.594869,689.485948
564.629109,0.000000,-9400.615463,0.000000
564.629436,-370.102971,-8808.450710,766.095498
564.629764,-296.082377,-8882.471304,536.266849
564.630091,-518.144159,-8956.491898,536.266849
564.630419,-444.123565,-9030.512492,612.876398
564.630747,-444.123565,-9030.512492,1149.143247
564.631074,-296.082377,-8734.430116,995.924147
564.631402,-222.061783,-9178.553681,995.924147
564.631729,-296.082377,-9252.574275,842.705048
564.632057,-370.102971,-9104.533087,842.705048
564.632385,-148.041188,-8882.471304,689.485948
564.632712,-222.061783,-8808.450710,995.924147
564.633040,-592.164754,-9030.512492,459.657299
564.633367,-444.123565,-8956.491898,536.266849
564.633695,-444.123565,-8956.491898,612.876398
564.634023,-370.102971,-8586.388927,306.438199
564.634350,0.000000,-8512.368333,0.000000
564.634678,-666.185348,-8586.388927,306.438199
564.635006,-370.102971,-8882.471304,612.876398
564.635333,-444.123565,-8808.450710,153.219100
564.635661,-518.144159,-8882.471304,536.266849
564.635988,0.000000,-8808.450710,306.438199
564.636316,-296.082377,-9104.533087,459.657299
564.636644,0.000000,-9178.553681,459.657299
564.636971,0.000000,-9252.574275,612.876398
564.637299,-370.102971,-9030.512492,536.266849
564.637626,0.000000,-9326.594869,536.266849
564.637954,-814.226536,-8512.368333,612.876398
564.638282,-592.164754,-9030.512492,383.047749
564.638609,-444.123565,-9178.553681,459.657299
564.638937,-666.185348,-8808.450710,383.047749
564.639264,-592.164754,-8956.491898,76.609550
564.639592,-518.144159,-8734.430116,612.876398
564.639920,-592.164754,-8882.471304,76.609550
564.640247,-222.061783,-8882.471304,153.219100
564.640575,-222.061783,-8808.450710,229.828649
564.640902,0.000000,-8882.471304,383.047749
564.641230,0.000000,-9252.574275,919.314598
564.641558,74.020594,-9400.615463,689.485948
564.641885,-222.061783,-9326.594869,383.047749
564.642213,-444.123565,-9622.677246,612.876398
564.642540,-592.164754,-9252.574275,459.657299
564.642868,-444.123565,-9178.553681,536.266849
564.643196,-518.144159,-8586.388927,689.485948
564.643523,-222.061783,-9030.512492,766.095498
564.643851,-370.102971,-8956.491898,306.438199
564.644178,-518.144159,-8882.471304,229.828649
564.644506,-370.102971,-9030.512492,536.266849
564.644834,-666.185348,-8142.265362,842.705048
564.645161,-444.123565,-8956.491898,459.657299
564.645489,-222.061783,-9252.574275,612.876398
564.645816,-148.041188,-9326.594869,766.095498
564.646144,0.000000,-9474.636058,612.876398
564.646472,148.041188,-9030.512492,842.705048
564.646799,0.000000,-9474.636058,383.047749
564.647127,-148.041188,-9178.553681,459.657299
564.647454,-444.123565,-9252.574275,689.485948
564.647782,-296.082377,-9178.553681,612.876398
564.648110,-370.102971,-9030.512492,919.314598
564.648437,-518.144159,-9104.533087,459.657299
564.648765,-518.144159,-9030.512492,612.876398
564.649092,-666.185348,-8882.471304,612.876398
564.649420,-592.164754,-9030.512492,612.876398
564.649748,-370.102971,-8808.450710,536.266849
564.650075,-222.061783,-9030.512492,306.438199
564.650403,0.000000,-9030.512492,612.876398
564.650730,74.020594,-9178.553681,536.266849
564.651058,0.000000,-9326.594869,612.876398
564.651386,444.123565,-9696.697840,536.266849
564.651713,74.020594,-9252.574275,689.485948
564.652041,-148.041188,-9474.636058,766.095498
564.652369,0.000000,-9474.636058,612.876398
564.652696,0.000000,-9400.615463,459.657299
564.653024,0.000000,-9326.594869,306.438199
564.653351,74.020594,-9030.512492,229.828649
564.653679,-444.123565,-8956.491898,612.876398
564.654007,-444.123565,-9178.553681,459.657299
564.654334,-296.082377,-9326.594869,229.828649
564.654662,-296.082377,-9252.574275,76.609550
564.654989,148.041188,-9104.533087,383.047749
564.655317,222.061783,-9474.636058,383.047749
564.655645,74.020594,-9326.594869,459.657299
564.655972,148.041188,-9252.574275,536.266849
564.656300,74.020594,-9474.636058,536.266849
564.656627,148.041188,-9400.615463,612.876398
564.656955,0.000000,-9326.594869,919.314598
564.657283,-222.061783,-9178.553681,612.876398
564.657610,-296.082377,-9252.574275,842.705048
564.657938,-370.102971,-9030.512492,459.657299
564.658265,-592.164754,-8808.450710,842.705048
564.658593,0.000000,-8512.368333,766.095498
564.658921,-740.205942,-8882.471304,536.266849
564.659248,-592.164754,-8808.450710,536.266849
564.659576,-666.185348,-8734.430116,766.095498
564.659903,-444.123565,-8808.450710,689.485948
564.660231,-518.144159,-8956.491898,689.485948
564.660559,-444.123565,-9178.553681,919.314598
564.660886,-518.144159,-9400.615463,1072.533697
564.661214,-444.123565,-9474.636058,689.485948
564.661541,-370.102971,-9104.533087,766.095498
564.661869,-74.020594,-9178.553681,459.657299
564.662197,-518.144159,-8956.491898,689.485948
564.662524,-740.205942,-8882.471304,536.266849
564.662852,-740.205942,-8660.409521,459.657299
564.663179,-740.205942,-8734.430116,459.657299
564.663507,-592.164754,-8438.347739,612.876398
564.663835,-444.123565,-8216.285956,459.657299
564.664162,-518.144159,-8808.450710,229.828649
564.664490,-296.082377,-8734.430116,229.828649
564.664817,0.000000,-8808.450710,383.047749
564.665145,0.000000,-8438.347739,76.609550
564.665473,0.000000,-8734.430116,612.876398
564.665800,0.000000,-9326.594869,459.657299
564.666128,0.000000,-9326.594869,536.266849
564.666455,0.000000,-9400.615463,459.657299
564.666783,74.020594,-9178.553681,306.438199
564.667111,0.000000,-9474.636058,76.609550
564.667438,0.000000,-9326.594869,306.438199
564.667766,-296.082377,-9030.512492,0.000000
564.668093,-518.144159,-8808.450710,229.828649
564.668421,-592.164754,-8808.450710,76.609550
564.668749,-518.144159,-8956.491898,-459.657299
564.669076,-444.123565,-8660.409521,383.047749
564.669404,-222.061783,-8956.491898,536.266849
564.669732,-296.082377,-8734.430116,459.657299
564.670059,-370.102971,-8808.450710,612.876398
564.670387,-296.082377,-9252.574275,842.705048
564.670714,-296.082377,-9326.594869,919.314598
564.671042,-444.123565,-9326.594869,612.876398
564.671370,-444.123565,-9474.636058,842.705048
564.671697,-370.102971,-9252.574275,995.924147
564.672025,-444.123565,-9030.512492,766.095498
564.672352,-296.082377,-8882.471304,689.485948
564.672680,-370.102971,-8956.491898,689.485948
564.673008,-518.144159,-9030.512492,689.485948
564.673335,-592.164754,-8808.450710,536.266849
564.673663,-592.164754,-9030.512492,229.828649
564.673990,-444.123565,-9030.512492,689.485948
564.674318,-296.082377,-9252.574275,383.047749
564.674646,0.000000,-9252.574275,689.485948
564.674973,0.000000,-9474.636058,459.657299
564.675301,148.041188,-9474.636058,689.485948
564.675628,148.041188,-9252.574275,536.266849
564.675956,0.000000,-9548.656652,459.657299
564.676284,148.041188,-9474.636058,459.657299
564.676611,0.000000,-9474.636058,459.657299
564.676939,0.000000,-9474.636058,689.485948
564.677266,0.000000,-9548.656652,229.828649
564.677594,0.000000,-9400.615463,612.876398
564.677922,-518.144159,-9178.553681,229.828649
564.678249,0.000000,-8956.491898,229.828649
564.678577,-222.061783,-8660.409521,229.828649
564.678904,0.000000,-8956.491898,153.219100
564.679232,-370.102971,-8808.450710,612.876398
564.679560,74.020594,-9104.533087,306.438199
564.679887,0.000000,-9326.594869,306.438199
564.680215,0.000000,-9326.594869,689.485948
564.680542,0.000000,-9474.636058,766.095498
564.680870,-148.041188,-9474.636058,1149.143247
564.681198,0.000000,-9474.636058,766.095498
564.681525,0.000000,-9400.615463,842.705048
564.681853,-296.082377,-9252.574275,919.314598
564.682180,-370.102971,-9030.512492,536.266849
564.682508,-740.205942,-8956.491898,995.924147
564.682836,-814.226536,-8512.368333,842.705048
564.683163,-666.185348,-8808.450710,612.876398
564.683491,-592.164754,-8734.430116,536.266849
564.683818,-444.123565,-8808.450710,689.485948
564.684146,0.000000,-9548.656652,995.924147
564.684474,0.000000,-9030.512492,995.924147
564.684801,-444.123565,-9178.553681,766.095498
564.685129,-222.061783,-9030.512492,766.095498
564.685456,-518.144159,-9178.553681,689.485948
564.685784,-444.123565,-9400.615463,766.095498
564.686112,-296.082377,-9400.615463,842.705048
564.686439,-370.102971,-9252.574275,766.095498
564.686767,-592.164754,-9252.574275,383.047749
564.687095,-592.164754,-9030.512492,383.047749
564.687422,-740.205942,-8956.491898,153.219100
564.687750,-592.164754,-8808.450710,383.047749
564.688077,-296.082377,-8808.450710,306.438199
564.688405,0.000000,-8956.491898,383.047749
564.688733,-370.102971,-9030.512492,306.438199
564.689060,-296.082377,-9178.553681,383.047749
564.689388,-222.061783,-9252.574275,689.485948
564.689715,-222.061783,-9104.533087,536.266849
564.690043,0.000000,-9400.615463,383.047749
564.690371,0.000000,-9326.594869,459.657299
564.690698,0.000000,-9178.553681,229.828649
564.691026,0.000000,-8882.471304,612.876398
564.691353,-148.041188,-9178.553681,766.095498
564.691681,-222.061783,-9252.574275,536.266849
564.692009,0.000000,-9252.574275,459.657299
564.692338,-444.123565,-8956.491898,689.485948
564.692665,-444.123565,-8734.430116,383.047749
564.692993,-370.102971,-8660.409521,0.000000
564.693321,-444.123565,-8808.450710,383.047749
564.693648,-296.082377,-8882.471304,306.438199
564.693976,-296.082377,-8882.471304,536.266849
564.694303,-296.082377,-9104.533087,459.657299
564.694631,-148.041188,-9178.553681,1455.581446
564.694958,148.041188,-9104.533087,842.705048
564.695286,0.000000,-9252.574275,536.266849
564.695614,-148.041188,-9252.574275,766.095498
564.695941,-222.061783,-9474.636058,612.876398
564.696269,0.000000,-9104.533087,689.485948
564.696596,-666.185348,-8956.491898,536.266849
564.696924,-370.102971,-9178.553681,689.485948
564.697251,-518.144159,-9104.533087,689.485948
564.697579,-518.144159,-8808.450710,536.266849
564.697907,-666.185348,-8882.471304,612.876398
564.698234,-370.102971,-8660.409521,919.314598
564.698562,-518.144159,-8660.409521,536.266849
564.698889,-592.164754,-8882.471304,459.657299
564.699217,-518.144159,-9178.553681,229.828649
564.699544,-370.102971,-9252.574275,536.266849
564.699872,0.000000,-9326.594869,306.438199
564.700200,-444.123565,-9400.615463,536.266849
564.700527,-518.144159,-9474.636058,536.266849
564.700855,-592.164754,-9400.615463,766.095498
564.701182,-444.123565,-9252.574275,689.485948
564.701510,-444.123565,-8882.471304,919.314598
564.701838,-370.102971,-9326.594869,459.657299
564.702165,-592.164754,-9178.553681,536.266849
564.702493,-370.102971,-9030.512492,536.266849
564.702820,-518.144159,-9030.512492,459.657299
564.703148,-222.061783,-9030.512492,229.828649
564.703475,-296.082377,-8882.471304,459.657299
564.703803,-296.082377,-8808.450710,383.047749
564.704131,0.000000,-8956.491898,612.876398
564.704458,0.000000,-8956.491898,689.485948
564.704786,0.000000,-9178.553681,689.485948
564.705113,-592.164754,-9178.553681,919.314598
564.705441,-222.061783,-9104.533087,536.266849
564.705768,0.000000,-9474.636058,459.657299
564.706096,-296.082377,-9252.574275,536.266849
564.706424,-148.041188,-9104.533087,459.657299
564.706751,-296.082377,-9104.533087,229.828649
564.707079,-222.061783,-8586.388927,536.266849
564.707406,-296.082377,-8956.491898,459.657299
564.707734,-370.102971,-9178.553681,306.438199
564.708061,0.000000,-9326.594869,459.657299
564.708389,0.000000,-9400.615463,76.609550
564.708717,-222.061783,-9178.553681,612.876398
564.709044,74.020594,-9178.553681,536.266849
564.709372,74.020594,-9326.594869,612.876398
564.709699,0.000000,-9326.594869,689.485948
564.710027,-148.041188,-9178.553681,919.314598
564.710354,0.000000,-9400.615463,689.485948
564.710682,-444.123565,-9326.594869,383.047749
564.711010,-444.123565,-9474.636058,536.266849
564.711337,-444.123565,-9400.615463,766.095498
564.711665,-444.123565,-9030.512492,536.266849
564.711992,222.061783,-8956.491898,919.314598
564.712320,-518.144159,-8882.471304,612.876398
564.712648,-592.164754,-8734.430116,689.485948
564.712975,-592.164754,-8882.471304,306.438199
564.713303,-518.144159,-8956.491898,306.438199
564.713630,-222.061783,-8956.491898,612.876398
564.713958,148.041188,-9178.553681,459.657299
564.714285,0.000000,-9326.594869,919.314598
564.714613,0.000000,-9474.636058,689.485948
564.714941,-222.061783,-9252.574275,995.924147
564.715268,0.000000,-9104.533087,306.438199
564.715596,-148.041188,-9326.594869,919.314598
564.715923,-148.041188,-9474.636058,612.876398
564.716251,-296.082377,-9252.574275,689.485948
564.716578,-370.102971,-9104.533087,689.485948
564.716906,-296.082377,-9030.512492,612.876398
564.717234,-370.102971,-8882.471304,459.657299
564.717561,-370.102971,-8882.471304,612.876398
564.717889,-444.123565,-8808.450710,383.047749
564.718216,-296.082377,-8808.450710,383.047749
564.718544,-296.082377,-9030.512492,459.657299
564.718871,0.000000,-8660.409521,536.266849
564.719199,0.000000,-9030.512492,229.828649
564.719527,0.000000,-8956.491898,536.266849
564.719854,0.000000,-9252.574275,689.485948
564.720182,0.000000,-9252.574275,229.828649
564.720509,-222.061783,-8882.471304,383.047749
564.720837,0.000000,-9178.553681,383.047749
564.721164,-518.144159,-8882.471304,536.266849
564.721492,-370.102971,-8808.450710,612.876398
564.721820,-444.123565,-8956.491898,459.657299
564.722147,-222.061783,-8882.471304,383.047749
564.722475,-222.061783,-8660.409521,459.657299
564.722802,-370.102971,-8734.430116,383.047749
564.723130,-370.102971,-8808.450710,536.266849
564.723458,-148.041188,-9104.533087,536.266849
564.723785,-148.041188,-9104.533087,612.876398
564.724113,0.000000,-8808.450710,689.485948
564.724440,0.000000,-9178.553681,842.705048
564.724768,-222.061783,-9252.574275,536.266849
564.725095,-592.164754,-9326.594869,612.876398
564.725423,-444.123565,-9326.594869,689.485948
564.725751,-444.123565,-9030.512492,1072.533697
564.726078,-370.102971,-9326.594869,306.438199
564.726406,-814.226536,-9252.574275,383.047749
564.726733,-740.205942,-9104.533087,536.266849
564.727061,-666.185348,-8882.471304,383.047749
564.727388,-222.061783,-8734.430116,383.047749
564.727716,-444.123565,-8956.491898,0.000000
564.728044,-370.102971,-9104.533087,536.266849
564.728371,-296.082377,-9104.533087,383.047749
564.728699,0.000000,-9252.574275,459.657299
564.729026,0.000000,-8882.471304,842.705048
564.729354,0.000000,-9252.574275,306.438199
564.729681,0.000000,-9474.636058,306.438199
564.730009,0.000000,-9548.656652,459.657299
564.730337,0.000000,-9400.615463,689.485948
564.730664,0.000000,-9326.594869,459.657299
564.730992,0.000000,-9252.574275,229.828649
564.731319,0.000000,-9178.553681,612.876398
564.731647,0.000000,-9030.512492,383.047749
564.731974,0.000000,-8956.491898,306.438199
564.732302,0.000000,-9104.533087,459.657299
564.732630,0.000000,-8734.430116,383.047749
564.732957,-148.041188,-8956.491898,689.485948
564.733285,0.000000,-9252.574275,306.438199
564.733612,-148.041188,-9400.615463,459.657299
564.733940,0.000000,-9252.574275,766.095498
564.734268,-222.061783,-9030.512492,612.876398
564.734595,444.123565,-9548.656652,995.924147
564.734923,0.000000,-9252.574275,536.266849
564.735250,0.000000,-9104.533087,383.047749
564.735578,-444.123565,-9104.533087,766.095498
564.735905,-222.061783,-9178.553681,995.924147
564.736233,-666.185348,-9474.636058,766.095498
564.736561,-518.144159,-9030.512492,536.266849
564.736888,-518.144159,-8882.471304,383.047749
564.737216,-444.123565,-9030.512492,459.657299
564.737543,-666.185348,-8956.491898,612.876398
564.737871,-296.082377,-8808.450710,689.485948
564.738198,-444.123565,-9326.594869,919.314598
564.738526,-296.082377,-9252.574275,612.876398
564.738854,0.000000,-9400.615463,689.485948
564.739181,0.000000,-9474.636058,689.485948
564.739509,74.020594,-9326.594869,1072.533697
564.739836,-444.123565,-9104.533087,919.314598
564.740164,0.000000,-9252.574275,536.266849
564.740491,-74.020594,-9400.615463,612.876398
564.740819,-370.102971,-9252.574275,536.266849
564.741147,0.000000,-9030.512492,842.705048
564.741474,-222.061783,-8734.430116,229.828649
564.741802,-222.061783,-8956.491898,536.266849
564.742129,-222.061783,-9030.512492,306.438199
564.742457,-222.061783,-9030.512492,383.047749
564.742784,74.020594,-8882.471304,306.438199
564.743112,0.000000,-9178.553681,0.000000
564.743440,-444.123565,-9326.594869,459.657299
564.743767,0.000000,-9400.615463,306.438199
564.744095,0.000000,-9252.574275,536.266849
564.744422,222.061783,-9474.636058,229.828649
564.744750,222.061783,-9326.594869,612.876398
564.745078,-296.082377,-9030.512492,536.266849
564.745405,-222.061783,-9030.512492,536.266849
564.745733,-296.082377,-8956.491898,383.047749
564.746060,-296.082377,-8956.491898,306.438199
564.746388,-148.041188,-8956.491898,383.047749
564.746715,-592.164754,-8216.285956,689.485948
564.747043,-592.164754,-8734.430116,459.657299
564.747371,-444.123565,-9030.512492,306.438199
564.747698,-370.102971,-8734.430116,536.266849
564.748026,-518.144159,-8586.388927,842.705048
564.748353,-222.061783,-8956.491898,612.876398
564.748681,-518.144159,-9178.553681,306.438199
564.749008,-592.164754,-9104.533087,459.657299
564.749336,-444.123565,-9178.553681,919.314598
564.749664,-518.144159,-8808.450710,1149.143247
564.749991,-592.164754,-9104.533087,1302.362347
564.750319,-888.247130,-9178.553681,766.095498
564.750646,-444.123565,-9030.512492,536.266849
564.750974,-518.144159,-8808.450710,612.876398
564.751301,-444.123565,-8586.388927,689.485948
564.751629,-814.226536,-8438.347739,842.705048
564.751957,-222.061783,-8808.450710,766.095498
564.752284,-296.082377,-8808.450710,536.266849
564.752612,-518.144159,-9030.512492,536.266849
564.752939,-740.205942,-9326.594869,689.485948
564.753267,0.000000,-9474.636058,842.705048
564.753594,0.000000,-9178.553681,1072.533697
564.753922,148.041188,-9400.615463,766.095498
564.754250,0.000000,-9252.574275,689.485948
564.754577,0.000000,-9400.615463,536.266849
564.754905,-444.123565,-8956.491898,229.828649
564.755232,-222.061783,-9030.512492,536.266849
564.755560,-296.082377,-9252.574275,76.609550
564.755888,-222.061783,-9326.594869,459.657299
564.756215,-222.061783,-8956.491898,383.047749
564.756543,-222.061783,-8734.430116,919.314598
564.756870,0.000000,-8882.471304,0.000000
564.757198,-148.041188,-9030.512492,306.438199
564.757525,0.000000,-8956.491898,306.438199
564.757853,74.020594,-9178.553681,229.828649
564.758181,0.000000,-9252.574275,459.657299
564.758508,-444.123565,-9474.636058,766.095498
564.758836,-148.041188,-9474.636058,766.095498
564.759163,-222.061783,-9622.677246,612.876398
564.759491,0.000000,-9474.636058,459.657299
564.759818,0.000000,-9178.553681,536.266849
564.760146,0.000000,-9400.615463,459.657299
564.760474,-296.082377,-9252.574275,612.876398
564.760801,-148.041188,-9104.533087,383.047749
564.761129,0.000000,-9104.533087,612.876398
564.761456,-296.082377,-9104.533087,536.266849
564.761784,-592.164754,-9400.615463,919.314598
564.762111,-518.144159,-9178.553681,919.314598
564.762439,-518.144159,-9178.553681,383.047749
564.762767,-370.102971,-9104.533087,689.485948
564.763094,-296.082377,-9252.574275,766.095498
564.763422,-222.061783,-9326.594869,689.485948
564.763749,0.000000,-8956.491898,689.485948
564.764077,-666.185348,-9326.594869,1072.533697
564.764404,-592.164754,-9326.594869,842.705048
564.764732,-740.205942,-9178.553681,689.485948
564.765060,-666.185348,-8882.471304,689.485948
564.765387,-296.082377,-8660.409521,1302.362347
564.765715,-222.061783,-8956.491898,536.266849
564.766042,-518.144159,-8808.450710,383.047749
564.766370,-518.144159,-9030.512492,383.047749
564.766698,-370.102971,-8882.471304,459.657299
564.767025,-74.020594,-9252.574275,612.876398
564.767353,74.020594,-9252.574275,612.876398
564.767680,0.000000,-9326.594869,536.266849
564.768008,222.061783,-9178.553681,536.266849
564.768335,222.061783,-9548.656652,536.266849
564.768663,148.041188,-9326.594869,995.924147
564.768991,-370.102971,-9400.615463,919.314598
564.769318,0.000000,-9252.574275,459.657299
564.769646,0.000000,-9252.574275,536.266849
564.769973,-148.041188,-8956.491898,612.876398
564.770301,-296.082377,-8734.430116,229.828649
564.770628,0.000000,-8882.471304,0.000000
564.770956,-444.123565,-8512.368333,229.828649
564.771284,-592.164754,-8512.368333,306.438199
564.771611,-666.185348,-8660.409521,229.828649
564.771939,-592.164754,-8808.450710,459.657299
564.772266,0.000000,-8882.471304,459.657299
564.772594,-370.102971,-8734.430116,689.485948
564.772921,0.000000,-9326.594869,612.876398
564.773249,-370.102971,-9326.594869,689.485948
564.773577,-370.102971,-9400.615463,689.485948
564.773904,-592.164754,-9030.512492,459.657299
564.774232,-296.082377,-9400.615463,689.485948
564.774559,-592.164754,-9104.533087,536.266849
564.774887,-518.144159,-9252.574275,689.485948
564.775214,-444.123565,-8956.491898,612.876398
564.775542,-148.041188,-8660.409521,1225.752797
564.775870,-592.164754,-8956.491898,612.876398
564.776197,-592.164754,-8882.471304,689.485948
564.776525,-518.144159,-9030.512492,459.657299
564.776852,-444.123565,-9030.512492,766.095498
564.777180,0.000000,-8956.491898,536.266849
564.777508,0.000000,-8882.471304,689.485948
564.777835,-148.041188,-9326.594869,995.924147
564.778163,0.000000,-9474.636058,842.705048
564.778490,-370.102971,-9474.636058,766.095498
564.778818,-370.102971,-9178.553681,842.705048
564.779145,-148.041188,-9252.574275,612.876398
564.779473,74.020594,-9474.636058,842.705048
564.779801,-296.082377,-8956.491898,459.657299
564.780128,-296.082377,-8808.450710,383.047749
564.780456,-296.082377,-8808.450710,459.657299
564.780783,-666.185348,-8882.471304,689.485948
564.781111,-148.041188,-9178.553681,459.657299
564.781438,-296.082377,-9178.553681,306.438199
564.781766,74.020594,-9178.553681,459.657299
564.782094,0.000000,-9178.553681,612.876398
564.782421,222.061783,-9252.574275,842.705048
564.782749,0.000000,-9400.615463,612.876398
564.783076,-222.061783,-9252.574275,842.705048
564.783404,0.000000,-9030.512492,612.876398
564.783731,0.000000,-9104.533087,612.876398
564.784059,-296.082377,-9474.636058,459.657299
564.784387,-592.164754,-8956.491898,612.876398
564.784714,-518.144159,-8956.491898,612.876398
564.785042,-444.123565,-8956.491898,153.219100
564.785369,-370.102971,-8734.430116,383.047749
564.785697,-518.144159,-8808.450710,229.828649
564.786024,0.000000,-8882.471304,229.828649
564.786352,-222.061783,-8882.471304,306.438199
564.786680,-222.061783,-8882.471304,536.266849
564.787007,0.000000,-9104.533087,536.266849
564.787335,-296.082377,-9474.636058,536.266849
564.787662,222.061783,-9400.615463,689.485948
564.787990,0.000000,-9474.636058,689.485948
564.788318,-222.061783,-9474.636058,459.657299
564.788645,-296.082377,-9548.656652,612.876398
564.788973,-296.082377,-9474.636058,689.485948
564.789300,-370.102971,-9326.594869,612.876398
564.789628,-370.102971,-8808.450710,995.924147
564.789955,-370.102971,-8956.491898,536.266849
564.790283,-444.123565,-9104.533087,536.266849
564.790611,-592.164754,-8808.450710,612.876398
564.790938,-296.082377,-8956.491898,306.438199
564.791266,-148.041188,-9104.533087,76.609550
564.791593,0.000000,-8956.491898,459.657299
564.791921,-222.061783,-9030.512492,842.705048
564.792248,-148.041188,-9178.553681,459.657299
564.792576,-148.041188,-9326.594869,842.705048
564.792904,0.000000,-8956.491898,919.314598
564.793231,-148.041188,-9178.553681,766.095498
564.793559,-148.041188,-9400.615463,842.705048
564.793886,-444.123565,-9104.533087,919.314598
564.794214,-444.123565,-8956.491898,842.705048
564.794541,-296.082377,-9030.512492,459.657299
564.794869,-148.041188,-8808.450710,612.876398
564.795197,-444.123565,-8586.388927,383.047749
564.795524,-222.061783,-8882.471304,306.438199
564.795852,0.000000,-9030.512492,229.828649
564.796179,-370.102971,-9030.512492,612.876398
564.796507,-444.123565,-9178.553681,536.266849
564.796834,74.020594,-9178.553681,459.657299
564.797162,0.000000,-9474.636058,459.657299
564.797490,0.000000,-9474.636058,536.266849
564.797817,0.000000,-9474.636058,459.657299
564.798145,-296.082377,-8808.450710,1149.143247
564.798472,-444.123565,-9474.636058,689.485948
564.798800,-370.102971,-9474.636058,612.876398
564.799127,-444.123565,-8956.491898,612.876398
564.799455,-740.205942,-8956.491898,536.266849
564.799783,-814.226536,-8808.450710,1225.752797
564.800110,-296.082377,-8586.388927,153.219100
564.800438,-444.123565,-8808.450710,459.657299
564.800765,-148.041188,-8956.491898,612.876398
564.801093,-296.082377,-8808.450710,536.266849
564.801420,0.000000,-9252.574275,842.705048
564.801748,-222.061783,-9400.615463,1072.533697
564.802076,-296.082377,-9400.615463,842.705048
564.802403,-296.082377,-9548.656652,612.876398
564.802731,-222.061783,-9474.636058,919.314598
564.803058,74.020594,-9622.677246,766.095498
564.803386,0.000000,-9400.615463,995.924147
564.803714,-148.041188,-9178.553681,842.705048
564.804041,-296.082377,-9030.512492,383.047749
564.804369,-592.164754,-8808.450710,536.266849
564.804696,-592.164754,-8808.450710,229.828649
564.805024,-444.123565,-8438.347739,612.876398
564.805351,-148.041188,-8660.409521,536.266849
564.805679,-370.102971,-8808.450710,229.828649
564.806007,-296.082377,-8660.409521,306.438199
564.806334,0.000000,-8956.491898,153.219100
564.806662,0.000000,-8364.327145,0.000000
564.806989,148.041188,-8956.491898,229.828649
564.807317,74.020594,-9252.574275,383.047749
564.807644,0.000000,-9326.594869,459.657299
564.807972,0.000000,-9400.615463,536.266849
564.808300,0.000000,-9326.594869,76.609550
564.808627,-666.185348,-9326.594869,612.876398
564.808955,-518.144159,-9252.574275,383.047749
564.809282,-370.102971,-9400.615463,459.657299
564.809610,-370.102971,-8956.491898,76.609550
564.809937,-296.082377,-9030.512492,76.609550
564.810265,-666.185348,-8808.450710,689.485948
564.810593,-148.041188,-9030.512492,306.438199
564.810920,-370.102971,-9104.533087,383.047749
564.811248,-370.102971,-9178.553681,459.657299
564.811575,-296.082377,-9252.574275,689.485948
564.811903,0.000000,-9030.512492,536.266849
564.812230,0.000000,-9178.553681,536.266849
564.812558,0.000000,-9252.574275,689.485948
564.812886,0.000000,-9178.553681,766.095498
564.813213,-148.041188,-9104.533087,689.485948
564.813541,-518.144159,-9326.594869,919.314598
564.813868,-296.082377,-8882.471304,459.657299
564.814196,-592.164754,-9030.512492,766.095498
564.814523,-518.144159,-8808.450710,612.876398
564.814851,-444.123565,-8882.471304,689.485948
564.815179,-370.102971,-8660.409521,766.095498
564.815506,148.041188,-8808.450710,689.485948
564.815834,-148.041188,-9178.553681,689.485948
564.816161,-148.041188,-9326.594869,689.485948
564.816489,0.000000,-9326.594869,842.705048
564.816816,0.000000,-9696.697840,919.314598
564.817144,518.144159,-9918.759623,612.876398
564.817472,148.041188,-9548.656652,919.314598
564.817799,74.020594,-9622.677246,842.705048
564.818127,-222.061783,-9696.697840,536.266849
564.818454,-370.102971,-9400.615463,689.485948
564.818782,-518.144159,-8660.409521,995.924147
564.819109,0.000000,-9104.533087,153.219100
564.819437,-518.144159,-9178.553681,306.438199
564.819765,-370.102971,-8808.450710,459.657299
564.820092,-370.102971,-8956.491898,612.876398
564.820420,-370.102971,-8882.471304,0.000000
564.820747,-666.185348,-8290.306550,536.266849
564.821075,-666.185348,-8956.491898,536.266849
564.821403,-444.123565,-9030.512492,383.047749
564.821730,-444.123565,-9326.594869,306.438199
564.822058,-370.102971,-9474.636058,459.657299
564.822385,-222.061783,-9400.615463,842.705048
564.822713,-518.144159,-9548.656652,536.266849
564.823040,-518.144159,-9474.636058,306.438199
564.823368,-444.123565,-9326.594869,536.266849
564.823696,-370.102971,-9178.553681,229.828649
564.824023,-296.082377,-9474.636058,229.828649
564.824351,-222.061783,-8956.491898,76.609550
564.824678,-148.041188,-8882.471304,459.657299
564.825006,-370.102971,-8882.471304,459.657299
564.825333,-148.041188,-8956.491898,536.266849
564.825661,-518.144159,-8808.450710,383.047749
564.825989,0.000000,-9104.533087,1072.533697
564.826316,-222.061783,-9178.553681,842.705048
564.826644,0.000000,-8956.491898,689.485948
564.826971,-222.061783,-9030.512492,612.876398
564.827299,-296.082377,-8882.471304,153.219100
564.827626,-296.082377,-8956.491898,536.266849
564.827954,-222.061783,-8956.491898,536.266849
564.828282,-518.144159,-8808.450710,383.047749
564.828609,-666.185348,-8734.430116,612.876398
564.828937,-444.123565,-8512.368333,383.047749
564.829264,-592.164754,-8512.368333,689.485948
564.829592,-518.144159,-8808.450710,306.438199
564.829919,-518.144159,-8734.430116,459.657299
564.830247,-444.123565,-8808.450710,306.438199
564.830575,-296.082377,-8734.430116,383.047749
564.830902,0.000000,-8216.285956,459.657299
564.831230,0.000000,-8808.450710,536.266849
564.831557,0.000000,-9104.533087,383.047749
564.831885,-296.082377,-9104.533087,459.657299
564.832212,-222.061783,-9104.533087,689.485948
564.832540,0.000000,-8882.471304,689.485948
564.832868,74.020594,-9030.512492,689.485948
564.833195,-148.041188,-8808.450710,689.485948
564.833523,-222.061783,-9104.533087,689.485948
564.833850,-444.123565,-9030.512492,459.657299
564.834178,-296.082377,-8734.430116,229.828649
564.834505,-666.185348,-8586.388927,766.095498
564.834833,-518.144159,-8734.430116,766.095498
564.835161,-222.061783,-9178.553681,306.438199
564.835488,-222.061783,-9104.533087,306.438199
564.835816,-296.082377,-9178.553681,689.485948
564.836143,-370.102971,-8956.491898,766.095498
564.836471,0.000000,-9770.718434,612.876398
564.836798,0.000000,-9548.656652,766.095498
564.837126,0.000000,-9696.697840,689.485948
564.837454,0.000000,-9770.718434,766.095498
564.837781,370.102971,-9918.759623,1149.143247
564.838109,74.020594,-9548.656652,689.485948
564.838436,0.000000,-9474.636058,689.485948
564.838764,0.000000,-9474.636058,689.485948
564.839092,0.000000,-9474.636058,536.266849
564.839419,-592.164754,-8956.491898,612.876398
564.839747,0.000000,-9252.574275,766.095498
564.840074,-370.102971,-9178.553681,536.266849
564.840402,-296.082377,-9030.512492,612.876398
564.840729,0.000000,-9104.533087,383.047749
564.841057,0.000000,-9030.512492,536.266849
564.841385,-296.082377,-9178.553681,459.657299
564.841712,-444.123565,-9252.574275,383.047749
564.842040,-370.102971,-9474.636058,229.828649
564.842367,-518.144159,-9252.574275,383.047749
564.842695,-296.082377,-9030.512492,306.438199
564.843022,-666.185348,-9030.512492,536.266849
564.843350,-592.164754,-9474.636058,383.047749
564.843678,-592.164754,-9400.615463,306.438199
564.844005,-444.123565,-9104.533087,383.047749
564.844333,-518.144159,-8956.491898,459.657299
564.844660,-296.082377,-8660.409521,919.314598
564.844988,-148.041188,-8956.491898,306.438199
564.845315,-370.102971,-8882.471304,459.657299
564.845643,0.000000,-8882.471304,536.266849
564.845971,-222.061783,-9252.574275,766.095498
564.846298,-296.082377,-9030.512492,995.924147
564.846626,0.000000,-9104.533087,612.876398
564.846953,-296.082377,-9104.533087,612.876398
564.847281,0.000000,-8808.450710,536.266849
564.847608,-148.041188,-9030.512492,689.485948
564.847936,-148.041188,-8734.430116,612.876398
564.848264,-370.102971,-8660.409521,383.047749
564.848591,-296.082377,-8660.409521,612.876398
564.848919,-296.082377,-8956.491898,383.047749
564.849246,-296.082377,-9030.512492,306.438199
564.849574,-370.102971,-9030.512492,689.485948
564.849901,0.000000,-9178.553681,0.000000
564.850229,0.000000,-8882.471304,459.657299
564.850557,-222.061783,-8882.471304,536.266849
564.850884,0.000000,-8956.491898,766.095498
564.851212,-296.082377,-8882.471304,766.095498
564.851539,-296.082377,-9252.574275,1072.533697
564.851867,0.000000,-9178.553681,536.266849
564.852194,-222.061783,-9400.615463,766.095498
564.852522,-296.082377,-9252.574275,689.485948
564.852850,-222.061783,-9104.533087,842.705048
564.853177,0.000000,-8882.471304,919.314598
564.853505,222.061783,-8882.471304,766.095498
564.853832,-296.082377,-9252.574275,459.657299
564.854160,-370.102971,-9030.512492,612.876398
564.854487,-148.041188,-9104.533087,536.266849
564.854815,-296.082377,-9178.553681,689.485948
564.855143,-296.082377,-8808.450710,766.095498
564.855470,-370.102971,-9474.636058,306.438199
564.855798,-518.144159,-9474.636058,536.266849
564.856125,-370.102971,-9326.594869,612.876398
564.856453,-370.102971,-9400.615463,536.266849
564.856781,-370.102971,-9104.533087,306.438199
564.857108,0.000000,-9252.574275,459.657299
564.857436,-222.061783,-9474.636058,383.047749
564.857763,0.000000,-9326.594869,612.876398
564.858091,-222.061783,-9326.594869,612.876398
564.858418,-444.123565,-8956.491898,612.876398
564.858746,74.020594,-9474.636058,536.266849
564.859074,-148.041188,-9326.594869,459.657299
564.859401,0.000000,-9326.594869,459.657299
564.859729,-296.082377,-9474.636058,536.266849
564.860056,0.000000,-8956.491898,536.266849
564.860384,0.000000,-9400.615463,689.485948
564.860711,0.000000,-9030.512492,459.657299
564.861039,74.020594,-8956.491898,459.657299
564.861367,0.000000,-8956.491898,536.266849
564.861694,-222.061783,-8734.430116,536.266849
564.862022,-444.123565,-8586.388927,842.705048
564.862349,-592.164754,-9104.533087,536.266849
564.862677,-592.164754,-9252.574275,536.266849
564.863004,-518.144159,-9030.512492,612.876398
564.863332,-222.061783,-9252.574275,612.876398
564.863660,296.082377,-8882.471304,919.314598
564.863987,0.000000,-8734.430116,306.438199
564.864315,0.000000,-8586.388927,153.219100
564.864642,-222.061783,-8882.471304,689.485948
564.864970,-518.144159,-8808.450710,459.657299
564.865297,-888.247130,-8660.409521,766.095498
