#time,accel_x,accel_y,accel_z
542.611408,-296.082377,-8956.491898,1302.362347
542.611736,0.000000,-9178.553681,383.047749
542.612063,0.000000,-9252.574275,612.876398
542.612391,-222.061783,-9178.553681,612.876398
542.612718,-370.102971,-9326.594869,459.657299
542.613045,0.000000,-9030.512492,612.876398
542.613373,0.000000,-9104.533087,536.266849
542.613700,0.000000,-9400.615463,229.828649
542.614027,-222.061783,-9326.594869,306.438199
542.614355,-222.061783,-9178.553681,612.876398
542.614682,-296.082377,-9030.512492,919.314598
542.615009,0.000000,-9400.615463,306.438199
542.615337,-222.061783,-9178.553681,536.266849
542.615664,-148.041188,-9178.553681,536.266849
542.615991,0.000000,-9252.574275,536.266849
542.616319,-222.061783,-9178.553681,536.266849
542.616646,0.000000,-9474.636058,842.705048
542.616973,-444.123565,-9030.512492,612.876398
542.617301,0.000000,-9030.512492,689.485948
542.617628,-148.041188,-9030.512492,536.266849
542.617956,-148.041188,-9104.533087,383.047749
542.618283,-444.123565,-9030.512492,1149.143247
542.618610,0.000000,-9030.512492,766.095498
542.618938,-222.061783,-9178.553681,612.876398
542.619265,-148.041188,-9030.512492,536.266849
542.619592,-296.082377,-9252.574275,689.485948
542.619920,-370.102971,-8808.450710,1072.533697
542.620247,148.041188,-8660.409521,842.705048
542.620574,-148.041188,-9178.553681,383.047749
542.620902,-592.164754,-9252.574275,536.266849
542.621229,-740.205942,-9252.574275,383.047749
542.621556,-962.267725,-9326.594869,229.828649
542.621884,-962.267725,-9252.574275,-306.438199
542.622211,-1480.411884,-9252.574275,0.000000
542.622538,-740.205942,-9178.553681,-459.657299
542.622866,-592.164754,-8882.471304,-459.657299
542.623193,-740.205942,-9104.533087,-459.657299
542.623521,-1110.308913,-9178.553681,-306.438199
542.623848,-1406.391290,-9252.574275,-995.924147
542.624175,-1184.329507,-9030.512492,-1302.362347
542.624503,-1036.288319,-9252.574275,-1608.800546
542.624830,-962.267725,-9178.553681,-1149.143247
542.625157,0.000000,-9104.533087,-1532.190996
542.625485,74.020594,-9326.594869,-1378.971896
542.625812,0.000000,-9030.512492,-1225.752797
542.626139,0.000000,-9178.553681,-1532.190996
542.626467,0.000000,-9400.615463,-1608.800546
542.626794,296.082377,-8882.471304,-1991.848295
542.627121,518.144159,-9178.553681,-1608.800546
542.627449,0.000000,-9178.553681,-1685.410096
542.627776,296.082377,-9326.594869,-1762.019645
542.628103,518.144159,-9474.636058,-1685.410096
542.628431,592.164754,-9178.553681,-1838.629195
542.628758,518.144159,-9104.533087,-1149.143247
542.629086,222.061783,-9474.636058,-1915.238745
542.629413,74.020594,-9326.594869,-2145.067394
542.629740,222.061783,-9474.636058,-1915.238745
542.630068,0.000000,-9178.553681,-1915.238745
542.630395,74.020594,-9104.533087,-1838.629195
542.630722,74.020594,-9326.594869,-1915.238745
542.631050,-296.082377,-9326.594869,-1915.238745
542.631377,-740.205942,-9178.553681,-2068.457845
542.631704,-962.267725,-9178.553681,-2068.457845
542.632032,-1184.329507,-9178.553681,-2221.676944
542.632359,-1480.411884,-8808.450710,-2757.943793
542.632686,-1776.494261,-9178.553681,-2604.724693
542.633014,-2072.576638,-8956.491898,-3217.601092
542.633341,-2220.617826,-9030.512492,-3140.991542
542.633668,-1776.494261,-9252.574275,-3217.601092
542.633996,-1924.535449,-8882.471304,-3294.210641
542.634323,-1850.514855,-9104.533087,-3830.477490
542.634651,-1924.535449,-8808.450710,-4213.525239
542.634978,-1702.473667,-9030.512492,-4136.915689
542.635305,-1406.391290,-9030.512492,-3753.867940
542.635633,-888.247130,-8808.450710,-3600.648841
542.635960,74.020594,-9104.533087,-3370.820191
542.636287,296.082377,-9030.512492,-3447.429741
542.636615,1332.370696,-8956.491898,-2834.553343
542.636942,2072.576638,-8882.471304,-2374.896044
542.637269,2886.803174,-8882.471304,-1915.238745
542.637597,2146.597232,-9326.594869,-2451.505594
542.637924,1702.473667,-9844.739029,-2221.676944
542.638251,740.205942,-9992.780217,-2451.505594
542.638579,-296.082377,-10288.862594,-3064.381992
542.638906,-1332.370696,-10584.944971,-3524.039291
542.639233,-1628.453072,-10288.862594,-4213.525239
542.639561,-2368.659014,-9992.780217,-4596.572988
542.639888,-1258.350101,-9104.533087,-4749.792088
542.640216,-296.082377,-8290.306550,-4826.401637
542.640543,814.226536,-7476.080014,-4060.306139
542.640870,2664.741391,-7031.956449,-3064.381992
542.641198,2960.823768,-6883.915261,-2451.505594
542.641525,2590.720797,-7920.203579,-2068.457845
542.641852,888.247130,-8882.471304,-1915.238745
542.642180,-1332.370696,-10066.800811,-2068.457845
542.642507,-3034.844362,-10807.006753,-2298.286494
542.642834,-3923.091493,-10881.027347,-2451.505594
542.643162,-3701.029710,-10584.944971,-2834.553343
542.643489,-2072.576638,-9770.718434,-2528.115143
542.643816,296.082377,-8586.388927,-2068.457845
542.644144,4219.173869,-6291.750507,-153.219100
542.644471,8808.450710,-4959.379811,1225.752797
542.644798,11029.068536,-4737.318029,3370.820191
542.645126,10140.821405,-6513.812290,4366.744339
542.645453,5625.565159,-9844.739029,4136.915689
542.645781,-1554.432478,-12657.521608,2604.724693
542.646108,-8216.285956,-14508.036463,0.000000
542.646435,-11029.068536,-14952.160028,-612.876398
542.646763,-11103.089130,-13841.851115,-2145.067394
542.647090,-9178.553681,-12139.377449,-2221.676944
542.647417,-3330.926739,-9548.656652,-1991.848295
542.647745,-1036.288319,-6439.791695,-306.438199
542.648072,-296.082377,-4367.215058,-2911.162892
542.648399,-1628.453072,-5551.544565,-3830.477490
542.648727,-7402.059420,-6957.935855,-6971.469032
542.649054,-10955.047942,-7920.203579,-8733.488677
542.649381,-14804.118840,-8142.265362,-10035.851024
542.649709,-12731.542202,-8216.285956,-10342.289223
542.650036,-9178.553681,-8290.306550,-8273.831378
542.650363,-1850.514855,-6439.791695,-6971.469032
542.650691,2442.679609,-6587.832884,-4596.572988
542.651018,5033.400406,-7254.018232,-4443.353888
542.651346,4219.173869,-8290.306550,-5286.058936
542.651673,2516.700203,-10955.047942,-6205.373534
542.652000,2886.803174,-10807.006753,-6894.859482
542.652328,5107.421000,-10510.924376,-5975.544884
542.652655,10214.842000,-10807.006753,-3447.429741
542.652982,11473.192101,-9844.739029,-1762.019645
542.653310,12139.377449,-9770.718434,-1608.800546
542.653637,12805.562797,-10288.862594,-1302.362347
542.653964,12065.356855,-9548.656652,-1838.629195
542.654292,9918.759623,-9474.636058,-2834.553343
542.654619,11399.171507,-11695.253884,-383.047749
542.654946,8660.409521,-11473.192101,-2757.943793
542.655274,-1702.473667,-14063.912898,-4366.744339
542.655601,-6883.915261,-15544.324782,-6818.249932
542.655928,-11103.089130,-11843.295072,-7967.393179
542.656256,-8142.265362,-7846.182985,-7814.174080
542.656583,-1110.308913,-3330.926739,-5286.058936
542.656911,3182.885551,-2368.659014,-2757.943793
542.657238,3552.988522,-2146.597232,-1225.752797
542.657565,1480.411884,-3034.844362,-612.876398
542.657893,-2442.679609,-3775.050304,-1072.533697
542.658220,-4737.318029,-5625.565159,76.609550
542.658547,-5255.462188,-7624.121203,-459.657299
542.658875,-6587.832884,-9104.533087,153.219100
542.659202,-5921.647536,-10214.842000,2298.286494
542.659529,-4367.215058,-10510.924376,4749.792088
542.659857,-3552.988522,-8068.244768,5056.230287
542.660184,-814.226536,-7624.121203,3983.696590
542.660511,-1480.411884,-9992.780217,1838.629195
542.660839,-3923.091493,-11843.295072,0.000000
542.661166,-6513.812290,-11695.253884,-1608.800546
542.661493,-5477.523971,-10066.800811,-1915.238745
542.661821,-2590.720797,-8142.265362,-1225.752797
542.662148,0.000000,-8956.491898,0.000000
542.662476,962.267725,-9326.594869,536.266849
542.662803,-1480.411884,-9104.533087,459.657299
542.663130,-3108.864956,-8660.409521,306.438199
542.663458,-4071.132681,-8882.471304,-153.219100
542.663785,-3552.988522,-10362.883188,-612.876398
542.664112,-3775.050304,-12213.398043,-1915.238745
542.664440,-3552.988522,-12731.542202,-1685.410096
542.664767,-2738.761985,-9474.636058,-2604.724693
542.665094,-2812.782580,-7476.080014,-1915.238745
542.665422,1258.350101,-6587.832884,-2221.676944
542.665749,1628.453072,-6513.812290,-3064.381992
542.666076,2886.803174,-7476.080014,-3907.087040
542.666404,4737.318029,-7476.080014,-4673.182538
542.666731,5625.565159,-7994.224174,-3677.258390
542.667058,4811.338623,-9030.512492,-3677.258390
542.667386,4959.379811,-11843.295072,-3140.991542
542.667713,4293.194464,-13915.871710,-2757.943793
542.668041,4737.318029,-13619.789333,-2145.067394
542.668368,4589.276840,-13249.686362,-2068.457845
542.668695,3256.906145,-12065.356855,-1915.238745
542.669023,2294.638420,-11991.336260,-1455.581446
542.669350,2072.576638,-11843.295072,-766.095498
542.669677,2072.576638,-10584.944971,-1072.533697
542.670007,1628.453072,-9548.656652,-1838.629195
542.670334,-740.205942,-8438.347739,-2374.896044
542.670661,-1776.494261,-8438.347739,-2834.553343
542.670989,-2368.659014,-7031.956449,-3370.820191
542.671316,-2146.597232,-6365.771101,-3907.087040
542.671644,-1776.494261,-6365.771101,-3294.210641
542.671971,-2072.576638,-4885.359217,-3217.601092
542.672298,-1184.329507,-4515.256246,-1991.848295
542.672626,-962.267725,-6143.709319,-383.047749
542.672953,-2146.597232,-7624.121203,-842.705048
542.673281,-3775.050304,-8956.491898,-1072.533697
542.673608,-3701.029710,-9326.594869,-919.314598
542.673935,-4145.153275,-9252.574275,-1072.533697
542.674263,-4293.194464,-9104.533087,-536.266849
542.674590,-2664.741391,-8364.327145,0.000000
542.674918,740.205942,-7476.080014,689.485948
542.675245,2516.700203,-7105.977043,1455.581446
542.675572,1924.535449,-8216.285956,1685.410096
542.675900,0.000000,-9622.677246,383.047749
542.676227,-444.123565,-10362.883188,0.000000
542.676555,-1332.370696,-10214.842000,-766.095498
542.676882,-666.185348,-9992.780217,-766.095498
542.677209,962.267725,-8882.471304,536.266849
542.677537,3923.091493,-7402.059420,1991.848295
542.677864,5847.626942,-6069.688724,3370.820191
542.678192,5329.482782,-7031.956449,3907.087040
542.678519,2516.700203,-8660.409521,3600.648841
542.678846,-444.123565,-9326.594869,2145.067394
542.679174,-2664.741391,-9548.656652,1302.362347
542.679501,-3627.009116,-9696.697840,1455.581446
542.679829,-2072.576638,-9178.553681,1608.800546
542.680156,0.000000,-8734.430116,2528.115143
542.680483,2516.700203,-7105.977043,3907.087040
542.680811,1480.411884,-7550.100608,3370.820191
542.681138,-1480.411884,-9474.636058,1915.238745
542.681466,-5551.544565,-10807.006753,-459.657299
542.681793,-7031.956449,-11177.109724,-1378.971896
542.682120,-6957.935855,-10807.006753,-1455.581446
542.682448,-4367.215058,-10955.047942,-1455.581446
542.682775,-2072.576638,-10066.800811,-153.219100
542.683103,222.061783,-8660.409521,995.924147
542.683430,814.226536,-8734.430116,1838.629195
542.683757,-1480.411884,-10362.883188,1455.581446
542.684085,-4441.235652,-10436.903782,229.828649
542.684412,-4737.318029,-10510.924376,-1072.533697
542.684740,-3923.091493,-10140.821405,-1225.752797
542.685067,-1702.473667,-9474.636058,0.000000
542.685394,2072.576638,-8808.450710,1762.019645
542.685722,5403.503377,-7624.121203,2834.553343
542.686049,6217.729913,-7920.203579,3600.648841
542.686377,4219.173869,-9178.553681,2681.334243
542.686704,148.041188,-10510.924376,612.876398
542.687031,-1332.370696,-10510.924376,-842.705048
542.687359,-962.267725,-11103.089130,-1225.752797
542.687686,740.205942,-11103.089130,-842.705048
542.688014,2368.659014,-10214.842000,0.000000
542.688341,5107.421000,-9918.759623,2298.286494
542.688668,6143.709319,-9104.533087,2451.505594
542.688996,3478.967927,-10214.842000,2145.067394
542.689323,-1184.329507,-11473.192101,-153.219100
542.689651,-4145.153275,-11769.274478,-2221.676944
542.689978,-4663.297435,-10362.883188,-2528.115143
542.690305,-3701.029710,-9252.574275,-2068.457845
542.690633,-962.267725,-8216.285956,-536.266849
542.690960,1480.411884,-7698.141797,1225.752797
542.691288,2886.803174,-6661.853478,1915.238745
542.691615,1406.391290,-6957.935855,1455.581446
542.691942,-2072.576638,-7846.182985,-612.876398
542.692270,-5107.421000,-8290.306550,-2068.457845
542.692597,-5403.503377,-7994.224174,-2987.772442
542.692925,-3775.050304,-7476.080014,-2451.505594
542.693252,-1184.329507,-7105.977043,-919.314598
542.693579,1554.432478,-6957.935855,689.485948
542.693907,3923.091493,-6513.812290,2451.505594
542.694234,4071.132681,-6143.709319,2374.896044
542.694562,1258.350101,-8882.471304,1149.143247
542.694889,-1850.514855,-10214.842000,-995.924147
542.695216,-2738.761985,-9844.739029,-1685.410096
542.695544,-962.267725,-10140.821405,-536.266849
542.695871,888.247130,-9104.533087,1455.581446
542.696199,3849.070898,-8364.327145,2451.505594
542.696526,5181.441594,-8734.430116,4213.525239
542.696853,4959.379811,-8290.306550,4596.572988
542.697181,1776.494261,-9844.739029,3217.601092
542.697508,-2368.659014,-10732.986159,1685.410096
542.697836,-3627.009116,-9696.697840,76.609550
542.698163,-4589.276840,-9770.718434,229.828649
542.698490,-2368.659014,-9030.512492,383.047749
542.698818,-148.041188,-7328.038826,1991.848295
542.699145,2738.761985,-7105.977043,2757.943793
542.699473,3478.967927,-5625.565159,3140.991542
542.699800,962.267725,-7402.059420,2681.334243
542.700127,-3552.988522,-9400.615463,383.047749
542.700455,-6883.915261,-9474.636058,-1532.190996
542.700782,-6365.771101,-9918.759623,-1302.362347
542.701110,-4589.276840,-8808.450710,-459.657299
542.701437,-2590.720797,-8364.327145,76.609550
542.701764,296.082377,-9104.533087,1378.971896
542.702092,2664.741391,-8438.347739,2451.505594
542.702419,814.226536,-8808.450710,1915.238745
542.702747,-2220.617826,-10362.883188,842.705048
542.703074,-4071.132681,-10510.924376,-842.705048
542.703401,-4219.173869,-10288.862594,-1991.848295
542.703729,-2072.576638,-10881.027347,-1225.752797
542.704056,296.082377,-9474.636058,-229.828649
542.704384,3182.885551,-9474.636058,1149.143247
542.704711,6069.688724,-9992.780217,2374.896044
542.705038,4293.194464,-8660.409521,2451.505594
542.705366,2368.659014,-11029.068536,2068.457845
542.705693,-814.226536,-11991.336260,76.609550
542.706021,-2442.679609,-10955.047942,-842.705048
542.706348,-2590.720797,-10584.944971,-995.924147
542.706675,-592.164754,-10288.862594,76.609550
542.707003,2368.659014,-8438.347739,995.924147
542.707330,3478.967927,-8956.491898,1915.238745
542.707658,4811.338623,-8586.388927,2221.676944
542.707985,2368.659014,-9474.636058,383.047749
542.708312,-1036.288319,-10066.800811,-153.219100
542.708640,-3034.844362,-10436.903782,-1762.019645
542.708967,-3182.885551,-11103.089130,-1455.581446
542.709295,-2072.576638,-10732.986159,-842.705048
542.709622,-370.102971,-9770.718434,459.657299
542.709949,1480.411884,-7994.224174,1762.019645
542.710277,2960.823768,-8068.244768,2068.457845
542.710604,1480.411884,-8660.409521,1838.629195
542.710932,-2072.576638,-9696.697840,0.000000
542.711259,-3849.070898,-9622.677246,-689.485948
542.711586,-4293.194464,-9474.636058,-1991.848295
542.711914,-3404.947333,-9178.553681,-1072.533697
542.712241,-1702.473667,-8734.430116,153.219100
542.712569,444.123565,-7624.121203,1378.971896
542.712896,2516.700203,-7402.059420,2757.943793
542.713223,1554.432478,-7105.977043,2374.896044
542.713551,-444.123565,-8068.244768,1302.362347
542.713878,-2220.617826,-8956.491898,0.000000
542.714206,-2516.700203,-9326.594869,-842.705048
542.714533,-2220.617826,-9548.656652,-612.876398
542.714860,-814.226536,-9030.512492,612.876398
542.715188,2072.576638,-8660.409521,1838.629195
542.715515,3997.112087,-7624.121203,3294.210641
542.715843,3849.070898,-7772.162391,3064.381992
542.716170,1110.308913,-9030.512492,2451.505594
542.716497,-1184.329507,-9696.697840,153.219100
542.716825,-3034.844362,-9474.636058,-689.485948
542.717152,-2812.782580,-9104.533087,-1149.143247
542.717480,-2294.638420,-9326.594869,-689.485948
542.717807,-518.144159,-8586.388927,0.000000
542.718134,2294.638420,-7402.059420,1072.533697
542.718462,3552.988522,-5921.647536,1991.848295
542.718789,2368.659014,-7105.977043,1455.581446
542.719117,-444.123565,-8438.347739,153.219100
542.719444,-2294.638420,-8808.450710,-612.876398
542.719771,-3034.844362,-9104.533087,-1532.190996
542.720099,-2294.638420,-9844.739029,-306.438199
542.720426,-1036.288319,-9326.594869,76.609550
542.720754,1776.494261,-8808.450710,2068.457845
542.721081,3478.967927,-8438.347739,3140.991542
542.721408,2664.741391,-8956.491898,2834.553343
542.721736,-222.061783,-9696.697840,1915.238745
542.722063,-2960.823768,-9696.697840,0.000000
542.722391,-3701.029710,-9696.697840,-1455.581446
542.722718,-3182.885551,-10066.800811,-1455.581446
542.723045,-2368.659014,-9992.780217,-1072.533697
542.723373,222.061783,-9178.553681,459.657299
542.723700,2590.720797,-8142.265362,1225.752797
542.724028,2146.597232,-8290.306550,1685.410096
542.724355,-296.082377,-9178.553681,689.485948
542.724682,-2664.741391,-10066.800811,-689.485948
542.725010,-3256.906145,-9622.677246,-1532.190996
542.725337,-3108.864956,-9474.636058,-1608.800546
542.725665,-2294.638420,-9844.739029,-383.047749
542.725992,0.000000,-9474.636058,919.314598
542.726319,2960.823768,-8216.285956,2604.724693
542.726647,3997.112087,-7994.224174,3064.381992
542.726974,1480.411884,-8660.409521,2451.505594
542.727302,-1924.535449,-9918.759623,1072.533697
542.727629,-3404.947333,-9696.697840,-766.095498
542.727956,-2590.720797,-9474.636058,-1302.362347
542.728284,-1702.473667,-9400.615463,-919.314598
542.728611,740.205942,-9252.574275,229.828649
542.728939,3849.070898,-8882.471304,1685.410096
542.729266,4515.256246,-8364.327145,2757.943793
542.729593,2664.741391,-9178.553681,2221.676944
542.729921,-740.205942,-10807.006753,536.266849
542.730248,-2442.679609,-11177.109724,-689.485948
542.730576,-2886.803174,-11621.233289,-1302.362347
542.730903,-1702.473667,-10510.924376,-612.876398
542.731230,518.144159,-9474.636058,842.705048
542.731558,3552.988522,-8364.327145,2834.553343
542.731885,4663.297435,-8290.306550,4290.134789
542.732213,2960.823768,-9104.533087,3830.477490
542.732540,-1258.350101,-10584.944971,2374.896044
542.732867,-4071.132681,-10288.862594,153.219100
542.733195,-4737.318029,-9622.677246,-919.314598
542.733522,-4219.173869,-9844.739029,-1149.143247
542.733850,-2368.659014,-9252.574275,-612.876398
542.734177,296.082377,-8142.265362,842.705048
542.734504,2590.720797,-6883.915261,1608.800546
542.734832,2146.597232,-7179.997637,1302.362347
542.735159,-740.205942,-8808.450710,76.609550
542.735487,-3404.947333,-9178.553681,-1302.362347
542.735814,-3923.091493,-8660.409521,-2528.115143
542.736141,-2664.741391,-8438.347739,-1838.629195
542.736469,-962.267725,-8512.368333,229.828649
542.736796,1998.556043,-7920.203579,2298.286494
542.737124,4737.318029,-7328.038826,4136.915689
542.737451,4293.194464,-7772.162391,4519.963438
542.737778,1258.350101,-9252.574275,3447.429741
542.738106,-2812.782580,-10066.800811,1149.143247
542.738433,-3997.112087,-9918.759623,153.219100
542.738761,-3997.112087,-9326.594869,-842.705048
542.739088,-3034.844362,-8734.430116,-229.828649
542.739415,-148.041188,-8142.265362,459.657299
542.739743,3034.844362,-6883.915261,1685.410096
542.740070,3404.947333,-5773.606348,2068.457845
542.740398,2294.638420,-7105.977043,842.705048
542.740725,-2220.617826,-8882.471304,-766.095498
542.741052,-4219.173869,-9252.574275,-1991.848295
542.741380,-4885.359217,-9104.533087,-2834.553343
542.741707,-3701.029710,-9104.533087,-1532.190996
542.742035,-1036.288319,-8142.265362,0.000000
542.742362,1850.514855,-8216.285956,1455.581446
542.742689,3478.967927,-7846.182985,3140.991542
542.743017,2146.597232,-7698.141797,2528.115143
542.743344,-888.247130,-9252.574275,766.095498
542.743672,-3701.029710,-9992.780217,-995.924147
542.743999,-3552.988522,-10140.821405,-1455.581446
542.744326,-2886.803174,-9622.677246,-1762.019645
542.744654,0.000000,-9474.636058,-995.924147
542.744981,2812.782580,-8364.327145,229.828649
542.745309,4959.379811,-7920.203579,919.314598
542.745636,4441.235652,-8882.471304,1149.143247
542.745963,2072.576638,-10288.862594,-153.219100
542.746291,-1406.391290,-11103.089130,-1378.971896
542.746618,-2220.617826,-11399.171507,-2528.115143
542.746946,-2072.576638,-11769.274478,-1915.238745
542.747273,-370.102971,-11399.171507,-766.095498
542.747600,2664.741391,-10658.965565,1532.190996
542.747928,5181.441594,-9474.636058,3600.648841
542.748255,5107.421000,-9400.615463,3907.087040
542.748583,2960.823768,-10955.047942,3447.429741
542.748910,-962.267725,-11251.130318,1532.190996
542.749237,-2590.720797,-10140.821405,995.924147
542.749565,-2516.700203,-10732.986159,-153.219100
542.749892,-2368.659014,-10955.047942,76.609550
542.750220,-1036.288319,-10288.862594,1149.143247
542.750547,1110.308913,-8956.491898,1838.629195
542.750874,1850.514855,-7920.203579,2757.943793
542.751202,444.123565,-9104.533087,2374.896044
542.751529,-2960.823768,-9844.739029,383.047749
542.751857,-4737.318029,-10066.800811,-842.705048
542.752184,-5255.462188,-9622.677246,-1378.971896
542.752511,-4441.235652,-9474.636058,-919.314598
542.752839,-2368.659014,-9474.636058,689.485948
542.753166,1554.432478,-7846.182985,2374.896044
542.753494,3182.885551,-6809.894666,3524.039291
542.753821,2886.803174,-7772.162391,4060.306139
542.754148,-740.205942,-8512.368333,2451.505594
542.754476,-2220.617826,-9326.594869,1532.190996
542.754803,-3182.885551,-8956.491898,459.657299
542.755131,-2590.720797,-8808.450710,229.828649
542.755458,-1628.453072,-8956.491898,689.485948
542.755785,1258.350101,-8142.265362,1762.019645
542.756113,3108.864956,-7105.977043,2757.943793
542.756440,3182.885551,-7179.997637,2757.943793
542.756768,0.000000,-8660.409521,689.485948
542.757095,-3034.844362,-8882.471304,-1532.190996
542.757422,-3775.050304,-8734.430116,-2451.505594
542.757750,-3108.864956,-7624.121203,-2757.943793
542.758077,-1184.329507,-7328.038826,-1149.143247
542.758405,1332.370696,-7031.956449,0.000000
542.758732,4293.194464,-6735.874072,1991.848295
542.759059,3775.050304,-6957.935855,2145.067394
542.759387,1554.432478,-8364.327145,1455.581446
542.759714,-2294.638420,-9400.615463,-689.485948
542.760042,-2442.679609,-9474.636058,-766.095498
542.760369,-2220.617826,-9696.697840,-1378.971896
542.760696,-962.267725,-9326.594869,-766.095498
542.761024,1628.453072,-8882.471304,0.000000
542.761351,3404.947333,-7846.182985,766.095498
542.761679,3775.050304,-6883.915261,1225.752797
542.762006,1406.391290,-8882.471304,153.219100
542.762333,-1628.453072,-9992.780217,-1838.629195
542.762661,-3478.967927,-9918.759623,-3064.381992
542.762988,-2442.679609,-9326.594869,-2987.772442
542.763316,-1036.288319,-8956.491898,-1762.019645
542.763643,1628.453072,-8956.491898,-229.828649
542.763970,3923.091493,-8734.430116,2145.067394
542.764298,5181.441594,-8586.388927,3447.429741
542.764625,3108.864956,-9622.677246,3140.991542
542.764953,-666.185348,-11621.233289,2374.896044
542.765280,-3182.885551,-11917.315666,766.095498
542.765607,-3627.009116,-11843.295072,536.266849
542.765935,-3034.844362,-11473.192101,383.047749
542.766262,-1628.453072,-10732.986159,1378.971896
542.766590,814.226536,-9474.636058,2604.724693
542.766917,3034.844362,-8142.265362,2681.334243
542.767244,1998.556043,-8512.368333,2451.505594
542.767572,-962.267725,-9770.718434,842.705048
542.767899,-4293.194464,-9992.780217,-1225.752797
542.768227,-4737.318029,-9252.574275,-2298.286494
542.768554,-3923.091493,-9030.512492,-1762.019645
542.768881,-2294.638420,-8956.491898,0.000000
542.769209,222.061783,-8956.491898,1838.629195
542.769536,2368.659014,-8734.430116,3447.429741
542.769864,1998.556043,-8438.347739,3753.867940
542.770191,-222.061783,-9844.739029,3753.867940
542.770518,-3404.947333,-10732.986159,1378.971896
542.770846,-4367.215058,-10214.842000,76.609550
542.771173,-3256.906145,-9770.718434,0.000000
542.771501,-1628.453072,-9030.512492,459.657299
542.771829,888.247130,-8068.244768,1532.190996
542.772156,3034.844362,-7105.977043,2068.457845
542.772484,4071.132681,-6883.915261,2451.505594
542.772811,1628.453072,-7920.203579,1149.143247
542.773139,-1998.556043,-9400.615463,-612.876398
542.773467,-3108.864956,-9622.677246,-1685.410096
542.773794,-3923.091493,-9474.636058,-2145.067394
542.774122,-2442.679609,-9844.739029,-1455.581446
542.774450,-296.082377,-9252.574275,-306.438199
542.774777,2664.741391,-8660.409521,1149.143247
542.775105,4441.235652,-7698.141797,2451.505594
542.775432,3256.906145,-7772.162391,1762.019645
542.775760,740.205942,-9030.512492,1455.581446
542.776088,-1110.308913,-8956.491898,153.219100
542.776415,-1850.514855,-9104.533087,-383.047749
542.776743,-1554.432478,-9104.533087,-536.266849
542.777071,-518.144159,-9104.533087,-153.219100
542.777398,1332.370696,-8216.285956,1225.752797
542.777726,3330.926739,-7402.059420,1991.848295
542.778053,2442.679609,-7846.182985,1608.800546
542.778381,444.123565,-9400.615463,689.485948
542.778709,-2516.700203,-9178.553681,-1149.143247
542.779036,-3034.844362,-9326.594869,-2221.676944
542.779364,-2590.720797,-9178.553681,-2221.676944
542.779692,-1406.391290,-9252.574275,-1149.143247
542.780019,740.205942,-8512.368333,0.000000
542.780347,3182.885551,-7846.182985,1685.410096
542.780674,3256.906145,-7624.121203,2298.286494
542.781002,1628.453072,-8808.450710,2451.505594
542.781330,-1554.432478,-9918.759623,1225.752797
542.781657,-3330.926739,-9918.759623,153.219100
542.781985,-3849.070898,-9992.780217,0.000000
542.782313,-3552.988522,-10066.800811,153.219100
542.782640,-1554.432478,-9030.512492,76.609550
542.782968,962.267725,-8438.347739,1455.581446
542.783295,2368.659014,-7179.997637,1762.019645
542.783623,1924.535449,-8290.306550,1072.533697
542.783951,-1332.370696,-9326.594869,-536.266849
542.784278,-3330.926739,-9696.697840,-1915.238745
542.784606,-3552.988522,-9474.636058,-2834.553343
542.784934,-2886.803174,-9622.677246,-2298.286494
542.785261,-1258.350101,-9400.615463,-1072.533697
542.785589,2146.597232,-9326.594869,919.314598
542.785916,3552.988522,-8216.285956,2298.286494
542.786244,3108.864956,-8808.450710,2604.724693
542.786572,148.041188,-10214.842000,1838.629195
542.786899,-1332.370696,-10436.903782,689.485948
542.787227,-1628.453072,-10066.800811,306.438199
542.787554,-1036.288319,-10066.800811,76.609550
542.787882,0.000000,-9622.677246,919.314598
542.788210,1924.535449,-9030.512492,2145.067394
542.788537,4515.256246,-8290.306550,3140.991542
542.788865,3775.050304,-8438.347739,3064.381992
542.789193,1554.432478,-9622.677246,1762.019645
542.789520,-2294.638420,-10807.006753,-383.047749
542.789848,-3182.885551,-10658.965565,-1149.143247
542.790175,-3478.967927,-10288.862594,-1685.410096
542.790503,-1776.494261,-9548.656652,-766.095498
542.790831,296.082377,-8660.409521,0.000000
542.791158,2812.782580,-8290.306550,2374.896044
542.791486,2664.741391,-8290.306550,2911.162892
542.791814,222.061783,-8660.409521,2374.896044
542.792141,-2886.803174,-9918.759623,1302.362347
542.792469,-4071.132681,-9918.759623,0.000000
542.792796,-4219.173869,-10214.842000,0.000000
542.793124,-2664.741391,-9844.739029,689.485948
542.793452,-666.185348,-8808.450710,1762.019645
542.793779,1998.556043,-8142.265362,3140.991542
542.794107,3108.864956,-7772.162391,3830.477490
542.794435,962.267725,-9030.512492,2451.505594
542.794762,-2738.761985,-10066.800811,536.266849
542.795090,-4811.338623,-10066.800811,-1302.362347
542.795417,-4959.379811,-9400.615463,-2221.676944
542.795745,-3404.947333,-8586.388927,-1915.238745
542.796073,-814.226536,-7031.956449,-536.266849
542.796400,2072.576638,-6587.832884,306.438199
542.796728,4515.256246,-5921.647536,1762.019645
542.797056,3108.864956,-6513.812290,1838.629195
542.797383,444.123565,-7920.203579,1072.533697
542.797711,-2664.741391,-8956.491898,-153.219100
542.798038,-3552.988522,-10066.800811,-1225.752797
542.798366,-3034.844362,-10140.821405,-1072.533697
542.798694,-1184.329507,-9400.615463,0.000000
542.799021,1776.494261,-8438.347739,1225.752797
542.799349,4441.235652,-7772.162391,2451.505594
542.799677,3923.091493,-8142.265362,2374.896044
542.800004,1406.391290,-9474.636058,536.266849
542.800332,-1924.535449,-9548.656652,-1838.629195
542.800659,-2442.679609,-9400.615463,-2911.162892
542.800987,-2294.638420,-9178.553681,-2834.553343
542.801315,-370.102971,-8808.450710,-1838.629195
542.801642,1924.535449,-8216.285956,-612.876398
542.801970,5033.400406,-7105.977043,1378.971896
542.802298,5255.462188,-7254.018232,2298.286494
542.802625,3256.906145,-8734.430116,2298.286494
542.802953,-1110.308913,-10140.821405,766.095498
542.803280,-2886.803174,-11251.130318,-153.219100
542.803608,-3923.091493,-11695.253884,-842.705048
542.803936,-2960.823768,-11177.109724,306.438199
542.804263,-296.082377,-9844.739029,1378.971896
542.804591,2960.823768,-9178.553681,2374.896044
542.804919,3701.029710,-7476.080014,3217.601092
542.805246,2368.659014,-7994.224174,2374.896044
542.805574,-1332.370696,-9326.594869,459.657299
542.805901,-3775.050304,-9548.656652,-1302.362347
542.806229,-4885.359217,-9400.615463,-2145.067394
542.806557,-4293.194464,-9844.739029,-2068.457845
542.806884,-2886.803174,-9104.533087,-995.924147
542.807212,592.164754,-8438.347739,919.314598
542.807540,2590.720797,-8290.306550,2145.067394
542.807867,3034.844362,-8808.450710,3447.429741
542.808195,518.144159,-9400.615463,2298.286494
542.808522,-2812.782580,-11695.253884,1149.143247
542.808850,-3849.070898,-11103.089130,153.219100
542.809178,-4219.173869,-10955.047942,0.000000
542.809505,-2294.638420,-10807.006753,995.924147
542.809833,888.247130,-9030.512492,2604.724693
542.810161,3627.009116,-8290.306550,3600.648841
542.810488,3923.091493,-8512.368333,3370.820191
542.810816,1258.350101,-9104.533087,1991.848295
542.811143,-2294.638420,-10140.821405,0.000000
542.811471,-3034.844362,-10066.800811,-1532.190996
542.811799,-3034.844362,-10214.842000,-1762.019645
542.812126,-2072.576638,-9696.697840,-1225.752797
542.812454,148.041188,-9104.533087,0.000000
542.812782,3256.906145,-8216.285956,1685.410096
542.813109,4589.276840,-7105.977043,3064.381992
542.813437,2220.617826,-8364.327145,2221.676944
542.813764,-962.267725,-9400.615463,383.047749
542.814092,-3108.864956,-10066.800811,-995.924147
542.814420,-3478.967927,-10214.842000,-919.314598
542.814747,-2072.576638,-9918.759623,-689.485948
542.815075,-148.041188,-8216.285956,612.876398
542.815403,3034.844362,-7254.018232,2374.896044
542.815730,4071.132681,-7105.977043,2681.334243
542.816058,2220.617826,-7920.203579,2068.457845
542.816385,-1036.288319,-9104.533087,0.000000
542.816713,-3256.906145,-9474.636058,-1149.143247
542.817041,-2812.782580,-9178.553681,-1915.238745
542.817368,-2072.576638,-9696.697840,-1762.019645
542.817696,0.000000,-9400.615463,-459.657299
542.818024,3108.864956,-8290.306550,1149.143247
542.818351,4293.194464,-7402.059420,2528.115143
542.818679,3182.885551,-8364.327145,2451.505594
542.819006,-222.061783,-9474.636058,919.314598
542.819334,-2738.761985,-9844.739029,-689.485948
542.819662,-3775.050304,-9918.759623,-766.095498
542.819989,-3478.967927,-9474.636058,-229.828649
542.820317,-1258.350101,-8216.285956,689.485948
542.820645,1998.556043,-7105.977043,1915.238745
542.820972,4219.173869,-5995.668130,2834.553343
542.821300,3404.947333,-7402.059420,2757.943793
542.821627,0.000000,-8808.450710,1149.143247
542.821955,-3701.029710,-9400.615463,-842.705048
542.822283,-4367.215058,-9474.636058,-1608.800546
542.822610,-4219.173869,-9474.636058,-1685.410096
542.822938,-2146.597232,-9474.636058,-612.876398
542.823266,0.000000,-8808.450710,536.266849
542.823593,2886.803174,-7254.018232,2681.334243
542.823921,3330.926739,-6661.853478,2528.115143
542.824248,1628.453072,-8216.285956,1838.629195
542.824576,-2368.659014,-9474.636058,-383.047749
542.824904,-4071.132681,-10214.842000,-1225.752797
542.825231,-4441.235652,-9844.739029,-1455.581446
542.825559,-2738.761985,-8660.409521,-459.657299
542.825887,222.061783,-8290.306550,766.095498
542.826214,3404.947333,-8216.285956,2451.505594
542.826542,3701.029710,-7994.224174,2757.943793
542.826869,2220.617826,-9030.512492,2681.334243
542.827197,-1036.288319,-10066.800811,229.828649
542.827525,-3108.864956,-10436.903782,-919.314598
542.827852,-2960.823768,-10510.924376,-1762.019645
542.828180,-1998.556043,-10732.986159,-995.924147
542.828508,0.000000,-9548.656652,-383.047749
542.828835,2960.823768,-9178.553681,919.314598
542.829163,3775.050304,-7920.203579,2068.457845
542.829490,3034.844362,-8364.327145,1762.019645
542.829818,74.020594,-10584.944971,459.657299
542.830146,-2664.741391,-11029.068536,-842.705048
542.830473,-3256.906145,-10658.965565,-1991.848295
542.830801,-2812.782580,-10955.047942,-1072.533697
542.831129,-1628.453072,-11029.068536,0.000000
542.831456,1480.411884,-9474.636058,1225.752797
542.831784,3701.029710,-8882.471304,2221.676944
542.832111,3404.947333,-9474.636058,2374.896044
542.832439,518.144159,-10214.842000,1685.410096
542.832767,-2146.597232,-11103.089130,306.438199
542.833094,-2368.659014,-10732.986159,0.000000
542.833422,-2368.659014,-9770.718434,-919.314598
542.833750,-1184.329507,-10140.821405,-229.828649
542.834077,888.247130,-9548.656652,1225.752797
542.834405,2812.782580,-7624.121203,2451.505594
542.834732,3627.009116,-7476.080014,2834.553343
542.835060,1554.432478,-8956.491898,2374.896044
542.835388,-2220.617826,-10362.883188,1149.143247
542.835715,-3478.967927,-10436.903782,0.000000
542.836043,-3997.112087,-9918.759623,-229.828649
542.836371,-3478.967927,-9474.636058,76.609550
542.836698,-1258.350101,-9474.636058,1532.190996
542.837026,1332.370696,-8660.409521,2374.896044
542.837353,1924.535449,-8068.244768,2528.115143
542.837681,444.123565,-8586.388927,2451.505594
542.838009,-2886.803174,-8734.430116,153.219100
542.838336,-3627.009116,-9104.533087,-612.876398
542.838664,-3701.029710,-8734.430116,-1378.971896
542.838992,-3256.906145,-8512.368333,-1072.533697
542.839319,-1332.370696,-8290.306550,-383.047749
542.839647,1480.411884,-6735.874072,766.095498
542.839974,3627.009116,-5773.606348,1991.848295
542.840302,3108.864956,-6735.874072,2145.067394
542.840630,444.123565,-8586.388927,1378.971896
542.840957,-2590.720797,-9252.574275,-306.438199
542.841285,-3108.864956,-8956.491898,-1225.752797
542.841613,-2812.782580,-8882.471304,-995.924147
542.841940,-1480.411884,-8956.491898,-536.266849
542.842268,1110.308913,-8808.450710,1378.971896
542.842595,3701.029710,-7179.997637,1762.019645
542.842923,3627.009116,-7105.977043,1762.019645
542.843251,2072.576638,-7624.121203,919.314598
542.843578,-296.082377,-8882.471304,-689.485948
542.843906,-1258.350101,-9030.512492,-1225.752797
542.844233,-1258.350101,-9030.512492,-1762.019645
542.844561,0.000000,-8956.491898,-995.924147
542.844889,1406.391290,-8290.306550,229.828649
542.845216,3404.947333,-7920.203579,2451.505594
542.845544,3552.988522,-7846.182985,2911.162892
542.845872,1702.473667,-9548.656652,2528.115143
542.846199,-1702.473667,-9992.780217,383.047749
542.846527,-3182.885551,-9844.739029,-459.657299
542.846854,-3552.988522,-9918.759623,-995.924147
542.847182,-2442.679609,-9548.656652,-612.876398
542.847510,-666.185348,-8068.244768,-229.828649
542.847837,1924.535449,-7624.121203,1685.410096
542.848165,2812.782580,-7254.018232,1455.581446
542.848493,1258.350101,-8068.244768,1072.533697
542.848820,-1776.494261,-9474.636058,0.000000
542.849148,-3404.947333,-9326.594869,-995.924147
542.849475,-3552.988522,-9474.636058,-1378.971896
542.849803,-2368.659014,-10140.821405,-689.485948
542.850131,-518.144159,-9400.615463,459.657299
542.850458,1776.494261,-8808.450710,1455.581446
542.850786,3627.009116,-8808.450710,2911.162892
542.851114,3256.906145,-10436.903782,2911.162892
542.851441,-444.123565,-11843.295072,1608.800546
542.851769,-3552.988522,-12361.439231,612.876398
542.852096,-4367.215058,-11917.315666,-459.657299
542.852424,-3923.091493,-11547.212695,-995.924147
542.852752,-1554.432478,-10140.821405,229.828649
542.853079,1110.308913,-8956.491898,919.314598
542.853407,3330.926739,-7920.203579,1302.362347
542.853735,2960.823768,-8142.265362,1762.019645
542.854062,444.123565,-8882.471304,612.876398
542.854390,-2072.576638,-9548.656652,-1072.533697
542.854717,-2664.741391,-9992.780217,-1532.190996
542.855045,-3330.926739,-10288.862594,-1762.019645
542.855373,-2516.700203,-10436.903782,-842.705048
542.855700,0.000000,-9474.636058,689.485948
542.856028,2738.761985,-8364.327145,2528.115143
542.856356,3775.050304,-7698.141797,3524.039291
542.856683,1776.494261,-9696.697840,2528.115143
542.857011,-1406.391290,-11177.109724,1225.752797
542.857338,-2960.823768,-10214.842000,-153.219100
542.857666,-2960.823768,-9918.759623,-689.485948
542.857994,-1628.453072,-9400.615463,-383.047749
542.858321,592.164754,-8512.368333,459.657299
542.858649,2812.782580,-7550.100608,1685.410096
542.858977,4145.153275,-7105.977043,2451.505594
542.859304,2294.638420,-8216.285956,2068.457845
542.859632,0.000000,-9252.574275,1302.362347
542.859959,-2220.617826,-9252.574275,-153.219100
542.860287,-2516.700203,-9770.718434,-612.876398
542.860615,-2368.659014,-10362.883188,0.000000
542.860942,-1332.370696,-9474.636058,766.095498
542.861270,1776.494261,-8586.388927,2451.505594
542.861598,3849.070898,-7105.977043,3600.648841
542.861925,2960.823768,-7254.018232,3907.087040
542.862253,0.000000,-9400.615463,2681.334243
542.862580,-3034.844362,-9400.615463,536.266849
542.862908,-5033.400406,-8956.491898,-766.095498
542.863236,-4663.297435,-8956.491898,-1685.410096
542.863563,-3701.029710,-8364.327145,-1225.752797
542.863891,-740.205942,-8068.244768,-306.438199
542.864219,1850.514855,-7254.018232,919.314598
542.864546,1850.514855,-7328.038826,1149.143247
542.864874,0.000000,-7994.224174,0.000000
542.865201,-2886.803174,-9104.533087,-766.095498
542.865529,-3256.906145,-9474.636058,-1762.019645
542.865857,-3552.988522,-9400.615463,-2451.505594
542.866184,-2072.576638,-9326.594869,-1685.410096
542.866512,518.144159,-8586.388927,-459.657299
542.866840,3775.050304,-6883.915261,766.095498
542.867167,5033.400406,-7031.956449,2374.896044
542.867495,3552.988522,-8438.347739,2221.676944
542.867822,222.061783,-9918.759623,766.095498
542.868150,-1998.556043,-10214.842000,153.219100
542.868478,-2146.597232,-9548.656652,-1072.533697
542.868805,-1702.473667,-9844.739029,-1225.752797
542.869133,518.144159,-9474.636058,-76.609550
542.869461,3330.926739,-8290.306550,459.657299
542.869788,4811.338623,-7402.059420,1378.971896
542.870116,3256.906145,-7920.203579,919.314598
542.870443,296.082377,-9104.533087,76.609550
542.870771,-2368.659014,-9400.615463,-1608.800546
542.871098,-2590.720797,-9918.759623,-1685.410096
542.871426,-2294.638420,-10584.944971,-1378.971896
542.871754,-1110.308913,-10140.821405,842.705048
542.872081,1480.411884,-9770.718434,1838.629195
542.872409,3701.029710,-9030.512492,3983.696590
542.872736,2516.700203,-9622.677246,3830.477490
542.873064,-222.061783,-10955.047942,2604.724693
542.873391,-3034.844362,-10955.047942,1072.533697
542.873719,-4515.256246,-9992.780217,-229.828649
542.874047,-4219.173869,-10362.883188,-383.047749
542.874374,-2664.741391,-9326.594869,0.000000
542.874702,0.000000,-8586.388927,842.705048
542.875029,2368.659014,-7920.203579,2068.457845
542.875357,1998.556043,-7328.038826,1302.362347
542.875685,-222.061783,-8882.471304,1149.143247
542.876012,-3108.864956,-10288.862594,-306.438199
542.876340,-3997.112087,-10214.842000,-1149.143247
542.876667,-4071.132681,-9992.780217,-1378.971896
542.876995,-1850.514855,-10066.800811,76.609550
542.877322,518.144159,-9326.594869,1762.019645
542.877650,3627.009116,-8068.244768,3600.648841
542.877978,3775.050304,-8068.244768,3907.087040
542.878305,2072.576638,-9844.739029,3294.210641
542.878633,-1628.453072,-10955.047942,1149.143247
542.878960,-3404.947333,-10955.047942,383.047749
542.879288,-3552.988522,-9844.739029,-766.095498
542.879615,-2516.700203,-9252.574275,-842.705048
542.879943,148.041188,-8512.368333,76.609550
542.880271,2812.782580,-7550.100608,1532.190996
542.880598,3552.988522,-6513.812290,1378.971896
542.880926,2590.720797,-8068.244768,1225.752797
542.881253,-962.267725,-9474.636058,-229.828649
542.881581,-3108.864956,-9548.656652,-1685.410096
542.881908,-3034.844362,-9474.636058,-2221.676944
542.882236,-2368.659014,-8956.491898,-1072.533697
542.882564,444.123565,-8290.306550,612.876398
542.882891,2886.803174,-7179.997637,2068.457845
542.883219,4219.173869,-7031.956449,3217.601092
542.883546,3256.906145,-8216.285956,3370.820191
542.883874,-222.061783,-10288.862594,2221.676944
542.884201,-3108.864956,-10288.862594,0.000000
542.884529,-3923.091493,-9992.780217,-689.485948
542.884857,-3701.029710,-9696.697840,-766.095498
542.885184,-1554.432478,-8364.327145,-153.219100
542.885512,1480.411884,-7254.018232,1149.143247
542.885839,4071.132681,-6661.853478,1378.971896
542.886167,2368.659014,-6809.894666,1149.143247
542.886495,74.020594,-8438.347739,459.657299
542.886822,-3404.947333,-9326.594869,-1302.362347
542.887150,-4145.153275,-9770.718434,-2068.457845
542.887477,-3849.070898,-9844.739029,-1685.410096
542.887805,-2368.659014,-9918.759623,-612.876398
542.888132,0.000000,-8734.430116,383.047749
542.888460,3404.947333,-7920.203579,2528.115143
542.888788,4367.215058,-7624.121203,3064.381992
542.889115,2368.659014,-9252.574275,3140.991542
542.889443,-666.185348,-9992.780217,842.705048
542.889770,-2294.638420,-10436.903782,0.000000
542.890098,-2664.741391,-10288.862594,-689.485948
542.890425,-1924.535449,-10288.862594,-306.438199
542.890753,222.061783,-9622.677246,76.609550
542.891081,2886.803174,-8364.327145,383.047749
542.891408,3552.988522,-7994.224174,1225.752797
542.891736,2294.638420,-9178.553681,919.314598
542.892063,-888.247130,-9844.739029,-689.485948
542.892391,-2590.720797,-10214.842000,-1532.190996
542.892718,-2738.761985,-10214.842000,-2451.505594
542.893046,-2590.720797,-9992.780217,-2221.676944
542.893374,-592.164754,-9696.697840,-612.876398
542.893701,2368.659014,-8882.471304,1608.800546
542.894029,4515.256246,-8586.388927,2987.772442
542.894356,3627.009116,-9030.512492,2911.162892
542.894684,518.144159,-9844.739029,2145.067394
542.895011,-1628.453072,-10584.944971,842.705048
542.895339,-2220.617826,-10807.006753,229.828649
542.895667,-2960.823768,-11325.150913,229.828649
542.895994,-1850.514855,-10732.986159,306.438199
542.896322,444.123565,-9770.718434,1455.581446
542.896649,2664.741391,-8660.409521,2068.457845
542.896977,2072.576638,-8364.327145,1915.238745
542.897305,370.102971,-9400.615463,1455.581446
542.897632,-2886.803174,-9548.656652,-536.266849
542.897960,-3627.009116,-9178.553681,-1072.533697
542.898287,-3330.926739,-9326.594869,-1532.190996
542.898615,-2294.638420,-9030.512492,-919.314598
542.898942,148.041188,-8142.265362,919.314598
542.899270,3256.906145,-7402.059420,2987.772442
542.899598,3256.906145,-7105.977043,3524.039291
542.899925,1332.370696,-8808.450710,3753.867940
542.900253,-1850.514855,-9400.615463,2298.286494
542.900580,-2812.782580,-9474.636058,1225.752797
542.900908,-2738.761985,-9918.759623,995.924147
542.901235,-2960.823768,-9326.594869,766.095498
542.901563,-1702.473667,-8808.450710,536.266849
542.901891,370.102971,-7920.203579,1685.410096
542.902218,2072.576638,-7031.956449,1608.800546
542.902546,814.226536,-7179.997637,459.657299
542.902873,-666.185348,-7402.059420,-612.876398
542.903201,-3034.844362,-8364.327145,-2068.457845
542.903528,-2516.700203,-9030.512492,-2451.505594
542.903856,-2220.617826,-8956.491898,-1915.238745
542.904184,370.102971,-8512.368333,-766.095498
542.904511,3108.864956,-8364.327145,1072.533697
542.904839,4959.379811,-9030.512492,2987.772442
542.905166,2960.823768,-9770.718434,2834.553343
542.905494,74.020594,-10288.862594,2298.286494
542.905822,-2294.638420,-10214.842000,612.876398
542.906149,-2220.617826,-9770.718434,689.485948
542.906477,-2368.659014,-9326.594869,-766.095498
542.906804,-518.144159,-9400.615463,-229.828649
542.907132,1258.350101,-8068.244768,306.438199
542.907459,3330.926739,-7254.018232,995.924147
542.907787,2590.720797,-7105.977043,536.266849
542.908115,296.082377,-8660.409521,0.000000
542.908442,-2886.803174,-9400.615463,-2451.505594
542.908770,-3627.009116,-9252.574275,-3140.991542
542.909097,-4145.153275,-9178.553681,-2987.772442
542.909425,-2294.638420,-9252.574275,-1608.800546
542.909752,74.020594,-7698.141797,76.609550
542.910080,2812.782580,-8364.327145,1838.629195
542.910408,3330.926739,-7920.203579,2221.676944
542.910735,1258.350101,-9030.512492,2145.067394
542.911063,-1406.391290,-10288.862594,995.924147
542.911390,-3256.906145,-10214.842000,459.657299
542.911718,-3108.864956,-10362.883188,-229.828649
542.912045,-1998.556043,-10288.862594,0.000000
542.912373,148.041188,-9252.574275,919.314598
542.912701,3034.844362,-8882.471304,1762.019645
542.913028,3997.112087,-7846.182985,2451.505594
542.913356,2738.761985,-9104.533087,1685.410096
542.913683,0.000000,-9696.697840,0.000000
542.914011,-2442.679609,-10658.965565,-1455.581446
542.914338,-2516.700203,-10732.986159,-1838.629195
542.914666,-2368.659014,-10658.965565,-1149.143247
542.914994,0.000000,-10140.821405,612.876398
542.915321,2220.617826,-9252.574275,1915.238745
542.915649,3849.070898,-8660.409521,3600.648841
542.915976,2960.823768,-9252.574275,3753.867940
542.916304,592.164754,-10214.842000,2834.553343
542.916632,-2294.638420,-10510.924376,2221.676944
542.916959,-3034.844362,-10436.903782,766.095498
542.917287,-3182.885551,-10584.944971,459.657299
542.917614,-2368.659014,-10436.903782,919.314598
542.917942,-444.123565,-9178.553681,1685.410096
542.918269,2146.597232,-8290.306550,2987.772442
542.918597,2220.617826,-8290.306550,2068.457845
542.918925,0.000000,-9474.636058,995.924147
542.919252,-3182.885551,-10658.965565,-459.657299
542.919580,-4515.256246,-10288.862594,-1915.238745
542.919907,-4219.173869,-9844.739029,-2221.676944
542.920235,-2886.803174,-9326.594869,-1455.581446
542.920562,-148.041188,-8660.409521,76.609550
542.920890,2368.659014,-7476.080014,2145.067394
542.921218,3627.009116,-7179.997637,2604.724693
542.921545,2072.576638,-8364.327145,2757.943793
542.921873,-1036.288319,-9252.574275,1991.848295
542.922200,-1924.535449,-9770.718434,612.876398
542.922528,-2368.659014,-9844.739029,306.438199
542.922855,-1998.556043,-9696.697840,229.828649
542.923183,0.000000,-9400.615463,766.095498
542.923511,2442.679609,-7920.203579,1838.629195
542.923838,4145.153275,-7328.038826,2451.505594
542.924166,2590.720797,-7846.182985,1762.019645
542.924493,444.123565,-8364.327145,0.000000
542.924821,-1998.556043,-8586.388927,-1685.410096
542.925148,-2146.597232,-7920.203579,-2221.676944
542.925476,-2516.700203,-8512.368333,-2681.334243
542.925804,-1480.411884,-9030.512492,-1302.362347
542.926131,1036.288319,-7698.141797,306.438199
542.926459,3182.885551,-6883.915261,1762.019645
542.926786,3108.864956,-6957.935855,2145.067394
542.927114,666.185348,-8290.306550,1608.800546
542.927442,-2220.617826,-9474.636058,766.095498
542.927769,-3256.906145,-9030.512492,-536.266849
542.928097,-3034.844362,-9252.574275,-459.657299
542.928424,-2146.597232,-8882.471304,-383.047749
542.928752,666.185348,-7994.224174,1302.362347
542.929079,3108.864956,-7254.018232,1762.019645
542.929407,3478.967927,-6735.874072,1608.800546
542.929735,1258.350101,-8586.388927,383.047749
542.930062,-1554.432478,-9178.553681,-1072.533697
542.930390,-3182.885551,-8734.430116,-2374.896044
542.930717,-2886.803174,-9400.615463,-2604.724693
542.931045,-2146.597232,-9474.636058,-1532.190996
542.931372,-296.082377,-9178.553681,-153.219100
542.931700,2220.617826,-8660.409521,1608.800546
542.932028,3552.988522,-8142.265362,3064.381992
542.932355,1776.494261,-9474.636058,2987.772442
542.932683,-1850.514855,-10807.006753,1608.800546
542.933010,-3478.967927,-10955.047942,0.000000
542.933338,-3478.967927,-10584.944971,-536.266849
542.933665,-3108.864956,-9770.718434,76.609550
542.933993,0.000000,-9326.594869,842.705048
542.934321,2812.782580,-8216.285956,2068.457845
542.934648,3775.050304,-7624.121203,2757.943793
542.934976,2442.679609,-8438.347739,2221.676944
542.935303,-962.267725,-9548.656652,306.438199
542.935631,-3552.988522,-10362.883188,-1149.143247
542.935958,-4219.173869,-10214.842000,-1762.019645
542.936286,-3997.112087,-10881.027347,-1991.848295
542.936614,-1702.473667,-10214.842000,-459.657299
542.936941,1924.535449,-8956.491898,1532.190996
542.937269,3923.091493,-7994.224174,2911.162892
542.937596,3182.885551,-8956.491898,2451.505594
542.937924,148.041188,-10807.006753,2298.286494
542.938252,-3034.844362,-11325.150913,612.876398
542.938579,-3404.947333,-10584.944971,-383.047749
542.938907,-2516.700203,-10362.883188,76.609550
542.939234,-888.247130,-10214.842000,1455.581446
542.939562,1554.432478,-9400.615463,2528.115143
542.939889,4145.153275,-8364.327145,3753.867940
542.940217,3552.988522,-8956.491898,3294.210641
542.940545,518.144159,-9622.677246,1991.848295
542.940872,-3108.864956,-11103.089130,0.000000
542.941200,-4663.297435,-10807.006753,-1685.410096
542.941527,-4737.318029,-9918.759623,-2451.505594
542.941855,-2442.679609,-9178.553681,-1455.581446
542.942182,962.267725,-7846.182985,536.266849
542.942510,3701.029710,-6143.709319,1149.143247
542.942838,4589.276840,-6809.894666,2528.115143
542.943165,2146.597232,-8068.244768,2374.896044
542.943493,-1998.556043,-9104.533087,383.047749
542.943820,-3701.029710,-9844.739029,-919.314598
542.944148,-3256.906145,-10066.800811,-842.705048
542.944475,-2516.700203,-9474.636058,0.000000
542.944803,148.041188,-9030.512492,1378.971896
542.945131,3404.947333,-8068.244768,2528.115143
542.945458,4441.235652,-7179.997637,2987.772442
542.945786,2960.823768,-8290.306550,2145.067394
542.946113,-1036.288319,-9252.574275,153.219100
542.946441,-3627.009116,-9548.656652,-2374.896044
542.946769,-4293.194464,-10140.821405,-3064.381992
542.947096,-3627.009116,-9844.739029,-3217.601092
542.947424,-962.267725,-8956.491898,-1532.190996
542.947751,2368.659014,-7550.100608,306.438199
542.948079,4367.215058,-7031.956449,1455.581446
542.948406,4145.153275,-8216.285956,1838.629195
542.948734,518.144159,-9696.697840,612.876398
542.949062,-2368.659014,-9844.739029,-766.095498
542.949389,-3330.926739,-8956.491898,-1302.362347
542.949717,-2664.741391,-9770.718434,-1532.190996
542.950044,-592.164754,-9400.615463,-229.828649
542.950372,2072.576638,-8586.388927,1225.752797
542.950699,4589.276840,-7550.100608,2451.505594
542.951027,3627.009116,-7105.977043,2451.505594
542.951355,1184.329507,-9030.512492,1455.581446
542.951682,-2368.659014,-9622.677246,-536.266849
542.952010,-3330.926739,-9178.553681,-2298.286494
542.952337,-2516.700203,-9844.739029,-2374.896044
542.952665,-1110.308913,-9474.636058,-1072.533697
542.952992,666.185348,-8068.244768,306.438199
542.953320,3478.967927,-7254.018232,1915.238745
542.953648,4737.318029,-7698.141797,2987.772442
542.953975,2072.576638,-9030.512492,2068.457845
542.954303,-1628.453072,-10288.862594,995.924147
542.954630,-3182.885551,-10510.924376,153.219100
542.954958,-4293.194464,-10732.986159,-612.876398
542.955285,-3997.112087,-11029.068536,153.219100
542.955613,-1776.494261,-9622.677246,1225.752797
542.955941,1850.514855,-8956.491898,2757.943793
542.956268,3330.926739,-7698.141797,3830.477490
542.956596,1332.370696,-8290.306550,2834.553343
542.956923,-1036.288319,-9696.697840,1455.581446
542.957251,-3478.967927,-9252.574275,-459.657299
542.957579,-3404.947333,-8808.450710,-1225.752797
542.957906,-3034.844362,-8882.471304,-766.095498
542.958234,-1406.391290,-9104.533087,-229.828649
542.958561,1110.308913,-8290.306550,1072.533697
542.958889,3478.967927,-7254.018232,2528.115143
542.959216,2294.638420,-7772.162391,2528.115143
542.959544,0.000000,-9844.739029,1455.581446
542.959872,-2442.679609,-10807.006753,0.000000
542.960199,-4071.132681,-10510.924376,-612.876398
542.960527,-3701.029710,-10881.027347,-306.438199
542.960854,-2368.659014,-10510.924376,153.219100
542.961182,1258.350101,-9178.553681,1838.629195
542.961509,3701.029710,-7920.203579,2987.772442
542.961837,3997.112087,-7550.100608,2987.772442
542.962165,1480.411884,-8956.491898,1838.629195
542.962492,-2146.597232,-9474.636058,0.000000
542.962820,-2886.803174,-9178.553681,-1378.971896
542.963147,-2368.659014,-9178.553681,-1608.800546
542.963475,-1332.370696,-9326.594869,-612.876398
542.963802,592.164754,-8364.327145,306.438199
542.964130,3034.844362,-7698.141797,2145.067394
542.964458,3182.885551,-7402.059420,2911.162892
542.964785,740.205942,-8660.409521,2221.676944
542.965113,-2368.659014,-9696.697840,0.000000
542.965440,-4071.132681,-9474.636058,-842.705048
542.965768,-3775.050304,-9252.574275,-1378.971896
542.966095,-2368.659014,-9178.553681,-536.266849
542.966423,148.041188,-8512.368333,1149.143247
542.966751,3034.844362,-7328.038826,1991.848295
542.967078,3923.091493,-7031.956449,2451.505594
542.967406,2442.679609,-8290.306550,1991.848295
542.967733,-1332.370696,-9844.739029,306.438199
542.968061,-3330.926739,-10214.842000,-919.314598
542.968389,-2664.741391,-9474.636058,-1149.143247
542.968716,-2368.659014,-9548.656652,-1072.533697
542.969044,0.000000,-9178.553681,153.219100
542.969371,2442.679609,-8068.244768,1455.581446
542.969699,4145.153275,-7402.059420,2374.896044
542.970026,2812.782580,-8068.244768,2528.115143
542.970354,-370.102971,-10140.821405,1072.533697
542.970682,-3552.988522,-11029.068536,-536.266849
542.971009,-3627.009116,-10066.800811,-1685.410096
542.971337,-2738.761985,-9548.656652,-1225.752797
542.971664,-962.267725,-8956.491898,-306.438199
542.971992,2072.576638,-7994.224174,1225.752797
542.972319,4071.132681,-7476.080014,2298.286494
542.972647,3552.988522,-7698.141797,2221.676944
542.972975,148.041188,-9400.615463,995.924147
542.973302,-3256.906145,-10584.944971,-842.705048
542.973630,-3701.029710,-10436.903782,-2068.457845
542.973957,-3034.844362,-10584.944971,-1532.190996
542.974285,-1702.473667,-10066.800811,-459.657299
542.974612,1184.329507,-9252.574275,919.314598
542.974940,3627.009116,-8290.306550,2451.505594
542.975268,3404.947333,-7624.121203,3140.991542
542.975595,1110.308913,-9474.636058,1838.629195
542.975923,-2072.576638,-10658.965565,0.000000
542.976250,-3775.050304,-10436.903782,-1302.362347
542.976578,-3552.988522,-9918.759623,-1302.362347
542.976905,-2220.617826,-9326.594869,-995.924147
542.977233,0.000000,-8808.450710,612.876398
542.977561,2516.700203,-8142.265362,2298.286494
542.977888,3034.844362,-7624.121203,2681.334243
542.978216,1554.432478,-8512.368333,2374.896044
542.978543,-1628.453072,-10288.862594,1072.533697
542.978871,-3627.009116,-10288.862594,0.000000
542.979198,-3627.009116,-10066.800811,-1072.533697
542.979526,-2516.700203,-10214.842000,-229.828649
542.979854,-740.205942,-9474.636058,919.314598
542.980181,1998.556043,-8512.368333,2221.676944
542.980509,3997.112087,-7031.956449,2987.772442
542.980836,2738.761985,-7994.224174,2911.162892
542.981164,296.082377,-9326.594869,1532.190996
542.981492,-2294.638420,-10066.800811,76.609550
542.981819,-2960.823768,-9770.718434,-766.095498
542.982147,-2664.741391,-9474.636058,0.000000
542.982474,-1036.288319,-9622.677246,306.438199
542.982802,740.205942,-8808.450710,995.924147
542.983129,2960.823768,-7698.141797,2528.115143
542.983457,2960.823768,-7846.182985,2451.505594
542.983785,962.267725,-9252.574275,1762.019645
542.984112,-2368.659014,-9770.718434,153.219100
542.984440,-3404.947333,-9622.677246,-612.876398
542.984767,-3182.885551,-9548.656652,-1225.752797
542.985095,-2146.597232,-9474.636058,-612.876398
542.985422,666.185348,-8734.430116,1149.143247
542.985750,3108.864956,-7698.141797,2221.676944
542.986078,3330.926739,-7402.059420,2604.724693
542.986405,1406.391290,-8586.388927,1838.629195
542.986733,-1628.453072,-9548.656652,459.657299
542.987060,-2960.823768,-9400.615463,-919.314598
542.987388,-2516.700203,-9474.636058,-1685.410096
542.987715,-2812.782580,-9474.636058,-1149.143247
542.988043,-888.247130,-9474.636058,-229.828649
542.988371,1332.370696,-8216.285956,919.314598
542.988698,3330.926739,-7328.038826,1455.581446
542.989026,1998.556043,-8438.347739,1149.143247
542.989353,-296.082377,-9770.718434,612.876398
542.989681,-3182.885551,-9844.739029,-1149.143247
542.990008,-2738.761985,-9844.739029,-1608.800546
542.990336,-2368.659014,-9844.739029,-1608.800546
542.990664,-888.247130,-9252.574275,-612.876398
542.990991,2072.576638,-8808.450710,766.095498
542.991319,4293.194464,-7402.059420,2221.676944
542.991646,3256.906145,-7698.141797,2298.286494
542.991974,518.144159,-9548.656652,1225.752797
542.992301,-2368.659014,-9548.656652,0.000000
542.992629,-2812.782580,-9474.636058,-689.485948
542.992957,-2812.782580,-9696.697840,-1762.019645
542.993284,-1702.473667,-9844.739029,-689.485948
542.993612,0.000000,-9104.533087,0.000000
542.993939,2960.823768,-8216.285956,1685.410096
542.994267,2812.782580,-7476.080014,1915.238745
542.994595,1258.350101,-9030.512492,1225.752797
542.994922,-1850.514855,-10288.862594,76.609550
542.995250,-2886.803174,-9992.780217,-1072.533697
542.995577,-2664.741391,-9844.739029,-1072.533697
542.995905,-1850.514855,-9622.677246,76.609550
542.996232,888.247130,-8216.285956,1149.143247
542.996560,3552.988522,-7624.121203,2681.334243
542.996888,4293.194464,-7179.997637,3677.258390
542.997215,2294.638420,-8808.450710,2987.772442
542.997543,-1480.411884,-9844.739029,1838.629195
542.997870,-3627.009116,-9548.656652,229.828649
542.998198,-3923.091493,-9918.759623,-689.485948
542.998525,-3256.906145,-10288.862594,-459.657299
542.998853,-1110.308913,-9400.615463,536.266849
542.999181,1480.411884,-7994.224174,1915.238745
542.999508,3108.864956,-7254.018232,2987.772442
542.999836,1332.370696,-8438.347739,1762.019645
543.000163,-1628.453072,-10140.821405,76.609550
543.000491,-3997.112087,-9918.759623,-1149.143247
543.000818,-4071.132681,-9400.615463,-2068.457845
543.001146,-2664.741391,-9696.697840,-842.705048
543.001474,-1110.308913,-8512.368333,153.219100
543.001801,2368.659014,-7846.182985,2068.457845
543.002129,4145.153275,-7254.018232,3370.820191
543.002456,3478.967927,-7994.224174,3064.381992
543.002784,0.000000,-9474.636058,2221.676944
543.003111,-3256.906145,-10362.883188,76.609550
543.003439,-3701.029710,-9918.759623,-995.924147
543.003767,-3256.906145,-10140.821405,-766.095498
543.004094,-1554.432478,-9696.697840,-229.828649
543.004422,1406.391290,-8586.388927,536.266849
543.004749,3849.070898,-6217.729913,2145.067394
543.005077,3849.070898,-7105.977043,1991.848295
543.005404,1258.350101,-9178.553681,995.924147
543.005732,-2072.576638,-10140.821405,-689.485948
543.006060,-3034.844362,-10140.821405,-1455.581446
543.006387,-2738.761985,-9844.739029,-1302.362347
543.006715,-1480.411884,-9474.636058,0.000000
543.007042,1554.432478,-8660.409521,1455.581446
543.007370,4145.153275,-8068.244768,3217.601092
543.007697,4441.235652,-7476.080014,4136.915689
543.008025,2146.597232,-9696.697840,3064.381992
543.008353,-1850.514855,-10436.903782,1378.971896
543.008680,-3775.050304,-10510.924376,-383.047749
543.009008,-3923.091493,-10288.862594,-842.705048
543.009335,-3552.988522,-9770.718434,-1225.752797
543.009663,-1406.391290,-8882.471304,-229.828649
543.009991,1036.288319,-7254.018232,842.705048
543.010318,3404.947333,-6587.832884,1608.800546
543.010646,1998.556043,-7402.059420,995.924147
543.010973,-740.205942,-9326.594869,-153.219100
543.011301,-3330.926739,-9696.697840,-1378.971896
543.011628,-3849.070898,-9622.677246,-2298.286494
543.011956,-3330.926739,-9844.739029,-1378.971896
543.012284,-1184.329507,-9474.636058,76.609550
543.012611,1924.535449,-8586.388927,1608.800546
543.012939,4071.132681,-8364.327145,2911.162892
543.013266,3108.864956,-8512.368333,3217.601092
543.013594,0.000000,-9548.656652,1685.410096
543.013921,-2368.659014,-10362.883188,306.438199
543.014249,-2960.823768,-10214.842000,-689.485948
543.014577,-2960.823768,-10510.924376,-1302.362347
543.014904,-962.267725,-10288.862594,-689.485948
543.015232,1406.391290,-9178.553681,76.609550
543.015559,3775.050304,-7994.224174,1455.581446
543.015887,3997.112087,-8438.347739,1762.019645
543.016214,1258.350101,-9474.636058,536.266849
543.016542,-2072.576638,-11029.068536,-842.705048
543.016870,-3182.885551,-10436.903782,-1991.848295
543.017197,-3330.926739,-9696.697840,-1991.848295
543.017525,-1850.514855,-9770.718434,-689.485948
543.017852,1110.308913,-8660.409521,842.705048
543.018180,3923.091493,-7105.977043,2221.676944
543.018507,4589.276840,-7179.997637,3677.258390
543.018835,1998.556043,-8734.430116,2911.162892
543.019163,-1480.411884,-9918.759623,1838.629195
543.019490,-3256.906145,-9770.718434,0.000000
543.019818,-3923.091493,-9992.780217,-536.266849
543.020145,-3034.844362,-10214.842000,0.000000
543.020473,-1628.453072,-9326.594869,459.657299
543.020800,1554.432478,-7994.224174,1455.581446
543.021128,2738.761985,-6883.915261,2145.067394
543.021456,1554.432478,-7994.224174,1762.019645
543.021783,-1480.411884,-9104.533087,-153.219100
543.022111,-3775.050304,-9918.759623,-1838.629195
543.022438,-3627.009116,-9030.512492,-1838.629195
543.022766,-2738.761985,-8512.368333,-1225.752797
543.023093,-666.185348,-8290.306550,536.266849
543.023421,2738.761985,-7328.038826,2681.334243
543.023749,5255.462188,-7328.038826,5132.839837
543.024076,4145.153275,-8068.244768,4979.620737
543.024404,962.267725,-9178.553681,4136.915689
543.024731,-1628.453072,-10436.903782,2528.115143
543.025059,-2368.659014,-9918.759623,1532.190996
543.025387,-1628.453072,-9992.780217,1455.581446
543.025714,0.000000,-9474.636058,2757.943793
543.026042,2294.638420,-8512.368333,3447.429741
543.026369,4071.132681,-7179.997637,4749.792088
543.026697,3849.070898,-6809.894666,4290.134789
543.027024,1480.411884,-8364.327145,3677.258390
543.027352,-2664.741391,-10066.800811,1225.752797
543.027680,-5255.462188,-9770.718434,0.000000
543.028007,-4885.359217,-9252.574275,-153.219100
543.028335,-3404.947333,-8882.471304,612.876398
543.028662,-1628.453072,-7254.018232,2145.067394
543.028990,1184.329507,-7550.100608,3524.039291
543.029317,1480.411884,-7105.977043,4060.306139
543.029645,74.020594,-7846.182985,4060.306139
543.029973,-2738.761985,-9326.594869,2528.115143
543.030300,-5403.503377,-10362.883188,1455.581446
543.030628,-5329.482782,-10658.965565,612.876398
543.030955,-3404.947333,-9548.656652,1149.143247
543.031283,-888.247130,-8808.450710,2068.457845
543.031610,1332.370696,-8216.285956,3140.991542
543.031938,2886.803174,-7772.162391,3524.039291
543.032266,3330.926739,-7402.059420,3294.210641
543.032593,2294.638420,-8216.285956,2451.505594
543.032921,444.123565,-9844.739029,1685.410096
543.033248,-1406.391290,-11547.212695,842.705048
543.033576,-1480.411884,-11695.253884,1455.581446
543.033903,444.123565,-10732.986159,1838.629195
543.034231,2516.700203,-10140.821405,3907.087040
543.034559,3997.112087,-10214.842000,4443.353888
543.034886,3627.009116,-11103.089130,4903.011187
543.035214,2738.761985,-10288.862594,4749.792088
543.035541,2220.617826,-9770.718434,4903.011187
543.035869,1924.535449,-10066.800811,4596.572988
543.036196,888.247130,-10658.965565,4443.353888
543.036524,518.144159,-11251.130318,4443.353888
543.036852,444.123565,-9992.780217,4826.401637
543.037179,370.102971,-8734.430116,4903.011187
543.037507,-370.102971,-8660.409521,4749.792088
543.037834,-1998.556043,-9918.759623,3677.258390
543.038162,-3997.112087,-10362.883188,2374.896044
543.038489,-4811.338623,-9400.615463,1915.238745
543.038817,-4145.153275,-8586.388927,1915.238745
543.039145,-2516.700203,-7550.100608,2451.505594
543.039472,-1628.453072,-8586.388927,2451.505594
543.039800,-2590.720797,-9474.636058,2451.505594
543.040127,-4367.215058,-9474.636058,2221.676944
543.040455,-3849.070898,-8660.409521,2068.457845
543.040783,-2442.679609,-7772.162391,2757.943793
543.041110,-1406.391290,-8068.244768,2528.115143
543.041438,-296.082377,-8586.388927,2834.553343
543.041765,148.041188,-9326.594869,2834.553343
543.042093,1110.308913,-8438.347739,3830.477490
543.042420,3775.050304,-8068.244768,4903.011187
543.042748,5329.482782,-8512.368333,5898.935335
543.043076,5329.482782,-9474.636058,5975.544884
543.043403,3997.112087,-10510.924376,5975.544884
543.043731,1850.514855,-10732.986159,4979.620737
543.044058,1036.288319,-9548.656652,4136.915689
543.044386,1998.556043,-9400.615463,5209.449386
543.044713,3627.009116,-8512.368333,4826.401637
543.045041,3034.844362,-9474.636058,4903.011187
543.045369,518.144159,-9770.718434,4290.134789
543.045696,-1924.535449,-10214.842000,2911.162892
543.046024,-3997.112087,-8956.491898,2757.943793
543.046351,-3701.029710,-8068.244768,2068.457845
543.046679,-2072.576638,-7476.080014,2298.286494
543.047006,-2146.597232,-7476.080014,2528.115143
543.047334,-2368.659014,-7698.141797,2451.505594
543.047662,-3552.988522,-7920.203579,2221.676944
543.047989,-5477.523971,-7402.059420,995.924147
543.048317,-5403.503377,-7846.182985,919.314598
543.048644,-3923.091493,-7994.224174,766.095498
543.048972,-1776.494261,-7920.203579,1532.190996
543.049299,74.020594,-7402.059420,2528.115143
543.049627,814.226536,-7476.080014,3677.258390
543.049955,740.205942,-8438.347739,3217.601092
543.050282,592.164754,-9400.615463,2528.115143
543.050610,888.247130,-9770.718434,1915.238745
543.050937,1850.514855,-9548.656652,1762.019645
543.051265,3701.029710,-9474.636058,3524.039291
543.051592,5255.462188,-9696.697840,4903.011187
543.051920,5699.585753,-10140.821405,5975.544884
543.052248,4959.379811,-11399.171507,5975.544884
543.052575,2886.803174,-11769.274478,4749.792088
543.052903,0.000000,-11325.150913,2451.505594
543.053230,-2072.576638,-11399.171507,2834.553343
543.053558,-296.082377,-10362.883188,2757.943793
543.053885,814.226536,-9992.780217,3907.087040
543.054213,1850.514855,-8660.409521,4903.011187
543.054541,2886.803174,-8660.409521,5439.278036
543.054868,0.000000,-8512.368333,4519.963438
543.055196,-3775.050304,-9178.553681,2987.772442
543.055523,-5477.523971,-9178.553681,2221.676944
543.055851,-6735.874072,-9178.553681,1532.190996
543.056179,-4959.379811,-8364.327145,1225.752797
543.056506,-2294.638420,-7772.162391,2451.505594
543.056834,-666.185348,-6809.894666,3907.087040
543.057161,740.205942,-7105.977043,5209.449386
543.057489,0.000000,-7476.080014,4979.620737
543.057816,-1924.535449,-8586.388927,3600.648841
543.058144,-2812.782580,-9992.780217,2757.943793
543.058472,-4515.256246,-10658.965565,1685.410096
543.058799,-4293.194464,-10584.944971,1532.190996
543.059127,-1850.514855,-10066.800811,2374.896044
543.059454,666.185348,-9474.636058,3370.820191
543.059782,3034.844362,-8734.430116,4213.525239
543.060109,3775.050304,-8734.430116,4519.963438
543.060437,3404.947333,-9030.512492,4366.744339
543.060765,2220.617826,-9844.739029,3447.429741
543.061092,1406.391290,-10436.903782,3294.210641
543.061420,814.226536,-10140.821405,2911.162892
543.061747,1184.329507,-10140.821405,3447.429741
543.062075,1110.308913,-9474.636058,3907.087040
543.062402,0.000000,-9252.574275,4213.525239
543.062730,1184.329507,-8956.491898,4290.134789
543.063058,296.082377,-8660.409521,3907.087040
543.063385,-444.123565,-8216.285956,2757.943793
543.063713,-148.041188,-8438.347739,2068.457845
543.064040,0.000000,-7698.141797,2068.457845
543.064368,222.061783,-7402.059420,2068.457845
543.064695,1628.453072,-7031.956449,2528.115143
543.065023,1258.350101,-7846.182985,3447.429741
543.065351,1258.350101,-7994.224174,3907.087040
543.065678,666.185348,-8882.471304,3907.087040
543.066006,-1480.411884,-9474.636058,3677.258390
543.066333,-2072.576638,-9992.780217,3524.039291
543.066661,-2590.720797,-9844.739029,3294.210641
543.066988,-2368.659014,-9992.780217,3064.381992
543.067316,-1480.411884,-9696.697840,2987.772442
543.067644,-1036.288319,-9178.553681,3217.601092
543.067971,-592.164754,-8660.409521,3064.381992
543.068299,0.000000,-8142.265362,3217.601092
543.068626,-370.102971,-7772.162391,2757.943793
543.068954,-592.164754,-7920.203579,2681.334243
543.069282,-592.164754,-8216.285956,2528.115143
543.069609,-888.247130,-8512.368333,2834.553343
543.069937,0.000000,-9104.533087,3600.648841
543.070264,592.164754,-8956.491898,3677.258390
543.070592,888.247130,-9622.677246,4060.306139
543.070919,740.205942,-10288.862594,4213.525239
543.071247,-296.082377,-10510.924376,3830.477490
543.071575,-962.267725,-9918.759623,3753.867940
543.071902,-148.041188,-9844.739029,3064.381992
543.072230,-1184.329507,-9474.636058,2987.772442
543.072557,222.061783,-9030.512492,2604.724693
543.072885,814.226536,-8734.430116,2757.943793
543.073212,740.205942,-8956.491898,2604.724693
543.073540,962.267725,-8956.491898,2604.724693
543.073868,0.000000,-9622.677246,2604.724693
543.074195,-962.267725,-9770.718434,2068.457845
543.074523,-888.247130,-9918.759623,2145.067394
543.074850,-1036.288319,-9844.739029,2145.067394
543.075178,-666.185348,-9770.718434,1991.848295
543.075506,-1036.288319,-9844.739029,1532.190996
543.075833,-1036.288319,-9696.697840,1762.019645
543.076161,-1406.391290,-9252.574275,1762.019645
543.076488,-1184.329507,-9030.512492,1838.629195
543.076816,-1036.288319,-8512.368333,1302.362347
543.077143,-888.247130,-7772.162391,995.924147
543.077471,222.061783,-7994.224174,1072.533697
543.077799,370.102971,-7994.224174,995.924147
543.078126,666.185348,-8364.327145,1225.752797
543.078454,370.102971,-8882.471304,1225.752797
543.078781,962.267725,-9770.718434,1762.019645
543.079109,222.061783,-10066.800811,1225.752797
543.079437,666.185348,-10510.924376,1762.019645
543.079764,1258.350101,-10436.903782,1608.800546
543.080092,1554.432478,-10214.842000,2221.676944
543.080419,2294.638420,-9696.697840,1991.848295
543.080747,1258.350101,-9474.636058,1685.410096
543.081075,740.205942,-9548.656652,1685.410096
543.081402,74.020594,-8734.430116,1378.971896
543.081730,-888.247130,-8956.491898,995.924147
543.082057,-814.226536,-8512.368333,1225.752797
543.082385,-518.144159,-8512.368333,919.314598
543.082712,-1036.288319,-8586.388927,919.314598
543.083040,-518.144159,-8216.285956,766.095498
543.083368,-888.247130,-8142.265362,766.095498
543.083695,-1036.288319,-7624.121203,766.095498
543.084023,-592.164754,-7254.018232,459.657299
543.084350,-1184.329507,-7698.141797,536.266849
543.084678,-814.226536,-8364.327145,842.705048
543.085006,-1036.288319,-8660.409521,766.095498
543.085333,-1258.350101,-8882.471304,919.314598
543.085661,-1258.350101,-8290.306550,842.705048
543.085988,-1036.288319,-9252.574275,1149.143247
543.086316,-888.247130,-9178.553681,1149.143247
543.086644,-444.123565,-9030.512492,842.705048
543.086971,0.000000,-9104.533087,766.095498
543.087299,148.041188,-9030.512492,1302.362347
543.087626,0.000000,-9252.574275,689.485948
543.087954,0.000000,-9622.677246,1225.752797
543.088281,0.000000,-9548.656652,995.924147
543.088609,0.000000,-9770.718434,1149.143247
543.088937,0.000000,-9326.594869,1302.362347
543.089264,296.082377,-9326.594869,1225.752797
543.089592,-222.061783,-8882.471304,612.876398
543.089919,296.082377,-8882.471304,689.485948
543.090247,0.000000,-8660.409521,612.876398
543.090575,-370.102971,-8808.450710,1225.752797
543.090902,-370.102971,-8956.491898,689.485948
543.091230,-814.226536,-8882.471304,689.485948
543.091557,-1036.288319,-8956.491898,536.266849
543.091885,-888.247130,-9104.533087,383.047749
543.092213,-962.267725,-9326.594869,229.828649
543.092540,-666.185348,-8660.409521,229.828649
543.092868,-370.102971,-9104.533087,229.828649
543.093195,-444.123565,-9326.594869,153.219100
543.093523,0.000000,-9400.615463,0.000000
543.093850,0.000000,-9474.636058,383.047749
543.094178,296.082377,-9474.636058,536.266849
543.094506,0.000000,-9548.656652,459.657299
543.094833,-296.082377,-10066.800811,459.657299
543.095161,-222.061783,-10066.800811,536.266849
543.095488,0.000000,-10140.821405,536.266849
543.095816,-148.041188,-9770.718434,766.095498
543.096144,222.061783,-9400.615463,1149.143247
543.096471,222.061783,-9474.636058,689.485948
543.096799,518.144159,-9104.533087,612.876398
543.097126,518.144159,-8882.471304,459.657299
543.097454,518.144159,-9030.512492,612.876398
543.097782,0.000000,-8660.409521,842.705048
543.098109,0.000000,-9104.533087,229.828649
543.098437,0.000000,-9030.512492,689.485948
543.098764,0.000000,-9030.512492,536.266849
543.099092,0.000000,-8808.450710,536.266849
543.099419,296.082377,-8882.471304,229.828649
543.099747,-222.061783,-8808.450710,536.266849
543.100075,-222.061783,-8438.347739,0.000000
543.100402,-444.123565,-8660.409521,459.657299
543.100730,-740.205942,-8956.491898,306.438199
543.101057,-814.226536,-8882.471304,229.828649
543.101385,-296.082377,-9326.594869,766.095498
543.101713,-1110.308913,-8808.450710,536.266849
543.102040,-814.226536,-8882.471304,229.828649
543.102368,-666.185348,-8660.409521,612.876398
543.102695,-444.123565,-8512.368333,536.266849
543.103023,-444.123565,-8142.265362,612.876398
543.103351,-592.164754,-8512.368333,536.266849
543.103678,-740.205942,-8512.368333,842.705048
543.104006,-814.226536,-8882.471304,689.485948
543.104333,-962.267725,-9178.553681,383.047749
543.104661,-1332.370696,-8808.450710,842.705048
543.104988,-740.205942,-9400.615463,919.314598
543.105316,-592.164754,-9178.553681,766.095498
543.105644,-370.102971,-9030.512492,842.705048
543.105971,-296.082377,-8808.450710,536.266849
543.106299,-370.102971,-8364.327145,842.705048
543.106626,0.000000,-9104.533087,612.876398
543.106954,-148.041188,-9104.533087,842.705048
543.107282,-592.164754,-9178.553681,689.485948
543.107609,-592.164754,-9474.636058,766.095498
543.107937,-444.123565,-9474.636058,766.095498
543.108264,-370.102971,-9252.574275,536.266849
543.108592,0.000000,-9474.636058,459.657299
543.108920,-222.061783,-9400.615463,306.438199
543.109247,-370.102971,-9104.533087,459.657299
543.109575,-296.082377,-9104.533087,842.705048
543.109902,-518.144159,-9104.533087,76.609550
543.110230,-666.185348,-9326.594869,766.095498
543.110557,-666.185348,-9252.574275,612.876398
543.110885,-814.226536,-9326.594869,536.266849
543.111213,-296.082377,-9030.512492,76.609550
543.111540,0.000000,-8438.347739,536.266849
543.111868,-222.061783,-8734.430116,306.438199
543.112195,0.000000,-8808.450710,229.828649
543.112523,-370.102971,-8956.491898,306.438199
543.112851,-222.061783,-9326.594869,306.438199
543.113178,-296.082377,-9326.594869,1072.533697
543.113506,-370.102971,-9770.718434,383.047749
543.113833,-296.082377,-9548.656652,536.266849
543.114161,0.000000,-9474.636058,842.705048
543.114489,0.000000,-9252.574275,459.657299
543.114816,444.123565,-8438.347739,919.314598
543.115144,-222.061783,-8364.327145,-229.828649
543.115471,-592.164754,-8586.388927,153.219100
543.115799,-962.267725,-8882.471304,229.828649
543.116126,-1184.329507,-8808.450710,306.438199
543.116454,-1036.288319,-8660.409521,689.485948
543.116782,-444.123565,-9178.553681,153.219100
543.117109,-370.102971,-8512.368333,612.876398
543.117437,0.000000,-8660.409521,612.876398
543.117764,296.082377,-8364.327145,306.438199
543.118092,222.061783,-8438.347739,536.266849
543.118420,296.082377,-9030.512492,689.485948
543.118747,-444.123565,-9252.574275,766.095498
543.119075,-666.185348,-9844.739029,842.705048
543.119402,-592.164754,-10066.800811,1225.752797
543.119730,-592.164754,-9696.697840,1302.362347
543.120058,-148.041188,-9326.594869,1225.752797
543.120385,148.041188,-8586.388927,842.705048
543.120713,592.164754,-8438.347739,459.657299
543.121040,370.102971,-7994.224174,459.657299
543.121368,148.041188,-7920.203579,306.438199
543.121695,-222.061783,-8290.306550,383.047749
543.122023,-962.267725,-8734.430116,612.876398
543.122351,-814.226536,-9252.574275,842.705048
543.122678,-740.205942,-9696.697840,919.314598
543.123006,-518.144159,-9474.636058,842.705048
543.123333,148.041188,-9252.574275,919.314598
543.123661,148.041188,-8512.368333,919.314598
543.123989,370.102971,-8068.244768,76.609550
543.124316,296.082377,-8364.327145,153.219100
543.124644,0.000000,-8882.471304,306.438199
543.124971,-518.144159,-9030.512492,306.438199
543.125299,-148.041188,-9104.533087,689.485948
543.125627,-814.226536,-9696.697840,306.438199
543.125954,-888.247130,-9844.739029,383.047749
543.126282,-370.102971,-9770.718434,383.047749
543.126609,-148.041188,-9178.553681,229.828649
543.126937,444.123565,-8956.491898,459.657299
543.127264,740.205942,-8660.409521,0.000000
543.127592,370.102971,-9252.574275,229.828649
543.127920,370.102971,-9548.656652,612.876398
543.128247,0.000000,-9844.739029,842.705048
543.128575,0.000000,-9770.718434,689.485948
543.128902,-444.123565,-9474.636058,1149.143247
543.129230,-222.061783,-9918.759623,766.095498
543.129558,-444.123565,-9400.615463,459.657299
543.129885,-370.102971,-9104.533087,612.876398
543.130213,-296.082377,-8660.409521,766.095498
543.130540,-222.061783,-8882.471304,612.876398
543.130868,-444.123565,-8956.491898,689.485948
543.131196,-666.185348,-9400.615463,689.485948
543.131523,-814.226536,-9474.636058,995.924147
543.131851,-814.226536,-9252.574275,919.314598
543.132178,-444.123565,-9252.574275,689.485948
543.132506,-592.164754,-9178.553681,536.266849
543.132833,-370.102971,-9178.553681,383.047749
543.133161,-296.082377,-9326.594869,689.485948
543.133489,-444.123565,-9474.636058,842.705048
543.133816,-518.144159,-9400.615463,995.924147
543.134144,-296.082377,-9696.697840,842.705048
543.134471,-518.144159,-9770.718434,1072.533697
543.134799,-518.144159,-9474.636058,612.876398
543.135127,-592.164754,-9326.594869,536.266849
543.135454,-740.205942,-8882.471304,766.095498
543.135782,-370.102971,-8586.388927,689.485948
543.136109,-518.144159,-8438.347739,383.047749
543.136437,-370.102971,-8586.388927,459.657299
543.136765,-370.102971,-8734.430116,689.485948
543.137092,-370.102971,-8734.430116,459.657299
543.137420,0.000000,-8512.368333,306.438199
543.137747,0.000000,-8660.409521,383.047749
543.138075,-296.082377,-8808.450710,306.438199
543.138402,0.000000,-9030.512492,229.828649
543.138730,0.000000,-8882.471304,229.828649
543.139058,0.000000,-8956.491898,919.314598
543.139385,0.000000,-9104.533087,229.828649
543.139713,0.000000,-9252.574275,612.876398
543.140040,0.000000,-9104.533087,383.047749
543.140368,-222.061783,-9178.553681,612.876398
543.140696,-518.144159,-8808.450710,689.485948
543.141023,0.000000,-8882.471304,766.095498
543.141351,0.000000,-8882.471304,459.657299
543.141678,0.000000,-8660.409521,612.876398
543.142006,-222.061783,-8438.347739,306.438199
543.142334,-666.185348,-8512.368333,0.000000
543.142661,-814.226536,-8586.388927,383.047749
543.142989,-444.123565,-8956.491898,766.095498
543.143316,-592.164754,-8808.450710,612.876398
543.143644,-222.061783,-9104.533087,842.705048
543.143971,-296.082377,-9030.512492,689.485948
543.144299,74.020594,-8956.491898,919.314598
543.144627,-148.041188,-9104.533087,689.485948
543.144954,-222.061783,-8956.491898,536.266849
543.145282,-296.082377,-9326.594869,612.876398
543.145609,-222.061783,-9474.636058,689.485948
543.145937,0.000000,-9252.574275,612.876398
543.146265,0.000000,-9400.615463,612.876398
543.146592,-370.102971,-9474.636058,536.266849
543.146920,0.000000,-9474.636058,612.876398
543.147247,0.000000,-9474.636058,459.657299
543.147575,0.000000,-8734.430116,766.095498
543.147903,148.041188,-9474.636058,689.485948
543.148230,-296.082377,-9104.533087,689.485948
543.148558,-296.082377,-9400.615463,306.438199
543.148885,0.000000,-9622.677246,306.438199
543.149213,0.000000,-9474.636058,459.657299
543.149540,0.000000,-9178.553681,76.609550
543.149868,74.020594,-9474.636058,766.095498
543.150196,296.082377,-9474.636058,536.266849
543.150523,0.000000,-9474.636058,383.047749
543.150851,0.000000,-9252.574275,459.657299
543.151178,0.000000,-9104.533087,306.438199
543.151506,-222.061783,-9474.636058,766.095498
543.151834,-296.082377,-9474.636058,459.657299
543.152161,-370.102971,-9252.574275,689.485948
543.152489,-370.102971,-9400.615463,306.438199
543.152816,-518.144159,-9252.574275,766.095498
543.153144,-296.082377,-9104.533087,76.609550
543.153472,0.000000,-9252.574275,459.657299
543.153799,-148.041188,-8808.450710,536.266849
543.154127,-222.061783,-9030.512492,766.095498
543.154454,-296.082377,-9030.512492,689.485948
543.154782,-518.144159,-9178.553681,153.219100
543.155109,-296.082377,-9178.553681,842.705048
543.155437,-296.082377,-9178.553681,842.705048
543.155765,-518.144159,-9030.512492,766.095498
543.156092,-592.164754,-9104.533087,536.266849
543.156420,-296.082377,-8660.409521,153.219100
543.156747,-296.082377,-8808.450710,766.095498
543.157075,-370.102971,-8956.491898,612.876398
543.157403,-296.082377,-8956.491898,842.705048
543.157730,0.000000,-8956.491898,459.657299
543.158058,222.061783,-8808.450710,842.705048
543.158385,-296.082377,-8882.471304,536.266849
543.158713,-370.102971,-9104.533087,689.485948
543.159041,-222.061783,-9030.512492,612.876398
543.159368,-222.061783,-8882.471304,536.266849
543.159696,-222.061783,-8956.491898,766.095498
543.160023,222.061783,-9326.594869,383.047749
543.160351,0.000000,-9474.636058,612.876398
543.160678,0.000000,-9474.636058,766.095498
543.161006,74.020594,-9252.574275,536.266849
543.161334,74.020594,-9030.512492,689.485948
543.161661,74.020594,-9178.553681,229.828649
543.161989,0.000000,-9104.533087,842.705048
543.162316,-148.041188,-9030.512492,536.266849
543.162644,-222.061783,-9104.533087,612.876398
543.162972,-444.123565,-8808.450710,1072.533697
543.163299,-518.144159,-8956.491898,459.657299
543.163627,-592.164754,-9178.553681,383.047749
543.163954,-592.164754,-9104.533087,766.095498
543.164282,-592.164754,-9104.533087,459.657299
543.164610,-518.144159,-8956.491898,459.657299
543.164937,-444.123565,-8660.409521,919.314598
543.165265,-592.164754,-9104.533087,306.438199
543.165592,-666.185348,-9104.533087,612.876398
543.165920,-444.123565,-9474.636058,766.095498
543.166247,-444.123565,-9252.574275,383.047749
543.166575,0.000000,-9696.697840,919.314598
543.166903,-222.061783,-9252.574275,689.485948
543.167230,-592.164754,-9400.615463,383.047749
543.167558,-592.164754,-9252.574275,383.047749
543.167885,-666.185348,-9030.512492,383.047749
543.168213,-296.082377,-8882.471304,612.876398
543.168541,-370.102971,-8808.450710,536.266849
543.168868,-592.164754,-9030.512492,612.876398
543.169196,-592.164754,-9104.533087,459.657299
543.169523,-592.164754,-8808.450710,383.047749
543.169851,-444.123565,-9030.512492,536.266849
543.170179,-444.123565,-8512.368333,229.828649
543.170506,-444.123565,-8734.430116,153.219100
543.170834,-370.102971,-8882.471304,536.266849
543.171161,-370.102971,-8956.491898,766.095498
543.171489,-222.061783,-8956.491898,612.876398
543.171817,-148.041188,-9178.553681,689.485948
543.172144,-222.061783,-8882.471304,536.266849
543.172472,0.000000,-9326.594869,612.876398
543.172799,-296.082377,-9104.533087,459.657299
543.173127,0.000000,-9178.553681,536.266849
543.173455,-296.082377,-8734.430116,919.314598
543.173782,-444.123565,-8734.430116,459.657299
543.174110,-370.102971,-8734.430116,306.438199
543.174438,-370.102971,-8808.450710,383.047749
543.174765,-518.144159,-8512.368333,459.657299
543.175093,-296.082377,-8364.327145,612.876398
543.175420,-444.123565,-8660.409521,459.657299
543.175748,-518.144159,-8734.430116,459.657299
543.176076,-222.061783,-8660.409521,459.657299
543.176403,-222.061783,-8882.471304,612.876398
543.176731,0.000000,-8882.471304,383.047749
543.177059,148.041188,-9252.574275,229.828649
543.177386,0.000000,-9474.636058,919.314598
543.177714,0.000000,-9252.574275,689.485948
543.178041,148.041188,-9252.574275,612.876398
543.178369,0.000000,-9400.615463,689.485948
543.178697,74.020594,-9252.574275,612.876398
543.179024,0.000000,-9178.553681,612.876398
543.179352,-222.061783,-9326.594869,689.485948
543.179680,-148.041188,-9030.512492,536.266849
543.180007,-222.061783,-9104.533087,383.047749
543.180335,0.000000,-8882.471304,459.657299
543.180662,0.000000,-8882.471304,612.876398
543.180990,0.000000,-9178.553681,536.266849
543.181318,-148.041188,-9326.594869,612.876398
543.181645,0.000000,-9326.594869,459.657299
543.181973,0.000000,-9548.656652,1302.362347
543.182301,0.000000,-9178.553681,612.876398
543.182628,0.000000,-9474.636058,689.485948
543.182956,0.000000,-9548.656652,612.876398
543.183283,-148.041188,-9622.677246,536.266849
543.183611,-222.061783,-9474.636058,612.876398
543.183939,148.041188,-9474.636058,919.314598
543.184266,0.000000,-9474.636058,612.876398
543.184594,-222.061783,-9326.594869,459.657299
543.184922,-296.082377,-9252.574275,612.876398
543.185249,-222.061783,-9252.574275,536.266849
543.185577,-148.041188,-9104.533087,536.266849
543.185904,-222.061783,-9252.574275,536.266849
543.186232,-444.123565,-9400.615463,229.828649
543.186560,-296.082377,-9400.615463,459.657299
543.186887,-444.123565,-9400.615463,306.438199
543.187215,-148.041188,-8956.491898,1378.971896
543.187543,148.041188,-8956.491898,306.438199
543.187870,0.000000,-9178.553681,612.876398
543.188198,0.000000,-9326.594869,536.266849
543.188525,-296.082377,-9178.553681,383.047749
543.188853,-370.102971,-8660.409521,383.047749
543.189181,-296.082377,-8956.491898,536.266849
543.189508,-296.082377,-9178.553681,383.047749
543.189836,-444.123565,-9400.615463,383.047749
543.190164,-370.102971,-8956.491898,383.047749
543.190491,-296.082377,-8956.491898,612.876398
543.190819,-444.123565,-9252.574275,842.705048
543.191146,-592.164754,-8956.491898,306.438199
543.191474,-444.123565,-8660.409521,459.657299
543.191802,-518.144159,-8586.388927,459.657299
543.192129,-518.144159,-8956.491898,459.657299
543.192457,-370.102971,-9252.574275,612.876398
543.192784,-740.205942,-8660.409521,995.924147
543.193112,-444.123565,-8660.409521,766.095498
543.193440,-518.144159,-8882.471304,689.485948
543.193767,-666.185348,-8808.450710,766.095498
543.194095,-592.164754,-8734.430116,459.657299
543.194423,-370.102971,-8512.368333,842.705048
543.194750,-666.185348,-8734.430116,612.876398
543.195078,-444.123565,-8808.450710,536.266849
543.195405,-518.144159,-8808.450710,536.266849
543.195733,-148.041188,-8586.388927,995.924147
543.196061,-592.164754,-8364.327145,919.314598
543.196388,-370.102971,-8734.430116,383.047749
543.196716,-592.164754,-8882.471304,612.876398
543.197044,-370.102971,-8808.450710,536.266849
543.197371,-444.123565,-8660.409521,306.438199
543.197699,-222.061783,-9030.512492,459.657299
543.198026,-296.082377,-8956.491898,536.266849
543.198354,-370.102971,-9104.533087,612.876398
543.198682,-222.061783,-9178.553681,459.657299
543.199009,-296.082377,-9326.594869,612.876398
543.199337,0.000000,-9178.553681,689.485948
543.199665,-296.082377,-9252.574275,612.876398
543.199992,0.000000,-9400.615463,459.657299
543.200320,-222.061783,-9178.553681,612.876398
543.200647,-296.082377,-9252.574275,383.047749
543.200975,-444.123565,-9474.636058,689.485948
543.201303,-370.102971,-9030.512492,459.657299
543.201630,-296.082377,-9326.594869,536.266849
543.201958,-370.102971,-9252.574275,536.266849
543.202286,-296.082377,-9400.615463,459.657299
543.202613,-222.061783,-9474.636058,459.657299
543.202941,-222.061783,-8882.471304,383.047749
543.203268,-370.102971,-8882.471304,459.657299
543.203596,-370.102971,-9252.574275,459.657299
543.203924,-370.102971,-9474.636058,612.876398
543.204251,-148.041188,-9326.594869,766.095498
543.204579,0.000000,-9030.512492,995.924147
543.204907,0.000000,-9252.574275,1149.143247
543.205234,-148.041188,-9474.636058,766.095498
543.205562,-518.144159,-9400.615463,689.485948
543.205889,-296.082377,-9252.574275,459.657299
543.206217,0.000000,-9104.533087,766.095498
543.206545,-296.082377,-9030.512492,76.609550
543.206872,-296.082377,-9252.574275,766.095498
543.207200,-296.082377,-9104.533087,536.266849
543.207528,-222.061783,-9104.533087,612.876398
543.207855,-814.226536,-9104.533087,612.876398
543.208183,0.000000,-9030.512492,76.609550
543.208510,0.000000,-9326.594869,306.438199
543.208838,0.000000,-9178.553681,459.657299
543.209166,0.000000,-9104.533087,536.266849
543.209493,0.000000,-9400.615463,612.876398
543.209821,370.102971,-9252.574275,842.705048
543.210149,0.000000,-9104.533087,459.657299
543.210476,0.000000,-9326.594869,536.266849
543.210804,0.000000,-9252.574275,306.438199
543.211131,0.000000,-9178.553681,536.266849
543.211459,0.000000,-8808.450710,536.266849
543.211787,74.020594,-8882.471304,536.266849
543.212114,0.000000,-9104.533087,383.047749
543.212442,0.000000,-9030.512492,306.438199
543.212770,-296.082377,-8882.471304,306.438199
543.213097,-296.082377,-8660.409521,383.047749
543.213425,0.000000,-8882.471304,306.438199
543.213752,-222.061783,-8956.491898,536.266849
543.214080,0.000000,-9178.553681,612.876398
543.214408,-222.061783,-9178.553681,536.266849
543.214735,-148.041188,-9178.553681,1072.533697
543.215063,0.000000,-9178.553681,459.657299
543.215391,0.000000,-9252.574275,536.266849
543.215718,-222.061783,-9474.636058,919.314598
543.216046,-518.144159,-9252.574275,995.924147
543.216373,-370.102971,-9326.594869,689.485948
543.216701,0.000000,-9548.656652,536.266849
543.217029,-518.144159,-9030.512492,689.485948
543.217356,-518.144159,-9030.512492,766.095498
543.217684,-592.164754,-9104.533087,536.266849
543.218012,-222.061783,-9104.533087,612.876398
543.218339,-444.123565,-8586.388927,306.438199
543.218667,-444.123565,-8882.471304,1149.143247
543.218994,-370.102971,-8956.491898,459.657299
543.219322,-370.102971,-9326.594869,306.438199
543.219650,-592.164754,-9326.594869,536.266849
543.219977,0.000000,-9400.615463,842.705048
543.220305,-148.041188,-9326.594869,536.266849
543.220633,-148.041188,-9326.594869,766.095498
543.220960,0.000000,-9474.636058,306.438199
543.221288,0.000000,-9252.574275,459.657299
543.221615,0.000000,-9178.553681,995.924147
543.221943,-222.061783,-8956.491898,689.485948
543.222271,-222.061783,-9104.533087,153.219100
543.222598,-518.144159,-9178.553681,536.266849
543.222926,-518.144159,-9104.533087,306.438199
543.223254,-518.144159,-9178.553681,306.438199
543.223581,0.000000,-9474.636058,612.876398
543.223909,-222.061783,-9104.533087,383.047749
543.224236,-222.061783,-9178.553681,306.438199
543.224564,-370.102971,-9030.512492,536.266849
543.224892,-222.061783,-8882.471304,459.657299
543.225219,0.000000,-8882.471304,459.657299
543.225547,0.000000,-8660.409521,383.047749
543.225875,-222.061783,-9104.533087,689.485948
543.226202,-370.102971,-9030.512492,459.657299
543.226530,-444.123565,-9104.533087,536.266849
543.226857,-444.123565,-8734.430116,842.705048
543.227185,-222.061783,-8882.471304,689.485948
543.227513,-370.102971,-9030.512492,383.047749
543.227840,-296.082377,-9104.533087,459.657299
543.228168,-444.123565,-8660.409521,612.876398
543.228496,-444.123565,-8660.409521,612.876398
543.228823,-444.123565,-8660.409521,919.314598
543.229151,-370.102971,-8660.409521,459.657299
543.229478,-444.123565,-8734.430116,689.485948
543.229806,-370.102971,-8808.450710,842.705048
543.230134,-296.082377,-8882.471304,689.485948
543.230461,0.000000,-9104.533087,842.705048
543.230789,-296.082377,-9104.533087,766.095498
543.231117,0.000000,-8660.409521,536.266849
543.231444,0.000000,-8956.491898,459.657299
543.231772,-222.061783,-9104.533087,766.095498
543.232099,-444.123565,-8956.491898,995.924147
543.232427,0.000000,-9030.512492,459.657299
543.232755,-222.061783,-9104.533087,612.876398
543.233082,-518.144159,-9104.533087,536.266849
543.233410,-444.123565,-9400.615463,459.657299
543.233738,-444.123565,-9252.574275,153.219100
543.234065,-296.082377,-8438.347739,995.924147
543.234393,0.000000,-9104.533087,306.438199
543.234720,-148.041188,-9326.594869,536.266849
543.235048,-296.082377,-9178.553681,383.047749
543.235376,-222.061783,-9400.615463,689.485948
543.235703,0.000000,-9104.533087,689.485948
543.236031,-222.061783,-9474.636058,612.876398
543.236359,-222.061783,-9474.636058,459.657299
543.236686,0.000000,-9474.636058,536.266849
543.237014,0.000000,-9548.656652,689.485948
543.237341,0.000000,-9474.636058,459.657299
543.237669,-148.041188,-9474.636058,536.266849
543.237997,-370.102971,-9474.636058,306.438199
543.238324,-296.082377,-9474.636058,612.876398
543.238652,-222.061783,-9400.615463,689.485948
543.238980,0.000000,-9400.615463,0.000000
543.239307,0.000000,-8734.430116,536.266849
543.239635,0.000000,-9178.553681,689.485948
543.239962,-148.041188,-9252.574275,306.438199
543.240290,-222.061783,-9400.615463,383.047749
543.240618,-296.082377,-9326.594869,229.828649
543.240945,148.041188,-9252.574275,612.876398
543.241273,-148.041188,-9400.615463,766.095498
543.241600,-148.041188,-9400.615463,842.705048
543.241928,0.000000,-9474.636058,536.266849
543.242256,0.000000,-9326.594869,689.485948
543.242583,-222.061783,-8882.471304,842.705048
543.242911,-370.102971,-8956.491898,306.438199
543.243239,-148.041188,-9030.512492,459.657299
543.243566,-296.082377,-9104.533087,536.266849
543.243894,-444.123565,-8956.491898,459.657299
543.244221,-296.082377,-9104.533087,766.095498
543.244549,0.000000,-9030.512492,919.314598
543.244877,-148.041188,-9030.512492,383.047749
543.245204,-296.082377,-8808.450710,612.876398
543.245532,-148.041188,-8956.491898,536.266849
543.245860,0.000000,-8586.388927,689.485948
543.246187,0.000000,-8586.388927,0.000000
543.246515,-148.041188,-8882.471304,612.876398
543.246842,-296.082377,-9178.553681,536.266849
543.247170,-222.061783,-9178.553681,536.266849
543.247498,-370.102971,-8882.471304,612.876398
543.247825,74.020594,-8956.491898,766.095498
543.248153,-148.041188,-9178.553681,536.266849
543.248481,0.000000,-9178.553681,612.876398
543.248808,-222.061783,-9030.512492,383.047749
543.249136,-148.041188,-8882.471304,383.047749
543.249463,-222.061783,-8660.409521,612.876398
543.249791,-370.102971,-9030.512492,459.657299
543.250119,-444.123565,-9104.533087,383.047749
543.250446,-370.102971,-9178.553681,536.266849
543.250774,-370.102971,-9030.512492,459.657299
543.251102,-296.082377,-8512.368333,0.000000
543.251429,-296.082377,-8808.450710,153.219100
543.251757,-148.041188,-8808.450710,536.266849
543.252084,-444.123565,-8882.471304,612.876398
543.252412,-444.123565,-8956.491898,689.485948
543.252740,-518.144159,-9474.636058,459.657299
543.253067,-518.144159,-9030.512492,995.924147
543.253395,-518.144159,-9104.533087,842.705048
543.253723,-592.164754,-9252.574275,536.266849
543.254050,-444.123565,-9326.594869,689.485948
543.254378,-666.185348,-8808.450710,459.657299
543.254705,-592.164754,-9178.553681,1455.581446
543.255033,-518.144159,-8882.471304,459.657299
543.255361,-666.185348,-8956.491898,766.095498
543.255688,-740.205942,-8882.471304,842.705048
543.256016,-814.226536,-9104.533087,766.095498
543.256344,-1110.308913,-8882.471304,842.705048
543.256671,-888.247130,-9178.553681,612.876398
543.256999,-444.123565,-8734.430116,766.095498
543.257326,-592.164754,-8956.491898,689.485948
543.257654,-518.144159,-8956.491898,612.876398
543.257982,-296.082377,-8808.450710,1072.533697
543.258309,-222.061783,-9030.512492,536.266849
543.258637,-296.082377,-9030.512492,766.095498
543.258965,-296.082377,-9178.553681,766.095498
543.259292,-222.061783,-9400.615463,766.095498
543.259620,-148.041188,-9326.594869,612.876398
543.259947,148.041188,-9030.512492,306.438199
543.260275,0.000000,-9104.533087,76.609550
543.260603,-370.102971,-9178.553681,459.657299
543.260930,0.000000,-9400.615463,383.047749
543.261258,-148.041188,-9030.512492,459.657299
543.261586,222.061783,-9030.512492,76.609550
543.261913,-148.041188,-9178.553681,612.876398
543.262241,0.000000,-9326.594869,76.609550
543.262568,0.000000,-9252.574275,153.219100
543.262896,0.000000,-8956.491898,383.047749
543.263224,370.102971,-8734.430116,0.000000
543.263551,0.000000,-9030.512492,459.657299
543.263879,0.000000,-9178.553681,459.657299
543.264207,74.020594,-9326.594869,536.266849
543.264534,0.000000,-9030.512492,459.657299
543.264862,-444.123565,-8734.430116,919.314598
543.265189,0.000000,-9474.636058,383.047749
543.265517,-296.082377,-9252.574275,766.095498
543.265845,-296.082377,-9104.533087,689.485948
543.266172,0.000000,-8808.450710,306.438199
543.266500,148.041188,-8586.388927,536.266849
543.266828,74.020594,-8734.430116,229.828649
543.267155,-370.102971,-9030.512492,536.266849
543.267483,-370.102971,-8956.491898,383.047749
543.267810,-296.082377,-9178.553681,536.266849
543.268138,-296.082377,-9400.615463,766.095498
543.268466,0.000000,-9400.615463,919.314598
543.268793,0.000000,-9030.512492,383.047749
543.269121,0.000000,-9326.594869,612.876398
543.269449,0.000000,-9326.594869,612.876398
543.269776,-222.061783,-9178.553681,919.314598
543.270104,148.041188,-9252.574275,459.657299
543.270431,0.000000,-9400.615463,766.095498
543.270759,-370.102971,-9400.615463,536.266849
543.271087,-296.082377,-9474.636058,536.266849
543.271414,-370.102971,-9104.533087,612.876398
543.271742,-222.061783,-8660.409521,459.657299
543.272070,0.000000,-9030.512492,612.876398
543.272397,-296.082377,-9104.533087,306.438199
543.272725,0.000000,-9178.553681,229.828649
543.273052,-370.102971,-9104.533087,306.438199
543.273380,-222.061783,-8956.491898,306.438199
543.273707,-370.102971,-9326.594869,1149.143247
543.274035,0.000000,-9400.615463,612.876398
543.274363,-444.123565,-9178.553681,766.095498
543.274690,-370.102971,-9326.594869,612.876398
543.275018,-296.082377,-9474.636058,383.047749
543.275345,-296.082377,-9178.553681,612.876398
543.275673,-148.041188,-9326.594869,766.095498
543.276000,-370.102971,-9178.553681,842.705048
543.276328,-518.144159,-9252.574275,919.314598
543.276655,-666.185348,-9104.533087,766.095498
543.276983,-518.144159,-9474.636058,536.266849
543.277311,-666.185348,-9030.512492,383.047749
543.277638,-518.144159,-8956.491898,689.485948
543.277966,-222.061783,-9030.512492,536.266849
543.278293,-370.102971,-8808.450710,536.266849
543.278621,-370.102971,-8660.409521,306.438199
543.278948,-370.102971,-8808.450710,1072.533697
543.279276,-444.123565,-9030.512492,459.657299
543.279604,-296.082377,-9252.574275,612.876398
543.279931,-222.061783,-9252.574275,612.876398
543.280259,-370.102971,-9104.533087,383.047749
543.280586,-222.061783,-8660.409521,689.485948
543.280914,0.000000,-9030.512492,536.266849
543.281241,-296.082377,-9030.512492,383.047749
543.281569,0.000000,-9178.553681,153.219100
543.281897,-148.041188,-9030.512492,383.047749
543.282224,-370.102971,-8586.388927,689.485948
543.282552,-296.082377,-8882.471304,383.047749
543.282879,-296.082377,-9030.512492,306.438199
543.283207,-222.061783,-8882.471304,383.047749
543.283534,-148.041188,-8956.491898,76.609550
543.283862,74.020594,-8660.409521,153.219100
543.284189,0.000000,-8882.471304,229.828649
543.284517,-222.061783,-8956.491898,383.047749
543.284845,-518.144159,-8660.409521,689.485948
543.285172,-148.041188,-9030.512492,612.876398
543.285500,0.000000,-8956.491898,766.095498
543.285827,0.000000,-9104.533087,536.266849
543.286155,-444.123565,-9252.574275,612.876398
543.286482,-666.185348,-9252.574275,612.876398
543.286810,-370.102971,-9326.594869,842.705048
543.287138,-518.144159,-8808.450710,306.438199
543.287465,-222.061783,-8882.471304,383.047749
543.287793,-444.123565,-8734.430116,612.876398
543.288120,-592.164754,-9030.512492,612.876398
543.288448,-518.144159,-8956.491898,612.876398
543.288775,-740.205942,-8956.491898,689.485948
543.289103,-666.185348,-8364.327145,306.438199
543.289430,-370.102971,-9104.533087,612.876398
543.289758,-444.123565,-9104.533087,536.266849
543.290086,-148.041188,-9326.594869,459.657299
543.290413,0.000000,-9326.594869,612.876398
543.290741,0.000000,-8882.471304,1072.533697
543.291068,0.000000,-9178.553681,229.828649
543.291396,0.000000,-9326.594869,689.485948
543.291723,0.000000,-9474.636058,459.657299
543.292051,0.000000,-9400.615463,459.657299
543.292379,0.000000,-9474.636058,842.705048
543.292706,148.041188,-9326.594869,306.438199
543.293034,74.020594,-9474.636058,459.657299
543.293361,0.000000,-9326.594869,536.266849
543.293689,0.000000,-9252.574275,383.047749
543.294016,0.000000,-9252.574275,383.047749
543.294344,0.000000,-9326.594869,383.047749
543.294672,0.000000,-9178.553681,306.438199
543.294999,-148.041188,-9474.636058,612.876398
543.295327,0.000000,-9474.636058,536.266849
543.295654,-296.082377,-9326.594869,536.266849
543.295982,0.000000,-9104.533087,1072.533697
543.296309,-74.020594,-9104.533087,612.876398
543.296637,0.000000,-9326.594869,689.485948
543.296964,-222.061783,-9252.574275,306.438199
543.297292,-518.144159,-9400.615463,612.876398
543.297620,-740.205942,-9104.533087,1072.533697
543.297947,-888.247130,-9252.574275,459.657299
543.298275,-666.185348,-9178.553681,689.485948
543.298602,-592.164754,-9030.512492,842.705048
543.298930,-222.061783,-8956.491898,842.705048
543.299257,-370.102971,-8882.471304,766.095498
543.299585,-296.082377,-8734.430116,995.924147
543.299913,-444.123565,-9030.512492,689.485948
543.300240,-370.102971,-8882.471304,766.095498
543.300568,-370.102971,-9030.512492,919.314598
543.300895,-296.082377,-9178.553681,995.924147
543.301223,0.000000,-9104.533087,842.705048
543.301550,296.082377,-9400.615463,766.095498
543.301878,0.000000,-8956.491898,689.485948
543.302205,0.000000,-8956.491898,536.266849
543.302533,0.000000,-9030.512492,766.095498
543.302861,296.082377,-9178.553681,536.266849
543.303188,0.000000,-9326.594869,306.438199
543.303516,-222.061783,-9104.533087,306.438199
543.303843,-296.082377,-9030.512492,536.266849
543.304171,0.000000,-8956.491898,383.047749
543.304498,0.000000,-8882.471304,229.828649
543.304826,0.000000,-8438.347739,229.828649
543.305154,0.000000,-8808.450710,153.219100
543.305481,0.000000,-8808.450710,153.219100
543.305809,-222.061783,-8956.491898,229.828649
543.306136,0.000000,-8956.491898,0.000000
543.306464,-148.041188,-9252.574275,306.438199
543.306791,-148.041188,-9400.615463,383.047749
543.307119,0.000000,-9400.615463,689.485948
543.307446,-222.061783,-9400.615463,612.876398
543.307774,-222.061783,-9252.574275,689.485948
543.308102,-296.082377,-8438.347739,766.095498
543.308429,-370.102971,-8956.491898,459.657299
543.308757,-740.205942,-9030.512492,766.095498
543.309084,-666.185348,-9030.512492,842.705048
543.309412,-814.226536,-9030.512492,766.095498
543.309739,-1036.288319,-8956.491898,766.095498
543.310067,-740.205942,-9104.533087,459.657299
543.310395,-814.226536,-8882.471304,689.485948
543.310722,-592.164754,-8660.409521,459.657299
543.311050,-444.123565,-8586.388927,766.095498
543.311377,-740.205942,-8660.409521,689.485948
543.311705,-222.061783,-9178.553681,766.095498
543.312032,-518.144159,-9400.615463,766.095498
543.312360,-518.144159,-9252.574275,766.095498
543.312688,-592.164754,-9252.574275,995.924147
543.313015,-148.041188,-8956.491898,766.095498
543.313343,-148.041188,-9030.512492,689.485948
543.313670,-296.082377,-8882.471304,919.314598
543.313998,0.000000,-9030.512492,459.657299
543.314325,-296.082377,-8956.491898,536.266849
543.314653,-444.123565,-8882.471304,306.438199
543.314980,0.000000,-8808.450710,383.047749
543.315308,-296.082377,-9104.533087,459.657299
543.315636,-148.041188,-9104.533087,306.438199
543.315963,-296.082377,-9104.533087,459.657299
543.316291,-296.082377,-9030.512492,383.047749
543.316618,-444.123565,-8808.450710,536.266849
543.316946,-222.061783,-9252.574275,229.828649
543.317273,0.000000,-9326.594869,0.000000
543.317601,0.000000,-9474.636058,229.828649
543.317929,0.000000,-9400.615463,612.876398
543.318256,0.000000,-9178.553681,459.657299
543.318584,148.041188,-9474.636058,153.219100
543.318911,-222.061783,-9474.636058,383.047749
543.319239,0.000000,-9252.574275,229.828649
543.319566,-444.123565,-8882.471304,153.219100
543.319894,-370.102971,-8660.409521,383.047749
543.320221,-148.041188,-8660.409521,76.609550
543.320549,-296.082377,-9030.512492,459.657299
543.320877,-296.082377,-9252.574275,383.047749
543.321204,-296.082377,-8882.471304,689.485948
543.321532,-592.164754,-8882.471304,612.876398
543.321859,0.000000,-8882.471304,995.924147
543.322187,-444.123565,-9178.553681,612.876398
543.322514,-296.082377,-8882.471304,842.705048
543.322842,-148.041188,-9030.512492,536.266849
543.323170,-370.102971,-9252.574275,766.095498
543.323497,0.000000,-9104.533087,1225.752797
543.323825,-370.102971,-9474.636058,919.314598
543.324152,0.000000,-9400.615463,766.095498
543.324480,-222.061783,-9252.574275,612.876398
543.324807,-296.082377,-9104.533087,612.876398
543.325135,0.000000,-9030.512492,766.095498
543.325463,0.000000,-8956.491898,153.219100
543.325790,0.000000,-8956.491898,76.609550
543.326118,-222.061783,-9104.533087,459.657299
543.326445,0.000000,-9252.574275,383.047749
543.326773,-222.061783,-9178.553681,536.266849
543.327100,0.000000,-8808.450710,612.876398
543.327428,0.000000,-9104.533087,306.438199
543.327755,0.000000,-9178.553681,383.047749
543.328083,0.000000,-9178.553681,459.657299
543.328411,0.000000,-9252.574275,536.266849
543.328738,-370.102971,-9104.533087,536.266849
543.329066,0.000000,-9030.512492,842.705048
543.329393,0.000000,-9252.574275,536.266849
543.329721,-148.041188,-9474.636058,612.876398
543.330048,-370.102971,-9400.615463,612.876398
543.330376,0.000000,-9400.615463,842.705048
543.330704,-296.082377,-8956.491898,536.266849
543.331031,-444.123565,-9104.533087,689.485948
543.331359,-518.144159,-9030.512492,536.266849
543.331686,-518.144159,-8956.491898,689.485948
543.332014,-444.123565,-8956.491898,536.266849
543.332341,-296.082377,-9030.512492,612.876398
543.332669,-592.164754,-8956.491898,842.705048
543.332996,-592.164754,-9178.553681,995.924147
543.333324,-592.164754,-9252.574275,612.876398
543.333652,-296.082377,-9178.553681,536.266849
543.333979,-148.041188,-8956.491898,1608.800546
543.334307,-444.123565,-8956.491898,842.705048
543.334634,-296.082377,-9030.512492,689.485948
543.334962,-370.102971,-9104.533087,306.438199
543.335289,-444.123565,-9104.533087,383.047749
543.335617,-740.205942,-8808.450710,842.705048
543.335945,-444.123565,-8956.491898,459.657299
543.336272,-518.144159,-9178.553681,689.485948
543.336600,-222.061783,-9178.553681,306.438199
543.336927,0.000000,-9104.533087,459.657299
543.337255,-222.061783,-8586.388927,612.876398
543.337582,-222.061783,-8734.430116,229.828649
543.337910,-296.082377,-9178.553681,459.657299
543.338237,-148.041188,-9178.553681,229.828649
543.338565,0.000000,-9252.574275,306.438199
543.338893,0.000000,-8882.471304,612.876398
543.339220,0.000000,-9326.594869,612.876398
543.339548,-148.041188,-9252.574275,383.047749
543.339875,0.000000,-9104.533087,459.657299
543.340203,-148.041188,-8956.491898,383.047749
543.340530,-296.082377,-8956.491898,383.047749
543.340858,-444.123565,-8808.450710,153.219100
543.341186,-370.102971,-8882.471304,459.657299
543.341513,-148.041188,-8956.491898,459.657299
543.341841,-296.082377,-9030.512492,459.657299
543.342168,-518.144159,-8956.491898,612.876398
543.342496,-518.144159,-8438.347739,612.876398
543.342823,-444.123565,-8734.430116,536.266849
543.343151,-444.123565,-8734.430116,536.266849
543.343479,-518.144159,-9030.512492,383.047749
543.343806,-518.144159,-9178.553681,612.876398
543.344134,-296.082377,-9178.553681,1149.143247
543.344461,-222.061783,-9178.553681,459.657299
543.344789,-444.123565,-9252.574275,842.705048
543.345116,-222.061783,-9326.594869,612.876398
543.345444,-370.102971,-9252.574275,612.876398
543.345771,-296.082377,-9030.512492,842.705048
543.346099,-296.082377,-8734.430116,842.705048
543.346427,0.000000,-8956.491898,536.266849
543.346754,-518.144159,-9326.594869,612.876398
543.347082,-444.123565,-9400.615463,536.266849
543.347409,-592.164754,-9104.533087,689.485948
543.347737,-518.144159,-8956.491898,-306.438199
543.348064,-370.102971,-9252.574275,459.657299
543.348392,0.000000,-9178.553681,229.828649
543.348720,-370.102971,-8882.471304,612.876398
543.349047,0.000000,-8808.450710,383.047749
543.349375,444.123565,-9400.615463,536.266849
543.349702,0.000000,-9400.615463,612.876398
543.350030,-444.123565,-9548.656652,612.876398
543.350357,0.000000,-9548.656652,612.876398
543.350685,-222.061783,-9622.677246,612.876398
543.351012,0.000000,-9918.759623,1149.143247
543.351340,0.000000,-9400.615463,536.266849
543.351668,-222.061783,-9326.594869,536.266849
543.351995,-148.041188,-9400.615463,612.876398
543.352323,-296.082377,-9252.574275,536.266849
543.352650,-444.123565,-9178.553681,459.657299
543.352978,-222.061783,-8808.450710,383.047749
543.353305,-370.102971,-8882.471304,536.266849
543.353633,0.000000,-9104.533087,612.876398
543.353961,-370.102971,-8956.491898,689.485948
543.354288,-296.082377,-8808.450710,689.485948
543.354616,0.000000,-8808.450710,306.438199
543.354943,-444.123565,-9030.512492,229.828649
543.355271,0.000000,-9252.574275,612.876398
543.355598,0.000000,-9104.533087,536.266849
543.355926,-148.041188,-9252.574275,612.876398
543.356254,74.020594,-9178.553681,919.314598
543.356581,0.000000,-9400.615463,459.657299
543.356909,-148.041188,-9252.574275,459.657299
543.357236,-222.061783,-9030.512492,459.657299
543.357564,-222.061783,-9104.533087,229.828649
543.357891,0.000000,-8956.491898,459.657299
543.358219,-296.082377,-9104.533087,842.705048
543.358546,0.000000,-8882.471304,383.047749
543.358874,-222.061783,-8882.471304,612.876398
543.359202,-296.082377,-8882.471304,459.657299
543.359529,0.000000,-9474.636058,383.047749
543.359857,0.000000,-9178.553681,76.609550
543.360184,-148.041188,-8956.491898,536.266849
543.360512,-296.082377,-8956.491898,612.876398
543.360839,-222.061783,-9104.533087,612.876398
543.361167,-370.102971,-9178.553681,459.657299
543.361495,0.000000,-9252.574275,689.485948
543.361822,-592.164754,-8882.471304,536.266849
543.362150,-444.123565,-9104.533087,459.657299
543.362477,-370.102971,-9252.574275,536.266849
543.362805,-296.082377,-9178.553681,612.876398
543.363132,-148.041188,-8808.450710,995.924147
543.363460,-370.102971,-8882.471304,306.438199
543.363787,-444.123565,-9178.553681,766.095498
543.364115,-666.185348,-9030.512492,536.266849
543.364443,-592.164754,-9326.594869,536.266849
543.364770,-222.061783,-8808.450710,459.657299
543.365098,-370.102971,-8882.471304,842.705048
543.365425,-592.164754,-8956.491898,612.876398
543.365753,-518.144159,-9104.533087,536.266849
543.366080,-222.061783,-9326.594869,689.485948
543.366408,-222.061783,-8882.471304,689.485948
543.366736,0.000000,-9104.533087,995.924147
543.367063,-296.082377,-9252.574275,766.095498
543.367391,74.020594,-9252.574275,383.047749
543.367718,-148.041188,-9104.533087,536.266849
543.368046,-148.041188,-9252.574275,383.047749
543.368373,-370.102971,-8956.491898,153.219100
543.368701,-148.041188,-9252.574275,383.047749
543.369028,-296.082377,-9326.594869,383.047749
543.369356,0.000000,-9178.553681,383.047749
543.369684,74.020594,-8882.471304,229.828649
543.370011,74.020594,-9030.512492,306.438199
543.370339,-148.041188,-8734.430116,153.219100
543.370666,-148.041188,-9252.574275,76.609550
543.370994,-370.102971,-9326.594869,612.876398
543.371322,-296.082377,-9326.594869,459.657299
543.371649,-222.061783,-9104.533087,229.828649
543.371977,0.000000,-9030.512492,536.266849
543.372304,-222.061783,-9252.574275,536.266849
543.372632,-296.082377,-9252.574275,612.876398
543.372960,-296.082377,-9030.512492,536.266849
543.373287,-296.082377,-8882.471304,536.266849
543.373615,-592.164754,-9030.512492,919.314598
543.373942,-444.123565,-8882.471304,612.876398
543.374270,-592.164754,-9178.553681,842.705048
543.374598,-444.123565,-8808.450710,766.095498
543.374925,-296.082377,-9104.533087,842.705048
543.375253,-370.102971,-9030.512492,766.095498
543.375580,-444.123565,-9178.553681,995.924147
543.375908,-444.123565,-9104.533087,459.657299
543.376236,-444.123565,-9030.512492,766.095498
543.376563,-518.144159,-9178.553681,536.266849
543.376891,-222.061783,-9548.656652,689.485948
543.377218,-370.102971,-9400.615463,1072.533697
543.377546,-296.082377,-9474.636058,842.705048
543.377874,-222.061783,-9474.636058,766.095498
543.378201,-444.123565,-9326.594869,612.876398
543.378529,-444.123565,-8956.491898,995.924147
543.378856,-296.082377,-9030.512492,689.485948
543.379184,-296.082377,-9030.512492,229.828649
543.379512,-148.041188,-8956.491898,383.047749
543.379839,-296.082377,-9252.574275,306.438199
543.380167,-370.102971,-9326.594869,383.047749
543.380494,-296.082377,-9178.553681,459.657299
543.380822,-296.082377,-8882.471304,383.047749
543.381150,0.000000,-9030.512492,153.219100
543.381477,0.000000,-9178.553681,383.047749
543.381805,0.000000,-9104.533087,229.828649
543.382132,0.000000,-8956.491898,536.266849
543.382460,74.020594,-9030.512492,306.438199
543.382788,-148.041188,-9326.594869,383.047749
543.383115,-148.041188,-9400.615463,459.657299
543.383443,0.000000,-9474.636058,306.438199
543.383770,222.061783,-8734.430116,229.828649
543.384098,-370.102971,-9104.533087,306.438199
543.384426,-222.061783,-9178.553681,536.266849
543.384753,-222.061783,-9104.533087,459.657299
543.385081,-296.082377,-8882.471304,536.266849
543.385408,-370.102971,-8956.491898,459.657299
543.385736,-592.164754,-8586.388927,995.924147
543.386064,-518.144159,-9030.512492,689.485948
543.386391,-444.123565,-8512.368333,612.876398
543.386719,-370.102971,-8808.450710,689.485948
543.387047,-370.102971,-8808.450710,689.485948
543.387374,-296.082377,-8734.430116,766.095498
543.387702,-222.061783,-9030.512492,459.657299
543.388029,-370.102971,-8956.491898,689.485948
543.388357,-296.082377,-9030.512492,689.485948
543.388685,-148.041188,-9178.553681,689.485948
543.389012,148.041188,-9178.553681,689.485948
543.389340,-296.082377,-9030.512492,536.266849
543.389667,-370.102971,-9252.574275,842.705048
543.389995,0.000000,-9400.615463,689.485948
543.390323,-370.102971,-9104.533087,536.266849
543.390650,0.000000,-8808.450710,459.657299
543.390978,74.020594,-8882.471304,766.095498
543.391305,-222.061783,-9178.553681,536.266849
543.391633,-592.164754,-9178.553681,383.047749
543.391961,-370.102971,-9104.533087,459.657299
543.392288,-444.123565,-9030.512492,0.000000
543.392616,0.000000,-9252.574275,689.485948
543.392943,-148.041188,-9252.574275,383.047749
543.393271,0.000000,-9326.594869,689.485948
543.393599,0.000000,-9178.553681,383.047749
543.393926,0.000000,-9400.615463,459.657299
543.394254,148.041188,-9030.512492,842.705048
543.394581,-296.082377,-9252.574275,766.095498
543.394909,-444.123565,-9474.636058,459.657299
543.395237,-296.082377,-9030.512492,536.266849
543.395564,-370.102971,-8956.491898,306.438199
543.395892,-296.082377,-8882.471304,689.485948
543.396219,-74.020594,-9030.512492,306.438199
543.396547,-296.082377,-8956.491898,459.657299
543.396875,-296.082377,-8808.450710,153.219100
543.397202,-296.082377,-8956.491898,459.657299
543.397530,-666.185348,-8956.491898,153.219100
543.397857,-222.061783,-9104.533087,766.095498
543.398185,-222.061783,-9252.574275,689.485948
543.398513,0.000000,-9178.553681,689.485948
543.398840,0.000000,-9178.553681,536.266849
543.399168,-222.061783,-9400.615463,1225.752797
543.399495,0.000000,-9252.574275,995.924147
543.399823,-296.082377,-9104.533087,612.876398
543.400151,-518.144159,-9104.533087,383.047749
543.400478,-444.123565,-9178.553681,459.657299
543.400806,-370.102971,-9178.553681,536.266849
543.401133,74.020594,-9104.533087,536.266849
543.401461,-444.123565,-8956.491898,229.828649
543.401789,-444.123565,-9326.594869,459.657299
543.402116,-444.123565,-8956.491898,306.438199
543.402444,-370.102971,-9104.533087,229.828649
543.402772,0.000000,-8808.450710,0.000000
543.403099,-296.082377,-8882.471304,612.876398
543.403427,0.000000,-9252.574275,612.876398
543.403754,-222.061783,-9474.636058,536.266849
543.404082,-148.041188,-9252.574275,383.047749
543.404410,0.000000,-9400.615463,0.000000
543.404737,-444.123565,-9474.636058,689.485948
543.405065,74.020594,-9474.636058,612.876398
543.405392,0.000000,-9030.512492,383.047749
543.405720,0.000000,-9178.553681,459.657299
543.406048,0.000000,-9696.697840,842.705048
543.406375,-148.041188,-9252.574275,842.705048
543.406703,-296.082377,-9104.533087,536.266849
543.407030,-222.061783,-9104.533087,536.266849
543.407358,-296.082377,-9104.533087,536.266849
543.407686,0.000000,-9030.512492,459.657299
543.408013,74.020594,-8660.409521,689.485948
543.408341,0.000000,-9252.574275,459.657299
543.408668,-148.041188,-9474.636058,766.095498
543.408996,-518.144159,-9400.615463,766.095498
543.409324,-296.082377,-9326.594869,612.876398
543.409651,-444.123565,-9474.636058,1225.752797
543.409979,0.000000,-9400.615463,459.657299
543.410306,-296.082377,-9400.615463,766.095498
543.410634,-444.123565,-9178.553681,612.876398
543.410962,-296.082377,-9104.533087,612.876398
543.411289,-444.123565,-8660.409521,536.266849
543.411617,-296.082377,-8882.471304,919.314598
543.411944,-666.185348,-8734.430116,612.876398
543.412272,-370.102971,-8882.471304,459.657299
543.412600,-296.082377,-9030.512492,536.266849
543.412927,-444.123565,-8956.491898,612.876398
543.413255,-222.061783,-8734.430116,919.314598
543.413582,-592.164754,-8956.491898,689.485948
543.413910,-370.102971,-9030.512492,459.657299
543.414238,-444.123565,-9030.512492,459.657299
543.414565,0.000000,-8956.491898,536.266849
543.414893,222.061783,-9252.574275,1455.581446
543.415220,0.000000,-9326.594869,383.047749
543.415548,0.000000,-9474.636058,612.876398
543.415876,0.000000,-9178.553681,612.876398
543.416203,0.000000,-9030.512492,612.876398
543.416531,-296.082377,-8882.471304,1072.533697
543.416858,-222.061783,-9030.512492,842.705048
543.417186,-370.102971,-9252.574275,459.657299
543.417514,-222.061783,-8882.471304,689.485948
543.417841,-296.082377,-8882.471304,536.266849
543.418169,-444.123565,-9030.512492,0.000000
543.418496,-444.123565,-8882.471304,306.438199
543.418824,-370.102971,-8882.471304,229.828649
543.419152,-518.144159,-8808.450710,612.876398
543.419479,-148.041188,-8956.491898,766.095498
543.419807,0.000000,-8956.491898,689.485948
543.420135,518.144159,-8808.450710,1149.143247
543.420462,0.000000,-9030.512492,612.876398
543.420790,0.000000,-9326.594869,689.485948
543.421117,0.000000,-9252.574275,689.485948
543.421445,-148.041188,-9326.594869,612.876398
543.421773,0.000000,-9104.533087,689.485948
543.422100,0.000000,-9104.533087,612.876398
543.422428,-296.082377,-9326.594869,689.485948
543.422755,-444.123565,-9252.574275,459.657299
543.423083,-444.123565,-9030.512492,306.438199
543.423411,-666.185348,-8882.471304,689.485948
543.423738,0.000000,-9178.553681,459.657299
543.424066,0.000000,-9178.553681,689.485948
543.424393,0.000000,-8882.471304,306.438199
543.424721,0.000000,-9178.553681,306.438199
543.425049,0.000000,-8882.471304,76.609550
543.425376,0.000000,-9326.594869,306.438199
543.425704,-148.041188,-9252.574275,306.438199
543.426031,0.000000,-9474.636058,536.266849
543.426359,0.000000,-9400.615463,689.485948
543.426687,0.000000,-9400.615463,383.047749
543.427014,0.000000,-8956.491898,536.266849
543.427342,-148.041188,-9104.533087,612.876398
543.427669,0.000000,-9326.594869,459.657299
543.427997,-370.102971,-9252.574275,306.438199
543.428325,-222.061783,-9252.574275,383.047749
543.428652,-296.082377,-8956.491898,919.314598
543.428980,0.000000,-9252.574275,306.438199
543.429307,-444.123565,-9178.553681,612.876398
543.429635,-370.102971,-9178.553681,536.266849
543.429963,-592.164754,-9178.553681,536.266849
543.430290,-444.123565,-9252.574275,919.314598
543.430618,-296.082377,-9178.553681,766.095498
543.430945,-296.082377,-9252.574275,536.266849
543.431273,-148.041188,-9178.553681,689.485948
543.431601,-222.061783,-9178.553681,842.705048
543.431928,0.000000,-9474.636058,842.705048
543.432256,-518.144159,-8882.471304,995.924147
543.432583,-814.226536,-9178.553681,612.876398
543.432911,-592.164754,-9178.553681,536.266849
543.433239,-444.123565,-9178.553681,383.047749
543.433566,-222.061783,-8956.491898,689.485948
543.433894,-222.061783,-8438.347739,612.876398
543.434221,0.000000,-8808.450710,612.876398
543.434549,-666.185348,-8882.471304,306.438199
543.434877,-222.061783,-9030.512492,536.266849
543.435204,-666.185348,-9104.533087,229.828649
543.435532,-222.061783,-8956.491898,995.924147
543.435860,-370.102971,-9326.594869,383.047749
543.436187,-222.061783,-9252.574275,306.438199
543.436515,0.000000,-9178.553681,229.828649
543.436842,0.000000,-9030.512492,612.876398
543.437170,370.102971,-9104.533087,766.095498
543.437498,0.000000,-9252.574275,1149.143247
543.437825,0.000000,-9252.574275,612.876398
543.438153,0.000000,-9030.512492,536.266849
543.438480,-370.102971,-9104.533087,459.657299
543.438808,-148.041188,-9104.533087,995.924147
543.439136,-148.041188,-8808.450710,842.705048
543.439463,-148.041188,-8956.491898,689.485948
